count,storyText,locationEvent,socialEvent,locationEventSize,socialEventSize,instructText,trials.thisRepN,trials.thisTrialN,trials.thisN,trials.thisIndex,trials_7.thisRepN,trials_7.thisTrialN,trials_7.thisN,trials_7.thisIndex,trials_2.thisRepN,trials_2.thisTrialN,trials_2.thisN,trials_2.thisIndex,trials_3.thisRepN,trials_3.thisTrialN,trials_3.thisN,trials_3.thisIndex,trials_4.thisRepN,trials_4.thisTrialN,trials_4.thisN,trials_4.thisIndex,trials_5.thisRepN,trials_5.thisTrialN,trials_5.thisN,trials_5.thisIndex,order of stories,order of perspectives,key_resp_8.keys,key_resp_8.rt,key_resp_5.keys,key_resp_5.rt,key_resp_7.keys,key_resp_7.rt,story_presses.keys,story_presses.rt,story time,key_resp_6.keys,key_resp_6.rt,key_resp_2.keys,key_resp_2.rt,key_resp_10.keys,key_resp_10.rt,recall,recall time,key_resp_12.keys,key_resp_12.rt,key_resp_3.keys,key_resp_3.rt,participant,session,date,expName,psychopyVersion,frameRate,
0,,,,,,,0,0,0,0,0,0,0,0,,,,,,,,,,,,,,,,,[13 34 23 11 21 42 32 44],"['Location' 'Location' 'Social' 'Social' 'Location' 'Location' 'Social'
 'Social']",space,59.154658940002264,space,1.3364834300009534,space,2.2532272699972964,,,,,,,,,,,,,,,,030119_p2,001,2019_Mar_01_1348,body_behavioural,3.0.4,59.950479226356315,
0,,,,,,,0,0,0,0,1,0,1,0,,,,,,,,,,,,,,,,,,,,,,,space,0.619799341999169,,,,,,,,,,,,,,,,030119_p2,001,2019_Mar_01_1348,body_behavioural,3.0.4,59.950479226356315,
0,The grocery store was not the place Emmanuella and Liam wanted to be at the moment considering they had been fighting beforehand to the point where Emmanuella was thinking of breaking up with Liam.,1,1,,,,0,0,0,0,,,,,0,0,0,0,,,,,,,,,,,,,,,,,,,,,9,22.688291384998593,,,,,,,,,,,,,,030119_p2,001,2019_Mar_01_1348,body_behavioural,3.0.4,59.950479226356315,
0,"However, they had to go grocery shopping because they were hosting a dinner party for friends that evening and had no groceries. ",1,1,,,,0,0,0,0,,,,,0,1,1,1,,,,,,,,,,,,,,,,,,,,,1,14.97064263199718,,,,,,,,,,,,,,030119_p2,001,2019_Mar_01_1348,body_behavioural,3.0.4,59.950479226356315,
0,The grocery store was dimly lit and had dark wood paneling for all the shelves.,1,1,,,,0,0,0,0,,,,,0,2,2,2,,,,,,,,,,,,,,,,,,,,,9,8.5013655570001,,,,,,,,,,,,,,030119_p2,001,2019_Mar_01_1348,body_behavioural,3.0.4,59.950479226356315,
0,"The store specialized in organic produce and products catering to desires for high-end products, such as imported cheeses and sauces. ",1,1,,,,0,0,0,0,,,,,0,3,3,3,,,,,,,,,,,,,,,,,,,,,1,33.005313945002854,,,,,,,,,,,,,,030119_p2,001,2019_Mar_01_1348,body_behavioural,3.0.4,59.950479226356315,
0,"Emmanuella felt angry as she headed immediately for the pasta section, and Liam trailed behind her. ",2,1,,,,0,0,0,0,,,,,0,4,4,4,,,,,,,,,,,,,,,,,,,,,9,11.870179259996803,,,,,,,,,,,,,,030119_p2,001,2019_Mar_01_1348,body_behavioural,3.0.4,59.950479226356315,
0,Emmanuella selected a few boxes of linguine.,2,1,,,,0,0,0,0,,,,,0,5,5,5,,,,,,,,,,,,,,,,,,,,,1,4.5366275220003445,,,,,,,,,,,,,,030119_p2,001,2019_Mar_01_1348,body_behavioural,3.0.4,59.950479226356315,
0,"“I guess we are having pasta tonight,” Liam said.",2,1,,,,0,0,0,0,,,,,0,6,6,6,,,,,,,,,,,,,,,,,,,,,1,3.9033373650017893,,,,,,,,,,,,,,030119_p2,001,2019_Mar_01_1348,body_behavioural,3.0.4,59.950479226356315,
0,"Emmanuella looked back at him and said, “Well if you were going to actually help cook, I would be fine with something else.”",2,1,,,,0,0,0,0,,,,,0,7,7,7,,,,,,,,,,,,,,,,,,,,,1,8.920060315002047,,,,,,,,,,,,,,030119_p2,001,2019_Mar_01_1348,body_behavioural,3.0.4,59.950479226356315,
0,"Liam sighed, and finally said, “You don’t want me to help.",2,1,,,,0,0,0,0,,,,,0,8,8,8,,,,,,,,,,,,,,,,,,,,,1,5.269933087001846,,,,,,,,,,,,,,030119_p2,001,2019_Mar_01_1348,body_behavioural,3.0.4,59.950479226356315,
0,"I try to, but it seems like I always get in the way!” ",2,1,,,,0,0,0,0,,,,,0,9,9,9,,,,,,,,,,,,,,,,,,,,,1,4.703417471995635,,,,,,,,,,,,,,030119_p2,001,2019_Mar_01_1348,body_behavioural,3.0.4,59.950479226356315,
0,"Emmanuella angrily threw the pasta into the cart, losing her temper.",2,1,,,,0,0,0,0,,,,,0,10,10,10,,,,,,,,,,,,,,,,,,,,,1,4.303280447005818,,,,,,,,,,,,,,030119_p2,001,2019_Mar_01_1348,body_behavioural,3.0.4,59.950479226356315,
0," “Liam, you don’t even try!",2,1,,,,0,0,0,0,,,,,0,11,11,11,,,,,,,,,,,,,,,,,,,,,1,2.719763907000015,,,,,,,,,,,,,,030119_p2,001,2019_Mar_01_1348,body_behavioural,3.0.4,59.950479226356315,
0,You know what?,2,1,,,,0,0,0,0,,,,,0,12,12,12,,,,,,,,,,,,,,,,,,,,,1,2.4365889319960843,,,,,,,,,,,,,,030119_p2,001,2019_Mar_01_1348,body_behavioural,3.0.4,59.950479226356315,
0,I don’t think I can do this anymore. ,2,2,,,,0,0,0,0,,,,,0,13,13,13,,,,,,,,,,,,,,,,,,,,,1,5.770189240000036,,,,,,,,,,,,,,030119_p2,001,2019_Mar_01_1348,body_behavioural,3.0.4,59.950479226356315,
0,"I was going to wait until after this unfortunately-timed dinner party tonight to talk about this, but I might as well say it now: I don’t want to be in a relationship with you anymore.",2,2,,,,0,0,0,0,,,,,0,14,14,14,,,,,,,,,,,,,,,,,,,,,1,10.334694136996404,,,,,,,,,,,,,,030119_p2,001,2019_Mar_01_1348,body_behavioural,3.0.4,59.950479226356315,
0," I’m tired of the constant fighting, and I feel like when we try to do anything fun anymore it ends up unpleasant for the stupidest reasons, and I am just past  trying to work things out.”",2,2,,,,0,0,0,0,,,,,0,15,15,15,,,,,,,,,,,,,,,,,,,,,1,20.847891960002016,,,,,,,,,,,,,,030119_p2,001,2019_Mar_01_1348,body_behavioural,3.0.4,59.950479226356315,
0,"Liam refused to look at her as she picked out sauces for the pasta, and then she threw up her hands, saying, “You know what, if this party is still happening we are going to just eat pasta.”",2,2,,,,0,0,0,0,,,,,0,16,16,16,,,,,,,,,,,,,,,,,,,,,1,13.206715637999878,,,,,,,,,,,,,,030119_p2,001,2019_Mar_01_1348,body_behavioural,3.0.4,59.950479226356315,
0,They headed to the checkout area where there was only one station open but it was not crowded at all.,3,2,,,,0,0,0,0,,,,,0,17,17,17,,,,,,,,,,,,,,,,,,,,,9,12.771403672995802,,,,,,,,,,,,,,030119_p2,001,2019_Mar_01_1348,body_behavioural,3.0.4,59.950479226356315,
0,Emmanuella sighed and got in line while Liam pretended to be interested in the magazine racks as he thought. ,3,2,,,,0,0,0,0,,,,,0,18,18,18,,,,,,,,,,,,,,,,,,,,,1,11.50334895800188,,,,,,,,,,,,,,030119_p2,001,2019_Mar_01_1348,body_behavioural,3.0.4,59.950479226356315,
0,"Finally he turned to her and sighed, “Yes, I was thinking the same thing - I think we could definitely be happier with other people.” ",3,3,,,,0,0,0,0,,,,,0,19,19,19,,,,,,,,,,,,,,,,,,,,,1,11.551460100003169,,,,,,,,,,,,,,030119_p2,001,2019_Mar_01_1348,body_behavioural,3.0.4,59.950479226356315,
0,"As if she hadn't heard him, Emmanuella looked at their cart and said, “I'm not sure this will be enough, could you grab another box of pasta?”",3,3,,,,0,0,0,0,,,,,0,20,20,20,,,,,,,,,,,,,,,,,,,,,1,10.253730832999281,,,,,,,,,,,,,,030119_p2,001,2019_Mar_01_1348,body_behavioural,3.0.4,59.950479226356315,
0, Liam scoffed and walked off to quickly get it.,3,3,,,,0,0,0,0,,,,,0,21,21,21,,,,,,,,,,,,,,,,,,,,,1,4.136117930000182,,,,,,,,,,,,,,030119_p2,001,2019_Mar_01_1348,body_behavioural,3.0.4,59.950479226356315,
0,"As Emmanuella waited in line, she took a moment to compose herself, deciding that there was no reason to continue making a scene in the store. ",3,3,,,,0,0,0,0,,,,,0,22,22,22,,,,,,,,,,,,,,,,,,,,,9,7.053767647004861,,,,,,,,,,,,,,030119_p2,001,2019_Mar_01_1348,body_behavioural,3.0.4,59.950479226356315,
0," Right when Liam came back with the pasta, the cashier started scanning their groceries.",4,3,,,,0,0,0,0,,,,,0,23,23,23,,,,,,,,,,,,,,,,,,,,,1,7.920309436995012,,,,,,,,,,,,,,030119_p2,001,2019_Mar_01_1348,body_behavioural,3.0.4,59.950479226356315,
0,"The cost came to $30, and Emmanuella paid with her credit card.",4,3,,,,0,0,0,0,,,,,0,24,24,24,,,,,,,,,,,,,,,,,,,,,1,6.35338447799586,,,,,,,,,,,,,,030119_p2,001,2019_Mar_01_1348,body_behavioural,3.0.4,59.950479226356315,
0,"She asked Liam politely to take the bags, and he obliged, following her to toward the exit. ",4,3,,,,0,0,0,0,,,,,0,25,25,25,,,,,,,,,,,,,,,,,,,,,1,5.486927856996772,,,,,,,,,,,,,,030119_p2,001,2019_Mar_01_1348,body_behavioural,3.0.4,59.950479226356315,
0,"“Liam, I think we are making the right decision.",4,4,,,,0,0,0,0,,,,,0,26,26,26,,,,,,,,,,,,,,,,,,,,,1,5.1709060029970715,,,,,,,,,,,,,,030119_p2,001,2019_Mar_01_1348,body_behavioural,3.0.4,59.950479226356315,
0,This is good.” ,4,4,,,,0,0,0,0,,,,,0,27,27,27,,,,,,,,,,,,,,,,,,,,,1,1.9030453149971436,,,,,,,,,,,,,,030119_p2,001,2019_Mar_01_1348,body_behavioural,3.0.4,59.950479226356315,
0,"“I agree,” he said, visibly relieved at the thought that they had gotten through the last fight they would ever need to have.",4,4,,,,0,0,0,0,,,,,0,28,28,28,,,,,,,,,,,,,,,,,,,,,1,6.5199568799944245,,,,,,,,,,,,,,030119_p2,001,2019_Mar_01_1348,body_behavioural,3.0.4,59.950479226356315,
0,"“I think we can still host this dinner tonight, as long as you're still on board,” Emmanuella said.",4,4,,,,0,0,0,0,,,,,0,29,29,29,,,,,,,,,,,,,,,,,,,,,1,8.336933320002572,,,,,,,,,,,,,,030119_p2,001,2019_Mar_01_1348,body_behavioural,3.0.4,59.950479226356315,
0,"Liam nodded, “Yes, let’s just not tell anyone yet.” ",4,4,,,,0,0,0,0,,,,,0,30,30,30,,,,,,,,,,,,,,,,,,,,,1,3.5035156599988113,,,,,,,,,,,,,,030119_p2,001,2019_Mar_01_1348,body_behavioural,3.0.4,59.950479226356315,
0,"Emmanuella laughed, “Whoever leaks it loses their rights to the cat.”",4,4,,,,0,0,0,0,,,,,0,31,31,31,,,,,,,,,,,,,,,,,,,,,1,3.5029764470018563,,,,,,,,,,,,,,030119_p2,001,2019_Mar_01_1348,body_behavioural,3.0.4,59.950479226356315,
0,"Liam rolled his eyes and managed a weak chuckle, knowing the cat would be a whole other issue to sort out later.
",4,4,,,,0,0,0,0,,,,,0,32,32,32,,,,,,,,,,,,,,,,,,,,,1,4.219607687002281,,,,,,,,,,,,,,030119_p2,001,2019_Mar_01_1348,body_behavioural,3.0.4,59.950479226356315,
0,,,,,,,0,0,0,0,,,,,,,,,,,,,,,,,,,,,,,,,,,,,,,,,,,,,,,,,,,,030119_p2,001,2019_Mar_01_1348,body_behavioural,3.0.4,59.950479226356315,
1,,,,,,,0,1,1,1,0,0,0,0,,,,,,,,,,,,,,,,,,,space,2.1530882899969583,space,1.2531348670017906,space,1.1860455269998056,,,,,,,,,,,,,,,,030119_p2,001,2019_Mar_01_1348,body_behavioural,3.0.4,59.950479226356315,
1,Charlie saw Alma as they walked into class and he motioned for her to come sit in the back next to him: they had business to discuss.,1,1,,,,0,1,1,1,,,,,0,0,0,0,,,,,,,,,,,,,,,,,,,,,9,33.78927293000015,,,,,,,,,,,,,,030119_p2,001,2019_Mar_01_1348,body_behavioural,3.0.4,59.950479226356315,
1,Charlie and Alma were both economics students with entrepreneurial bents.,1,1,,,,0,1,1,1,,,,,0,1,1,1,,,,,,,,,,,,,,,,,,,,,1,17.83764395199978,,,,,,,,,,,,,,030119_p2,001,2019_Mar_01_1348,body_behavioural,3.0.4,59.950479226356315,
1,They were also both very busy and in the same class.,1,1,,,,0,1,1,1,,,,,0,2,2,2,,,,,,,,,,,,,,,,,,,,,1,3.001032820000546,,,,,,,,,,,,,,030119_p2,001,2019_Mar_01_1348,body_behavioural,3.0.4,59.950479226356315,
1,"After talking at a party, Charlie had discovered that Alma was looking for financing for her web development company.",1,1,,,,0,1,1,1,,,,,0,3,3,3,,,,,,,,,,,,,,,,,,,,,9,5.5034310849951,,,,,,,,,,,,,,030119_p2,001,2019_Mar_01_1348,body_behavioural,3.0.4,59.950479226356315,
1,It was serendipitous because he had been talking with other members of his venture capital group about making an investment. ,1,1,,,,0,1,1,1,,,,,0,4,4,4,,,,,,,,,,,,,,,,,,,,,1,10.420427650002239,,,,,,,,,,,,,,030119_p2,001,2019_Mar_01_1348,body_behavioural,3.0.4,59.950479226356315,
1,"His financial group had come to a decision that morning about Alma’s idea, and he didn't want to wait until after class to discuss the proposal with her. ",1,1,,,,0,1,1,1,,,,,0,5,5,5,,,,,,,,,,,,,,,,,,,,,1,7.336770986999909,,,,,,,,,,,,,,030119_p2,001,2019_Mar_01_1348,body_behavioural,3.0.4,59.950479226356315,
1,"The class was in a large auditorium with small, foldable desks on the side of each cushioned chair. ",1,1,,,,0,1,1,1,,,,,0,6,6,6,,,,,,,,,,,,,,,,,,,,,9,15.204004624996742,,,,,,,,,,,,,,030119_p2,001,2019_Mar_01_1348,body_behavioural,3.0.4,59.950479226356315,
1,"There were large windows on both sides of the hall, and they could see the first flurries of a winter storm starting outside. ",1,1,,,,0,1,1,1,,,,,0,7,7,7,,,,,,,,,,,,,,,,,,,,,1,21.22049304000393,,,,,,,,,,,,,,030119_p2,001,2019_Mar_01_1348,body_behavioural,3.0.4,59.950479226356315,
1,"“Here we are at Lecture Seven already in History of the Eternal City,” said the professor. ",2,1,,,,0,1,1,1,,,,,0,8,8,8,,,,,,,,,,,,,,,,,,,,,9,11.85131533999811,,,,,,,,,,,,,,030119_p2,001,2019_Mar_01_1348,body_behavioural,3.0.4,59.950479226356315,
1,“We're going to talk today about the age of the first Roman emperor: Augustus.” ,2,1,,,,0,1,1,1,,,,,0,9,9,9,,,,,,,,,,,,,,,,,,,,,1,4.136703290001606,,,,,,,,,,,,,,030119_p2,001,2019_Mar_01_1348,body_behavioural,3.0.4,59.950479226356315,
1,"She went into some recap of the last lecture, and Charlie took this as an opportunity to start talking to Alma.",2,1,,,,0,1,1,1,,,,,0,10,10,10,,,,,,,,,,,,,,,,,,,,,1,13.584894822000933,,,,,,,,,,,,,,030119_p2,001,2019_Mar_01_1348,body_behavioural,3.0.4,59.950479226356315,
1,"“Okay so I’ve been thinking about your startup idea, and I have talked about it with my fellow investors.",2,2,,,,0,1,1,1,,,,,0,11,11,11,,,,,,,,,,,,,,,,,,,,,9,3.8696452649965067,,,,,,,,,,,,,,030119_p2,001,2019_Mar_01_1348,body_behavioural,3.0.4,59.950479226356315,
1,We’d like to invest half of what you originally suggested.,2,2,,,,0,1,1,1,,,,,0,12,12,12,,,,,,,,,,,,,,,,,,,,,1,5.086646780000592,,,,,,,,,,,,,,030119_p2,001,2019_Mar_01_1348,body_behavioural,3.0.4,59.950479226356315,
1,"Rather than $30,000, we start with $15,000.",2,2,,,,0,1,1,1,,,,,0,13,13,13,,,,,,,,,,,,,,,,,,,,,1,1.9030909020002582,,,,,,,,,,,,,,030119_p2,001,2019_Mar_01_1348,body_behavioural,3.0.4,59.950479226356315,
1,We would see how the company does and then invest the other half later.” ,2,2,,,,0,1,1,1,,,,,0,14,14,14,,,,,,,,,,,,,,,,,,,,,1,3.136566964996746,,,,,,,,,,,,,,030119_p2,001,2019_Mar_01_1348,body_behavioural,3.0.4,59.950479226356315,
1,"Alma, tapping her pen on her notebook, narrowed her eyes and pursed her lips.",2,2,,,,0,1,1,1,,,,,0,15,15,15,,,,,,,,,,,,,,,,,,,,,1,7.370103467001172,,,,,,,,,,,,,,030119_p2,001,2019_Mar_01_1348,body_behavioural,3.0.4,59.950479226356315,
1,She turned back to the lecture as she considered this.,2,2,,,,0,1,1,1,,,,,0,16,16,16,,,,,,,,,,,,,,,,,,,,,1,17.301627237000503,,,,,,,,,,,,,,030119_p2,001,2019_Mar_01_1348,body_behavioural,3.0.4,59.950479226356315,
1,"The professor was going on: “The senate had conferred upon him the title of Augustus the sacred and revered one, the restorer of traditional values, the city’s new religious leader, the restorer of temples. ",3,2,,,,0,1,1,1,,,,,0,17,17,17,,,,,,,,,,,,,,,,,,,,,9,2.3533493930008262,,,,,,,,,,,,,,030119_p2,001,2019_Mar_01_1348,body_behavioural,3.0.4,59.950479226356315,
1,"Augustus also sought to beautify Rome, make it into a new Athens, and dispel the criticisms of Rome as disorganized and ugly.”",3,2,,,,0,1,1,1,,,,,0,18,18,18,,,,,,,,,,,,,,,,,,,,,1,20.42081883499486,,,,,,,,,,,,,,030119_p2,001,2019_Mar_01_1348,body_behavioural,3.0.4,59.950479226356315,
1,"Alma turned back to Charlie and offered her rebuttal, “I don’t know about that: it’s not going to be possible to implement our ideas effectively unless the project is fully funded. ",3,3,,,,0,1,1,1,,,,,0,19,19,19,,,,,,,,,,,,,,,,,,,,,1,21.087903855004697,,,,,,,,,,,,,,030119_p2,001,2019_Mar_01_1348,body_behavioural,3.0.4,59.950479226356315,
1,We would have to find other investors and that would set us back in our timeline. ,3,3,,,,0,1,1,1,,,,,0,20,20,20,,,,,,,,,,,,,,,,,,,,,1,3.6689934249952785,,,,,,,,,,,,,,030119_p2,001,2019_Mar_01_1348,body_behavioural,3.0.4,59.950479226356315,
1,"Our profit projections assumed we'd be starting relatively soon, not months down the line.” ",3,3,,,,0,1,1,1,,,,,0,21,21,21,,,,,,,,,,,,,,,,,,,,,1,5.870494531001896,,,,,,,,,,,,,,030119_p2,001,2019_Mar_01_1348,body_behavioural,3.0.4,59.950479226356315,
1,They whispered back and forth during the whole class in order to work out a compromise. ,3,3,,,,0,1,1,1,,,,,0,22,22,22,,,,,,,,,,,,,,,,,,,,,1,4.019925297005102,,,,,,,,,,,,,,030119_p2,001,2019_Mar_01_1348,body_behavioural,3.0.4,59.950479226356315,
1,"Finally, the class ended, and the professor dismissed the students with a reminder that the midterm paper was due on Thursday and that they should email their papers to the TA.",4,3,,,,0,1,1,1,,,,,0,23,23,23,,,,,,,,,,,,,,,,,,,,,9,8.970283257003757,,,,,,,,,,,,,,030119_p2,001,2019_Mar_01_1348,body_behavioural,3.0.4,59.950479226356315,
1,"Everyone, except Charlie and Alma, packed up their things and headed out of the lecture hall to get to their next class. ",4,3,,,,0,1,1,1,,,,,0,24,24,24,,,,,,,,,,,,,,,,,,,,,1,7.853147580004588,,,,,,,,,,,,,,030119_p2,001,2019_Mar_01_1348,body_behavioural,3.0.4,59.950479226356315,
1,"“Alright, so we’ll have the $30,000 wired to you by tomorrow,” Charlie said. ",4,4,,,,0,1,1,1,,,,,0,25,25,25,,,,,,,,,,,,,,,,,,,,,1,5.303012559998024,,,,,,,,,,,,,,030119_p2,001,2019_Mar_01_1348,body_behavioural,3.0.4,59.950479226356315,
1,"This wasn't ideal for Charlie, but Alma had refused to budge, and his investment group had told him they were willing to pay the full amount if necessary. ",4,4,,,,0,1,1,1,,,,,0,26,26,26,,,,,,,,,,,,,,,,,,,,,1,8.217345274999388,,,,,,,,,,,,,,030119_p2,001,2019_Mar_01_1348,body_behavioural,3.0.4,59.950479226356315,
1,"They shook hands, walked out of the now-empty lecture hall, and made plans to sign the official paperwork the next day.",4,4,,,,0,1,1,1,,,,,0,27,27,27,,,,,,,,,,,,,,,,,,,,,1,4.1866193850000855,,,,,,,,,,,,,,030119_p2,001,2019_Mar_01_1348,body_behavioural,3.0.4,59.950479226356315,
1,,,,,,,0,1,1,1,,,,,,,,,,,,,,,,,,,,,,,,,,,,,,,,,,,,,,,,,,,,030119_p2,001,2019_Mar_01_1348,body_behavioural,3.0.4,59.950479226356315,
2,,,,,,,0,2,2,2,0,0,0,0,,,,,,,,,,,,,,,,,,,space,1.069757204997586,space,15.937333182002476,space,1.4363566499960143,,,,,,,,,,,,,,,,030119_p2,001,2019_Mar_01_1348,body_behavioural,3.0.4,59.950479226356315,
2,"Alex was a distracted, sweaty mess as he walked into the grocery store with Chloe; he was hoping that she wouldn't suspect that he was about to propose.",1,1,,,,0,2,2,2,,,,,0,0,0,0,,,,,,,,,,,,,,,,,,,,,9,8.300801105004211,,,,,,,,,,,,,,030119_p2,001,2019_Mar_01_1348,body_behavioural,3.0.4,59.950479226356315,
2,"The grocery store was brightly lit; this was one of the nicest grocery stores in Atlanta, and sunlight poured in through the glass walls.",1,1,,,,0,2,2,2,,,,,0,1,1,1,,,,,,,,,,,,,,,,,,,,,1,11.637097077000362,,,,,,,,,,,,,,030119_p2,001,2019_Mar_01_1348,body_behavioural,3.0.4,59.950479226356315,
2,"The atmosphere was also bright because tomorrow was Thanksgiving, and most shoppers had carts piled high with turkey, stuffing, and pies.",1,1,,,,0,2,2,2,,,,,0,2,2,2,,,,,,,,,,,,,,,,,,,,,1,9.220233955005824,,,,,,,,,,,,,,030119_p2,001,2019_Mar_01_1348,body_behavioural,3.0.4,59.950479226356315,
2,Alex wanted to propose to Chloe here because he knew she would not suspect it at all. ,1,1,,,,0,2,2,2,,,,,0,3,3,3,,,,,,,,,,,,,,,,,,,,,1,4.653232235003088,,,,,,,,,,,,,,030119_p2,001,2019_Mar_01_1348,body_behavioural,3.0.4,59.950479226356315,
2,"Chloe loved surprises, and Alex loved the look on Chloe’s face when she was surprised. ",1,1,,,,0,2,2,2,,,,,0,4,4,4,,,,,,,,,,,,,,,,,,,,,1,6.736747814997216,,,,,,,,,,,,,,030119_p2,001,2019_Mar_01_1348,body_behavioural,3.0.4,59.950479226356315,
2,"“Alex, we need to get some cranberry sauce, so let’s go there first.” ",2,1,,,,0,2,2,2,,,,,0,5,5,5,,,,,,,,,,,,,,,,,,,,,9,10.603571359999478,,,,,,,,,,,,,,030119_p2,001,2019_Mar_01_1348,body_behavioural,3.0.4,59.950479226356315,
2,She led the way to the section of the store that held the canned foods. ,2,1,,,,0,2,2,2,,,,,0,6,6,6,,,,,,,,,,,,,,,,,,,,,1,6.136921154997253,,,,,,,,,,,,,,030119_p2,001,2019_Mar_01_1348,body_behavioural,3.0.4,59.950479226356315,
2,Alex looked like he was going to throw up. ,2,1,,,,0,2,2,2,,,,,0,7,7,7,,,,,,,,,,,,,,,,,,,,,1,2.770445970003493,,,,,,,,,,,,,,030119_p2,001,2019_Mar_01_1348,body_behavioural,3.0.4,59.950479226356315,
2,"As they were walking there, Chloe asked him, “Is everything okay, dear?”",2,1,,,,0,2,2,2,,,,,0,8,8,8,,,,,,,,,,,,,,,,,,,,,1,2.069769051995536,,,,,,,,,,,,,,030119_p2,001,2019_Mar_01_1348,body_behavioural,3.0.4,59.950479226356315,
2,"“Oh yeah, for sure,” he said, unconvincingly. ",2,1,,,,0,2,2,2,,,,,0,9,9,9,,,,,,,,,,,,,,,,,,,,,1,1.5697867320050136,,,,,,,,,,,,,,030119_p2,001,2019_Mar_01_1348,body_behavioural,3.0.4,59.950479226356315,
2,"She chuckled, “Alright, whatever you say.” ",2,1,,,,0,2,2,2,,,,,0,10,10,10,,,,,,,,,,,,,,,,,,,,,1,1.20315919299901,,,,,,,,,,,,,,030119_p2,001,2019_Mar_01_1348,body_behavioural,3.0.4,59.950479226356315,
2,"She was mulling over the different cans of cranberry sauce, and Alex knew she would be a while.",2,1,,,,0,2,2,2,,,,,0,11,11,11,,,,,,,,,,,,,,,,,,,,,1,3.319802524994884,,,,,,,,,,,,,,030119_p2,001,2019_Mar_01_1348,body_behavioural,3.0.4,59.950479226356315,
2,He turned his back to her and pulled out the ring.,2,2,,,,0,2,2,2,,,,,0,12,12,12,,,,,,,,,,,,,,,,,,,,,1,3.419821060000686,,,,,,,,,,,,,,030119_p2,001,2019_Mar_01_1348,body_behavioural,3.0.4,59.950479226356315,
2,He had been saving up for this for a while. ,2,2,,,,0,2,2,2,,,,,0,13,13,13,,,,,,,,,,,,,,,,,,,,,1,2.9531103799963603,,,,,,,,,,,,,,030119_p2,001,2019_Mar_01_1348,body_behavioural,3.0.4,59.950479226356315,
2,The ring had three large diamonds with smaller ones encircling each one: all of them sparkled in the light streaming in from the windows. ,2,2,,,,0,2,2,2,,,,,0,14,14,14,,,,,,,,,,,,,,,,,,,,,9,30.25207272300031,,,,,,,,,,,,,,030119_p2,001,2019_Mar_01_1348,body_behavioural,3.0.4,59.950479226356315,
2,"“Alex?”, Chloe said suspiciously. ",2,2,,,,0,2,2,2,,,,,0,15,15,15,,,,,,,,,,,,,,,,,,,,,1,1.7029829640014214,,,,,,,,,,,,,,030119_p2,001,2019_Mar_01_1348,body_behavioural,3.0.4,59.950479226356315,
2,He closed the box and whipped around. “Yes?”,2,2,,,,0,2,2,2,,,,,0,16,16,16,,,,,,,,,,,,,,,,,,,,,1,4.586870339997404,,,,,,,,,,,,,,030119_p2,001,2019_Mar_01_1348,body_behavioural,3.0.4,59.950479226356315,
2,“Do we need anything else?”,2,2,,,,0,2,2,2,,,,,0,17,17,17,,,,,,,,,,,,,,,,,,,,,1,2.6026789450042997,,,,,,,,,,,,,,030119_p2,001,2019_Mar_01_1348,body_behavioural,3.0.4,59.950479226356315,
2,"“Yeah I don’t know, honey.” ",2,2,,,,0,2,2,2,,,,,0,18,18,18,,,,,,,,,,,,,,,,,,,,,1,1.4681864099984523,,,,,,,,,,,,,,030119_p2,001,2019_Mar_01_1348,body_behavioural,3.0.4,59.950479226356315,
2,They went to the checkout and waited in a long line.,3,2,,,,0,2,2,2,,,,,0,19,19,19,,,,,,,,,,,,,,,,,,,,,1,2.4532385769998655,,,,,,,,,,,,,,030119_p2,001,2019_Mar_01_1348,body_behavioural,3.0.4,59.950479226356315,
2,Alex was staring intensely off into the distance. ,3,2,,,,0,2,2,2,,,,,0,20,20,20,,,,,,,,,,,,,,,,,,,,,1,10.937157604996173,,,,,,,,,,,,,,030119_p2,001,2019_Mar_01_1348,body_behavioural,3.0.4,59.950479226356315,
2,Chloe was watching him trying to decide whether he looked scared or confused. ,3,2,,,,0,2,2,2,,,,,0,21,21,21,,,,,,,,,,,,,,,,,,,,,1,3.0033831120017567,,,,,,,,,,,,,,030119_p2,001,2019_Mar_01_1348,body_behavioural,3.0.4,59.950479226356315,
2,Alex looked over at their friends who were waiting by the entrance of the grocery store.,3,2,,,,0,2,2,2,,,,,0,22,22,22,,,,,,,,,,,,,,,,,,,,,1,9.386838847000035,,,,,,,,,,,,,,030119_p2,001,2019_Mar_01_1348,body_behavioural,3.0.4,59.950479226356315,
2,They got the message and walked over slowly. ,3,2,,,,0,2,2,2,,,,,0,23,23,23,,,,,,,,,,,,,,,,,,,,,1,3.5534154300039518,,,,,,,,,,,,,,030119_p2,001,2019_Mar_01_1348,body_behavioural,3.0.4,59.950479226356315,
2,"“Honey,” he said to get her attention, “Look, Chloe, I love you so much and I want to be with you forever, I can’t imagine a day without you.”",3,2,,,,0,2,2,2,,,,,0,24,24,24,,,,,,,,,,,,,,,,,,,,,1,8.453141712001525,,,,,,,,,,,,,,030119_p2,001,2019_Mar_01_1348,body_behavioural,3.0.4,59.950479226356315,
2,"“Awww, Alex, me too.”",3,2,,,,0,2,2,2,,,,,0,25,25,25,,,,,,,,,,,,,,,,,,,,,1,5.033260689997405,,,,,,,,,,,,,,030119_p2,001,2019_Mar_01_1348,body_behavioural,3.0.4,59.950479226356315,
2,"Alex got down on one knee, and Chloe gasped. ",3,3,,,,0,2,2,2,,,,,0,26,26,26,,,,,,,,,,,,,,,,,,,,,9,3.9040651169998455,,,,,,,,,,,,,,030119_p2,001,2019_Mar_01_1348,body_behavioural,3.0.4,59.950479226356315,
2,"“I am serious, Chloe. Will you marry me?”",3,3,,,,0,2,2,2,,,,,0,27,27,27,,,,,,,,,,,,,,,,,,,,,1,3.1530479500070214,,,,,,,,,,,,,,030119_p2,001,2019_Mar_01_1348,body_behavioural,3.0.4,59.950479226356315,
2,"The people in line around them realized what was happening, stepped back, and started taking pictures.",3,3,,,,0,2,2,2,,,,,0,28,28,28,,,,,,,,,,,,,,,,,,,,,1,5.71767947000626,,,,,,,,,,,,,,030119_p2,001,2019_Mar_01_1348,body_behavioural,3.0.4,59.950479226356315,
2,Their friends were no longer trying to hide and were videotaping and taking pictures too. ,3,3,,,,0,2,2,2,,,,,0,29,29,29,,,,,,,,,,,,,,,,,,,,,1,4.217674737003108,,,,,,,,,,,,,,030119_p2,001,2019_Mar_01_1348,body_behavioural,3.0.4,59.950479226356315,
2,Chloe looked around and laughed. ,3,3,,,,0,2,2,2,,,,,0,30,30,30,,,,,,,,,,,,,,,,,,,,,1,2.086063772003399,,,,,,,,,,,,,,030119_p2,001,2019_Mar_01_1348,body_behavioural,3.0.4,59.950479226356315,
2,"“Yes!” she shouted, and jumped to embrace Alex in a hug. ",3,4,,,,0,2,2,2,,,,,0,31,31,31,,,,,,,,,,,,,,,,,,,,,1,3.1864764929996454,,,,,,,,,,,,,,030119_p2,001,2019_Mar_01_1348,body_behavioural,3.0.4,59.950479226356315,
2,Everyone in line clapped and cheered. ,3,4,,,,0,2,2,2,,,,,0,32,32,32,,,,,,,,,,,,,,,,,,,,,1,1.4705806400015717,,,,,,,,,,,,,,030119_p2,001,2019_Mar_01_1348,body_behavioural,3.0.4,59.950479226356315,
2,"Alex put the ring on Chloe’s finger, who was nearly spinning in excitement.",3,4,,,,0,2,2,2,,,,,0,33,33,33,,,,,,,,,,,,,,,,,,,,,1,10.869929809996393,,,,,,,,,,,,,,030119_p2,001,2019_Mar_01_1348,body_behavioural,3.0.4,59.950479226356315,
2,"“I love it, oh my gosh, it’s so glittery!",3,4,,,,0,2,2,2,,,,,0,34,34,34,,,,,,,,,,,,,,,,,,,,,1,2.1702636599948164,,,,,,,,,,,,,,030119_p2,001,2019_Mar_01_1348,body_behavioural,3.0.4,59.950479226356315,
2,Look at this!” she said as she shoved her hand in a stranger’s face.,3,4,,,,0,2,2,2,,,,,0,35,35,35,,,,,,,,,,,,,,,,,,,,,1,4.303893276999588,,,,,,,,,,,,,,030119_p2,001,2019_Mar_01_1348,body_behavioural,3.0.4,59.950479226356315,
2,Her friends came over and hugged them.,3,4,,,,0,2,2,2,,,,,0,36,36,36,,,,,,,,,,,,,,,,,,,,,1,1.1840768519978155,,,,,,,,,,,,,,030119_p2,001,2019_Mar_01_1348,body_behavioural,3.0.4,59.950479226356315,
2,The other people let them move up to the front of the checkout line. ,3,4,,,,0,2,2,2,,,,,0,37,37,37,,,,,,,,,,,,,,,,,,,,,1,2.570050274996902,,,,,,,,,,,,,,030119_p2,001,2019_Mar_01_1348,body_behavioural,3.0.4,59.950479226356315,
2,The cashier congratulated them and scanned their cranberry sauce. ,4,4,,,,0,2,2,2,,,,,0,38,38,38,,,,,,,,,,,,,,,,,,,,,1,2.9528279600053793,,,,,,,,,,,,,,030119_p2,001,2019_Mar_01_1348,body_behavioural,3.0.4,59.950479226356315,
2,The total came to $4 and Chloe paid in cash while getting distracted and staring at the ring as she pulled out the bills.,4,4,,,,0,2,2,2,,,,,0,39,39,39,,,,,,,,,,,,,,,,,,,,,1,6.9868556469955365,,,,,,,,,,,,,,030119_p2,001,2019_Mar_01_1348,body_behavioural,3.0.4,59.950479226356315,
2,"Alex grabbed the cans, and they walked out with their friends bunched around them. ",4,4,,,,0,2,2,2,,,,,0,40,40,40,,,,,,,,,,,,,,,,,,,,,1,5.802933705002943,,,,,,,,,,,,,,030119_p2,001,2019_Mar_01_1348,body_behavioural,3.0.4,59.950479226356315,
2,,,,,,,0,2,2,2,,,,,,,,,,,,,,,,,,,,,,,,,,,,,,,,,,,,,,,,,,,,030119_p2,001,2019_Mar_01_1348,body_behavioural,3.0.4,59.950479226356315,
3,,,,,,,0,3,3,3,0,0,0,0,,,,,,,,,,,,,,,,,,,space,0.9696698030020343,space,5.202975042004255,space,0.8863746949937195,,,,,,,,,,,,,,,,030119_p2,001,2019_Mar_01_1348,body_behavioural,3.0.4,59.950479226356315,
3,"Thomas, dreading the conversation he was about to have, got to Annika’s Finer Diner early.",1,1,None,None,,0,3,3,3,,,,,0,0,0,0,,,,,,,,,,,,,,,,,,,,,9,23.088127404997067,,,,,,,,,,,,,,030119_p2,001,2019_Mar_01_1348,body_behavioural,3.0.4,59.950479226356315,
3,The restaurant had a kitschy charm and was reminiscent of a diner from the 70’s. ,1,1,None,None,,0,3,3,3,,,,,0,1,1,1,,,,,,,,,,,,,,,,,,,,,1,7.436626349997823,,,,,,,,,,,,,,030119_p2,001,2019_Mar_01_1348,body_behavioural,3.0.4,59.950479226356315,
3,A bell chimed as the door swung open and Sadie entered to find Thomas deep in thought on a bench by the door.,1,1,None,None,,0,3,3,3,,,,,0,2,2,2,,,,,,,,,,,,,,,,,,,,,1,19.304221229998802,,,,,,,,,,,,,,030119_p2,001,2019_Mar_01_1348,body_behavioural,3.0.4,59.950479226356315,
3,He jumped up and gave her a side hug. ,1,1,None,None,,0,3,3,3,,,,,0,3,3,3,,,,,,,,,,,,,,,,,,,,,1,3.719634334993316,,,,,,,,,,,,,,030119_p2,001,2019_Mar_01_1348,body_behavioural,3.0.4,59.950479226356315,
3,"“How was your day?”, he asked.",1,1,None,None,,0,3,3,3,,,,,0,4,4,4,,,,,,,,,,,,,,,,,,,,,1,1.5198690550023457,,,,,,,,,,,,,,030119_p2,001,2019_Mar_01_1348,body_behavioural,3.0.4,59.950479226356315,
3,"She clung onto him, “It was okay.",1,1,None,None,,0,3,3,3,,,,,0,5,5,5,,,,,,,,,,,,,,,,,,,,,1,2.503145406997646,,,,,,,,,,,,,,030119_p2,001,2019_Mar_01_1348,body_behavioural,3.0.4,59.950479226356315,
3,I missed you today.”,1,1,None,None,,0,3,3,3,,,,,0,6,6,6,,,,,,,,,,,,,,,,,,,,,1,1.319765781998285,,,,,,,,,,,,,,030119_p2,001,2019_Mar_01_1348,body_behavioural,3.0.4,59.950479226356315,
3,He looked at the hostess coming towards them.,1,1,None,None,,0,3,3,3,,,,,0,7,7,7,,,,,,,,,,,,,,,,,,,,,1,3.4528786769951694,,,,,,,,,,,,,,030119_p2,001,2019_Mar_01_1348,body_behavioural,3.0.4,59.950479226356315,
3,"“Can we have a table in the back?”, Thomas asked.",1,1,None,None,,0,3,3,3,,,,,0,8,8,8,,,,,,,,,,,,,,,,,,,,,1,1.9341593200006173,,,,,,,,,,,,,,030119_p2,001,2019_Mar_01_1348,body_behavioural,3.0.4,59.950479226356315,
3,"She shrugged and, as she loudly popped her bubblegum, replied, “Sure, honey, this way.”",1,1,9.0,None,,0,3,3,3,,,,,0,9,9,9,,,,,,,,,,,,,,,,,,,,,1,4.703448858002957,,,,,,,,,,,,,,030119_p2,001,2019_Mar_01_1348,body_behavioural,3.0.4,59.950479226356315,
3,She led them to the back of the restaurant where there were dimly lit tables. ,2,1,None,None,,0,3,3,3,,,,,0,10,10,10,,,,,,,,,,,,,,,,,,,,,1,5.1046250100043835,,,,,,,,,,,,,,030119_p2,001,2019_Mar_01_1348,body_behavioural,3.0.4,59.950479226356315,
3,"“Is this alright?”, the hostess asked.",2,1,None,None,,0,3,3,3,,,,,0,11,11,11,,,,,,,,,,,,,,,,,,,,,1,1.819458764999581,,,,,,,,,,,,,,030119_p2,001,2019_Mar_01_1348,body_behavioural,3.0.4,59.950479226356315,
3,Thomas cleared his throat and tried not to grimace at the stained fabric that lined the booth.,2,1,None,None,,0,3,3,3,,,,,0,12,12,12,,,,,,,,,,,,,,,,,,,,,1,3.886984657998255,,,,,,,,,,,,,,030119_p2,001,2019_Mar_01_1348,body_behavioural,3.0.4,59.950479226356315,
3,“This is great.,2,1,None,None,,0,3,3,3,,,,,0,13,13,13,,,,,,,,,,,,,,,,,,,,,1,1.703236006993393,,,,,,,,,,,,,,030119_p2,001,2019_Mar_01_1348,body_behavioural,3.0.4,59.950479226356315,
3,"Thank you,” Thomas said.",2,1,None,None,,0,3,3,3,,,,,0,14,14,14,,,,,,,,,,,,,,,,,,,,,1,3.4032188999990467,,,,,,,,,,,,,,030119_p2,001,2019_Mar_01_1348,body_behavioural,3.0.4,59.950479226356315,
3,Sadie slipped into the cushioned seat and grabbed Thomas’ hand.,2,1,None,None,,0,3,3,3,,,,,0,15,15,15,,,,,,,,,,,,,,,,,,,,,9,4.786994134999986,,,,,,,,,,,,,,030119_p2,001,2019_Mar_01_1348,body_behavioural,3.0.4,59.950479226356315,
3,"“Tell me about your day!”, Sadie sang as Thomas sat down.",2,1,None,None,,0,3,3,3,,,,,0,16,16,16,,,,,,,,,,,,,,,,,,,,,1,2.4167037770021125,,,,,,,,,,,,,,030119_p2,001,2019_Mar_01_1348,body_behavioural,3.0.4,59.950479226356315,
3,He looked at her silently and pulled his hand slowly from hers.,2,1,None,None,,0,3,3,3,,,,,0,17,17,17,,,,,,,,,,,,,,,,,,,,,1,11.951268025004538,,,,,,,,,,,,,,030119_p2,001,2019_Mar_01_1348,body_behavioural,3.0.4,59.950479226356315,
3,Sadie gave him a puzzled look.,2,1,None,None,,0,3,3,3,,,,,0,18,18,18,,,,,,,,,,,,,,,,,,,,,1,2.169476521994511,,,,,,,,,,,,,,030119_p2,001,2019_Mar_01_1348,body_behavioural,3.0.4,59.950479226356315,
3,Thomas looked away and took a deep breath. ,2,1,None,None,,0,3,3,3,,,,,0,19,19,19,,,,,,,,,,,,,,,,,,,,,1,3.4032425100012915,,,,,,,,,,,,,,030119_p2,001,2019_Mar_01_1348,body_behavioural,3.0.4,59.950479226356315,
3,"Sadie asked, “What’s wrong?” ",2,1,None,None,,0,3,3,3,,,,,0,20,20,20,,,,,,,,,,,,,,,,,,,,,1,1.3696993630001089,,,,,,,,,,,,,,030119_p2,001,2019_Mar_01_1348,body_behavioural,3.0.4,59.950479226356315,
3,Thomas picked at his fingernails.,2,1,None,22.0,,0,3,3,3,,,,,0,21,21,21,,,,,,,,,,,,,,,,,,,,,1,1.6366282570015755,,,,,,,,,,,,,,030119_p2,001,2019_Mar_01_1348,body_behavioural,3.0.4,59.950479226356315,
3,"“Sadie, I’ve been thinking, and I need to figure out some stuff… on my own.”",2,2,None,None,,0,3,3,3,,,,,0,22,22,22,,,,,,,,,,,,,,,,,,,,,1,6.119783279995318,,,,,,,,,,,,,,030119_p2,001,2019_Mar_01_1348,body_behavioural,3.0.4,59.950479226356315,
3,Sadie’s mouth popped open for a moment.,2,2,None,None,,0,3,3,3,,,,,0,23,23,23,,,,,,,,,,,,,,,,,,,,,1,6.1700855099988985,,,,,,,,,,,,,,030119_p2,001,2019_Mar_01_1348,body_behavioural,3.0.4,59.950479226356315,
3,Then she swallowed and shifted back in her seat.,2,2,None,None,,0,3,3,3,,,,,0,24,24,24,,,,,,,,,,,,,,,,,,,,,1,3.0009030270011863,,,,,,,,,,,,,,030119_p2,001,2019_Mar_01_1348,body_behavioural,3.0.4,59.950479226356315,
3,“Things have been really picking up at work.,2,2,None,None,,0,3,3,3,,,,,0,25,25,25,,,,,,,,,,,,,,,,,,,,,1,1.8196471679984825,,,,,,,,,,,,,,030119_p2,001,2019_Mar_01_1348,body_behavioural,3.0.4,59.950479226356315,
3,And I’m not sure that this is the job I want to do anymore.,2,2,None,None,,0,3,3,3,,,,,0,26,26,26,,,,,,,,,,,,,,,,,,,,,1,3.0031239800009644,,,,,,,,,,,,,,030119_p2,001,2019_Mar_01_1348,body_behavioural,3.0.4,59.950479226356315,
3,It’s been really overwhelming between working and figuring out if I should change careers.” ,2,2,17.0,None,,0,3,3,3,,,,,0,27,27,27,,,,,,,,,,,,,,,,,,,,,1,2.969530809998105,,,,,,,,,,,,,,030119_p2,001,2019_Mar_01_1348,body_behavioural,3.0.4,59.950479226356315,
3,The waiter appeared and interrupted the speech Thomas had been practicing.,3,2,None,None,,0,3,3,3,,,,,0,28,28,28,,,,,,,,,,,,,,,,,,,,,1,6.3844258099998115,,,,,,,,,,,,,,030119_p2,001,2019_Mar_01_1348,body_behavioural,3.0.4,59.950479226356315,
3,"“Hello you two!”, the waiter said.",3,2,None,None,,0,3,3,3,,,,,0,29,29,29,,,,,,,,,,,,,,,,,,,,,1,4.487388235000253,,,,,,,,,,,,,,030119_p2,001,2019_Mar_01_1348,body_behavioural,3.0.4,59.950479226356315,
3,“Have you decided what you would like?”,3,2,None,None,,0,3,3,3,,,,,0,30,30,30,,,,,,,,,,,,,,,,,,,,,9,2.0528333870024653,,,,,,,,,,,,,,030119_p2,001,2019_Mar_01_1348,body_behavioural,3.0.4,59.950479226356315,
3,"Thomas and Sadie realized there were menus on the table, and they glanced at the lengthy list quickly.",3,2,None,None,,0,3,3,3,,,,,0,31,31,31,,,,,,,,,,,,,,,,,,,,,1,2.553080375000718,,,,,,,,,,,,,,030119_p2,001,2019_Mar_01_1348,body_behavioural,3.0.4,59.950479226356315,
3,"There were so many strange dishes they had never heard of before, so they settled on familiar orders.",3,2,None,None,,0,3,3,3,,,,,0,32,32,32,,,,,,,,,,,,,,,,,,,,,1,3.6364456199953565,,,,,,,,,,,,,,030119_p2,001,2019_Mar_01_1348,body_behavioural,3.0.4,59.950479226356315,
3,"“I’ll have a burger, no tomatoes,” Thomas said.",3,2,None,None,,0,3,3,3,,,,,0,33,33,33,,,,,,,,,,,,,,,,,,,,,1,1.5194676870014518,,,,,,,,,,,,,,030119_p2,001,2019_Mar_01_1348,body_behavioural,3.0.4,59.950479226356315,
3,"Sadie asked about the reuben, and the waiter told her it was excellent.",3,2,None,None,,0,3,3,3,,,,,0,34,34,34,,,,,,,,,,,,,,,,,,,,,1,1.93611021500692,,,,,,,,,,,,,,030119_p2,001,2019_Mar_01_1348,body_behavioural,3.0.4,59.950479226356315,
3,"Once she agreed to get that, he walked away. ",3,2,None,None,,0,3,3,3,,,,,0,35,35,35,,,,,,,,,,,,,,,,,,,,,1,1.6529848099962692,,,,,,,,,,,,,,030119_p2,001,2019_Mar_01_1348,body_behavioural,3.0.4,59.950479226356315,
3,Sadie and Thomas looked at each other. ,3,2,None,None,,0,3,3,3,,,,,0,36,36,36,,,,,,,,,,,,,,,,,,,,,1,2.086576398003672,,,,,,,,,,,,,,030119_p2,001,2019_Mar_01_1348,body_behavioural,3.0.4,59.950479226356315,
3,"“So what are you saying?”, Sadie asked. ",3,2,None,None,,0,3,3,3,,,,,0,37,37,37,,,,,,,,,,,,,,,,,,,,,1,1.935944245000428,,,,,,,,,,,,,,030119_p2,001,2019_Mar_01_1348,body_behavioural,3.0.4,59.950479226356315,
3,"Thomas replied, “I want to take a break for awhile.",3,2,None,None,,0,3,3,3,,,,,0,38,38,38,,,,,,,,,,,,,,,,,,,,,1,1.5530557249949197,,,,,,,,,,,,,,030119_p2,001,2019_Mar_01_1348,body_behavioural,3.0.4,59.950479226356315,
3,"You know, have space to figure out what I’m supposed to be doing.”",3,2,None,17.0,,0,3,3,3,,,,,0,39,39,39,,,,,,,,,,,,,,,,,,,,,1,2.6693938820026233,,,,,,,,,,,,,,030119_p2,001,2019_Mar_01_1348,body_behavioural,3.0.4,59.950479226356315,
3,Sadie quietly burst into tears. ,3,3,None,None,,0,3,3,3,,,,,0,40,40,40,,,,,,,,,,,,,,,,,,,,,1,1.3201099430007162,,,,,,,,,,,,,,030119_p2,001,2019_Mar_01_1348,body_behavioural,3.0.4,59.950479226356315,
3,"Nevertheless, people sitting at the adjacent table looked over and quickly averted their gaze as they realized what was happening. ",3,3,None,None,,0,3,3,3,,,,,0,41,41,41,,,,,,,,,,,,,,,,,,,,,1,6.419672237003397,,,,,,,,,,,,,,030119_p2,001,2019_Mar_01_1348,body_behavioural,3.0.4,59.950479226356315,
3,“Is this really what you want?,3,3,None,None,,0,3,3,3,,,,,0,42,42,42,,,,,,,,,,,,,,,,,,,,,1,0.8864637399965432,,,,,,,,,,,,,,030119_p2,001,2019_Mar_01_1348,body_behavioural,3.0.4,59.950479226356315,
3,I don’t understand.,3,3,None,None,,0,3,3,3,,,,,0,43,43,43,,,,,,,,,,,,,,,,,,,,,1,0.8696848070030683,,,,,,,,,,,,,,030119_p2,001,2019_Mar_01_1348,body_behavioural,3.0.4,59.950479226356315,
3,I don’t understand.,3,3,None,None,,0,3,3,3,,,,,0,44,44,44,,,,,,,,,,,,,,,,,,,,,1,1.317420459999994,,,,,,,,,,,,,,030119_p2,001,2019_Mar_01_1348,body_behavioural,3.0.4,59.950479226356315,
3,Things were fine. ,3,3,None,None,,0,3,3,3,,,,,0,45,45,45,,,,,,,,,,,,,,,,,,,,,1,1.2030829150025966,,,,,,,,,,,,,,030119_p2,001,2019_Mar_01_1348,body_behavioural,3.0.4,59.950479226356315,
3,"We don’t have to hang out all the time, or as much as we do now.”",3,3,None,None,,0,3,3,3,,,,,0,46,46,46,,,,,,,,,,,,,,,,,,,,,1,4.369427674995677,,,,,,,,,,,,,,030119_p2,001,2019_Mar_01_1348,body_behavioural,3.0.4,59.950479226356315,
3,Thomas chewed on his bottom lip and picked at his now bleeding hangnail. ,3,3,20.0,None,,0,3,3,3,,,,,0,47,47,47,,,,,,,,,,,,,,,,,,,,,1,2.6031192220034427,,,,,,,,,,,,,,030119_p2,001,2019_Mar_01_1348,body_behavioural,3.0.4,59.950479226356315,
3,"At that moment, the waiter arrived with the burger and reuben and set them on the table.",4,3,None,None,,0,3,3,3,,,,,0,48,48,48,,,,,,,,,,,,,,,,,,,,,1,6.003299620002508,,,,,,,,,,,,,,030119_p2,001,2019_Mar_01_1348,body_behavioural,3.0.4,59.950479226356315,
3,“Is there anything else I can get for you two?,4,3,None,None,,0,3,3,3,,,,,0,49,49,49,,,,,,,,,,,,,,,,,,,,,1,0.9196316070010653,,,,,,,,,,,,,,030119_p2,001,2019_Mar_01_1348,body_behavioural,3.0.4,59.950479226356315,
3,"Will you be getting dessert tonight?”, he asked.",4,3,None,None,,0,3,3,3,,,,,0,50,50,50,,,,,,,,,,,,,,,,,,,,,1,1.3197106600055122,,,,,,,,,,,,,,030119_p2,001,2019_Mar_01_1348,body_behavioural,3.0.4,59.950479226356315,
3,"“Oh no, we’re good, thanks,” Thomas said.",4,3,None,None,,0,3,3,3,,,,,0,51,51,51,,,,,,,,,,,,,,,,,,,,,1,1.1362084150023293,,,,,,,,,,,,,,030119_p2,001,2019_Mar_01_1348,body_behavioural,3.0.4,59.950479226356315,
3,"Once the waiter had walked away still oblivious to the situation, Thomas sighed and said, “Sadie, I’m sorry.",4,3,None,None,,0,3,3,3,,,,,0,52,52,52,,,,,,,,,,,,,,,,,,,,,1,4.453530790000514,,,,,,,,,,,,,,030119_p2,001,2019_Mar_01_1348,body_behavioural,3.0.4,59.950479226356315,
3,"You are so great, and I love hanging out with you.",4,3,None,None,,0,3,3,3,,,,,0,53,53,53,,,,,,,,,,,,,,,,,,,,,1,1.4029922100016847,,,,,,,,,,,,,,030119_p2,001,2019_Mar_01_1348,body_behavioural,3.0.4,59.950479226356315,
3,But I need some time.,4,3,None,None,,0,3,3,3,,,,,0,54,54,54,,,,,,,,,,,,,,,,,,,,,1,1.2032384680060204,,,,,,,,,,,,,,030119_p2,001,2019_Mar_01_1348,body_behavioural,3.0.4,59.950479226356315,
3,I’m so sorry.”,4,3,None,None,,0,3,3,3,,,,,0,55,55,55,,,,,,,,,,,,,,,,,,,,,1,0.6028837949997978,,,,,,,,,,,,,,030119_p2,001,2019_Mar_01_1348,body_behavioural,3.0.4,59.950479226356315,
3,"He grabbed her hand, and she pulled it out of his.",4,3,None,None,,0,3,3,3,,,,,0,56,56,56,,,,,,,,,,,,,,,,,,,,,1,1.219486796995625,,,,,,,,,,,,,,030119_p2,001,2019_Mar_01_1348,body_behavioural,3.0.4,59.950479226356315,
3,"“Sadie,” he said.",4,3,None,17.0,,0,3,3,3,,,,,0,57,57,57,,,,,,,,,,,,,,,,,,,,,1,0.7696940319947316,,,,,,,,,,,,,,030119_p2,001,2019_Mar_01_1348,body_behavioural,3.0.4,59.950479226356315,
3," She stood up, grabbed half of the reuben and shook it at him as she growled, “Don’t follow me, and don’t talk to me anymore!”",4,4,None,None,,0,3,3,3,,,,,0,58,58,58,,,,,,,,,,,,,,,,,,,,,9,10.420740793000732,,,,,,,,,,,,,,030119_p2,001,2019_Mar_01_1348,body_behavioural,3.0.4,59.950479226356315,
3,"Sadie's heels clacked loudly against the black and white linoleum, and the bell above the door jingled cheerfully as the door closed behind her.",4,4,None,None,,0,3,3,3,,,,,0,59,59,59,,,,,,,,,,,,,,,,,,,,,1,6.052094313999987,,,,,,,,,,,,,,030119_p2,001,2019_Mar_01_1348,body_behavioural,3.0.4,59.950479226356315,
3,Thomas sat there for awhile in shock at how quickly everything transpired. ,4,4,None,None,,0,3,3,3,,,,,0,60,60,60,,,,,,,,,,,,,,,,,,,,,1,4.65376522999577,,,,,,,,,,,,,,030119_p2,001,2019_Mar_01_1348,body_behavioural,3.0.4,59.950479226356315,
3,"He grabbed his burger and took a bite of it, creating a dry and fishy taste in his mouth.",4,4,None,None,,0,3,3,3,,,,,0,61,61,61,,,,,,,,,,,,,,,,,,,,,1,5.736453518002236,,,,,,,,,,,,,,030119_p2,001,2019_Mar_01_1348,body_behavioural,3.0.4,59.950479226356315,
3,He dropped it back on his plate and wondered if the restaurant was responsible for the foul taste. ,4,4,13.0,5.0,,0,3,3,3,,,,,0,62,62,62,,,,,,,,,,,,,,,,,,,,,1,4.7342376800006605,,,,,,,,,,,,,,030119_p2,001,2019_Mar_01_1348,body_behavioural,3.0.4,59.950479226356315,
3,,,,,,,0,3,3,3,,,,,,,,,,,,,,,,,,,,,,,,,,,,,,,,,,,,,,,,,,,,030119_p2,001,2019_Mar_01_1348,body_behavioural,3.0.4,59.950479226356315,
4,,,,,,,0,4,4,4,0,0,0,0,,,,,,,,,,,,,,,,,,,space,1.1170570449976367,space,0.5698603669952718,space,1.5698175899960916,,,,,,,,,,,,,,,,030119_p2,001,2019_Mar_01_1348,body_behavioural,3.0.4,59.950479226356315,
4,"Alvira and Senna walked into the restaurant hand in sweaty hand with quite different expectations: Senna was going to propose tonight, and Alvira had no idea.",1,1,None,None,,0,4,4,4,,,,,0,0,0,0,,,,,,,,,,,,,,,,,,,,,9,75.47534846799681,,,,,,,,,,,,,,030119_p2,001,2019_Mar_01_1348,body_behavioural,3.0.4,59.950479226356315,
4,"He took a deep breath, trying to calm his nerves as worst case scenarios ran through his mind. ",1,1,None,None,,0,4,4,4,,,,,0,1,1,1,,,,,,,,,,,,,,,,,,,,,1,4.951237013003265,,,,,,,,,,,,,,030119_p2,001,2019_Mar_01_1348,body_behavioural,3.0.4,59.950479226356315,
4,The entrance of the restaurant was dazzling; chandeliers spread their warm light onto the delicate place settings of all the tables filled with guests dressed to the nines. ,1,1,None,None,,0,4,4,4,,,,,0,2,2,2,,,,,,,,,,,,,,,,,,,,,9,16.535012201995414,,,,,,,,,,,,,,030119_p2,001,2019_Mar_01_1348,body_behavioural,3.0.4,59.950479226356315,
4,"Through the floor-to-ceiling arched windows of the back wall, they saw the sun setting onto the Pacific ocean.",1,1,None,None,,0,4,4,4,,,,,0,3,3,3,,,,,,,,,,,,,,,,,,,,,1,70.14130450200173,,,,,,,,,,,,,,030119_p2,001,2019_Mar_01_1348,body_behavioural,3.0.4,59.950479226356315,
4,"This was surely one of the best restaurants on the west coast, situated right on the beach.",1,1,None,None,,0,4,4,4,,,,,0,4,4,4,,,,,,,,,,,,,,,,,,,,,1,14.387213325004268,,,,,,,,,,,,,,030119_p2,001,2019_Mar_01_1348,body_behavioural,3.0.4,59.950479226356315,
4,"Senna gave his name to the host, who quickly located their reservation with an almost comically wide customer-service smile.",1,1,7.0,None,,0,4,4,4,,,,,0,5,5,5,,,,,,,,,,,,,,,,,,,,,9,11.503619340001023,,,,,,,,,,,,,,030119_p2,001,2019_Mar_01_1348,body_behavioural,3.0.4,59.950479226356315,
4,He led them to a table right by the window.,2,1,None,None,,0,4,4,4,,,,,0,6,6,6,,,,,,,,,,,,,,,,,,,,,1,3.153353766996588,,,,,,,,,,,,,,030119_p2,001,2019_Mar_01_1348,body_behavioural,3.0.4,59.950479226356315,
4,"He brought out some very small menus, with a short list of the celebrity chef's carefully selected daily dishes written in a loopy, cursive font unadorned by any mention of prices.",2,1,None,9.0,,0,4,4,4,,,,,0,7,7,7,,,,,,,,,,,,,,,,,,,,,1,20.304042479998316,,,,,,,,,,,,,,030119_p2,001,2019_Mar_01_1348,body_behavioural,3.0.4,59.950479226356315,
4,Senna slipped off to the bathroom to check to make sure the ring was in order.,2,2,None,None,,0,4,4,4,,,,,0,8,8,8,,,,,,,,,,,,,,,,,,,,,1,8.903450404999603,,,,,,,,,,,,,,030119_p2,001,2019_Mar_01_1348,body_behavioural,3.0.4,59.950479226356315,
4,"The ring contained a canary diamond that had been in his grandmother’s wedding ring, and it was a brilliant stone that was accentuated by the small white diamonds encircling it.",2,2,None,None,,0,4,4,4,,,,,0,9,9,9,,,,,,,,,,,,,,,,,,,,,9,6.467699900000298,,,,,,,,,,,,,,030119_p2,001,2019_Mar_01_1348,body_behavioural,3.0.4,59.950479226356315,
4,"He walked back to the table after handing the small, velvet box to a waiter at the front podium.",2,2,6.0,None,,0,4,4,4,,,,,0,10,10,10,,,,,,,,,,,,,,,,,,,,,1,6.886849376998725,,,,,,,,,,,,,,030119_p2,001,2019_Mar_01_1348,body_behavioural,3.0.4,59.950479226356315,
4,He came back just as their waiter was approaching the table to get their order.,3,2,None,None,,0,4,4,4,,,,,0,11,11,11,,,,,,,,,,,,,,,,,,,,,1,2.5359800799997174,,,,,,,,,,,,,,030119_p2,001,2019_Mar_01_1348,body_behavioural,3.0.4,59.950479226356315,
4,"Senna ordered the oysters with garlic-parmesan sauce, and Alvira ordered the sauteed sea scallops with caramelized apples. ",3,2,None,None,,0,4,4,4,,,,,0,12,12,12,,,,,,,,,,,,,,,,,,,,,1,16.654050258002826,,,,,,,,,,,,,,030119_p2,001,2019_Mar_01_1348,body_behavioural,3.0.4,59.950479226356315,
4,"“Excellent choices,” the waiter said with a subsequent brisk spin away from the table.",3,2,None,None,,0,4,4,4,,,,,0,13,13,13,,,,,,,,,,,,,,,,,,,,,1,2.7678225350027787,,,,,,,,,,,,,,030119_p2,001,2019_Mar_01_1348,body_behavioural,3.0.4,59.950479226356315,
4,"“What a beautiful place, Senna. ",3,2,None,None,,0,4,4,4,,,,,0,14,14,14,,,,,,,,,,,,,,,,,,,,,1,1.836425966997922,,,,,,,,,,,,,,030119_p2,001,2019_Mar_01_1348,body_behavioural,3.0.4,59.950479226356315,
4,"Really this is too much just to celebrate the first tomatoes I grew in the garden, like, this is absurd,” Alvira said.",3,2,None,None,,0,4,4,4,,,,,0,15,15,15,,,,,,,,,,,,,,,,,,,,,1,10.703628462004417,,,,,,,,,,,,,,030119_p2,001,2019_Mar_01_1348,body_behavioural,3.0.4,59.950479226356315,
4,"Senna laughed and said, “No, those were really the best tomatoes I’ve ever had. ",3,2,None,None,,0,4,4,4,,,,,0,16,16,16,,,,,,,,,,,,,,,,,,,,,1,2.5196157169993967,,,,,,,,,,,,,,030119_p2,001,2019_Mar_01_1348,body_behavioural,3.0.4,59.950479226356315,
4,We had to celebrate.” ,3,2,None,None,,0,4,4,4,,,,,0,17,17,17,,,,,,,,,,,,,,,,,,,,,1,0.786416561997612,,,,,,,,,,,,,,030119_p2,001,2019_Mar_01_1348,body_behavioural,3.0.4,59.950479226356315,
4,"They talked and laughed as the sun sank below the horizon, and the glow from the ocean was replaced by the glow from the chandeliers.",3,2,8.0,None,,0,4,4,4,,,,,0,18,18,18,,,,,,,,,,,,,,,,,,,,,1,7.369710351995309,,,,,,,,,,,,,,030119_p2,001,2019_Mar_01_1348,body_behavioural,3.0.4,59.950479226356315,
4,"The waiter eventually returned with their meals, and everything was even more delicious than they had expected, especially the oysters, which Senna said tasted like the ocean. ",4,2,None,None,,0,4,4,4,,,,,0,19,19,19,,,,,,,,,,,,,,,,,,,,,9,7.137097617996915,,,,,,,,,,,,,,030119_p2,001,2019_Mar_01_1348,body_behavioural,3.0.4,59.950479226356315,
4,Then he paused and looked at Alvira meaningfully. ,4,2,None,None,,0,4,4,4,,,,,0,20,20,20,,,,,,,,,,,,,,,,,,,,,1,3.119850636998308,,,,,,,,,,,,,,030119_p2,001,2019_Mar_01_1348,body_behavioural,3.0.4,59.950479226356315,
4, “It’s really been the best three years of my life with you.,4,2,None,None,,0,4,4,4,,,,,0,21,21,21,,,,,,,,,,,,,,,,,,,,,1,1.3360542219961644,,,,,,,,,,,,,,030119_p2,001,2019_Mar_01_1348,body_behavioural,3.0.4,59.950479226356315,
4,"I couldn’t imagine it any other way, and I don’t want to.",4,2,None,None,,0,4,4,4,,,,,0,22,22,22,,,,,,,,,,,,,,,,,,,,,1,1.41751775299781,,,,,,,,,,,,,,030119_p2,001,2019_Mar_01_1348,body_behavioural,3.0.4,59.950479226356315,
4,"I really want to spend the rest of my years eating garden tomatoes, whatever it is, with you.” ",4,2,None,None,,0,4,4,4,,,,,0,23,23,23,,,,,,,,,,,,,,,,,,,,,1,4.752755591995083,,,,,,,,,,,,,,030119_p2,001,2019_Mar_01_1348,body_behavioural,3.0.4,59.950479226356315,
4,"Alvira smiled, “I want the same with you too, Senna.” ",4,2,None,17.0,,0,4,4,4,,,,,0,24,24,24,,,,,,,,,,,,,,,,,,,,,1,1.2193370050008525,,,,,,,,,,,,,,030119_p2,001,2019_Mar_01_1348,body_behavioural,3.0.4,59.950479226356315,
4,"Senna nodded at the waiter who had been watching attentively, and he quickly strode over to place a small, elegant cake topped with the ring in front of Alvira. ",4,3,None,None,,0,4,4,4,,,,,0,25,25,25,,,,,,,,,,,,,,,,,,,,,1,9.52034909500071,,,,,,,,,,,,,,030119_p2,001,2019_Mar_01_1348,body_behavioural,3.0.4,59.950479226356315,
4,Her eyes widened in shock when she realized what she was looking at.,4,3,None,None,,0,4,4,4,,,,,0,26,26,26,,,,,,,,,,,,,,,,,,,,,1,2.3363558649944025,,,,,,,,,,,,,,030119_p2,001,2019_Mar_01_1348,body_behavioural,3.0.4,59.950479226356315,
4,"“Alvira, will you marry me? ",4,3,None,None,,0,4,4,4,,,,,0,27,27,27,,,,,,,,,,,,,,,,,,,,,1,1.6196738400030881,,,,,,,,,,,,,,030119_p2,001,2019_Mar_01_1348,body_behavioural,3.0.4,59.950479226356315,
4,"I love you, and I will never stop loving you.” ",4,3,None,None,,0,4,4,4,,,,,0,28,28,28,,,,,,,,,,,,,,,,,,,,,1,1.1032437050016597,,,,,,,,,,,,,,030119_p2,001,2019_Mar_01_1348,body_behavioural,3.0.4,59.950479226356315,
4,Alvira started to cry.,4,3,None,None,,0,4,4,4,,,,,0,29,29,29,,,,,,,,,,,,,,,,,,,,,1,0.8199586629998521,,,,,,,,,,,,,,030119_p2,001,2019_Mar_01_1348,body_behavioural,3.0.4,59.950479226356315,
4,"The room became silent, and everyone turned to their table. ",4,3,None,5.0,,0,4,4,4,,,,,0,30,30,30,,,,,,,,,,,,,,,,,,,,,1,1.5341392129994347,,,,,,,,,,,,,,030119_p2,001,2019_Mar_01_1348,body_behavioural,3.0.4,59.950479226356315,
4,"“Yes, of course, yes!” she shouted as she wiped away tears.",4,4,None,None,,0,4,4,4,,,,,0,31,31,31,,,,,,,,,,,,,,,,,,,,,1,1.2019301829932374,,,,,,,,,,,,,,030119_p2,001,2019_Mar_01_1348,body_behavioural,3.0.4,59.950479226356315,
4,The neighboring tables exploded in applause.,4,4,None,None,,0,4,4,4,,,,,0,32,32,32,,,,,,,,,,,,,,,,,,,,,1,1.134264964995964,,,,,,,,,,,,,,030119_p2,001,2019_Mar_01_1348,body_behavioural,3.0.4,59.950479226356315,
4,The waiter returned with a bottle of champagne and popped it. ,4,4,None,None,,0,4,4,4,,,,,0,33,33,33,,,,,,,,,,,,,,,,,,,,,1,1.3533021900002495,,,,,,,,,,,,,,030119_p2,001,2019_Mar_01_1348,body_behavioural,3.0.4,59.950479226356315,
4,"All of this went unnoticed by Senna and Alvira as they looked into each others’ eyes, and he slipped the ring onto her finger. ",4,4,None,None,,0,4,4,4,,,,,0,34,34,34,,,,,,,,,,,,,,,,,,,,,1,9.770042650001415,,,,,,,,,,,,,,030119_p2,001,2019_Mar_01_1348,body_behavioural,3.0.4,59.950479226356315,
4,"She held up her hand to admire it, and her glittering tears of joy matched the shine from her ring.   
",4,4,17.0,5.0,,0,4,4,4,,,,,0,35,35,35,,,,,,,,,,,,,,,,,,,,,1,3.0869282979983836,,,,,,,,,,,,,,030119_p2,001,2019_Mar_01_1348,body_behavioural,3.0.4,59.950479226356315,
4,,,,,,,0,4,4,4,,,,,,,,,,,,,,,,,,,,,,,,,,,,,,,,,,,,,,,,,,,,030119_p2,001,2019_Mar_01_1348,body_behavioural,3.0.4,59.950479226356315,
5,,,,,,,0,5,5,5,0,0,0,0,,,,,,,,,,,,,,,,,,,space,1.0694929219971527,space,0.616758418000245,space,0.6006563369955984,,,,,,,,,,,,,,,,030119_p2,001,2019_Mar_01_1348,body_behavioural,3.0.4,59.950479226356315,
5,David saw Anna for the first time when she burst into the airport with her bag skidding behind her half-zipped. ,1,1,,,,0,5,5,5,,,,,0,0,0,0,,,,,,,,,,,,,,,,,,,,,9,45.93943715700152,,,,,,,,,,,,,,030119_p2,001,2019_Mar_01_1348,body_behavioural,3.0.4,59.950479226356315,
5,"He had three hours until his flight, but she clearly had less than one.",1,1,,,,0,5,5,5,,,,,0,1,1,1,,,,,,,,,,,,,,,,,,,,,1,5.186458607000532,,,,,,,,,,,,,,030119_p2,001,2019_Mar_01_1348,body_behavioural,3.0.4,59.950479226356315,
5,"Anna’s yoga class had ran over, and afterwards, she, forgetting the time, had lingered to talk with friends. ",1,1,,,,0,5,5,5,,,,,0,2,2,2,,,,,,,,,,,,,,,,,,,,,1,5.570033061994764,,,,,,,,,,,,,,030119_p2,001,2019_Mar_01_1348,body_behavioural,3.0.4,59.950479226356315,
5,"Despite Anna's frazzled state, David was instantly intrigued by her.",1,1,,,,0,5,5,5,,,,,0,3,3,3,,,,,,,,,,,,,,,,,,,,,1,3.036452164997172,,,,,,,,,,,,,,030119_p2,001,2019_Mar_01_1348,body_behavioural,3.0.4,59.950479226356315,
5,"He thought she was beautiful, and she reminded him of one of his favorite paintings.",1,1,,,,0,5,5,5,,,,,0,4,4,4,,,,,,,,,,,,,,,,,,,,,1,5.034289668001293,,,,,,,,,,,,,,030119_p2,001,2019_Mar_01_1348,body_behavioural,3.0.4,59.950479226356315,
5,"Anna, a few strides into the airport, suddenly realized her shoes were untied, so she hunched over to tie them.",1,1,,,,0,5,5,5,,,,,0,5,5,5,,,,,,,,,,,,,,,,,,,,,1,4.6696806749969255,,,,,,,,,,,,,,030119_p2,001,2019_Mar_01_1348,body_behavioural,3.0.4,59.950479226356315,
5,David observed that someone with a tall cart of luggage was heading straight for where Anna was kneeling. ,1,1,,,,0,5,5,5,,,,,0,6,6,6,,,,,,,,,,,,,,,,,,,,,1,4.853074264996394,,,,,,,,,,,,,,030119_p2,001,2019_Mar_01_1348,body_behavioural,3.0.4,59.950479226356315,
5,Both Anna and the person driving the cart were oblivious to the impending collision. ,1,1,,,,0,5,5,5,,,,,0,7,7,7,,,,,,,,,,,,,,,,,,,,,1,19.401677556998038,,,,,,,,,,,,,,030119_p2,001,2019_Mar_01_1348,body_behavioural,3.0.4,59.950479226356315,
5,"David had to intervene, and he ran in front of the cart pushing her out of the way just in the nick of time, and they tumbled on the airport floor. ",1,2,,,,0,5,5,5,,,,,0,8,8,8,,,,,,,,,,,,,,,,,,,,,1,10.818064250001044,,,,,,,,,,,,,,030119_p2,001,2019_Mar_01_1348,body_behavioural,3.0.4,59.950479226356315,
5,"Anna, bewildered, looked up and saw the cart pass by and then looked over at David. ",1,2,,,,0,5,5,5,,,,,0,9,9,9,,,,,,,,,,,,,,,,,,,,,1,10.236515994998626,,,,,,,,,,,,,,030119_p2,001,2019_Mar_01_1348,body_behavioural,3.0.4,59.950479226356315,
5,He gave a smile back.,1,2,,,,0,5,5,5,,,,,0,10,10,10,,,,,,,,,,,,,,,,,,,,,1,1.6692287669939105,,,,,,,,,,,,,,030119_p2,001,2019_Mar_01_1348,body_behavioural,3.0.4,59.950479226356315,
5,"“You alright?”, he said.",1,2,,,,0,5,5,5,,,,,0,11,11,11,,,,,,,,,,,,,,,,,,,,,9,1.8185349969935487,,,,,,,,,,,,,,030119_p2,001,2019_Mar_01_1348,body_behavioural,3.0.4,59.950479226356315,
5,"She whispered, “Uh yeah.",1,2,,,,0,5,5,5,,,,,0,12,12,12,,,,,,,,,,,,,,,,,,,,,1,1.6186799019997125,,,,,,,,,,,,,,030119_p2,001,2019_Mar_01_1348,body_behavioural,3.0.4,59.950479226356315,
5,I almost got smooshed by that cart.”,1,2,,,,0,5,5,5,,,,,0,13,13,13,,,,,,,,,,,,,,,,,,,,,1,1.4190447039945866,,,,,,,,,,,,,,030119_p2,001,2019_Mar_01_1348,body_behavioural,3.0.4,59.950479226356315,
5,Her head was still spinning as she stared at the handsome stranger who had saved her. ,1,2,,,,0,5,5,5,,,,,0,14,14,14,,,,,,,,,,,,,,,,,,,,,1,3.6540864880007575,,,,,,,,,,,,,,030119_p2,001,2019_Mar_01_1348,body_behavioural,3.0.4,59.950479226356315,
5,David helped her up and had to keep holding on to her arms to steady her even once they were standing.,1,2,,,,0,5,5,5,,,,,0,15,15,15,,,,,,,,,,,,,,,,,,,,,1,14.270144627000263,,,,,,,,,,,,,,030119_p2,001,2019_Mar_01_1348,body_behavioural,3.0.4,59.950479226356315,
5,"“I’m really late for my flight,” she said. ",1,2,,,,0,5,5,5,,,,,0,16,16,16,,,,,,,,,,,,,,,,,,,,,1,5.186313247002545,,,,,,,,,,,,,,030119_p2,001,2019_Mar_01_1348,body_behavioural,3.0.4,59.950479226356315,
5,"“Don't worry,” said David, "let me help you get to your gate." ",1,2,,,,0,5,5,5,,,,,0,17,17,17,,,,,,,,,,,,,,,,,,,,,1,5.336734755001089,,,,,,,,,,,,,,030119_p2,001,2019_Mar_01_1348,body_behavioural,3.0.4,59.950479226356315,
5,He waved off her half-hearted protests. ,1,2,,,,0,5,5,5,,,,,0,18,18,18,,,,,,,,,,,,,,,,,,,,,1,2.586566092002613,,,,,,,,,,,,,,030119_p2,001,2019_Mar_01_1348,body_behavioural,3.0.4,59.950479226356315,
5,"“Really , I have plenty of time and nothing better to do.”",1,2,,,,0,5,5,5,,,,,0,19,19,19,,,,,,,,,,,,,,,,,,,,,1,2.5371872800023993,,,,,,,,,,,,,,030119_p2,001,2019_Mar_01_1348,body_behavioural,3.0.4,59.950479226356315,
5,They headed to the security line. ,2,2,,,,0,5,5,5,,,,,0,20,20,20,,,,,,,,,,,,,,,,,,,,,1,1.7682453360030195,,,,,,,,,,,,,,030119_p2,001,2019_Mar_01_1348,body_behavioural,3.0.4,59.950479226356315,
5,"The line was not long, and they spent the time chatting and getting to know each other.",2,2,,,,0,5,5,5,,,,,0,21,21,21,,,,,,,,,,,,,,,,,,,,,1,3.2704083299977356,,,,,,,,,,,,,,030119_p2,001,2019_Mar_01_1348,body_behavioural,3.0.4,59.950479226356315,
5,It turned out that Anna and David went to the same high school but Anna had been 3 years older.,2,2,,,,0,5,5,5,,,,,0,22,22,22,,,,,,,,,,,,,,,,,,,,,1,6.251029324994306,,,,,,,,,,,,,,030119_p2,001,2019_Mar_01_1348,body_behavioural,3.0.4,59.950479226356315,
5,When they got to the front of the line they took off their shoes and pulled off their coats.,2,3,,,,0,5,5,5,,,,,0,23,23,23,,,,,,,,,,,,,,,,,,,,,1,7.503524086998368,,,,,,,,,,,,,,030119_p2,001,2019_Mar_01_1348,body_behavioural,3.0.4,59.950479226356315,
5,Both of them went through the metal detector without any problems. ,2,3,,,,0,5,5,5,,,,,0,24,24,24,,,,,,,,,,,,,,,,,,,,,1,1.8029714620060986,,,,,,,,,,,,,,030119_p2,001,2019_Mar_01_1348,body_behavioural,3.0.4,59.950479226356315,
5,"Anna’s flight was in 20 minutes, and as she was rushing to put her shoes and coat back on, David asked her, “So when are you coming back?”",2,3,,,,0,5,5,5,,,,,0,25,25,25,,,,,,,,,,,,,,,,,,,,,1,7.7030763769944315,,,,,,,,,,,,,,030119_p2,001,2019_Mar_01_1348,body_behavioural,3.0.4,59.950479226356315,
5,"“In a week, it’s a short trip,” Anna replied. ",2,3,,,,0,5,5,5,,,,,0,26,26,26,,,,,,,,,,,,,,,,,,,,,1,2.6531310800055508,,,,,,,,,,,,,,030119_p2,001,2019_Mar_01_1348,body_behavioural,3.0.4,59.950479226356315,
5,"“Me too,” David said.",2,3,,,,0,5,5,5,,,,,0,27,27,27,,,,,,,,,,,,,,,,,,,,,1,0.9359445000009146,,,,,,,,,,,,,,030119_p2,001,2019_Mar_01_1348,body_behavioural,3.0.4,59.950479226356315,
5,"He continued, “When we're back in town, is there any chance you'd want to get dinner?",2,3,,,,0,5,5,5,,,,,0,28,28,28,,,,,,,,,,,,,,,,,,,,,1,3.5508821469993563,,,,,,,,,,,,,,030119_p2,001,2019_Mar_01_1348,body_behavioural,3.0.4,59.950479226356315,
5,"I know we just met, but when life throws a luggage cart at you it seems like we should listen. “",2,3,,,,0,5,5,5,,,,,0,29,29,29,,,,,,,,,,,,,,,,,,,,,1,7.186813118001737,,,,,,,,,,,,,,030119_p2,001,2019_Mar_01_1348,body_behavioural,3.0.4,59.950479226356315,
5,"She stopped packing, and said with a smile, “Yes I would love that.”",2,3,,,,0,5,5,5,,,,,0,30,30,30,,,,,,,,,,,,,,,,,,,,,1,2.3865364899975248,,,,,,,,,,,,,,030119_p2,001,2019_Mar_01_1348,body_behavioural,3.0.4,59.950479226356315,
5,Then they ran off to Anna’s gate which was at the end of the terminal. ,3,3,,,,0,5,5,5,,,,,0,31,31,31,,,,,,,,,,,,,,,,,,,,,1,1.9538969960049144,,,,,,,,,,,,,,030119_p2,001,2019_Mar_01_1348,body_behavioural,3.0.4,59.950479226356315,
5,"David took put on her backpack, grabbed her hand, and navigated quickly through the crowds of people.",3,3,,,,0,5,5,5,,,,,0,32,32,32,,,,,,,,,,,,,,,,,,,,,1,9.46992784000031,,,,,,,,,,,,,,030119_p2,001,2019_Mar_01_1348,body_behavioural,3.0.4,59.950479226356315,
5,Anna was amazed at everything that was happening; she had arrived at the airport doubtful that she would make it and was now confident that she would due to this handsome and kind man she just met.,3,3,,,,0,5,5,5,,,,,0,33,33,33,,,,,,,,,,,,,,,,,,,,,1,7.120012138002494,,,,,,,,,,,,,,030119_p2,001,2019_Mar_01_1348,body_behavioural,3.0.4,59.950479226356315,
5,"As they approached her gate, Anna fished out a crumbled business card from her pocket and handed it to David, who handed her the backpack, and he promised to call her next week.",3,4,,,,0,5,5,5,,,,,0,34,34,34,,,,,,,,,,,,,,,,,,,,,1,11.287044780001452,,,,,,,,,,,,,,030119_p2,001,2019_Mar_01_1348,body_behavioural,3.0.4,59.950479226356315,
5,She gave him one last embarrassed smile and approached the flight attendant who scanned her ticket. ,3,4,,,,0,5,5,5,,,,,0,35,35,35,,,,,,,,,,,,,,,,,,,,,9,7.1710406330021215,,,,,,,,,,,,,,030119_p2,001,2019_Mar_01_1348,body_behavioural,3.0.4,59.950479226356315,
5,"Finally, she boarded the plane, sliding into her window seat located all the way in the back of the plane.",4,4,,,,0,5,5,5,,,,,0,36,36,36,,,,,,,,,,,,,,,,,,,,,1,5.669328725001833,,,,,,,,,,,,,,030119_p2,001,2019_Mar_01_1348,body_behavioural,3.0.4,59.950479226356315,
5,"Barely containing her glee, she ignored the grumbles of complaint as she squeezed past the other passengers in her row and settled back in her seat. ",4,4,,,,0,5,5,5,,,,,0,37,37,37,,,,,,,,,,,,,,,,,,,,,1,5.6374352230050135,,,,,,,,,,,,,,030119_p2,001,2019_Mar_01_1348,body_behavioural,3.0.4,59.950479226356315,
5,"She was thankful that she had not only made it onto the plane in time, but also that she had been clumsy enough to forget to tie her shoes.",4,4,,,,0,5,5,5,,,,,0,38,38,38,,,,,,,,,,,,,,,,,,,,,1,13.354032695002388,,,,,,,,,,,,,,030119_p2,001,2019_Mar_01_1348,body_behavioural,3.0.4,59.950479226356315,
5,,,,,,,0,5,5,5,,,,,,,,,,,,,,,,,,,,,,,,,,,,,,,,,,,,,,,,,,,,030119_p2,001,2019_Mar_01_1348,body_behavioural,3.0.4,59.950479226356315,
6,,,,,,,0,6,6,6,0,0,0,0,,,,,,,,,,,,,,,,,,,space,1.0697318149977946,space,0.886386243000743,space,0.5862937370038708,,,,,,,,,,,,,,,,030119_p2,001,2019_Mar_01_1348,body_behavioural,3.0.4,59.950479226356315,
6,"Jeff, hoping that today would be a pivotal day for his new business, had only been waiting inside the doors of the airport for a few minutes when he saw William and eagerly waved him over. ",1,1,,,,0,6,6,6,,,,,0,0,0,0,,,,,,,,,,,,,,,,,,,,,9,40.87344822799787,,,,,,,,,,,,,,030119_p2,001,2019_Mar_01_1348,body_behavioural,3.0.4,59.950479226356315,
6,"Jeff, checking his watch, was pleased to see that the two of them had two hours to discuss business before their flights left Boston.",1,1,,,,0,6,6,6,,,,,0,1,1,1,,,,,,,,,,,,,,,,,,,,,1,5.753545229999872,,,,,,,,,,,,,,030119_p2,001,2019_Mar_01_1348,body_behavioural,3.0.4,59.950479226356315,
6,The two had met the night before in line for the bathroom at a local bar. ,1,1,,,,0,6,6,6,,,,,0,2,2,2,,,,,,,,,,,,,,,,,,,,,1,3.769963070000813,,,,,,,,,,,,,,030119_p2,001,2019_Mar_01_1348,body_behavioural,3.0.4,59.950479226356315,
6,Jeff had delivered some surprisingly-detailed complaints to William about the wine selection.,1,1,,,,0,6,6,6,,,,,0,3,3,3,,,,,,,,,,,,,,,,,,,,,1,7.469949029997224,,,,,,,,,,,,,,030119_p2,001,2019_Mar_01_1348,body_behavioural,3.0.4,59.950479226356315,
6,They quickly learned about each other that Jeff was a representative for wine vineyards in the Northeast and William was a wine buyer for corporate events.,1,1,,,,0,6,6,6,,,,,0,4,4,4,,,,,,,,,,,,,,,,,,,,,9,6.7363510969953495,,,,,,,,,,,,,,030119_p2,001,2019_Mar_01_1348,body_behavioural,3.0.4,59.950479226356315,
6,"Since they both had flights out of Boston at the same time, they had agreed to meet at the airport and talk about potentially doing business. ",1,1,,,,0,6,6,6,,,,,0,5,5,5,,,,,,,,,,,,,,,,,,,,,1,6.003184177003277,,,,,,,,,,,,,,030119_p2,001,2019_Mar_01_1348,body_behavioural,3.0.4,59.950479226356315,
6,"They headed to security together, pleased to find that the line was not so long, and they chatted a little as they were waiting. ",2,1,,,,0,6,6,6,,,,,0,6,6,6,,,,,,,,,,,,,,,,,,,,,1,8.169892101999721,,,,,,,,,,,,,,030119_p2,001,2019_Mar_01_1348,body_behavioural,3.0.4,59.950479226356315,
6,"“It’s crazy that we met last night,” William said, “I am flying out right now to meet my boss, and was worried that I was going to show up empty handed without any local retailer prepared.” ",2,1,,,,0,6,6,6,,,,,0,7,7,7,,,,,,,,,,,,,,,,,,,,,1,6.8037262950019795,,,,,,,,,,,,,,030119_p2,001,2019_Mar_01_1348,body_behavioural,3.0.4,59.950479226356315,
6,"“I know, what are the chances, right?” Jeff said.",2,1,,,,0,6,6,6,,,,,0,8,8,8,,,,,,,,,,,,,,,,,,,,,1,2.5207793779991334,,,,,,,,,,,,,,030119_p2,001,2019_Mar_01_1348,body_behavioural,3.0.4,59.950479226356315,
6,"William laughed and said, “I’m glad our shared complaining can come in handy.",2,1,,,,0,6,6,6,,,,,0,9,9,9,,,,,,,,,,,,,,,,,,,,,1,8.0036105399995,,,,,,,,,,,,,,030119_p2,001,2019_Mar_01_1348,body_behavioural,3.0.4,59.950479226356315,
6,"I know this is fast, but I'd like to get right down to specifics.",2,2,,,,0,6,6,6,,,,,0,10,10,10,,,,,,,,,,,,,,,,,,,,,1,3.0698376869986532,,,,,,,,,,,,,,030119_p2,001,2019_Mar_01_1348,body_behavioural,3.0.4,59.950479226356315,
6,I'd like to order a couple of sample shipments from you and present them to our corporate buyers.,2,2,,,,0,6,6,6,,,,,0,11,11,11,,,,,,,,,,,,,,,,,,,,,9,4.136681087002216,,,,,,,,,,,,,,030119_p2,001,2019_Mar_01_1348,body_behavioural,3.0.4,59.950479226356315,
6,"Typically we expect to get these kinds of samples at a deep discount, at least half-off the label price.",2,2,,,,0,6,6,6,,,,,0,12,12,12,,,,,,,,,,,,,,,,,,,,,1,4.103344951996405,,,,,,,,,,,,,,030119_p2,001,2019_Mar_01_1348,body_behavioural,3.0.4,59.950479226356315,
6,"This is nothing, okay, compared to what you will be making if one of these buyers makes a contract.",2,2,,,,0,6,6,6,,,,,0,13,13,13,,,,,,,,,,,,,,,,,,,,,1,3.2363037600007374,,,,,,,,,,,,,,030119_p2,001,2019_Mar_01_1348,body_behavioural,3.0.4,59.950479226356315,
6,So I propose that you send us $600 worth of wine shipments for a price of $300.”,2,2,,,,0,6,6,6,,,,,0,14,14,14,,,,,,,,,,,,,,,,,,,,,1,6.319820174998313,,,,,,,,,,,,,,030119_p2,001,2019_Mar_01_1348,body_behavioural,3.0.4,59.950479226356315,
6,"When it was their turn to go through the metal detector, they took off their shoes and pulled out their laptops.",2,2,,,,0,6,6,6,,,,,0,15,15,15,,,,,,,,,,,,,,,,,,,,,1,4.720025175003684,,,,,,,,,,,,,,030119_p2,001,2019_Mar_01_1348,body_behavioural,3.0.4,59.950479226356315,
6,"Jeff mulled over the offer, nodding noncommittally to William's pitch as they proceeded through the metal detector and retrieved their belongings.",2,2,,,,0,6,6,6,,,,,0,16,16,16,,,,,,,,,,,,,,,,,,,,,1,9.203595304999908,,,,,,,,,,,,,,030119_p2,001,2019_Mar_01_1348,body_behavioural,3.0.4,59.950479226356315,
6,"They began to walk through the concourse, and William handed some printed spreadsheets to Jeff as they navigated toward their gates at the end of the terminal.",3,2,,,,0,6,6,6,,,,,0,17,17,17,,,,,,,,,,,,,,,,,,,,,1,13.651612604997354,,,,,,,,,,,,,,030119_p2,001,2019_Mar_01_1348,body_behavioural,3.0.4,59.950479226356315,
6,"Jeff, weaving through the crowds of travelers, squinted at William's rosy projections of the number of bottles he could be able to purchase in the future.",3,2,,,,0,6,6,6,,,,,0,18,18,18,,,,,,,,,,,,,,,,,,,,,9,10.520062403003976,,,,,,,,,,,,,,030119_p2,001,2019_Mar_01_1348,body_behavioural,3.0.4,59.950479226356315,
6,"Finally Jeff said, “I don’t know, we’re not coming from corporate vineyards, so gambling with sample shipments is the kind of risk we can’t necessarily make. ",3,3,,,,0,6,6,6,,,,,0,19,19,19,,,,,,,,,,,,,,,,,,,,,1,6.303610342001775,,,,,,,,,,,,,,030119_p2,001,2019_Mar_01_1348,body_behavioural,3.0.4,59.950479226356315,
6,"These corporate purchases would have to be huge and practically guaranteed, to offset the loss from selling sample shipments at this price.”",3,3,,,,0,6,6,6,,,,,0,20,20,20,,,,,,,,,,,,,,,,,,,,,1,13.818100668002444,,,,,,,,,,,,,,030119_p2,001,2019_Mar_01_1348,body_behavioural,3.0.4,59.950479226356315,
6,"They walked to the gates very slowly, barely registering the hubbub of the airport since they were so caught up in figuring out this deal before their flights left.",3,3,,,,0,6,6,6,,,,,0,21,21,21,,,,,,,,,,,,,,,,,,,,,1,6.720045121997828,,,,,,,,,,,,,,030119_p2,001,2019_Mar_01_1348,body_behavioural,3.0.4,59.950479226356315,
6,"At the end of their long walk, they got to Jeff’s gate first, which had begun boarding passengers.",3,3,,,,0,6,6,6,,,,,0,22,22,22,,,,,,,,,,,,,,,,,,,,,1,3.4028154800034827,,,,,,,,,,,,,,030119_p2,001,2019_Mar_01_1348,body_behavioural,3.0.4,59.950479226356315,
6,"In these last minutes, William and Jeff agreed on a compromise rate on the sample shipment, paying $400 for a $600 shipment, and they finalized the deal with a handshake. ",3,4,,,,0,6,6,6,,,,,0,23,23,23,,,,,,,,,,,,,,,,,,,,,1,7.053549814998405,,,,,,,,,,,,,,030119_p2,001,2019_Mar_01_1348,body_behavioural,3.0.4,59.950479226356315,
6,"“Well, what a tremendous pleasure to do business with you and to have all this work out,” William said.",3,4,,,,0,6,6,6,,,,,0,24,24,24,,,,,,,,,,,,,,,,,,,,,1,4.5198993049998535,,,,,,,,,,,,,,030119_p2,001,2019_Mar_01_1348,body_behavioural,3.0.4,59.950479226356315,
6,"Jeff nodded enthusiastically, and responded, “Likewise, this has been great.  ",3,4,,,,0,6,6,6,,,,,0,25,25,25,,,,,,,,,,,,,,,,,,,,,1,2.1365738269960275,,,,,,,,,,,,,,030119_p2,001,2019_Mar_01_1348,body_behavioural,3.0.4,59.950479226356315,
6,I'll let you get to your gate.,3,4,,,,0,6,6,6,,,,,0,26,26,26,,,,,,,,,,,,,,,,,,,,,1,1.0534500819994719,,,,,,,,,,,,,,030119_p2,001,2019_Mar_01_1348,body_behavioural,3.0.4,59.950479226356315,
6,"Once we’re both back on the ground, we can get all the shipments in the books.”",3,4,,,,0,6,6,6,,,,,0,27,27,27,,,,,,,,,,,,,,,,,,,,,1,4.2198009050043765,,,,,,,,,,,,,,030119_p2,001,2019_Mar_01_1348,body_behavioural,3.0.4,59.950479226356315,
6,They parted with a wave as Jeff scanned his boarding pass at the gate. ,3,4,,,,0,6,6,6,,,,,0,28,28,28,,,,,,,,,,,,,,,,,,,,,9,2.5031595330001437,,,,,,,,,,,,,,030119_p2,001,2019_Mar_01_1348,body_behavioural,3.0.4,59.950479226356315,
6,He walked onto the plane and sat down in his aisle seat in the business class section.,4,4,,,,0,6,6,6,,,,,0,29,29,29,,,,,,,,,,,,,,,,,,,,,1,3.352747206998174,,,,,,,,,,,,,,030119_p2,001,2019_Mar_01_1348,body_behavioural,3.0.4,59.950479226356315,
6,He typed out a quick email on his phone letting the rest of his team know the good news. ,4,4,,,,0,6,6,6,,,,,0,30,30,30,,,,,,,,,,,,,,,,,,,,,1,3.5373814100021264,,,,,,,,,,,,,,030119_p2,001,2019_Mar_01_1348,body_behavioural,3.0.4,59.950479226356315,
6,"When the flight attendant came by, he ordered a glass of champagne to celebrate.",4,4,,,,0,6,6,6,,,,,0,31,31,31,,,,,,,,,,,,,,,,,,,,,1,1.934277155000018,,,,,,,,,,,,,,030119_p2,001,2019_Mar_01_1348,body_behavioural,3.0.4,59.950479226356315,
6,,,,,,,0,6,6,6,,,,,,,,,,,,,,,,,,,,,,,,,,,,,,,,,,,,,,,,,,,,030119_p2,001,2019_Mar_01_1348,body_behavioural,3.0.4,59.950479226356315,
7,,,,,,,0,7,7,7,0,0,0,0,,,,,,,,,,,,,,,,,,,space,1.1031260199961253,space,1.2197718499955954,space,2.2531327000033343,,,,,,,,,,,,,,,,030119_p2,001,2019_Mar_01_1348,body_behavioural,3.0.4,59.950479226356315,
7,"Leon and  Ariana hurried into the classroom at the same time, and Leon did a double-take when he saw her. ",1,1,,,,0,7,7,7,,,,,0,0,0,0,,,,,,,,,,,,,,,,,,,,,9,6.320060389996797,,,,,,,,,,,,,,030119_p2,001,2019_Mar_01_1348,body_behavioural,3.0.4,59.950479226356315,
7,"This was his first day after transferring to this university, and he had assumed that he wouldn’t know anyone on campus, but he couldn't shake the nagging feeling  that he had seen her somewhere before. ",1,1,,,,0,7,7,7,,,,,0,1,1,1,,,,,,,,,,,,,,,,,,,,,1,7.63708984299592,,,,,,,,,,,,,,030119_p2,001,2019_Mar_01_1348,body_behavioural,3.0.4,59.950479226356315,
7,"They were both a bit late, so they quickly slid into seats next to each other in the back of the small classroom.",1,1,,,,0,7,7,7,,,,,0,2,2,2,,,,,,,,,,,,,,,,,,,,,1,5.286534689999826,,,,,,,,,,,,,,030119_p2,001,2019_Mar_01_1348,body_behavioural,3.0.4,59.950479226356315,
7,"This room was usually used for small meetings, but had been rearranged with the table pushed to the side and chairs set up in rows to face the projector screen. ",1,1,,,,0,7,7,7,,,,,0,3,3,3,,,,,,,,,,,,,,,,,,,,,1,9.503676379994431,,,,,,,,,,,,,,030119_p2,001,2019_Mar_01_1348,body_behavioural,3.0.4,59.950479226356315,
7,"There were no windows in the room, since they were down in the sub-basement of the history department.",1,1,,,,0,7,7,7,,,,,0,4,4,4,,,,,,,,,,,,,,,,,,,,,1,5.93643601200165,,,,,,,,,,,,,,030119_p2,001,2019_Mar_01_1348,body_behavioural,3.0.4,59.950479226356315,
7,"Leon, trying to figure out where he had seen her before, could not stop looking over at Ariana.",1,1,,,,0,7,7,7,,,,,0,5,5,5,,,,,,,,,,,,,,,,,,,,,1,4.636707270001352,,,,,,,,,,,,,,030119_p2,001,2019_Mar_01_1348,body_behavioural,3.0.4,59.950479226356315,
7,Ariana was oblivious to Leon’s gaze and was only focused on getting ready for class. ,1,1,,,,0,7,7,7,,,,,0,6,6,6,,,,,,,,,,,,,,,,,,,,,1,1.986389097000938,,,,,,,,,,,,,,030119_p2,001,2019_Mar_01_1348,body_behavioural,3.0.4,59.950479226356315,
7,"“Good afternoon class,” the professor began.",2,1,,,,0,7,7,7,,,,,0,7,7,7,,,,,,,,,,,,,,,,,,,,,1,1.4362863619971904,,,,,,,,,,,,,,030119_p2,001,2019_Mar_01_1348,body_behavioural,3.0.4,59.950479226356315,
7,“Welcome to Egyptian Cultural Studies. ,2,1,,,,0,7,7,7,,,,,0,8,8,8,,,,,,,,,,,,,,,,,,,,,1,1.1506666200002655,,,,,,,,,,,,,,030119_p2,001,2019_Mar_01_1348,body_behavioural,3.0.4,59.950479226356315,
7,"Today we will be talking about mummification, one of the most famous and often misunderstood customs in ancient Egyptian society.”",2,1,,,,0,7,7,7,,,,,0,9,9,9,,,,,,,,,,,,,,,,,,,,,1,5.620064802002162,,,,,,,,,,,,,,030119_p2,001,2019_Mar_01_1348,body_behavioural,3.0.4,59.950479226356315,
7,Leon pulled out his notebook and tried to concentrate on the class.,2,1,,,,0,7,7,7,,,,,0,10,10,10,,,,,,,,,,,,,,,,,,,,,1,3.4866135849952116,,,,,,,,,,,,,,030119_p2,001,2019_Mar_01_1348,body_behavioural,3.0.4,59.950479226356315,
7,Within a few minutes though he found his attention wandering back to Ariana.,2,1,,,,0,7,7,7,,,,,0,11,11,11,,,,,,,,,,,,,,,,,,,,,1,3.6366334470003494,,,,,,,,,,,,,,030119_p2,001,2019_Mar_01_1348,body_behavioural,3.0.4,59.950479226356315,
7,"He decided to do something about his hunch so he ripped off a corner of a page in his notebook, wrote a note, and set it on her desk.",2,1,,,,0,7,7,7,,,,,0,12,12,12,,,,,,,,,,,,,,,,,,,,,9,5.753642613002739,,,,,,,,,,,,,,030119_p2,001,2019_Mar_01_1348,body_behavioural,3.0.4,59.950479226356315,
7,"“Hi, sorry to distract you from mummies, but you look really familiar," it read.",2,2,,,,0,7,7,7,,,,,0,13,13,13,,,,,,,,,,,,,,,,,,,,,1,4.619985548000841,,,,,,,,,,,,,,030119_p2,001,2019_Mar_01_1348,body_behavioural,3.0.4,59.950479226356315,
7,It continued: “Do I know you from somewhere?”,2,2,,,,0,7,7,7,,,,,0,14,14,14,,,,,,,,,,,,,,,,,,,,,1,1.63646674699703,,,,,,,,,,,,,,030119_p2,001,2019_Mar_01_1348,body_behavioural,3.0.4,59.950479226356315,
7,"She looked at the note with surprise, and then turned to notice Leon for the first time. ",2,2,,,,0,7,7,7,,,,,0,15,15,15,,,,,,,,,,,,,,,,,,,,,1,2.836535532005655,,,,,,,,,,,,,,030119_p2,001,2019_Mar_01_1348,body_behavioural,3.0.4,59.950479226356315,
7,"She instantly liked him when she saw him; he had very soft eyes and sharp features, a combination that made him seem  trustworthy and genuine.",2,2,,,,0,7,7,7,,,,,0,16,16,16,,,,,,,,,,,,,,,,,,,,,1,4.703375970006164,,,,,,,,,,,,,,030119_p2,001,2019_Mar_01_1348,body_behavioural,3.0.4,59.950479226356315,
7,He smiled at her and she flashed him a smile back.,2,2,,,,0,7,7,7,,,,,0,17,17,17,,,,,,,,,,,,,,,,,,,,,1,1.7863734170023235,,,,,,,,,,,,,,030119_p2,001,2019_Mar_01_1348,body_behavioural,3.0.4,59.950479226356315,
7,Then she turned the note over to the back and started to write a reply.,2,2,,,,0,7,7,7,,,,,0,18,18,18,,,,,,,,,,,,,,,,,,,,,1,2.803224520001095,,,,,,,,,,,,,,030119_p2,001,2019_Mar_01_1348,body_behavioural,3.0.4,59.950479226356315,
7,"Meanwhile the professor continued, “One may well question why the ancient Egyptians spent so much time and effort on their funerary practices.",3,2,,,,0,7,7,7,,,,,0,19,19,19,,,,,,,,,,,,,,,,,,,,,1,4.57010543999786,,,,,,,,,,,,,,030119_p2,001,2019_Mar_01_1348,body_behavioural,3.0.4,59.950479226356315,
7,"Not only was the mummification process itself a complicated affair, but there were also elaborate rituals before, during, and after death.",3,2,,,,0,7,7,7,,,,,0,20,20,20,,,,,,,,,,,,,,,,,,,,,1,4.400824981996266,,,,,,,,,,,,,,030119_p2,001,2019_Mar_01_1348,body_behavioural,3.0.4,59.950479226356315,
7,The practice required teams of experts with years of training and took a total of 70 days to complete.” ,3,2,,,,0,7,7,7,,,,,0,21,21,21,,,,,,,,,,,,,,,,,,,,,1,40.38676176199806,,,,,,,,,,,,,,030119_p2,001,2019_Mar_01_1348,body_behavioural,3.0.4,59.950479226356315,
7,"Ariana passed the note back to Leon, and she had replied, “No, but maybe my twin and I were separated at birth.”",3,2,,,,0,7,7,7,,,,,0,22,22,22,,,,,,,,,,,,,,,,,,,,,1,5.384465354996792,,,,,,,,,,,,,,030119_p2,001,2019_Mar_01_1348,body_behavioural,3.0.4,59.950479226356315,
7,They passed notes back and forth the whole class like they were back in high school.,3,2,,,,0,7,7,7,,,,,0,23,23,23,,,,,,,,,,,,,,,,,,,,,1,3.586071664998599,,,,,,,,,,,,,,030119_p2,001,2019_Mar_01_1348,body_behavioural,3.0.4,59.950479226356315,
7,"Near the end of the lecture, Leon wrote, “Would you like to go to dinner tonight?” ",3,3,,,,0,7,7,7,,,,,0,24,24,24,,,,,,,,,,,,,,,,,,,,,1,15.770911655003147,,,,,,,,,,,,,,030119_p2,001,2019_Mar_01_1348,body_behavioural,3.0.4,59.950479226356315,
7,"Ariana read the note, and looked at him and nodded her head",3,3,,,,0,7,7,7,,,,,0,25,25,25,,,,,,,,,,,,,,,,,,,,,1,2.0531291750012315,,,,,,,,,,,,,,030119_p2,001,2019_Mar_01_1348,body_behavioural,3.0.4,59.950479226356315,
7,"She wrote back on the slip of paper, “Pick me up at 6 in front of Patton Hall.”",3,3,,,,0,7,7,7,,,,,0,26,26,26,,,,,,,,,,,,,,,,,,,,,1,7.8535177570011,,,,,,,,,,,,,,030119_p2,001,2019_Mar_01_1348,body_behavioural,3.0.4,59.950479226356315,
7,Then the professor ended the lecture and announced to the class that they would have their first quiz next class on Friday on mummification. ,4,3,,,,0,7,7,7,,,,,0,27,27,27,,,,,,,,,,,,,,,,,,,,,9,7.386805262001872,,,,,,,,,,,,,,030119_p2,001,2019_Mar_01_1348,body_behavioural,3.0.4,59.950479226356315,
7,"Everyone packed up and started heading out, as well as Sophie and Leon.",4,3,,,,0,7,7,7,,,,,0,28,28,28,,,,,,,,,,,,,,,,,,,,,1,17.621309869995457,,,,,,,,,,,,,,030119_p2,001,2019_Mar_01_1348,body_behavioural,3.0.4,59.950479226356315,
7,"They approached each other smiling, and Leon said, “Well it was great to meet you, again, or maybe not again, but regardless it was great to meet you.” ",4,3,,,,0,7,7,7,,,,,0,29,29,29,,,,,,,,,,,,,,,,,,,,,1,5.936523366995971,,,,,,,,,,,,,,030119_p2,001,2019_Mar_01_1348,body_behavioural,3.0.4,59.950479226356315,
7,"She replied, “Yes, it was.",4,4,,,,0,7,7,7,,,,,0,30,30,30,,,,,,,,,,,,,,,,,,,,,1,1.1532774100051029,,,,,,,,,,,,,,030119_p2,001,2019_Mar_01_1348,body_behavioural,3.0.4,59.950479226356315,
7,"I have to run to my next class, but I’ll see you later tonight.” ",4,4,,,,0,7,7,7,,,,,0,31,31,31,,,,,,,,,,,,,,,,,,,,,1,1.5697583569999551,,,,,,,,,,,,,,030119_p2,001,2019_Mar_01_1348,body_behavioural,3.0.4,59.950479226356315,
7,"She waved as they parted ways outside of the door of the classroom, and Leon was still trying to figure out where he had seen her before as he watched her go. ",4,4,,,,0,7,7,7,,,,,0,32,32,32,,,,,,,,,,,,,,,,,,,,,1,4.8866328799995244,,,,,,,,,,,,,,030119_p2,001,2019_Mar_01_1348,body_behavioural,3.0.4,59.950479226356315,
7,,,,,,,0,7,7,7,,,,,,,,,,,,,,,,,,,,,,,,,,,,,,,,,,,,,,,,,,,,030119_p2,001,2019_Mar_01_1348,body_behavioural,3.0.4,59.950479226356315,
,,,,,,,,,,,,,,,,,,,,,,,,,,,,,,,,,,,,,,,,,2471.9587327810004,space,1.1859243599974434,,,,,,,,,,,030119_p2,001,2019_Mar_01_1348,body_behavioural,3.0.4,59.950479226356315,
,,,,,,The next task in the experiment is to recall each story to the best of your ability.,,,,,,,,,,,,,0,0,0,0,,,,,,,,,,,,,,,,,,,,,,space,2.586302258001524,,,,,,,,,030119_p2,001,2019_Mar_01_1348,body_behavioural,3.0.4,59.950479226356315,
,,,,,,"You will be presented with the story title, names, the images, and a blank text box for each story.",,,,,,,,,,,,,0,1,1,1,,,,,,,,,,,,,,,,,,,,,,space,4.0037723050045315,,,,,,,,,030119_p2,001,2019_Mar_01_1348,body_behavioural,3.0.4,59.950479226356315,
,,,,,,Describe the story with as many details as you can remember in the space provided. ,,,,,,,,,,,,,0,2,2,2,,,,,,,,,,,,,,,,,,,,,,space,2.4199852169986116,,,,,,,,,030119_p2,001,2019_Mar_01_1348,body_behavioural,3.0.4,59.950479226356315,
,,,,,,"When you are finished recalling one story, to move onto the next one hit ‘return’. ",,,,,,,,,,,,,0,3,3,3,,,,,,,,,,,,,,,,,,,,,,space,6.370095563004725,,,,,,,,,030119_p2,001,2019_Mar_01_1348,body_behavioural,3.0.4,59.950479226356315,
,,,,,,There is a 5 minute time limit to make your response. ,,,,,,,,,,,,,0,4,4,4,,,,,,,,,,,,,,,,,,,,,,space,2.3860161670017987,,,,,,,,,030119_p2,001,2019_Mar_01_1348,body_behavioural,3.0.4,59.950479226356315,
0,,,,,,,,,,,,,,,,,,,,,,,0,0,0,0,,,,,,,,,,,,,,,,,,,,space,0.9174418120019254,,,,,,,030119_p2,001,2019_Mar_01_1348,body_behavioural,3.0.4,59.950479226356315,
1,,,,,,,,,,,,,,,,,,,,,,,0,1,1,1,,,,,,,,,,,,,,,,,,,,space,6.0845586950017605,"Charlie and alma were economics students. charlie was speaking to members of his investment club the evening before, and they decided that they wanted to invest in alma's startup. the next day, charlie sees alma as she enters class and invites her to sit with him so they can talk business. he put forths his deal while the professor teaches them about the history of rome. he would like to invest half her desired amount - 30000 dollars - to get started. however, she believes that the full amount is necessary or she would have difficulty finishing the project on time. the next assessment for the class is announced and students are told to hand over the essays to the ta for the class after completion. charlie and alma are last to leave the class as they agree upon the deal. ",,,,,,030119_p2,001,2019_Mar_01_1348,body_behavioural,3.0.4,59.950479226356315,
2,,,,,,,,,,,,,,,,,,,,,,,0,2,2,2,,,,,,,,,,,,,,,,,,,,space,7.220181199998478,"Alex wants to propose to chloe in a supermarket where she least expects it. he seems really nervous as he follows her around the store. she notices his distressed face though he claims he is fine so they finish shopping and move to the relatively long line at the counter. here he decides that he is ready to propose to her. after stating that he loves her and signaling to his friends who are standing at the entrance, he kneels and proposes. the ring had the large diamonds encircling a number of shiny diamonds. the other members of the line get excited and give the space / take their pictures, alongside their friends who take videos. happily, she says yes and they are moved to the front of the line where they receive congratualtions and finish paying. ",,,,,,030119_p2,001,2019_Mar_01_1348,body_behavioural,3.0.4,59.950479226356315,
3,,,,,,,,,,,,,,,,,,,,,,,0,3,3,3,,,,,,,,,,,,,,,,,,,,space,0.8364896929997485,"Thomas sits dreadful in the restaurant when sadie enters. they take a table at the back where they start by talking about their day. the waiter interrupts them to ask for their order. thomas bites his nails nervously as he explains to sadie that he is struggling to make decisions about his career, something he needs to do alone. hence, he feels they should take a break so that he can focus on work. shocked and upset, sadie cries and suggests they continue dating but hang out less. after he refuses, she leaves the restaurant with her rubens saying she never wants to see him again, indicating that they parted on bad terms.",,,,,,030119_p2,001,2019_Mar_01_1348,body_behavioural,3.0.4,59.950479226356315,
4,,,,,,,,,,,,,,,,,,,,,,,0,4,4,4,,,,,,,,,,,,,,,,,,,,space,0.8859431000018958,"Senna and alvira are out for a meal at a fancy restaurant decorated with large chandeliars producing warm light and large curved windows. senna plans to propose to alvira. the menus at the restaurant are small and contain the celebrity chef's special dishes. the couple orders oysters and scallops with caramelized apples. alvira, impressed by the food, does not think the celebration is worth just the tomatoes she grew in the garden. on that note, senna proclaims his love for her and proposes to her with the ring on a small cake. happily, she says yes and takes the ring.",,,,,,030119_p2,001,2019_Mar_01_1348,body_behavioural,3.0.4,59.950479226356315,
5,,,,,,,,,,,,,,,,,,,,,,,0,5,5,5,,,,,,,,,,,,,,,,,,,,space,1.3530788269999903,"David sees anna as she is rushing through the airport. she is late for her flight, which leaves in an hour, as she got stuck in her yoga class, after which she caughting up talking to her friends. he, on the other hand, has about 3 hours before his flight. david jumps and moves her away from a cart that is coming her way as she is bending down to tie her showlaces. the two talk throughout security, which was relatively short. anna was still quite rushed afterwards but the two decide to meet up after they return. she feels more confident at the gate and chooses a seat at the back of the plane once she enters.",,,,,,030119_p2,001,2019_Mar_01_1348,body_behavioural,3.0.4,59.950479226356315,
6,,,,,,,,,,,,,,,,,,,,,,,0,6,6,6,,,,,,,,,,,,,,,,,,,,space,0.7530502579975291,"Jeff waves happily when he sees william entering the airport where they around about to discuss a business deal based on a conversation the night before in a bar where they discovered that both are interested in the wine industry. jeff proposes that he buy a portion of william's wine samples, claiming that he will make lots of profits once the clients in boston have it. he proposes that he take 600 dolllars worth of wine at 300. william is unconvinced at first as he needs more guarantee if he is to sell his wine at such a low price. after discussing, they decided that they will exhange 600 dollars worth of wine at 400 dollars. ",,,,,,030119_p2,001,2019_Mar_01_1348,body_behavioural,3.0.4,59.950479226356315,
7,,,,,,,,,,,,,,,,,,,,,,,0,7,7,7,,,,,,,,,,,,,,,,,,,,space,1.1698080099959043,"Leon notices ariana as soon as she enters class, thinking he had seen her before. because of this, he passes a note to her. thinking he is attractive, she reponds humoursly and they talk for a while through notes. he then asks her on a date that night to which responds saying yes. both leave the class at the end of the discussion. ",,,,,,030119_p2,001,2019_Mar_01_1348,body_behavioural,3.0.4,59.950479226356315,
,,,,,,,,,,,,,,,,,,,,,,,,,,,,,,,,,,,,,,,,,,,,,,,,,4229.160217721001,space,1.2362390300040715,,,030119_p2,001,2019_Mar_01_1348,body_behavioural,3.0.4,59.950479226356315,
,,,,,,The next part of the task is to answer 8 questions about each story.,,,,,,,,,,,,,,,,,,,,,0,0,0,0,,,,,,,,,,,,,,,,,,,,,,space,2.120007216995873,030119_p2,001,2019_Mar_01_1348,body_behavioural,3.0.4,59.950479226356315,
