count,storyText,locationEvent,socialEvent,locationEventSize,socialEventSize,instructText,trials.thisRepN,trials.thisTrialN,trials.thisN,trials.thisIndex,trials_7.thisRepN,trials_7.thisTrialN,trials_7.thisN,trials_7.thisIndex,trials_2.thisRepN,trials_2.thisTrialN,trials_2.thisN,trials_2.thisIndex,trials_3.thisRepN,trials_3.thisTrialN,trials_3.thisN,trials_3.thisIndex,trials_4.thisRepN,trials_4.thisTrialN,trials_4.thisN,trials_4.thisIndex,trials_5.thisRepN,trials_5.thisTrialN,trials_5.thisN,trials_5.thisIndex,trials_6.thisRepN,trials_6.thisTrialN,trials_6.thisN,trials_6.thisIndex,trials_8.thisRepN,trials_8.thisTrialN,trials_8.thisN,trials_8.thisIndex,order of stories,order of perspectives,participant 2 order - stories,participant 2 order  - schemas types,key_resp_8.keys,key_resp_8.rt,key_resp_5.keys,key_resp_5.rt,key_resp_7.keys,key_resp_7.rt,story_presses.keys,story_presses.rt,story time,key_resp_6.keys,key_resp_6.rt,key_resp_2.keys,key_resp_2.rt,key_resp_10.keys,key_resp_10.rt,recall,recall time,key_resp_12.keys,key_resp_12.rt,key_resp_3.keys,key_resp_3.rt,key_resp_11.keys,key_resp_11.rt,question1_answer,order of question,question2_answer,question3_answer,question4_answer,question5_answer,question6_answer,question7_answer,question8_answer,questions time,key_resp_13.keys,key_resp_13.rt,participant,session,date,expName,psychopyVersion,frameRate,
0,,,,,,,0,0,0,0,0,0,0,0,,,,,,,,,,,,,,,,,,,,,,,,,[14 42 21 23 33 44 31 12 24 43 11 32 34 13 22 41],"['Social' 'Social' 'Social' 'Location' 'Social' 'Location' 'Location'
 'Location' 'Social' 'Social' 'Social' 'Social' 'Location' 'Location'
 'Location' 'Location']",[24 43 11 32 34 13 22 41],"['Social' 'Social' 'Social' 'Social' 'Location' 'Location' 'Location'
 'Location']",space,12.389804224992986,space,1.2364347200054908,space,2.550857435009675,,,,,,,,,,,,,,,,,,,,,,,,,,,,,,030519_p1,001,2019_Mar_05_1013,body_behavioural,3.0.4,60.003337265736825,
0,"Maria walked into lecture beside Henry, and she was mentally rehearsing what she should say to break up with him.",1,1,,,,0,0,0,0,,,,,0,0,0,0,,,,,,,,,,,,,,,,,,,,,,,,,,,,,,,9,13.970985467007267,,,,,,,,,,,,,,,,,,,,,,,,,,,,030519_p1,001,2019_Mar_05_1013,body_behavioural,3.0.4,60.003337265736825,
0,"She had been putting it off with a growing sense of dread, and now this lecture was the last chance before she had to leave campus. ",1,1,,,,0,0,0,0,,,,,0,1,1,1,,,,,,,,,,,,,,,,,,,,,,,,,,,,,,,1,4.4531866920006,,,,,,,,,,,,,,,,,,,,,,,,,,,,030519_p1,001,2019_Mar_05_1013,body_behavioural,3.0.4,60.003337265736825,
0,"The lecture hall was large, with a stage for the lecturer in the front of the room, and tiered seats that stretched up in 15 stacked rows. ",1,1,,,,0,0,0,0,,,,,0,2,2,2,,,,,,,,,,,,,,,,,,,,,,,,,,,,,,,9,3.7508945419976953,,,,,,,,,,,,,,,,,,,,,,,,,,,,030519_p1,001,2019_Mar_05_1013,body_behavioural,3.0.4,60.003337265736825,
0,"The clock struck 3 pm, and Maria and Henry slid into neighboring seats near the back of the room.",1,1,,,,0,0,0,0,,,,,0,3,3,3,,,,,,,,,,,,,,,,,,,,,,,,,,,,,,,1,5.9037349249992985,,,,,,,,,,,,,,,,,,,,,,,,,,,,030519_p1,001,2019_Mar_05_1013,body_behavioural,3.0.4,60.003337265736825,
0,"“Good afternoon, everybody,” said the professor, fiddling to connect his laptop with the projector.",2,1,,,,0,0,0,0,,,,,0,4,4,4,,,,,,,,,,,,,,,,,,,,,,,,,,,,,,,9,3.653056191993528,,,,,,,,,,,,,,,,,,,,,,,,,,,,030519_p1,001,2019_Mar_05_1013,body_behavioural,3.0.4,60.003337265736825,
0,“Welcome to week 4 of Intro to Ancient Philosophy. ,2,1,,,,0,0,0,0,,,,,0,5,5,5,,,,,,,,,,,,,,,,,,,,,,,,,,,,,,,1,1.4030978800001321,,,,,,,,,,,,,,,,,,,,,,,,,,,,030519_p1,001,2019_Mar_05_1013,body_behavioural,3.0.4,60.003337265736825,
0,Today we are going to continue our lecture on Aristotelian Philosophy.”,2,1,,,,0,0,0,0,,,,,0,6,6,6,,,,,,,,,,,,,,,,,,,,,,,,,,,,,,,1,2.0364210350089706,,,,,,,,,,,,,,,,,,,,,,,,,,,,030519_p1,001,2019_Mar_05_1013,body_behavioural,3.0.4,60.003337265736825,
0,Everyone in class pulled out their notebooks and settled in their seats as the slides appeared on the large front screens.,2,1,,,,0,0,0,0,,,,,0,7,7,7,,,,,,,,,,,,,,,,,,,,,,,,,,,,,,,9,3.9008992969902465,,,,,,,,,,,,,,,,,,,,,,,,,,,,030519_p1,001,2019_Mar_05_1013,body_behavioural,3.0.4,60.003337265736825,
0,"“Henry,” Maria whispered.",2,1,,,,0,0,0,0,,,,,0,8,8,8,,,,,,,,,,,,,,,,,,,,,,,,,,,,,,,9,2.452959925009054,,,,,,,,,,,,,,,,,,,,,,,,,,,,030519_p1,001,2019_Mar_05_1013,body_behavioural,3.0.4,60.003337265736825,
0,"“Hmm?” he replied, distracted.",2,1,,,,0,0,0,0,,,,,0,9,9,9,,,,,,,,,,,,,,,,,,,,,,,,,,,,,,,1,0.8695048200024758,,,,,,,,,,,,,,,,,,,,,,,,,,,,030519_p1,001,2019_Mar_05_1013,body_behavioural,3.0.4,60.003337265736825,
0,"“Henry, I need to tell you something really important, and I don’t know when else I’ll have a chance to do it,” she said.",2,1,,,,0,0,0,0,,,,,0,10,10,10,,,,,,,,,,,,,,,,,,,,,,,,,,,,,,,1,2.053096266987268,,,,,,,,,,,,,,,,,,,,,,,,,,,,030519_p1,001,2019_Mar_05_1013,body_behavioural,3.0.4,60.003337265736825,
0,"“Okay, what's up?”, he said, tilting his head close to her. ",2,1,,,,0,0,0,0,,,,,0,11,11,11,,,,,,,,,,,,,,,,,,,,,,,,,,,,,,,1,1.1192132500000298,,,,,,,,,,,,,,,,,,,,,,,,,,,,030519_p1,001,2019_Mar_05_1013,body_behavioural,3.0.4,60.003337265736825,
0," “Henry, I don’t think I can do long distance.",2,2,,,,0,0,0,0,,,,,0,12,12,12,,,,,,,,,,,,,,,,,,,,,,,,,,,,,,,1,1.3534509649907704,,,,,,,,,,,,,,,,,,,,,,,,,,,,030519_p1,001,2019_Mar_05_1013,body_behavioural,3.0.4,60.003337265736825,
0,"I think what we have here is great, but I think it will be really hard when we are so far apart for such an extended period.",2,2,,,,0,0,0,0,,,,,0,13,13,13,,,,,,,,,,,,,,,,,,,,,,,,,,,,,,,1,2.7508448620064883,,,,,,,,,,,,,,,,,,,,,,,,,,,,030519_p1,001,2019_Mar_05_1013,body_behavioural,3.0.4,60.003337265736825,
0,"I’m sorry I’m telling you now in lecture, but I'm out of time, and it’s taken me awhile to come to this decision.",2,2,,,,0,0,0,0,,,,,0,14,14,14,,,,,,,,,,,,,,,,,,,,,,,,,,,,,,,1,2.6341249569959473,,,,,,,,,,,,,,,,,,,,,,,,,,,,030519_p1,001,2019_Mar_05_1013,body_behavioural,3.0.4,60.003337265736825,
0,"I really think this is best, and who knows what will happen when I get back from my study abroad.” ",2,2,,,,0,0,0,0,,,,,0,15,15,15,,,,,,,,,,,,,,,,,,,,,,,,,,,,,,,1,2.019811256992398,,,,,,,,,,,,,,,,,,,,,,,,,,,,030519_p1,001,2019_Mar_05_1013,body_behavioural,3.0.4,60.003337265736825,
0,"While Henry tried to think of what to say, he and Maria stared unlistening at the professor as he started the lecture, “First we will talk about Aristotle’s work, The Categories.",3,2,,,,0,0,0,0,,,,,0,16,16,16,,,,,,,,,,,,,,,,,,,,,,,,,,,,,,,9,5.553352665010607,,,,,,,,,,,,,,,,,,,,,,,,,,,,030519_p1,001,2019_Mar_05_1013,body_behavioural,3.0.4,60.003337265736825,
0,"This text, as you might have been able to guess, is about the kinds, or categories, of things that there are.",3,2,,,,0,0,0,0,,,,,0,17,17,17,,,,,,,,,,,,,,,,,,,,,,,,,,,,,,,1,3.669937984988792,,,,,,,,,,,,,,,,,,,,,,,,,,,,030519_p1,001,2019_Mar_05_1013,body_behavioural,3.0.4,60.003337265736825,
0,"In fact, our term category comes from this Aristotelian context.” ",3,2,,,,0,0,0,0,,,,,0,18,18,18,,,,,,,,,,,,,,,,,,,,,,,,,,,,,,,1,5.470021224988159,,,,,,,,,,,,,,,,,,,,,,,,,,,,030519_p1,001,2019_Mar_05_1013,body_behavioural,3.0.4,60.003337265736825,
0,"Henry felt horrible, like the wind had just been knocked out of him.",3,2,,,,0,0,0,0,,,,,0,19,19,19,,,,,,,,,,,,,,,,,,,,,,,,,,,,,,,9,2.086271391992341,,,,,,,,,,,,,,,,,,,,,,,,,,,,030519_p1,001,2019_Mar_05_1013,body_behavioural,3.0.4,60.003337265736825,
0,"A few tears started to fall down his cheeks as he whispered back, “Maria, I think we can make it work.",3,3,,,,0,0,0,0,,,,,0,20,20,20,,,,,,,,,,,,,,,,,,,,,,,,,,,,,,,9,3.3861998270003824,,,,,,,,,,,,,,,,,,,,,,,,,,,,030519_p1,001,2019_Mar_05_1013,body_behavioural,3.0.4,60.003337265736825,
0,I’ll come visit you.,3,3,,,,0,0,0,0,,,,,0,21,21,21,,,,,,,,,,,,,,,,,,,,,,,,,,,,,,,1,1.2201477519993205,,,,,,,,,,,,,,,,,,,,,,,,,,,,030519_p1,001,2019_Mar_05_1013,body_behavioural,3.0.4,60.003337265736825,
0,It will be fine.,3,3,,,,0,0,0,0,,,,,0,22,22,22,,,,,,,,,,,,,,,,,,,,,,,,,,,,,,,1,1.3198262880032416,,,,,,,,,,,,,,,,,,,,,,,,,,,,030519_p1,001,2019_Mar_05_1013,body_behavioural,3.0.4,60.003337265736825,
0,I don’t want to break up.”,3,3,,,,0,0,0,0,,,,,0,23,23,23,,,,,,,,,,,,,,,,,,,,,,,,,,,,,,,1,0.8865069999883417,,,,,,,,,,,,,,,,,,,,,,,,,,,,030519_p1,001,2019_Mar_05_1013,body_behavioural,3.0.4,60.003337265736825,
0,"Maria felt so guilty that she nearly gave in, but forced herself to hold her ground, knowing that this would make things much easier for both of them in the future.",3,3,,,,0,0,0,0,,,,,0,24,24,24,,,,,,,,,,,,,,,,,,,,,,,,,,,,,,,1,4.752987594998558,,,,,,,,,,,,,,,,,,,,,,,,,,,,030519_p1,001,2019_Mar_05_1013,body_behavioural,3.0.4,60.003337265736825,
0,"She gave his hand a squeeze but shook her head sadly, before turning back to her laptop and half-heartedly taking notes on the lecture which they sat through in painful silence.",3,3,,,,0,0,0,0,,,,,0,25,25,25,,,,,,,,,,,,,,,,,,,,,,,,,,,,,,,1,4.567626151998411,,,,,,,,,,,,,,,,,,,,,,,,,,,,030519_p1,001,2019_Mar_05_1013,body_behavioural,3.0.4,60.003337265736825,
0,"Finally, the professor was wrapping up, “This is what Aristotle means when he says that an animal’s or plant’s form rather than its matter is its nature. ",4,3,,,,0,0,0,0,,,,,0,26,26,26,,,,,,,,,,,,,,,,,,,,,,,,,,,,,,,1,3.4034276379970834,,,,,,,,,,,,,,,,,,,,,,,,,,,,030519_p1,001,2019_Mar_05_1013,body_behavioural,3.0.4,60.003337265736825,
0,"Alright class, that’s all for today. ",4,3,,,,0,0,0,0,,,,,0,27,27,27,,,,,,,,,,,,,,,,,,,,,,,,,,,,,,,1,2.153061475008144,,,,,,,,,,,,,,,,,,,,,,,,,,,,030519_p1,001,2019_Mar_05_1013,body_behavioural,3.0.4,60.003337265736825,
0,"Remember the final exam is coming up next week on Tuesday on the Pre-Socratics, Plato, and Aristotle, so feel free to come by office hours to discuss if you have the inspiration.",4,3,,,,0,0,0,0,,,,,0,28,28,28,,,,,,,,,,,,,,,,,,,,,,,,,,,,,,,1,3.2865892100089695,,,,,,,,,,,,,,,,,,,,,,,,,,,,030519_p1,001,2019_Mar_05_1013,body_behavioural,3.0.4,60.003337265736825,
0,"And if anyone is doing the 20 page paper in lieu of the final, that’s due next Tuesday as well.",4,3,,,,0,0,0,0,,,,,0,29,29,29,,,,,,,,,,,,,,,,,,,,,,,,,,,,,,,1,1.853244404992438,,,,,,,,,,,,,,,,,,,,,,,,,,,,030519_p1,001,2019_Mar_05_1013,body_behavioural,3.0.4,60.003337265736825,
0,"Have a good day, folks.” ",4,3,,,,0,0,0,0,,,,,0,30,30,30,,,,,,,,,,,,,,,,,,,,,,,,,,,,,,,1,0.8360138720017858,,,,,,,,,,,,,,,,,,,,,,,,,,,,030519_p1,001,2019_Mar_05_1013,body_behavioural,3.0.4,60.003337265736825,
0,"Maria and Henry packed up hurriedly, and slipped quickly out of the class before the rest of the crowd. ",4,3,,,,0,0,0,0,,,,,0,31,31,31,,,,,,,,,,,,,,,,,,,,,,,,,,,,,,,9,2.169555266998941,,,,,,,,,,,,,,,,,,,,,,,,,,,,030519_p1,001,2019_Mar_05_1013,body_behavioural,3.0.4,60.003337265736825,
0,"They hugged outside, and both of them were crying. ",4,4,,,,0,0,0,0,,,,,0,32,32,32,,,,,,,,,,,,,,,,,,,,,,,,,,,,,,,1,1.6699380520003615,,,,,,,,,,,,,,,,,,,,,,,,,,,,030519_p1,001,2019_Mar_05_1013,body_behavioural,3.0.4,60.003337265736825,
0,"“Maria, I don’t want you to leave.",4,4,,,,0,0,0,0,,,,,0,33,33,33,,,,,,,,,,,,,,,,,,,,,,,,,,,,,,,1,1.119642940000631,,,,,,,,,,,,,,,,,,,,,,,,,,,,030519_p1,001,2019_Mar_05_1013,body_behavioural,3.0.4,60.003337265736825,
0,I don’t want this to end. ,4,4,,,,0,0,0,0,,,,,0,34,34,34,,,,,,,,,,,,,,,,,,,,,,,,,,,,,,,1,0.7193664549995447,,,,,,,,,,,,,,,,,,,,,,,,,,,,030519_p1,001,2019_Mar_05_1013,body_behavioural,3.0.4,60.003337265736825,
0,"But if this is what you think is best, I can’t make it otherwise.” ",4,4,,,,0,0,0,0,,,,,0,35,35,35,,,,,,,,,,,,,,,,,,,,,,,,,,,,,,,1,2.419894430000568,,,,,,,,,,,,,,,,,,,,,,,,,,,,030519_p1,001,2019_Mar_05_1013,body_behavioural,3.0.4,60.003337265736825,
0,"They hugged one last time, and Maria ran off to get her things from her dorm.",4,4,,,,0,0,0,0,,,,,0,36,36,36,,,,,,,,,,,,,,,,,,,,,,,,,,,,,,,1,2.286465240002144,,,,,,,,,,,,,,,,,,,,,,,,,,,,030519_p1,001,2019_Mar_05_1013,body_behavioural,3.0.4,60.003337265736825,
0,Henry sadly watched her go. ,4,4,,,,0,0,0,0,,,,,0,37,37,37,,,,,,,,,,,,,,,,,,,,,,,,,,,,,,,1,1.1865550000075018,,,,,,,,,,,,,,,,,,,,,,,,,,,,030519_p1,001,2019_Mar_05_1013,body_behavioural,3.0.4,60.003337265736825,
0,,,,,,,0,0,0,0,,,,,,,,,,,,,,,,,,,,,,,,,,,,,,,,,,,,,,,,,,,,,,,,,,,,,,,,,,,,,,,,,,,,030519_p1,001,2019_Mar_05_1013,body_behavioural,3.0.4,60.003337265736825,
1,,,,,,,0,1,1,1,0,0,0,0,,,,,,,,,,,,,,,,,,,,,,,,,,,,,space,1.5360974949871888,space,0.6528961770090973,space,0.6697041750012431,,,,,,,,,,,,,,,,,,,,,,,,,,,,,,030519_p1,001,2019_Mar_05_1013,body_behavioural,3.0.4,60.003337265736825,
1,David saw Anna for the first time when she burst into the airport with her bag skidding behind her half-zipped. ,1,1,,,,0,1,1,1,,,,,0,0,0,0,,,,,,,,,,,,,,,,,,,,,,,,,,,,,,,9,5.53700693200517,,,,,,,,,,,,,,,,,,,,,,,,,,,,030519_p1,001,2019_Mar_05_1013,body_behavioural,3.0.4,60.003337265736825,
1,"He had three hours until his flight, but she clearly had less than one.",1,1,,,,0,1,1,1,,,,,0,1,1,1,,,,,,,,,,,,,,,,,,,,,,,,,,,,,,,1,2.184857532993192,,,,,,,,,,,,,,,,,,,,,,,,,,,,030519_p1,001,2019_Mar_05_1013,body_behavioural,3.0.4,60.003337265736825,
1,"Anna’s yoga class had ran over, and afterwards, she, forgetting the time, had lingered to talk with friends. ",1,1,,,,0,1,1,1,,,,,0,2,2,2,,,,,,,,,,,,,,,,,,,,,,,,,,,,,,,9,2.9196833400055766,,,,,,,,,,,,,,,,,,,,,,,,,,,,030519_p1,001,2019_Mar_05_1013,body_behavioural,3.0.4,60.003337265736825,
1,"Despite Anna's frazzled state, David was instantly intrigued by her.",1,1,,,,0,1,1,1,,,,,0,3,3,3,,,,,,,,,,,,,,,,,,,,,,,,,,,,,,,9,3.5033601080067456,,,,,,,,,,,,,,,,,,,,,,,,,,,,030519_p1,001,2019_Mar_05_1013,body_behavioural,3.0.4,60.003337265736825,
1,"He thought she was beautiful, and she reminded him of one of his favorite paintings.",1,1,,,,0,1,1,1,,,,,0,4,4,4,,,,,,,,,,,,,,,,,,,,,,,,,,,,,,,1,1.4031723649968626,,,,,,,,,,,,,,,,,,,,,,,,,,,,030519_p1,001,2019_Mar_05_1013,body_behavioural,3.0.4,60.003337265736825,
1,"Anna, a few strides into the airport, suddenly realized her shoes were untied, so she hunched over to tie them.",1,1,,,,0,1,1,1,,,,,0,5,5,5,,,,,,,,,,,,,,,,,,,,,,,,,,,,,,,9,2.7199913049989846,,,,,,,,,,,,,,,,,,,,,,,,,,,,030519_p1,001,2019_Mar_05_1013,body_behavioural,3.0.4,60.003337265736825,
1,David observed that someone with a tall cart of luggage was heading straight for where Anna was kneeling. ,1,1,,,,0,1,1,1,,,,,0,6,6,6,,,,,,,,,,,,,,,,,,,,,,,,,,,,,,,9,5.33691348299908,,,,,,,,,,,,,,,,,,,,,,,,,,,,030519_p1,001,2019_Mar_05_1013,body_behavioural,3.0.4,60.003337265736825,
1,Both Anna and the person driving the cart were oblivious to the impending collision. ,1,1,,,,0,1,1,1,,,,,0,7,7,7,,,,,,,,,,,,,,,,,,,,,,,,,,,,,,,1,4.719906055004685,,,,,,,,,,,,,,,,,,,,,,,,,,,,030519_p1,001,2019_Mar_05_1013,body_behavioural,3.0.4,60.003337265736825,
1,"David had to intervene, and he ran in front of the cart pushing her out of the way just in the nick of time, and they tumbled on the airport floor. ",1,2,,,,0,1,1,1,,,,,0,8,8,8,,,,,,,,,,,,,,,,,,,,,,,,,,,,,,,1,3.7529249700019136,,,,,,,,,,,,,,,,,,,,,,,,,,,,030519_p1,001,2019_Mar_05_1013,body_behavioural,3.0.4,60.003337265736825,
1,"Anna, bewildered, looked up and saw the cart pass by and then looked over at David. ",1,2,,,,0,1,1,1,,,,,0,9,9,9,,,,,,,,,,,,,,,,,,,,,,,,,,,,,,,1,1.8530433800042374,,,,,,,,,,,,,,,,,,,,,,,,,,,,030519_p1,001,2019_Mar_05_1013,body_behavioural,3.0.4,60.003337265736825,
1,He gave a smile back.,1,2,,,,0,1,1,1,,,,,0,10,10,10,,,,,,,,,,,,,,,,,,,,,,,,,,,,,,,1,1.0533375200029695,,,,,,,,,,,,,,,,,,,,,,,,,,,,030519_p1,001,2019_Mar_05_1013,body_behavioural,3.0.4,60.003337265736825,
1,"“You alright?”, he said.",1,2,,,,0,1,1,1,,,,,0,11,11,11,,,,,,,,,,,,,,,,,,,,,,,,,,,,,,,1,0.8363465100119356,,,,,,,,,,,,,,,,,,,,,,,,,,,,030519_p1,001,2019_Mar_05_1013,body_behavioural,3.0.4,60.003337265736825,
1,"She whispered, “Uh yeah.",1,2,,,,0,1,1,1,,,,,0,12,12,12,,,,,,,,,,,,,,,,,,,,,,,,,,,,,,,1,0.9196639430010691,,,,,,,,,,,,,,,,,,,,,,,,,,,,030519_p1,001,2019_Mar_05_1013,body_behavioural,3.0.4,60.003337265736825,
1,I almost got smooshed by that cart.”,1,2,,,,0,1,1,1,,,,,0,13,13,13,,,,,,,,,,,,,,,,,,,,,,,,,,,,,,,1,1.5529529670020565,,,,,,,,,,,,,,,,,,,,,,,,,,,,030519_p1,001,2019_Mar_05_1013,body_behavioural,3.0.4,60.003337265736825,
1,Her head was still spinning as she stared at the handsome stranger who had saved her. ,1,2,,,,0,1,1,1,,,,,0,14,14,14,,,,,,,,,,,,,,,,,,,,,,,,,,,,,,,1,1.969761041997117,,,,,,,,,,,,,,,,,,,,,,,,,,,,030519_p1,001,2019_Mar_05_1013,body_behavioural,3.0.4,60.003337265736825,
1,David helped her up and had to keep holding on to her arms to steady her even once they were standing.,1,2,,,,0,1,1,1,,,,,0,15,15,15,,,,,,,,,,,,,,,,,,,,,,,,,,,,,,,1,2.753404095012229,,,,,,,,,,,,,,,,,,,,,,,,,,,,030519_p1,001,2019_Mar_05_1013,body_behavioural,3.0.4,60.003337265736825,
1,"“I’m really late for my flight,” she said. ",1,2,,,,0,1,1,1,,,,,0,16,16,16,,,,,,,,,,,,,,,,,,,,,,,,,,,,,,,1,1.1362534299987601,,,,,,,,,,,,,,,,,,,,,,,,,,,,030519_p1,001,2019_Mar_05_1013,body_behavioural,3.0.4,60.003337265736825,
1,"“Don't worry,” said David, "let me help you get to your gate." ",1,2,,,,0,1,1,1,,,,,0,17,17,17,,,,,,,,,,,,,,,,,,,,,,,,,,,,,,,1,1.3863178100000368,,,,,,,,,,,,,,,,,,,,,,,,,,,,030519_p1,001,2019_Mar_05_1013,body_behavioural,3.0.4,60.003337265736825,
1,He waved off her half-hearted protests. ,1,2,,,,0,1,1,1,,,,,0,18,18,18,,,,,,,,,,,,,,,,,,,,,,,,,,,,,,,1,3.553185647004284,,,,,,,,,,,,,,,,,,,,,,,,,,,,030519_p1,001,2019_Mar_05_1013,body_behavioural,3.0.4,60.003337265736825,
1,"“Really , I have plenty of time and nothing better to do.”",1,2,,,,0,1,1,1,,,,,0,19,19,19,,,,,,,,,,,,,,,,,,,,,,,,,,,,,,,1,2.3527315219980665,,,,,,,,,,,,,,,,,,,,,,,,,,,,030519_p1,001,2019_Mar_05_1013,body_behavioural,3.0.4,60.003337265736825,
1,They headed to the security line. ,2,2,,,,0,1,1,1,,,,,0,20,20,20,,,,,,,,,,,,,,,,,,,,,,,,,,,,,,,1,1.069529357002466,,,,,,,,,,,,,,,,,,,,,,,,,,,,030519_p1,001,2019_Mar_05_1013,body_behavioural,3.0.4,60.003337265736825,
1,"The line was not long, and they spent the time chatting and getting to know each other.",2,2,,,,0,1,1,1,,,,,0,21,21,21,,,,,,,,,,,,,,,,,,,,,,,,,,,,,,,9,1.7698161470034393,,,,,,,,,,,,,,,,,,,,,,,,,,,,030519_p1,001,2019_Mar_05_1013,body_behavioural,3.0.4,60.003337265736825,
1,It turned out that Anna and David went to the same high school but Anna had been 3 years older.,2,2,,,,0,1,1,1,,,,,0,22,22,22,,,,,,,,,,,,,,,,,,,,,,,,,,,,,,,1,3.336599786998704,,,,,,,,,,,,,,,,,,,,,,,,,,,,030519_p1,001,2019_Mar_05_1013,body_behavioural,3.0.4,60.003337265736825,
1,When they got to the front of the line they took off their shoes and pulled off their coats.,2,3,,,,0,1,1,1,,,,,0,23,23,23,,,,,,,,,,,,,,,,,,,,,,,,,,,,,,,1,2.185410531004891,,,,,,,,,,,,,,,,,,,,,,,,,,,,030519_p1,001,2019_Mar_05_1013,body_behavioural,3.0.4,60.003337265736825,
1,Both of them went through the metal detector without any problems. ,2,3,,,,0,1,1,1,,,,,0,24,24,24,,,,,,,,,,,,,,,,,,,,,,,,,,,,,,,1,1.7868906669900753,,,,,,,,,,,,,,,,,,,,,,,,,,,,030519_p1,001,2019_Mar_05_1013,body_behavioural,3.0.4,60.003337265736825,
1,"Anna’s flight was in 20 minutes, and as she was rushing to put her shoes and coat back on, David asked her, “So when are you coming back?”",2,3,,,,0,1,1,1,,,,,0,25,25,25,,,,,,,,,,,,,,,,,,,,,,,,,,,,,,,1,3.253228860005038,,,,,,,,,,,,,,,,,,,,,,,,,,,,030519_p1,001,2019_Mar_05_1013,body_behavioural,3.0.4,60.003337265736825,
1,"“In a week, it’s a short trip,” Anna replied. ",2,3,,,,0,1,1,1,,,,,0,26,26,26,,,,,,,,,,,,,,,,,,,,,,,,,,,,,,,1,1.6864558099914575,,,,,,,,,,,,,,,,,,,,,,,,,,,,030519_p1,001,2019_Mar_05_1013,body_behavioural,3.0.4,60.003337265736825,
1,"“Me too,” David said.",2,3,,,,0,1,1,1,,,,,0,27,27,27,,,,,,,,,,,,,,,,,,,,,,,,,,,,,,,1,0.6364966450055363,,,,,,,,,,,,,,,,,,,,,,,,,,,,030519_p1,001,2019_Mar_05_1013,body_behavioural,3.0.4,60.003337265736825,
1,"He continued, “When we're back in town, is there any chance you'd want to get dinner?",2,3,,,,0,1,1,1,,,,,0,28,28,28,,,,,,,,,,,,,,,,,,,,,,,,,,,,,,,1,2.3364491399988765,,,,,,,,,,,,,,,,,,,,,,,,,,,,030519_p1,001,2019_Mar_05_1013,body_behavioural,3.0.4,60.003337265736825,
1,"I know we just met, but when life throws a luggage cart at you it seems like we should listen. “",2,3,,,,0,1,1,1,,,,,0,29,29,29,,,,,,,,,,,,,,,,,,,,,,,,,,,,,,,1,2.486204357002862,,,,,,,,,,,,,,,,,,,,,,,,,,,,030519_p1,001,2019_Mar_05_1013,body_behavioural,3.0.4,60.003337265736825,
1,"She stopped packing, and said with a smile, “Yes I would love that.”",2,3,,,,0,1,1,1,,,,,0,30,30,30,,,,,,,,,,,,,,,,,,,,,,,,,,,,,,,1,1.6194793269969523,,,,,,,,,,,,,,,,,,,,,,,,,,,,030519_p1,001,2019_Mar_05_1013,body_behavioural,3.0.4,60.003337265736825,
1,Then they ran off to Anna’s gate which was at the end of the terminal. ,3,3,,,,0,1,1,1,,,,,0,31,31,31,,,,,,,,,,,,,,,,,,,,,,,,,,,,,,,1,1.4361033320019487,,,,,,,,,,,,,,,,,,,,,,,,,,,,030519_p1,001,2019_Mar_05_1013,body_behavioural,3.0.4,60.003337265736825,
1,"David took put on her backpack, grabbed her hand, and navigated quickly through the crowds of people.",3,3,,,,0,1,1,1,,,,,0,32,32,32,,,,,,,,,,,,,,,,,,,,,,,,,,,,,,,9,3.103266439997242,,,,,,,,,,,,,,,,,,,,,,,,,,,,030519_p1,001,2019_Mar_05_1013,body_behavioural,3.0.4,60.003337265736825,
1,Anna was amazed at everything that was happening; she had arrived at the airport doubtful that she would make it and was now confident that she would due to this handsome and kind man she just met.,3,3,,,,0,1,1,1,,,,,0,33,33,33,,,,,,,,,,,,,,,,,,,,,,,,,,,,,,,9,6.686883729998954,,,,,,,,,,,,,,,,,,,,,,,,,,,,030519_p1,001,2019_Mar_05_1013,body_behavioural,3.0.4,60.003337265736825,
1,"As they approached her gate, Anna fished out a crumbled business card from her pocket and handed it to David, who handed her the backpack, and he promised to call her next week.",3,4,,,,0,1,1,1,,,,,0,34,34,34,,,,,,,,,,,,,,,,,,,,,,,,,,,,,,,1,5.537150357995415,,,,,,,,,,,,,,,,,,,,,,,,,,,,030519_p1,001,2019_Mar_05_1013,body_behavioural,3.0.4,60.003337265736825,
1,She gave him one last embarrassed smile and approached the flight attendant who scanned her ticket. ,3,4,,,,0,1,1,1,,,,,0,35,35,35,,,,,,,,,,,,,,,,,,,,,,,,,,,,,,,1,2.484214809999685,,,,,,,,,,,,,,,,,,,,,,,,,,,,030519_p1,001,2019_Mar_05_1013,body_behavioural,3.0.4,60.003337265736825,
1,"Finally, she boarded the plane, sliding into her window seat located all the way in the back of the plane.",4,4,,,,0,1,1,1,,,,,0,36,36,36,,,,,,,,,,,,,,,,,,,,,,,,,,,,,,,1,2.686787678001565,,,,,,,,,,,,,,,,,,,,,,,,,,,,030519_p1,001,2019_Mar_05_1013,body_behavioural,3.0.4,60.003337265736825,
1,"Barely containing her glee, she ignored the grumbles of complaint as she squeezed past the other passengers in her row and settled back in her seat. ",4,4,,,,0,1,1,1,,,,,0,37,37,37,,,,,,,,,,,,,,,,,,,,,,,,,,,,,,,1,2.986625749996165,,,,,,,,,,,,,,,,,,,,,,,,,,,,030519_p1,001,2019_Mar_05_1013,body_behavioural,3.0.4,60.003337265736825,
1,"She was thankful that she had not only made it onto the plane in time, but also that she had been clumsy enough to forget to tie her shoes.",4,4,,,,0,1,1,1,,,,,0,38,38,38,,,,,,,,,,,,,,,,,,,,,,,,,,,,,,,1,3.370215027985978,,,,,,,,,,,,,,,,,,,,,,,,,,,,030519_p1,001,2019_Mar_05_1013,body_behavioural,3.0.4,60.003337265736825,
1,,,,,,,0,1,1,1,,,,,,,,,,,,,,,,,,,,,,,,,,,,,,,,,,,,,,,,,,,,,,,,,,,,,,,,,,,,,,,,,,,,030519_p1,001,2019_Mar_05_1013,body_behavioural,3.0.4,60.003337265736825,
2,,,,,,,0,2,2,2,0,0,0,0,,,,,,,,,,,,,,,,,,,,,,,,,,,,,space,0.9364056199992774,space,0.6193504430120811,space,0.5694490649912041,,,,,,,,,,,,,,,,,,,,,,,,,,,,,,030519_p1,001,2019_Mar_05_1013,body_behavioural,3.0.4,60.003337265736825,
2,,,,,,,0,2,2,2,1,0,1,0,,,,,,,,,,,,,,,,,,,,,,,,,,,,,,,,,space,1.2362349350005388,,,,,,,,,,,,,,,,,,,,,,,,,,,,,,030519_p1,001,2019_Mar_05_1013,body_behavioural,3.0.4,60.003337265736825,
2,,,,,,,0,2,2,2,2,0,2,0,,,,,,,,,,,,,,,,,,,,,,,,,,,,,,,,,space,0.6340968549920944,,,,,,,,,,,,,,,,,,,,,,,,,,,,,,030519_p1,001,2019_Mar_05_1013,body_behavioural,3.0.4,60.003337265736825,
2,,,,,,,0,2,2,2,3,0,3,0,,,,,,,,,,,,,,,,,,,,,,,,,,,,,,,,,space,1.270051505009178,,,,,,,,,,,,,,,,,,,,,,,,,,,,,,030519_p1,001,2019_Mar_05_1013,body_behavioural,3.0.4,60.003337265736825,
2,,,,,,,0,2,2,2,4,0,4,0,,,,,,,,,,,,,,,,,,,,,,,,,,,,,,,,,space,0.5024736449995544,,,,,,,,,,,,,,,,,,,,,,,,,,,,,,030519_p1,001,2019_Mar_05_1013,body_behavioural,3.0.4,60.003337265736825,
2,,,,,,,0,2,2,2,5,0,5,0,,,,,,,,,,,,,,,,,,,,,,,,,,,,,,,,,space,0.6696991969947703,,,,,,,,,,,,,,,,,,,,,,,,,,,,,,030519_p1,001,2019_Mar_05_1013,body_behavioural,3.0.4,60.003337265736825,
2,,,,,,,0,2,2,2,6,0,6,0,,,,,,,,,,,,,,,,,,,,,,,,,,,,,,,,,space,0.45293491998745594,,,,,,,,,,,,,,,,,,,,,,,,,,,,,,030519_p1,001,2019_Mar_05_1013,body_behavioural,3.0.4,60.003337265736825,
2,"Alvira and Senna walked into the restaurant hand in sweaty hand with quite different expectations: Senna was going to propose tonight, and Alvira had no idea.",1,1,None,None,,0,2,2,2,,,,,0,0,0,0,,,,,,,,,,,,,,,,,,,,,,,,,,,,,,,9,6.88657490699552,,,,,,,,,,,,,,,,,,,,,,,,,,,,030519_p1,001,2019_Mar_05_1013,body_behavioural,3.0.4,60.003337265736825,
2,"He took a deep breath, trying to calm his nerves as worst case scenarios ran through his mind. ",1,1,None,None,,0,2,2,2,,,,,0,1,1,1,,,,,,,,,,,,,,,,,,,,,,,,,,,,,,,1,2.019326078996528,,,,,,,,,,,,,,,,,,,,,,,,,,,,030519_p1,001,2019_Mar_05_1013,body_behavioural,3.0.4,60.003337265736825,
2,The entrance of the restaurant was dazzling; chandeliers spread their warm light onto the delicate place settings of all the tables filled with guests dressed to the nines. ,1,1,None,None,,0,2,2,2,,,,,0,2,2,2,,,,,,,,,,,,,,,,,,,,,,,,,,,,,,,9,5.403391140003805,,,,,,,,,,,,,,,,,,,,,,,,,,,,030519_p1,001,2019_Mar_05_1013,body_behavioural,3.0.4,60.003337265736825,
2,"Through the floor-to-ceiling arched windows of the back wall, they saw the sun setting onto the Pacific ocean.",1,1,None,None,,0,2,2,2,,,,,0,3,3,3,,,,,,,,,,,,,,,,,,,,,,,,,,,,,,,1,4.153205089998664,,,,,,,,,,,,,,,,,,,,,,,,,,,,030519_p1,001,2019_Mar_05_1013,body_behavioural,3.0.4,60.003337265736825,
2,"This was surely one of the best restaurants on the west coast, situated right on the beach.",1,1,None,None,,0,2,2,2,,,,,0,4,4,4,,,,,,,,,,,,,,,,,,,,,,,,,,,,,,,1,1.887113466989831,,,,,,,,,,,,,,,,,,,,,,,,,,,,030519_p1,001,2019_Mar_05_1013,body_behavioural,3.0.4,60.003337265736825,
2,"Senna gave his name to the host, who quickly located their reservation with an almost comically wide customer-service smile.",1,1,7.0,None,,0,2,2,2,,,,,0,5,5,5,,,,,,,,,,,,,,,,,,,,,,,,,,,,,,,9,3.21993960000691,,,,,,,,,,,,,,,,,,,,,,,,,,,,030519_p1,001,2019_Mar_05_1013,body_behavioural,3.0.4,60.003337265736825,
2,He led them to a table right by the window.,2,1,None,None,,0,2,2,2,,,,,0,6,6,6,,,,,,,,,,,,,,,,,,,,,,,,,,,,,,,1,0.8364931919932133,,,,,,,,,,,,,,,,,,,,,,,,,,,,030519_p1,001,2019_Mar_05_1013,body_behavioural,3.0.4,60.003337265736825,
2,"He brought out some very small menus, with a short list of the celebrity chef's carefully selected daily dishes written in a loopy, cursive font unadorned by any mention of prices.",2,1,None,9.0,,0,2,2,2,,,,,0,7,7,7,,,,,,,,,,,,,,,,,,,,,,,,,,,,,,,1,3.169983184998273,,,,,,,,,,,,,,,,,,,,,,,,,,,,030519_p1,001,2019_Mar_05_1013,body_behavioural,3.0.4,60.003337265736825,
2,Senna slipped off to the bathroom to check to make sure the ring was in order.,2,2,None,None,,0,2,2,2,,,,,0,8,8,8,,,,,,,,,,,,,,,,,,,,,,,,,,,,,,,9,2.7531418349972228,,,,,,,,,,,,,,,,,,,,,,,,,,,,030519_p1,001,2019_Mar_05_1013,body_behavioural,3.0.4,60.003337265736825,
2,"The ring contained a canary diamond that had been in his grandmother’s wedding ring, and it was a brilliant stone that was accentuated by the small white diamonds encircling it.",2,2,None,None,,0,2,2,2,,,,,0,9,9,9,,,,,,,,,,,,,,,,,,,,,,,,,,,,,,,1,4.536599049999495,,,,,,,,,,,,,,,,,,,,,,,,,,,,030519_p1,001,2019_Mar_05_1013,body_behavioural,3.0.4,60.003337265736825,
2,"He walked back to the table after handing the small, velvet box to a waiter at the front podium.",2,2,6.0,None,,0,2,2,2,,,,,0,10,10,10,,,,,,,,,,,,,,,,,,,,,,,,,,,,,,,1,1.7363923020020593,,,,,,,,,,,,,,,,,,,,,,,,,,,,030519_p1,001,2019_Mar_05_1013,body_behavioural,3.0.4,60.003337265736825,
2,He came back just as their waiter was approaching the table to get their order.,3,2,None,None,,0,2,2,2,,,,,0,11,11,11,,,,,,,,,,,,,,,,,,,,,,,,,,,,,,,1,1.6196092650061473,,,,,,,,,,,,,,,,,,,,,,,,,,,,030519_p1,001,2019_Mar_05_1013,body_behavioural,3.0.4,60.003337265736825,
2,"Senna ordered the oysters with garlic-parmesan sauce, and Alvira ordered the sauteed sea scallops with caramelized apples. ",3,2,None,None,,0,2,2,2,,,,,0,12,12,12,,,,,,,,,,,,,,,,,,,,,,,,,,,,,,,9,2.7175412669894286,,,,,,,,,,,,,,,,,,,,,,,,,,,,030519_p1,001,2019_Mar_05_1013,body_behavioural,3.0.4,60.003337265736825,
2,"“Excellent choices,” the waiter said with a subsequent brisk spin away from the table.",3,2,None,None,,0,2,2,2,,,,,0,13,13,13,,,,,,,,,,,,,,,,,,,,,,,,,,,,,,,1,2.3701476199930767,,,,,,,,,,,,,,,,,,,,,,,,,,,,030519_p1,001,2019_Mar_05_1013,body_behavioural,3.0.4,60.003337265736825,
2,"“What a beautiful place, Senna. ",3,2,None,None,,0,2,2,2,,,,,0,14,14,14,,,,,,,,,,,,,,,,,,,,,,,,,,,,,,,9,3.0033808070002124,,,,,,,,,,,,,,,,,,,,,,,,,,,,030519_p1,001,2019_Mar_05_1013,body_behavioural,3.0.4,60.003337265736825,
2,"Really this is too much just to celebrate the first tomatoes I grew in the garden, like, this is absurd,” Alvira said.",3,2,None,None,,0,2,2,2,,,,,0,15,15,15,,,,,,,,,,,,,,,,,,,,,,,,,,,,,,,1,3.4842569250031374,,,,,,,,,,,,,,,,,,,,,,,,,,,,030519_p1,001,2019_Mar_05_1013,body_behavioural,3.0.4,60.003337265736825,
2,"Senna laughed and said, “No, those were really the best tomatoes I’ve ever had. ",3,2,None,None,,0,2,2,2,,,,,0,16,16,16,,,,,,,,,,,,,,,,,,,,,,,,,,,,,,,1,1.8865057350049028,,,,,,,,,,,,,,,,,,,,,,,,,,,,030519_p1,001,2019_Mar_05_1013,body_behavioural,3.0.4,60.003337265736825,
2,We had to celebrate.” ,3,2,None,None,,0,2,2,2,,,,,0,17,17,17,,,,,,,,,,,,,,,,,,,,,,,,,,,,,,,1,0.9530593520030379,,,,,,,,,,,,,,,,,,,,,,,,,,,,030519_p1,001,2019_Mar_05_1013,body_behavioural,3.0.4,60.003337265736825,
2,"They talked and laughed as the sun sank below the horizon, and the glow from the ocean was replaced by the glow from the chandeliers.",3,2,8.0,None,,0,2,2,2,,,,,0,18,18,18,,,,,,,,,,,,,,,,,,,,,,,,,,,,,,,1,4.586203041995759,,,,,,,,,,,,,,,,,,,,,,,,,,,,030519_p1,001,2019_Mar_05_1013,body_behavioural,3.0.4,60.003337265736825,
2,"The waiter eventually returned with their meals, and everything was even more delicious than they had expected, especially the oysters, which Senna said tasted like the ocean. ",4,2,None,None,,0,2,2,2,,,,,0,19,19,19,,,,,,,,,,,,,,,,,,,,,,,,,,,,,,,9,4.1368589519988745,,,,,,,,,,,,,,,,,,,,,,,,,,,,030519_p1,001,2019_Mar_05_1013,body_behavioural,3.0.4,60.003337265736825,
2,Then he paused and looked at Alvira meaningfully. ,4,2,None,None,,0,2,2,2,,,,,0,20,20,20,,,,,,,,,,,,,,,,,,,,,,,,,,,,,,,1,1.353221540004597,,,,,,,,,,,,,,,,,,,,,,,,,,,,030519_p1,001,2019_Mar_05_1013,body_behavioural,3.0.4,60.003337265736825,
2, “It’s really been the best three years of my life with you.,4,2,None,None,,0,2,2,2,,,,,0,21,21,21,,,,,,,,,,,,,,,,,,,,,,,,,,,,,,,1,1.969683432005695,,,,,,,,,,,,,,,,,,,,,,,,,,,,030519_p1,001,2019_Mar_05_1013,body_behavioural,3.0.4,60.003337265736825,
2,"I couldn’t imagine it any other way, and I don’t want to.",4,2,None,None,,0,2,2,2,,,,,0,22,22,22,,,,,,,,,,,,,,,,,,,,,,,,,,,,,,,1,1.1197867220034823,,,,,,,,,,,,,,,,,,,,,,,,,,,,030519_p1,001,2019_Mar_05_1013,body_behavioural,3.0.4,60.003337265736825,
2,"I really want to spend the rest of my years eating garden tomatoes, whatever it is, with you.” ",4,2,None,None,,0,2,2,2,,,,,0,23,23,23,,,,,,,,,,,,,,,,,,,,,,,,,,,,,,,1,1.9532406749931397,,,,,,,,,,,,,,,,,,,,,,,,,,,,030519_p1,001,2019_Mar_05_1013,body_behavioural,3.0.4,60.003337265736825,
2,"Alvira smiled, “I want the same with you too, Senna.” ",4,2,None,17.0,,0,2,2,2,,,,,0,24,24,24,,,,,,,,,,,,,,,,,,,,,,,,,,,,,,,9,2.1199664669984486,,,,,,,,,,,,,,,,,,,,,,,,,,,,030519_p1,001,2019_Mar_05_1013,body_behavioural,3.0.4,60.003337265736825,
2,"Senna nodded at the waiter who had been watching attentively, and he quickly strode over to place a small, elegant cake topped with the ring in front of Alvira. ",4,3,None,None,,0,2,2,2,,,,,0,25,25,25,,,,,,,,,,,,,,,,,,,,,,,,,,,,,,,9,6.335883752006339,,,,,,,,,,,,,,,,,,,,,,,,,,,,030519_p1,001,2019_Mar_05_1013,body_behavioural,3.0.4,60.003337265736825,
2,Her eyes widened in shock when she realized what she was looking at.,4,3,None,None,,0,2,2,2,,,,,0,26,26,26,,,,,,,,,,,,,,,,,,,,,,,,,,,,,,,1,1.2537129270058358,,,,,,,,,,,,,,,,,,,,,,,,,,,,030519_p1,001,2019_Mar_05_1013,body_behavioural,3.0.4,60.003337265736825,
2,"“Alvira, will you marry me? ",4,3,None,None,,0,2,2,2,,,,,0,27,27,27,,,,,,,,,,,,,,,,,,,,,,,,,,,,,,,1,0.9197304169938434,,,,,,,,,,,,,,,,,,,,,,,,,,,,030519_p1,001,2019_Mar_05_1013,body_behavioural,3.0.4,60.003337265736825,
2,"I love you, and I will never stop loving you.” ",4,3,None,None,,0,2,2,2,,,,,0,28,28,28,,,,,,,,,,,,,,,,,,,,,,,,,,,,,,,1,0.886469165008748,,,,,,,,,,,,,,,,,,,,,,,,,,,,030519_p1,001,2019_Mar_05_1013,body_behavioural,3.0.4,60.003337265736825,
2,Alvira started to cry.,4,3,None,None,,0,2,2,2,,,,,0,29,29,29,,,,,,,,,,,,,,,,,,,,,,,,,,,,,,,1,1.4031705349916592,,,,,,,,,,,,,,,,,,,,,,,,,,,,030519_p1,001,2019_Mar_05_1013,body_behavioural,3.0.4,60.003337265736825,
2,"The room became silent, and everyone turned to their table. ",4,3,None,5.0,,0,2,2,2,,,,,0,30,30,30,,,,,,,,,,,,,,,,,,,,,,,,,,,,,,,1,1.5363702899921918,,,,,,,,,,,,,,,,,,,,,,,,,,,,030519_p1,001,2019_Mar_05_1013,body_behavioural,3.0.4,60.003337265736825,
2,"“Yes, of course, yes!” she shouted as she wiped away tears.",4,4,None,None,,0,2,2,2,,,,,0,31,31,31,,,,,,,,,,,,,,,,,,,,,,,,,,,,,,,1,2.619453926992719,,,,,,,,,,,,,,,,,,,,,,,,,,,,030519_p1,001,2019_Mar_05_1013,body_behavioural,3.0.4,60.003337265736825,
2,The neighboring tables exploded in applause.,4,4,None,None,,0,2,2,2,,,,,0,32,32,32,,,,,,,,,,,,,,,,,,,,,,,,,,,,,,,1,1.7031332150072558,,,,,,,,,,,,,,,,,,,,,,,,,,,,030519_p1,001,2019_Mar_05_1013,body_behavioural,3.0.4,60.003337265736825,
2,The waiter returned with a bottle of champagne and popped it. ,4,4,None,None,,0,2,2,2,,,,,0,33,33,33,,,,,,,,,,,,,,,,,,,,,,,,,,,,,,,1,1.4175112569937482,,,,,,,,,,,,,,,,,,,,,,,,,,,,030519_p1,001,2019_Mar_05_1013,body_behavioural,3.0.4,60.003337265736825,
2,"All of this went unnoticed by Senna and Alvira as they looked into each others’ eyes, and he slipped the ring onto her finger. ",4,4,None,None,,0,2,2,2,,,,,0,34,34,34,,,,,,,,,,,,,,,,,,,,,,,,,,,,,,,1,3.769879661995219,,,,,,,,,,,,,,,,,,,,,,,,,,,,030519_p1,001,2019_Mar_05_1013,body_behavioural,3.0.4,60.003337265736825,
2,"She held up her hand to admire it, and her glittering tears of joy matched the shine from her ring.   
",4,4,17.0,5.0,,0,2,2,2,,,,,0,35,35,35,,,,,,,,,,,,,,,,,,,,,,,,,,,,,,,1,3.0365376550034853,,,,,,,,,,,,,,,,,,,,,,,,,,,,030519_p1,001,2019_Mar_05_1013,body_behavioural,3.0.4,60.003337265736825,
2,,,,,,,0,2,2,2,,,,,,,,,,,,,,,,,,,,,,,,,,,,,,,,,,,,,,,,,,,,,,,,,,,,,,,,,,,,,,,,,,,,030519_p1,001,2019_Mar_05_1013,body_behavioural,3.0.4,60.003337265736825,
3,,,,,,,0,3,3,3,0,0,0,0,,,,,,,,,,,,,,,,,,,,,,,,,,,,,space,0.7700057769980049,space,0.5685203739994904,space,0.5174747830023989,,,,,,,,,,,,,,,,,,,,,,,,,,,,,,030519_p1,001,2019_Mar_05_1013,body_behavioural,3.0.4,60.003337265736825,
3,,,,,,,0,3,3,3,1,0,1,0,,,,,,,,,,,,,,,,,,,,,,,,,,,,,,,,,space,0.7862956049939385,,,,,,,,,,,,,,,,,,,,,,,,,,,,,,030519_p1,001,2019_Mar_05_1013,body_behavioural,3.0.4,60.003337265736825,
3,"Alex was a distracted, sweaty mess as he walked into the grocery store with Chloe; he was hoping that she wouldn't suspect that he was about to propose.",1,1,,,,0,3,3,3,,,,,0,0,0,0,,,,,,,,,,,,,,,,,,,,,,,,,,,,,,,9,8.45303412899375,,,,,,,,,,,,,,,,,,,,,,,,,,,,030519_p1,001,2019_Mar_05_1013,body_behavioural,3.0.4,60.003337265736825,
3,"The grocery store was brightly lit; this was one of the nicest grocery stores in Atlanta, and sunlight poured in through the glass walls.",1,1,,,,0,3,3,3,,,,,0,1,1,1,,,,,,,,,,,,,,,,,,,,,,,,,,,,,,,9,4.736648286998388,,,,,,,,,,,,,,,,,,,,,,,,,,,,030519_p1,001,2019_Mar_05_1013,body_behavioural,3.0.4,60.003337265736825,
3,"The atmosphere was also bright because tomorrow was Thanksgiving, and most shoppers had carts piled high with turkey, stuffing, and pies.",1,1,,,,0,3,3,3,,,,,0,2,2,2,,,,,,,,,,,,,,,,,,,,,,,,,,,,,,,1,2.719881989993155,,,,,,,,,,,,,,,,,,,,,,,,,,,,030519_p1,001,2019_Mar_05_1013,body_behavioural,3.0.4,60.003337265736825,
3,Alex wanted to propose to Chloe here because he knew she would not suspect it at all. ,1,1,,,,0,3,3,3,,,,,0,3,3,3,,,,,,,,,,,,,,,,,,,,,,,,,,,,,,,9,2.502365091990214,,,,,,,,,,,,,,,,,,,,,,,,,,,,030519_p1,001,2019_Mar_05_1013,body_behavioural,3.0.4,60.003337265736825,
3,"Chloe loved surprises, and Alex loved the look on Chloe’s face when she was surprised. ",1,1,,,,0,3,3,3,,,,,0,4,4,4,,,,,,,,,,,,,,,,,,,,,,,,,,,,,,,1,3.05340386799071,,,,,,,,,,,,,,,,,,,,,,,,,,,,030519_p1,001,2019_Mar_05_1013,body_behavioural,3.0.4,60.003337265736825,
3,"“Alex, we need to get some cranberry sauce, so let’s go there first.” ",2,1,,,,0,3,3,3,,,,,0,5,5,5,,,,,,,,,,,,,,,,,,,,,,,,,,,,,,,9,2.0196920650050743,,,,,,,,,,,,,,,,,,,,,,,,,,,,030519_p1,001,2019_Mar_05_1013,body_behavioural,3.0.4,60.003337265736825,
3,She led the way to the section of the store that held the canned foods. ,2,1,,,,0,3,3,3,,,,,0,6,6,6,,,,,,,,,,,,,,,,,,,,,,,,,,,,,,,1,1.736941052993643,,,,,,,,,,,,,,,,,,,,,,,,,,,,030519_p1,001,2019_Mar_05_1013,body_behavioural,3.0.4,60.003337265736825,
3,Alex looked like he was going to throw up. ,2,1,,,,0,3,3,3,,,,,0,7,7,7,,,,,,,,,,,,,,,,,,,,,,,,,,,,,,,1,1.152742442995077,,,,,,,,,,,,,,,,,,,,,,,,,,,,030519_p1,001,2019_Mar_05_1013,body_behavioural,3.0.4,60.003337265736825,
3,"As they were walking there, Chloe asked him, “Is everything okay, dear?”",2,1,,,,0,3,3,3,,,,,0,8,8,8,,,,,,,,,,,,,,,,,,,,,,,,,,,,,,,1,1.3862298839958385,,,,,,,,,,,,,,,,,,,,,,,,,,,,030519_p1,001,2019_Mar_05_1013,body_behavioural,3.0.4,60.003337265736825,
3,"“Oh yeah, for sure,” he said, unconvincingly. ",2,1,,,,0,3,3,3,,,,,0,9,9,9,,,,,,,,,,,,,,,,,,,,,,,,,,,,,,,1,0.8203973330091685,,,,,,,,,,,,,,,,,,,,,,,,,,,,030519_p1,001,2019_Mar_05_1013,body_behavioural,3.0.4,60.003337265736825,
3,"She chuckled, “Alright, whatever you say.” ",2,1,,,,0,3,3,3,,,,,0,10,10,10,,,,,,,,,,,,,,,,,,,,,,,,,,,,,,,1,0.8532386369915912,,,,,,,,,,,,,,,,,,,,,,,,,,,,030519_p1,001,2019_Mar_05_1013,body_behavioural,3.0.4,60.003337265736825,
3,"She was mulling over the different cans of cranberry sauce, and Alex knew she would be a while.",2,1,,,,0,3,3,3,,,,,0,11,11,11,,,,,,,,,,,,,,,,,,,,,,,,,,,,,,,1,3.35322924501088,,,,,,,,,,,,,,,,,,,,,,,,,,,,030519_p1,001,2019_Mar_05_1013,body_behavioural,3.0.4,60.003337265736825,
3,He turned his back to her and pulled out the ring.,2,2,,,,0,3,3,3,,,,,0,12,12,12,,,,,,,,,,,,,,,,,,,,,,,,,,,,,,,1,1.88601343499613,,,,,,,,,,,,,,,,,,,,,,,,,,,,030519_p1,001,2019_Mar_05_1013,body_behavioural,3.0.4,60.003337265736825,
3,He had been saving up for this for a while. ,2,2,,,,0,3,3,3,,,,,0,13,13,13,,,,,,,,,,,,,,,,,,,,,,,,,,,,,,,1,1.1864477600029204,,,,,,,,,,,,,,,,,,,,,,,,,,,,030519_p1,001,2019_Mar_05_1013,body_behavioural,3.0.4,60.003337265736825,
3,The ring had three large diamonds with smaller ones encircling each one: all of them sparkled in the light streaming in from the windows. ,2,2,,,,0,3,3,3,,,,,0,14,14,14,,,,,,,,,,,,,,,,,,,,,,,,,,,,,,,9,3.9367524920089636,,,,,,,,,,,,,,,,,,,,,,,,,,,,030519_p1,001,2019_Mar_05_1013,body_behavioural,3.0.4,60.003337265736825,
3,"“Alex?”, Chloe said suspiciously. ",2,2,,,,0,3,3,3,,,,,0,15,15,15,,,,,,,,,,,,,,,,,,,,,,,,,,,,,,,1,0.8197973700007424,,,,,,,,,,,,,,,,,,,,,,,,,,,,030519_p1,001,2019_Mar_05_1013,body_behavioural,3.0.4,60.003337265736825,
3,He closed the box and whipped around. “Yes?”,2,2,,,,0,3,3,3,,,,,0,16,16,16,,,,,,,,,,,,,,,,,,,,,,,,,,,,,,,1,1.1864214850065764,,,,,,,,,,,,,,,,,,,,,,,,,,,,030519_p1,001,2019_Mar_05_1013,body_behavioural,3.0.4,60.003337265736825,
3,“Do we need anything else?”,2,2,,,,0,3,3,3,,,,,0,17,17,17,,,,,,,,,,,,,,,,,,,,,,,,,,,,,,,1,0.8363707379903644,,,,,,,,,,,,,,,,,,,,,,,,,,,,030519_p1,001,2019_Mar_05_1013,body_behavioural,3.0.4,60.003337265736825,
3,"“Yeah I don’t know, honey.” ",2,2,,,,0,3,3,3,,,,,0,18,18,18,,,,,,,,,,,,,,,,,,,,,,,,,,,,,,,1,1.0530386900063604,,,,,,,,,,,,,,,,,,,,,,,,,,,,030519_p1,001,2019_Mar_05_1013,body_behavioural,3.0.4,60.003337265736825,
3,They went to the checkout and waited in a long line.,3,2,,,,0,3,3,3,,,,,0,19,19,19,,,,,,,,,,,,,,,,,,,,,,,,,,,,,,,1,1.8696754920092644,,,,,,,,,,,,,,,,,,,,,,,,,,,,030519_p1,001,2019_Mar_05_1013,body_behavioural,3.0.4,60.003337265736825,
3,Alex was staring intensely off into the distance. ,3,2,,,,0,3,3,3,,,,,0,20,20,20,,,,,,,,,,,,,,,,,,,,,,,,,,,,,,,1,1.6531523629964795,,,,,,,,,,,,,,,,,,,,,,,,,,,,030519_p1,001,2019_Mar_05_1013,body_behavioural,3.0.4,60.003337265736825,
3,Chloe was watching him trying to decide whether he looked scared or confused. ,3,2,,,,0,3,3,3,,,,,0,21,21,21,,,,,,,,,,,,,,,,,,,,,,,,,,,,,,,1,1.8695559569896432,,,,,,,,,,,,,,,,,,,,,,,,,,,,030519_p1,001,2019_Mar_05_1013,body_behavioural,3.0.4,60.003337265736825,
3,Alex looked over at their friends who were waiting by the entrance of the grocery store.,3,2,,,,0,3,3,3,,,,,0,22,22,22,,,,,,,,,,,,,,,,,,,,,,,,,,,,,,,1,2.8363902070123004,,,,,,,,,,,,,,,,,,,,,,,,,,,,030519_p1,001,2019_Mar_05_1013,body_behavioural,3.0.4,60.003337265736825,
3,They got the message and walked over slowly. ,3,2,,,,0,3,3,3,,,,,0,23,23,23,,,,,,,,,,,,,,,,,,,,,,,,,,,,,,,1,1.4338964449998457,,,,,,,,,,,,,,,,,,,,,,,,,,,,030519_p1,001,2019_Mar_05_1013,body_behavioural,3.0.4,60.003337265736825,
3,"“Honey,” he said to get her attention, “Look, Chloe, I love you so much and I want to be with you forever, I can’t imagine a day without you.”",3,2,,,,0,3,3,3,,,,,0,24,24,24,,,,,,,,,,,,,,,,,,,,,,,,,,,,,,,9,5.503416167004616,,,,,,,,,,,,,,,,,,,,,,,,,,,,030519_p1,001,2019_Mar_05_1013,body_behavioural,3.0.4,60.003337265736825,
3,"“Awww, Alex, me too.”",3,2,,,,0,3,3,3,,,,,0,25,25,25,,,,,,,,,,,,,,,,,,,,,,,,,,,,,,,1,1.1030735349922907,,,,,,,,,,,,,,,,,,,,,,,,,,,,030519_p1,001,2019_Mar_05_1013,body_behavioural,3.0.4,60.003337265736825,
3,"Alex got down on one knee, and Chloe gasped. ",3,3,,,,0,3,3,3,,,,,0,26,26,26,,,,,,,,,,,,,,,,,,,,,,,,,,,,,,,1,1.1527215570094995,,,,,,,,,,,,,,,,,,,,,,,,,,,,030519_p1,001,2019_Mar_05_1013,body_behavioural,3.0.4,60.003337265736825,
3,"“I am serious, Chloe. Will you marry me?”",3,3,,,,0,3,3,3,,,,,0,27,27,27,,,,,,,,,,,,,,,,,,,,,,,,,,,,,,,1,0.886501094995765,,,,,,,,,,,,,,,,,,,,,,,,,,,,030519_p1,001,2019_Mar_05_1013,body_behavioural,3.0.4,60.003337265736825,
3,"The people in line around them realized what was happening, stepped back, and started taking pictures.",3,3,,,,0,3,3,3,,,,,0,28,28,28,,,,,,,,,,,,,,,,,,,,,,,,,,,,,,,1,5.520173469994916,,,,,,,,,,,,,,,,,,,,,,,,,,,,030519_p1,001,2019_Mar_05_1013,body_behavioural,3.0.4,60.003337265736825,
3,Their friends were no longer trying to hide and were videotaping and taking pictures too. ,3,3,,,,0,3,3,3,,,,,0,29,29,29,,,,,,,,,,,,,,,,,,,,,,,,,,,,,,,1,1.5197573320037918,,,,,,,,,,,,,,,,,,,,,,,,,,,,030519_p1,001,2019_Mar_05_1013,body_behavioural,3.0.4,60.003337265736825,
3,Chloe looked around and laughed. ,3,3,,,,0,3,3,3,,,,,0,30,30,30,,,,,,,,,,,,,,,,,,,,,,,,,,,,,,,1,1.2863232600066112,,,,,,,,,,,,,,,,,,,,,,,,,,,,030519_p1,001,2019_Mar_05_1013,body_behavioural,3.0.4,60.003337265736825,
3,"“Yes!” she shouted, and jumped to embrace Alex in a hug. ",3,4,,,,0,3,3,3,,,,,0,31,31,31,,,,,,,,,,,,,,,,,,,,,,,,,,,,,,,1,1.1364753050002037,,,,,,,,,,,,,,,,,,,,,,,,,,,,030519_p1,001,2019_Mar_05_1013,body_behavioural,3.0.4,60.003337265736825,
3,Everyone in line clapped and cheered. ,3,4,,,,0,3,3,3,,,,,0,32,32,32,,,,,,,,,,,,,,,,,,,,,,,,,,,,,,,1,2.003155610000249,,,,,,,,,,,,,,,,,,,,,,,,,,,,030519_p1,001,2019_Mar_05_1013,body_behavioural,3.0.4,60.003337265736825,
3,"Alex put the ring on Chloe’s finger, who was nearly spinning in excitement.",3,4,,,,0,3,3,3,,,,,0,33,33,33,,,,,,,,,,,,,,,,,,,,,,,,,,,,,,,1,2.1027417320001405,,,,,,,,,,,,,,,,,,,,,,,,,,,,030519_p1,001,2019_Mar_05_1013,body_behavioural,3.0.4,60.003337265736825,
3,"“I love it, oh my gosh, it’s so glittery!",3,4,,,,0,3,3,3,,,,,0,34,34,34,,,,,,,,,,,,,,,,,,,,,,,,,,,,,,,1,1.3841251749981893,,,,,,,,,,,,,,,,,,,,,,,,,,,,030519_p1,001,2019_Mar_05_1013,body_behavioural,3.0.4,60.003337265736825,
3,Look at this!” she said as she shoved her hand in a stranger’s face.,3,4,,,,0,3,3,3,,,,,0,35,35,35,,,,,,,,,,,,,,,,,,,,,,,,,,,,,,,1,1.7196220400073798,,,,,,,,,,,,,,,,,,,,,,,,,,,,030519_p1,001,2019_Mar_05_1013,body_behavioural,3.0.4,60.003337265736825,
3,Her friends came over and hugged them.,3,4,,,,0,3,3,3,,,,,0,36,36,36,,,,,,,,,,,,,,,,,,,,,,,,,,,,,,,1,0.886467945005279,,,,,,,,,,,,,,,,,,,,,,,,,,,,030519_p1,001,2019_Mar_05_1013,body_behavioural,3.0.4,60.003337265736825,
3,The other people let them move up to the front of the checkout line. ,3,4,,,,0,3,3,3,,,,,0,37,37,37,,,,,,,,,,,,,,,,,,,,,,,,,,,,,,,1,2.669772772002034,,,,,,,,,,,,,,,,,,,,,,,,,,,,030519_p1,001,2019_Mar_05_1013,body_behavioural,3.0.4,60.003337265736825,
3,The cashier congratulated them and scanned their cranberry sauce. ,4,4,,,,0,3,3,3,,,,,0,38,38,38,,,,,,,,,,,,,,,,,,,,,,,,,,,,,,,1,1.4197495530097513,,,,,,,,,,,,,,,,,,,,,,,,,,,,030519_p1,001,2019_Mar_05_1013,body_behavioural,3.0.4,60.003337265736825,
3,The total came to $4 and Chloe paid in cash while getting distracted and staring at the ring as she pulled out the bills.,4,4,,,,0,3,3,3,,,,,0,39,39,39,,,,,,,,,,,,,,,,,,,,,,,,,,,,,,,1,4.186638329993002,,,,,,,,,,,,,,,,,,,,,,,,,,,,030519_p1,001,2019_Mar_05_1013,body_behavioural,3.0.4,60.003337265736825,
3,"Alex grabbed the cans, and they walked out with their friends bunched around them. ",4,4,,,,0,3,3,3,,,,,0,40,40,40,,,,,,,,,,,,,,,,,,,,,,,,,,,,,,,9,4.002749991996097,,,,,,,,,,,,,,,,,,,,,,,,,,,,030519_p1,001,2019_Mar_05_1013,body_behavioural,3.0.4,60.003337265736825,
3,,,,,,,0,3,3,3,,,,,,,,,,,,,,,,,,,,,,,,,,,,,,,,,,,,,,,,,,,,,,,,,,,,,,,,,,,,,,,,,,,,030519_p1,001,2019_Mar_05_1013,body_behavioural,3.0.4,60.003337265736825,
4,,,,,,,0,4,4,4,0,0,0,0,,,,,,,,,,,,,,,,,,,,,,,,,,,,,space,0.7686448680033209,space,0.6533528599975398,space,0.5529680500039831,,,,,,,,,,,,,,,,,,,,,,,,,,,,,,030519_p1,001,2019_Mar_05_1013,body_behavioural,3.0.4,60.003337265736825,
4,,,,,,,0,4,4,4,1,0,1,0,,,,,,,,,,,,,,,,,,,,,,,,,,,,,,,,,space,0.5362897299928591,,,,,,,,,,,,,,,,,,,,,,,,,,,,,,030519_p1,001,2019_Mar_05_1013,body_behavioural,3.0.4,60.003337265736825,
4,"Ms. Bianchi and Ms. Morrison walked into the grocery store at the same time, and, after a moment of mutual recognition, greeted each other and shook hands.",1,1,,,,0,4,4,4,,,,,0,0,0,0,,,,,,,,,,,,,,,,,,,,,,,,,,,,,,,9,4.786630914997659,,,,,,,,,,,,,,,,,,,,,,,,,,,,030519_p1,001,2019_Mar_05_1013,body_behavioural,3.0.4,60.003337265736825,
4,"“Thank you again for inviting me here to discuss my business proposal,” said Ms. Bianchi, “And it’s a pleasure to be out of the office.” ",1,1,,,,0,4,4,4,,,,,0,1,1,1,,,,,,,,,,,,,,,,,,,,,,,,,,,,,,,1,3.767681672994513,,,,,,,,,,,,,,,,,,,,,,,,,,,,030519_p1,001,2019_Mar_05_1013,body_behavioural,3.0.4,60.003337265736825,
4,"As a salesperson for an Italian cheese company that was trying to expand its outreach to more mainstream grocery stores, this meeting could be a big break for her.",1,1,,,,0,4,4,4,,,,,0,2,2,2,,,,,,,,,,,,,,,,,,,,,,,,,,,,,,,1,3.502661304999492,,,,,,,,,,,,,,,,,,,,,,,,,,,,030519_p1,001,2019_Mar_05_1013,body_behavioural,3.0.4,60.003337265736825,
4,"Her sales target, Ms. Morrison,  who had a reputation for being a bit quirky, was a corporate buyer for a large chain grocery store. ",1,1,,,,0,4,4,4,,,,,0,3,3,3,,,,,,,,,,,,,,,,,,,,,,,,,,,,,,,1,3.1032762300019385,,,,,,,,,,,,,,,,,,,,,,,,,,,,030519_p1,001,2019_Mar_05_1013,body_behavioural,3.0.4,60.003337265736825,
4,"She was known for doing things unconventionally: for example, she said that she liked to make deals with suppliers in the place where the products were sold- “to keep their minds focused on what’s important.” ",1,1,,,,0,4,4,4,,,,,0,4,4,4,,,,,,,,,,,,,,,,,,,,,,,,,,,,,,,1,5.686925435002195,,,,,,,,,,,,,,,,,,,,,,,,,,,,030519_p1,001,2019_Mar_05_1013,body_behavioural,3.0.4,60.003337265736825,
4,"They chatted a little in the front of the grocery store, which was surrounded by pumpkins and halloween decorations set up in special displays for the holiday season.",1,1,,,,0,4,4,4,,,,,0,5,5,5,,,,,,,,,,,,,,,,,,,,,,,,,,,,,,,1,5.0702722419955535,,,,,,,,,,,,,,,,,,,,,,,,,,,,030519_p1,001,2019_Mar_05_1013,body_behavioural,3.0.4,60.003337265736825,
4,"Ms. Bianchi and Ms. Morrison walked to the cheese section, and Ms. Morrison picked up a block of parmesan.",2,1,,,,0,4,4,4,,,,,0,6,6,6,,,,,,,,,,,,,,,,,,,,,,,,,,,,,,,1,1.984534863004228,,,,,,,,,,,,,,,,,,,,,,,,,,,,030519_p1,001,2019_Mar_05_1013,body_behavioural,3.0.4,60.003337265736825,
4,“We have quite a selection here.,2,1,,,,0,4,4,4,,,,,0,7,7,7,,,,,,,,,,,,,,,,,,,,,,,,,,,,,,,1,1.1023903470049845,,,,,,,,,,,,,,,,,,,,,,,,,,,,030519_p1,001,2019_Mar_05_1013,body_behavioural,3.0.4,60.003337265736825,
4,I don’t know that it needs an additional section for more gourmet cheeses.” ,2,1,,,,0,4,4,4,,,,,0,8,8,8,,,,,,,,,,,,,,,,,,,,,,,,,,,,,,,1,1.7875325479981257,,,,,,,,,,,,,,,,,,,,,,,,,,,,030519_p1,001,2019_Mar_05_1013,body_behavioural,3.0.4,60.003337265736825,
4,"Ms. Bianchi's confidence faltered for a minute at this remark, but then she launched into her prepared pitch.",2,1,,,,0,4,4,4,,,,,0,9,9,9,,,,,,,,,,,,,,,,,,,,,,,,,,,,,,,1,3.1366512770036934,,,,,,,,,,,,,,,,,,,,,,,,,,,,030519_p1,001,2019_Mar_05_1013,body_behavioural,3.0.4,60.003337265736825,
4," “Ms. Morrison, I think you would agree that selling food is more than just providing variety, but also about providing the highest quality.",2,2,,,,0,4,4,4,,,,,0,10,10,10,,,,,,,,,,,,,,,,,,,,,,,,,,,,,,,9,3.536459517010371,,,,,,,,,,,,,,,,,,,,,,,,,,,,030519_p1,001,2019_Mar_05_1013,body_behavioural,3.0.4,60.003337265736825,
4,"You don’t have cheeses made in America that are like ours, it is true.",2,2,,,,0,4,4,4,,,,,0,11,11,11,,,,,,,,,,,,,,,,,,,,,,,,,,,,,,,1,1.7360280169959879,,,,,,,,,,,,,,,,,,,,,,,,,,,,030519_p1,001,2019_Mar_05_1013,body_behavioural,3.0.4,60.003337265736825,
4,Your store could be providing American consumers with a dimension in taste that they've never known before with our product.,2,2,,,,0,4,4,4,,,,,0,12,12,12,,,,,,,,,,,,,,,,,,,,,,,,,,,,,,,1,2.086587468002108,,,,,,,,,,,,,,,,,,,,,,,,,,,,030519_p1,001,2019_Mar_05_1013,body_behavioural,3.0.4,60.003337265736825,
4,"I propose that you give it a shot, buy $1000 worth of cheese products for a few stores, and see how the sales increase not only in our cheeses but also in products related to cheeses: crackers, jams, olives. ",2,2,,,,0,4,4,4,,,,,0,13,13,13,,,,,,,,,,,,,,,,,,,,,,,,,,,,,,,1,3.6867713300016476,,,,,,,,,,,,,,,,,,,,,,,,,,,,030519_p1,001,2019_Mar_05_1013,body_behavioural,3.0.4,60.003337265736825,
4,"The availability of a finer product leads to the appreciation of the product, and your consumers will start to consume in a new, more profitable way.”",2,2,,,,0,4,4,4,,,,,0,14,14,14,,,,,,,,,,,,,,,,,,,,,,,,,,,,,,,1,2.4867693480046,,,,,,,,,,,,,,,,,,,,,,,,,,,,030519_p1,001,2019_Mar_05_1013,body_behavioural,3.0.4,60.003337265736825,
4,"Ms. Bianchi picked up a box of crackers by the cheese section, and said, “Here, I will buy these, and we can try some of our cheeses that I've brought with me.”",2,2,,,,0,4,4,4,,,,,0,15,15,15,,,,,,,,,,,,,,,,,,,,,,,,,,,,,,,9,3.0530001869919943,,,,,,,,,,,,,,,,,,,,,,,,,,,,030519_p1,001,2019_Mar_05_1013,body_behavioural,3.0.4,60.003337265736825,
4,"Ms. Morrison, who was thinking, nodded in agreement and said, “That sounds like a great idea.",2,2,,,,0,4,4,4,,,,,0,16,16,16,,,,,,,,,,,,,,,,,,,,,,,,,,,,,,,1,1.720156807001331,,,,,,,,,,,,,,,,,,,,,,,,,,,,030519_p1,001,2019_Mar_05_1013,body_behavioural,3.0.4,60.003337265736825,
4,"Let’s head to check out, and those crackers are on me.” ",2,2,,,,0,4,4,4,,,,,0,17,17,17,,,,,,,,,,,,,,,,,,,,,,,,,,,,,,,1,0.7693912620015908,,,,,,,,,,,,,,,,,,,,,,,,,,,,030519_p1,001,2019_Mar_05_1013,body_behavioural,3.0.4,60.003337265736825,
4,They walked over to the checkout area.,3,2,,,,0,4,4,4,,,,,0,18,18,18,,,,,,,,,,,,,,,,,,,,,,,,,,,,,,,1,1.0195876420038985,,,,,,,,,,,,,,,,,,,,,,,,,,,,030519_p1,001,2019_Mar_05_1013,body_behavioural,3.0.4,60.003337265736825,
4,"There was a very long line, and it was very busy in the checkout area as people were stocking up for Halloween parties and trick-or-treating. ",3,2,,,,0,4,4,4,,,,,0,19,19,19,,,,,,,,,,,,,,,,,,,,,,,,,,,,,,,9,3.119923676989856,,,,,,,,,,,,,,,,,,,,,,,,,,,,030519_p1,001,2019_Mar_05_1013,body_behavioural,3.0.4,60.003337265736825,
4,"Since they had almost a 10 minute wait in line, Ms. Bianchi handed a sheet with printed graphs to Ms. Morrison the increase in profits that several other stores had seen after starting to carry their products.",3,2,,,,0,4,4,4,,,,,0,20,20,20,,,,,,,,,,,,,,,,,,,,,,,,,,,,,,,1,4.136493576996145,,,,,,,,,,,,,,,,,,,,,,,,,,,,030519_p1,001,2019_Mar_05_1013,body_behavioural,3.0.4,60.003337265736825,
4,"Eventually, Ms. Morrison replied, “You know what, I think you've convinced me that this could work. ",3,3,,,,0,4,4,4,,,,,0,21,21,21,,,,,,,,,,,,,,,,,,,,,,,,,,,,,,,1,1.9526791570096975,,,,,,,,,,,,,,,,,,,,,,,,,,,,030519_p1,001,2019_Mar_05_1013,body_behavioural,3.0.4,60.003337265736825,
4,We've been trying to find a way to add a little European cachet to our stores.,3,3,,,,0,4,4,4,,,,,0,22,22,22,,,,,,,,,,,,,,,,,,,,,,,,,,,,,,,1,1.1366210880078143,,,,,,,,,,,,,,,,,,,,,,,,,,,,030519_p1,001,2019_Mar_05_1013,body_behavioural,3.0.4,60.003337265736825,
4,There's still a problem though - I'm worried we'll be paying out the nose for the import taxes.,3,3,,,,0,4,4,4,,,,,0,23,23,23,,,,,,,,,,,,,,,,,,,,,,,,,,,,,,,1,1.502735827001743,,,,,,,,,,,,,,,,,,,,,,,,,,,,030519_p1,001,2019_Mar_05_1013,body_behavioural,3.0.4,60.003337265736825,
4,Is that the case?",3,3,,,,0,4,4,4,,,,,0,24,24,24,,,,,,,,,,,,,,,,,,,,,,,,,,,,,,,1,0.7696622499934165,,,,,,,,,,,,,,,,,,,,,,,,,,,,030519_p1,001,2019_Mar_05_1013,body_behavioural,3.0.4,60.003337265736825,
4,"It was Ms. Morrison’s turn to checkout, and the two businesswomen continued to talk back and forth as she did so. ",4,3,,,,0,4,4,4,,,,,0,25,25,25,,,,,,,,,,,,,,,,,,,,,,,,,,,,,,,9,3.3031713649979793,,,,,,,,,,,,,,,,,,,,,,,,,,,,030519_p1,001,2019_Mar_05_1013,body_behavioural,3.0.4,60.003337265736825,
4,"The cashier scanned the crackers, and Ms. Bianchi watched in amusement as Ms. Morrison paid the $6 price entirely in quarters from a wallet bulging with change.",4,3,,,,0,4,4,4,,,,,0,26,26,26,,,,,,,,,,,,,,,,,,,,,,,,,,,,,,,1,4.76993135700468,,,,,,,,,,,,,,,,,,,,,,,,,,,,030519_p1,001,2019_Mar_05_1013,body_behavioural,3.0.4,60.003337265736825,
4,"They shortly came to an agreement and would have enough cheese shipments, $5000 worth, to different stores to qualify for a subsidized import tax. ",4,4,,,,0,4,4,4,,,,,0,27,27,27,,,,,,,,,,,,,,,,,,,,,,,,,,,,,,,9,6.136774917002185,,,,,,,,,,,,,,,,,,,,,,,,,,,,030519_p1,001,2019_Mar_05_1013,body_behavioural,3.0.4,60.003337265736825,
4,"Ms. Bianchi retrieved some of her samples from her car, and they toasted their new deal with crackers topped with fresh mozzarella. ",4,4,,,,0,4,4,4,,,,,0,28,28,28,,,,,,,,,,,,,,,,,,,,,,,,,,,,,,,9,3.536214416992152,,,,,,,,,,,,,,,,,,,,,,,,,,,,030519_p1,001,2019_Mar_05_1013,body_behavioural,3.0.4,60.003337265736825,
4,,,,,,,0,4,4,4,,,,,,,,,,,,,,,,,,,,,,,,,,,,,,,,,,,,,,,,,,,,,,,,,,,,,,,,,,,,,,,,,,,,030519_p1,001,2019_Mar_05_1013,body_behavioural,3.0.4,60.003337265736825,
5,,,,,,,0,5,5,5,0,0,0,0,,,,,,,,,,,,,,,,,,,,,,,,,,,,,space,0.6669157169963,space,0.38657813299505506,space,0.5696056120068533,,,,,,,,,,,,,,,,,,,,,,,,,,,,,,030519_p1,001,2019_Mar_05_1013,body_behavioural,3.0.4,60.003337265736825,
5,"Leon and  Ariana hurried into the classroom at the same time, and Leon did a double-take when he saw her. ",1,1,,,,0,5,5,5,,,,,0,0,0,0,,,,,,,,,,,,,,,,,,,,,,,,,,,,,,,9,4.870199652010342,,,,,,,,,,,,,,,,,,,,,,,,,,,,030519_p1,001,2019_Mar_05_1013,body_behavioural,3.0.4,60.003337265736825,
5,"This was his first day after transferring to this university, and he had assumed that he wouldn’t know anyone on campus, but he couldn't shake the nagging feeling  that he had seen her somewhere before. ",1,1,,,,0,5,5,5,,,,,0,1,1,1,,,,,,,,,,,,,,,,,,,,,,,,,,,,,,,1,5.186625335001736,,,,,,,,,,,,,,,,,,,,,,,,,,,,030519_p1,001,2019_Mar_05_1013,body_behavioural,3.0.4,60.003337265736825,
5,"They were both a bit late, so they quickly slid into seats next to each other in the back of the small classroom.",1,1,,,,0,5,5,5,,,,,0,2,2,2,,,,,,,,,,,,,,,,,,,,,,,,,,,,,,,1,4.686740524994093,,,,,,,,,,,,,,,,,,,,,,,,,,,,030519_p1,001,2019_Mar_05_1013,body_behavioural,3.0.4,60.003337265736825,
5,"This room was usually used for small meetings, but had been rearranged with the table pushed to the side and chairs set up in rows to face the projector screen. ",1,1,,,,0,5,5,5,,,,,0,3,3,3,,,,,,,,,,,,,,,,,,,,,,,,,,,,,,,1,8.653554842006997,,,,,,,,,,,,,,,,,,,,,,,,,,,,030519_p1,001,2019_Mar_05_1013,body_behavioural,3.0.4,60.003337265736825,
5,"There were no windows in the room, since they were down in the sub-basement of the history department.",1,1,,,,0,5,5,5,,,,,0,4,4,4,,,,,,,,,,,,,,,,,,,,,,,,,,,,,,,1,1.6527958000078797,,,,,,,,,,,,,,,,,,,,,,,,,,,,030519_p1,001,2019_Mar_05_1013,body_behavioural,3.0.4,60.003337265736825,
5,"Leon, trying to figure out where he had seen her before, could not stop looking over at Ariana.",1,1,,,,0,5,5,5,,,,,0,5,5,5,,,,,,,,,,,,,,,,,,,,,,,,,,,,,,,1,2.236637595007778,,,,,,,,,,,,,,,,,,,,,,,,,,,,030519_p1,001,2019_Mar_05_1013,body_behavioural,3.0.4,60.003337265736825,
5,Ariana was oblivious to Leon’s gaze and was only focused on getting ready for class. ,1,1,,,,0,5,5,5,,,,,0,6,6,6,,,,,,,,,,,,,,,,,,,,,,,,,,,,,,,1,1.3032168569916394,,,,,,,,,,,,,,,,,,,,,,,,,,,,030519_p1,001,2019_Mar_05_1013,body_behavioural,3.0.4,60.003337265736825,
5,"“Good afternoon class,” the professor began.",2,1,,,,0,5,5,5,,,,,0,7,7,7,,,,,,,,,,,,,,,,,,,,,,,,,,,,,,,9,0.9030967470025644,,,,,,,,,,,,,,,,,,,,,,,,,,,,030519_p1,001,2019_Mar_05_1013,body_behavioural,3.0.4,60.003337265736825,
5,“Welcome to Egyptian Cultural Studies. ,2,1,,,,0,5,5,5,,,,,0,8,8,8,,,,,,,,,,,,,,,,,,,,,,,,,,,,,,,1,0.8859075469954405,,,,,,,,,,,,,,,,,,,,,,,,,,,,030519_p1,001,2019_Mar_05_1013,body_behavioural,3.0.4,60.003337265736825,
5,"Today we will be talking about mummification, one of the most famous and often misunderstood customs in ancient Egyptian society.”",2,1,,,,0,5,5,5,,,,,0,9,9,9,,,,,,,,,,,,,,,,,,,,,,,,,,,,,,,1,2.903199635009514,,,,,,,,,,,,,,,,,,,,,,,,,,,,030519_p1,001,2019_Mar_05_1013,body_behavioural,3.0.4,60.003337265736825,
5,Leon pulled out his notebook and tried to concentrate on the class.,2,1,,,,0,5,5,5,,,,,0,10,10,10,,,,,,,,,,,,,,,,,,,,,,,,,,,,,,,1,2.9365934469969943,,,,,,,,,,,,,,,,,,,,,,,,,,,,030519_p1,001,2019_Mar_05_1013,body_behavioural,3.0.4,60.003337265736825,
5,Within a few minutes though he found his attention wandering back to Ariana.,2,1,,,,0,5,5,5,,,,,0,11,11,11,,,,,,,,,,,,,,,,,,,,,,,,,,,,,,,1,2.3865121099952376,,,,,,,,,,,,,,,,,,,,,,,,,,,,030519_p1,001,2019_Mar_05_1013,body_behavioural,3.0.4,60.003337265736825,
5,"He decided to do something about his hunch so he ripped off a corner of a page in his notebook, wrote a note, and set it on her desk.",2,1,,,,0,5,5,5,,,,,0,12,12,12,,,,,,,,,,,,,,,,,,,,,,,,,,,,,,,1,2.3863712650054367,,,,,,,,,,,,,,,,,,,,,,,,,,,,030519_p1,001,2019_Mar_05_1013,body_behavioural,3.0.4,60.003337265736825,
5,"“Hi, sorry to distract you from mummies, but you look really familiar," it read.",2,2,,,,0,5,5,5,,,,,0,13,13,13,,,,,,,,,,,,,,,,,,,,,,,,,,,,,,,9,2.5531054199964274,,,,,,,,,,,,,,,,,,,,,,,,,,,,030519_p1,001,2019_Mar_05_1013,body_behavioural,3.0.4,60.003337265736825,
5,It continued: “Do I know you from somewhere?”,2,2,,,,0,5,5,5,,,,,0,14,14,14,,,,,,,,,,,,,,,,,,,,,,,,,,,,,,,1,0.7696975099970587,,,,,,,,,,,,,,,,,,,,,,,,,,,,030519_p1,001,2019_Mar_05_1013,body_behavioural,3.0.4,60.003337265736825,
5,"She looked at the note with surprise, and then turned to notice Leon for the first time. ",2,2,,,,0,5,5,5,,,,,0,15,15,15,,,,,,,,,,,,,,,,,,,,,,,,,,,,,,,1,1.736484487002599,,,,,,,,,,,,,,,,,,,,,,,,,,,,030519_p1,001,2019_Mar_05_1013,body_behavioural,3.0.4,60.003337265736825,
5,"She instantly liked him when she saw him; he had very soft eyes and sharp features, a combination that made him seem  trustworthy and genuine.",2,2,,,,0,5,5,5,,,,,0,16,16,16,,,,,,,,,,,,,,,,,,,,,,,,,,,,,,,1,3.8032096899987664,,,,,,,,,,,,,,,,,,,,,,,,,,,,030519_p1,001,2019_Mar_05_1013,body_behavioural,3.0.4,60.003337265736825,
5,He smiled at her and she flashed him a smile back.,2,2,,,,0,5,5,5,,,,,0,17,17,17,,,,,,,,,,,,,,,,,,,,,,,,,,,,,,,1,1.536671825000667,,,,,,,,,,,,,,,,,,,,,,,,,,,,030519_p1,001,2019_Mar_05_1013,body_behavioural,3.0.4,60.003337265736825,
5,Then she turned the note over to the back and started to write a reply.,2,2,,,,0,5,5,5,,,,,0,18,18,18,,,,,,,,,,,,,,,,,,,,,,,,,,,,,,,1,2.5196897350106155,,,,,,,,,,,,,,,,,,,,,,,,,,,,030519_p1,001,2019_Mar_05_1013,body_behavioural,3.0.4,60.003337265736825,
5,"Meanwhile the professor continued, “One may well question why the ancient Egyptians spent so much time and effort on their funerary practices.",3,2,,,,0,5,5,5,,,,,0,19,19,19,,,,,,,,,,,,,,,,,,,,,,,,,,,,,,,9,3.7867336599883856,,,,,,,,,,,,,,,,,,,,,,,,,,,,030519_p1,001,2019_Mar_05_1013,body_behavioural,3.0.4,60.003337265736825,
5,"Not only was the mummification process itself a complicated affair, but there were also elaborate rituals before, during, and after death.",3,2,,,,0,5,5,5,,,,,0,20,20,20,,,,,,,,,,,,,,,,,,,,,,,,,,,,,,,1,2.353114377008751,,,,,,,,,,,,,,,,,,,,,,,,,,,,030519_p1,001,2019_Mar_05_1013,body_behavioural,3.0.4,60.003337265736825,
5,The practice required teams of experts with years of training and took a total of 70 days to complete.” ,3,2,,,,0,5,5,5,,,,,0,21,21,21,,,,,,,,,,,,,,,,,,,,,,,,,,,,,,,1,3.4367492550081806,,,,,,,,,,,,,,,,,,,,,,,,,,,,030519_p1,001,2019_Mar_05_1013,body_behavioural,3.0.4,60.003337265736825,
5,"Ariana passed the note back to Leon, and she had replied, “No, but maybe my twin and I were separated at birth.”",3,2,,,,0,5,5,5,,,,,0,22,22,22,,,,,,,,,,,,,,,,,,,,,,,,,,,,,,,9,3.536239437002223,,,,,,,,,,,,,,,,,,,,,,,,,,,,030519_p1,001,2019_Mar_05_1013,body_behavioural,3.0.4,60.003337265736825,
5,They passed notes back and forth the whole class like they were back in high school.,3,2,,,,0,5,5,5,,,,,0,23,23,23,,,,,,,,,,,,,,,,,,,,,,,,,,,,,,,1,1.8861278800031869,,,,,,,,,,,,,,,,,,,,,,,,,,,,030519_p1,001,2019_Mar_05_1013,body_behavioural,3.0.4,60.003337265736825,
5,"Near the end of the lecture, Leon wrote, “Would you like to go to dinner tonight?” ",3,3,,,,0,5,5,5,,,,,0,24,24,24,,,,,,,,,,,,,,,,,,,,,,,,,,,,,,,1,2.6675228550011525,,,,,,,,,,,,,,,,,,,,,,,,,,,,030519_p1,001,2019_Mar_05_1013,body_behavioural,3.0.4,60.003337265736825,
5,"Ariana read the note, and looked at him and nodded her head",3,3,,,,0,5,5,5,,,,,0,25,25,25,,,,,,,,,,,,,,,,,,,,,,,,,,,,,,,1,2.1364201069955016,,,,,,,,,,,,,,,,,,,,,,,,,,,,030519_p1,001,2019_Mar_05_1013,body_behavioural,3.0.4,60.003337265736825,
5,"She wrote back on the slip of paper, “Pick me up at 6 in front of Patton Hall.”",3,3,,,,0,5,5,5,,,,,0,26,26,26,,,,,,,,,,,,,,,,,,,,,,,,,,,,,,,1,2.4696418429957703,,,,,,,,,,,,,,,,,,,,,,,,,,,,030519_p1,001,2019_Mar_05_1013,body_behavioural,3.0.4,60.003337265736825,
5,Then the professor ended the lecture and announced to the class that they would have their first quiz next class on Friday on mummification. ,4,3,,,,0,5,5,5,,,,,0,27,27,27,,,,,,,,,,,,,,,,,,,,,,,,,,,,,,,9,3.2700045719975606,,,,,,,,,,,,,,,,,,,,,,,,,,,,030519_p1,001,2019_Mar_05_1013,body_behavioural,3.0.4,60.003337265736825,
5,"Everyone packed up and started heading out, as well as Sophie and Leon.",4,3,,,,0,5,5,5,,,,,0,28,28,28,,,,,,,,,,,,,,,,,,,,,,,,,,,,,,,1,3.270049441998708,,,,,,,,,,,,,,,,,,,,,,,,,,,,030519_p1,001,2019_Mar_05_1013,body_behavioural,3.0.4,60.003337265736825,
5,"They approached each other smiling, and Leon said, “Well it was great to meet you, again, or maybe not again, but regardless it was great to meet you.” ",4,3,,,,0,5,5,5,,,,,0,29,29,29,,,,,,,,,,,,,,,,,,,,,,,,,,,,,,,1,3.153351240005577,,,,,,,,,,,,,,,,,,,,,,,,,,,,030519_p1,001,2019_Mar_05_1013,body_behavioural,3.0.4,60.003337265736825,
5,"She replied, “Yes, it was.",4,4,,,,0,5,5,5,,,,,0,30,30,30,,,,,,,,,,,,,,,,,,,,,,,,,,,,,,,1,0.8197058899968397,,,,,,,,,,,,,,,,,,,,,,,,,,,,030519_p1,001,2019_Mar_05_1013,body_behavioural,3.0.4,60.003337265736825,
5,"I have to run to my next class, but I’ll see you later tonight.” ",4,4,,,,0,5,5,5,,,,,0,31,31,31,,,,,,,,,,,,,,,,,,,,,,,,,,,,,,,1,1.1526284869905794,,,,,,,,,,,,,,,,,,,,,,,,,,,,030519_p1,001,2019_Mar_05_1013,body_behavioural,3.0.4,60.003337265736825,
5,"She waved as they parted ways outside of the door of the classroom, and Leon was still trying to figure out where he had seen her before as he watched her go. ",4,4,,,,0,5,5,5,,,,,0,32,32,32,,,,,,,,,,,,,,,,,,,,,,,,,,,,,,,9,2.8691702069918392,,,,,,,,,,,,,,,,,,,,,,,,,,,,030519_p1,001,2019_Mar_05_1013,body_behavioural,3.0.4,60.003337265736825,
5,,,,,,,0,5,5,5,,,,,,,,,,,,,,,,,,,,,,,,,,,,,,,,,,,,,,,,,,,,,,,,,,,,,,,,,,,,,,,,,,,,030519_p1,001,2019_Mar_05_1013,body_behavioural,3.0.4,60.003337265736825,
6,,,,,,,0,6,6,6,0,0,0,0,,,,,,,,,,,,,,,,,,,,,,,,,,,,,space,0.6526663719996577,space,0.485691946989391,space,0.6862487099861028,,,,,,,,,,,,,,,,,,,,,,,,,,,,,,030519_p1,001,2019_Mar_05_1013,body_behavioural,3.0.4,60.003337265736825,
6,Mr. Shelton and Mr. Gordon shook hands inside the foyer of the restaurant: lunch today was about big business. ,1,1,,,,0,6,6,6,,,,,0,0,0,0,,,,,,,,,,,,,,,,,,,,,,,,,,,,,,,9,9.33469027299725,,,,,,,,,,,,,,,,,,,,,,,,,,,,030519_p1,001,2019_Mar_05_1013,body_behavioural,3.0.4,60.003337265736825,
6,Mr. Shelton and Mr. Gordon both were CEOs of airplane manufacturing companies.,1,1,,,,0,6,6,6,,,,,0,1,1,1,,,,,,,,,,,,,,,,,,,,,,,,,,,,,,,1,2.936497700007749,,,,,,,,,,,,,,,,,,,,,,,,,,,,030519_p1,001,2019_Mar_05_1013,body_behavioural,3.0.4,60.003337265736825,
6,"Mr. Shelton was in charge of a larger, well-established company and had been in the aviation business for decades.",1,1,,,,0,6,6,6,,,,,0,2,2,2,,,,,,,,,,,,,,,,,,,,,,,,,,,,,,,1,2.169858324996312,,,,,,,,,,,,,,,,,,,,,,,,,,,,030519_p1,001,2019_Mar_05_1013,body_behavioural,3.0.4,60.003337265736825,
6,"On the other hand, Mr. Gordon led a smaller but technologically-advanced company that was projected to disrupt the airplane manufacturing market. ",1,1,,,,0,6,6,6,,,,,0,3,3,3,,,,,,,,,,,,,,,,,,,,,,,,,,,,,,,1,4.753251450005337,,,,,,,,,,,,,,,,,,,,,,,,,,,,030519_p1,001,2019_Mar_05_1013,body_behavioural,3.0.4,60.003337265736825,
6,"The restaurant they chose to meet at was old and fancy with high ceilings, dark wood paneling, and crystal chandeliers.",1,1,,,,0,6,6,6,,,,,0,4,4,4,,,,,,,,,,,,,,,,,,,,,,,,,,,,,,,1,1.9198189199960325,,,,,,,,,,,,,,,,,,,,,,,,,,,,030519_p1,001,2019_Mar_05_1013,body_behavioural,3.0.4,60.003337265736825,
6,"The waitress led them to their table in the back, and they settled into a private table in the corner by the fireplace. ",2,1,,,,0,6,6,6,,,,,0,5,5,5,,,,,,,,,,,,,,,,,,,,,,,,,,,,,,,1,2.553263362002326,,,,,,,,,,,,,,,,,,,,,,,,,,,,030519_p1,001,2019_Mar_05_1013,body_behavioural,3.0.4,60.003337265736825,
6,The waitress brought out the menus and they broke the ice with some small talk.,2,1,,,,0,6,6,6,,,,,0,6,6,6,,,,,,,,,,,,,,,,,,,,,,,,,,,,,,,1,1.4697740530100418,,,,,,,,,,,,,,,,,,,,,,,,,,,,030519_p1,001,2019_Mar_05_1013,body_behavioural,3.0.4,60.003337265736825,
6,"Mr. Gordon took out a picture of his daughter and talked about her recent engagement, and Mr. Gordon boasted about his purchase of a Tesla. ",2,1,,,,0,6,6,6,,,,,0,7,7,7,,,,,,,,,,,,,,,,,,,,,,,,,,,,,,,1,2.9190364069945645,,,,,,,,,,,,,,,,,,,,,,,,,,,,030519_p1,001,2019_Mar_05_1013,body_behavioural,3.0.4,60.003337265736825,
6,"They looked at the menus as well, which were full of Italian classics like Carbonara and Tiramisu, and in the back section of the menu was a lengthy drink selection.",2,1,,,,0,6,6,6,,,,,0,8,8,8,,,,,,,,,,,,,,,,,,,,,,,,,,,,,,,1,4.170020429999568,,,,,,,,,,,,,,,,,,,,,,,,,,,,030519_p1,001,2019_Mar_05_1013,body_behavioural,3.0.4,60.003337265736825,
6,"After awhile, Mr. Shelton brought the conversation around to business.",2,2,,,,0,6,6,6,,,,,0,9,9,9,,,,,,,,,,,,,,,,,,,,,,,,,,,,,,,1,2.3866683870000998,,,,,,,,,,,,,,,,,,,,,,,,,,,,030519_p1,001,2019_Mar_05_1013,body_behavioural,3.0.4,60.003337265736825,
6,"“Mr. Gordon, we really admire what you’re doing at your company.",2,2,,,,0,6,6,6,,,,,0,10,10,10,,,,,,,,,,,,,,,,,,,,,,,,,,,,,,,1,2.7200480949977646,,,,,,,,,,,,,,,,,,,,,,,,,,,,030519_p1,001,2019_Mar_05_1013,body_behavioural,3.0.4,60.003337265736825,
6,We think it’s genius; we want to support your vision and make this tiny company of yours internationally known.,2,2,,,,0,6,6,6,,,,,0,11,11,11,,,,,,,,,,,,,,,,,,,,,,,,,,,,,,,1,4.320006692010793,,,,,,,,,,,,,,,,,,,,,,,,,,,,030519_p1,001,2019_Mar_05_1013,body_behavioural,3.0.4,60.003337265736825,
6,"But honestly, your company doesn’t have the resources to reach international markets right now.",2,2,,,,0,6,6,6,,,,,0,12,12,12,,,,,,,,,,,,,,,,,,,,,,,,,,,,,,,1,1.8535368450102396,,,,,,,,,,,,,,,,,,,,,,,,,,,,030519_p1,001,2019_Mar_05_1013,body_behavioural,3.0.4,60.003337265736825,
6,"Maybe in a few years you could, but by that time, other companies may have already filled your niche.",2,2,,,,0,6,6,6,,,,,0,13,13,13,,,,,,,,,,,,,,,,,,,,,,,,,,,,,,,1,3.503090631988016,,,,,,,,,,,,,,,,,,,,,,,,,,,,030519_p1,001,2019_Mar_05_1013,body_behavioural,3.0.4,60.003337265736825,
6,I think we should join forces.”,2,2,,,,0,6,6,6,,,,,0,14,14,14,,,,,,,,,,,,,,,,,,,,,,,,,,,,,,,1,0.7862452100089286,,,,,,,,,,,,,,,,,,,,,,,,,,,,030519_p1,001,2019_Mar_05_1013,body_behavioural,3.0.4,60.003337265736825,
6,The waitress came up to them and asked if they were ready to order.,3,2,,,,0,6,6,6,,,,,0,15,15,15,,,,,,,,,,,,,,,,,,,,,,,,,,,,,,,9,2.8367514480050886,,,,,,,,,,,,,,,,,,,,,,,,,,,,030519_p1,001,2019_Mar_05_1013,body_behavioural,3.0.4,60.003337265736825,
6,"Mr. Gordon ordered a medium-rare steak and martini, and Mr. Shelton ordered veal and a manhattan. ",3,2,,,,0,6,6,6,,,,,0,16,16,16,,,,,,,,,,,,,,,,,,,,,,,,,,,,,,,1,3.020486669993261,,,,,,,,,,,,,,,,,,,,,,,,,,,,030519_p1,001,2019_Mar_05_1013,body_behavioural,3.0.4,60.003337265736825,
6,"Then Mr. Shelton continued, “Look, I’ve talked to other members of the board, and we are prepared to offer $600 million to buy your company. ",3,2,,,,0,6,6,6,,,,,0,17,17,17,,,,,,,,,,,,,,,,,,,,,,,,,,,,,,,9,1.5359965999959968,,,,,,,,,,,,,,,,,,,,,,,,,,,,030519_p1,001,2019_Mar_05_1013,body_behavioural,3.0.4,60.003337265736825,
6,"We'd keep on all of your current employees, and you would join as the director of your company branch.” ",3,2,,,,0,6,6,6,,,,,0,18,18,18,,,,,,,,,,,,,,,,,,,,,,,,,,,,,,,1,1.5527138730103616,,,,,,,,,,,,,,,,,,,,,,,,,,,,030519_p1,001,2019_Mar_05_1013,body_behavioural,3.0.4,60.003337265736825,
6,Mr. Gordon sat looking at Mr. Shelton for a few moments considering his response. ,3,2,,,,0,6,6,6,,,,,0,19,19,19,,,,,,,,,,,,,,,,,,,,,,,,,,,,,,,1,2.0027597899897955,,,,,,,,,,,,,,,,,,,,,,,,,,,,030519_p1,001,2019_Mar_05_1013,body_behavioural,3.0.4,60.003337265736825,
6,He looked at Mr. Shelton skeptically.,3,2,,,,0,6,6,6,,,,,0,20,20,20,,,,,,,,,,,,,,,,,,,,,,,,,,,,,,,1,0.6840790349961026,,,,,,,,,,,,,,,,,,,,,,,,,,,,030519_p1,001,2019_Mar_05_1013,body_behavioural,3.0.4,60.003337265736825,
6,"He said, “Mr. Shelton, I think that you make a compelling offer, but there are definitely some disadvantages to attaching our small, streamlined productions to a large company like yours.",3,3,,,,0,6,6,6,,,,,0,21,21,21,,,,,,,,,,,,,,,,,,,,,,,,,,,,,,,1,5.2345249019999756,,,,,,,,,,,,,,,,,,,,,,,,,,,,030519_p1,001,2019_Mar_05_1013,body_behavioural,3.0.4,60.003337265736825,
6,"We operate in a very different way than a large company, and the kind of administrative complexity that makes the scale of your productions possible would suffocate our business.",3,3,,,,0,6,6,6,,,,,0,22,22,22,,,,,,,,,,,,,,,,,,,,,,,,,,,,,,,1,1.9368664030043874,,,,,,,,,,,,,,,,,,,,,,,,,,,,030519_p1,001,2019_Mar_05_1013,body_behavioural,3.0.4,60.003337265736825,
6,"With our product, scaling-up doesn’t necessarily make sense.” ",3,3,,,,0,6,6,6,,,,,0,23,23,23,,,,,,,,,,,,,,,,,,,,,,,,,,,,,,,1,1.5007344400073634,,,,,,,,,,,,,,,,,,,,,,,,,,,,030519_p1,001,2019_Mar_05_1013,body_behavioural,3.0.4,60.003337265736825,
6,Mr. Shelton had expected this response and had come prepared.,3,3,,,,0,6,6,6,,,,,0,24,24,24,,,,,,,,,,,,,,,,,,,,,,,,,,,,,,,1,1.7360610059986357,,,,,,,,,,,,,,,,,,,,,,,,,,,,030519_p1,001,2019_Mar_05_1013,body_behavioural,3.0.4,60.003337265736825,
6,He began laying out the details of how he had handled similar acquisitions successfully in the past.,3,3,,,,0,6,6,6,,,,,0,25,25,25,,,,,,,,,,,,,,,,,,,,,,,,,,,,,,,1,2.0361650549893966,,,,,,,,,,,,,,,,,,,,,,,,,,,,030519_p1,001,2019_Mar_05_1013,body_behavioural,3.0.4,60.003337265736825,
6,"Mr. Gordon was impressed, and they went back and forth hashing out what the company configuration would look like post-merger. ",3,3,,,,0,6,6,6,,,,,0,26,26,26,,,,,,,,,,,,,,,,,,,,,,,,,,,,,,,1,4.469986219992279,,,,,,,,,,,,,,,,,,,,,,,,,,,,030519_p1,001,2019_Mar_05_1013,body_behavioural,3.0.4,60.003337265736825,
6,"The waitress brought the food out, interrupting their animated conversation.",4,3,,,,0,6,6,6,,,,,0,27,27,27,,,,,,,,,,,,,,,,,,,,,,,,,,,,,,,9,2.7199406220024684,,,,,,,,,,,,,,,,,,,,,,,,,,,,030519_p1,001,2019_Mar_05_1013,body_behavioural,3.0.4,60.003337265736825,
6,“Oh this looks so good!” Mr. Gordon said. ,4,3,,,,0,6,6,6,,,,,0,28,28,28,,,,,,,,,,,,,,,,,,,,,,,,,,,,,,,1,0.883972466996056,,,,,,,,,,,,,,,,,,,,,,,,,,,,030519_p1,001,2019_Mar_05_1013,body_behavioural,3.0.4,60.003337265736825,
6, “Can I get you anything else?” the waitress asked.,4,3,,,,0,6,6,6,,,,,0,29,29,29,,,,,,,,,,,,,,,,,,,,,,,,,,,,,,,1,1.4530538049875759,,,,,,,,,,,,,,,,,,,,,,,,,,,,030519_p1,001,2019_Mar_05_1013,body_behavioural,3.0.4,60.003337265736825,
6,They declined and continued to talk.,4,3,,,,0,6,6,6,,,,,0,30,30,30,,,,,,,,,,,,,,,,,,,,,,,,,,,,,,,1,0.5864250500017079,,,,,,,,,,,,,,,,,,,,,,,,,,,,030519_p1,001,2019_Mar_05_1013,body_behavioural,3.0.4,60.003337265736825,
6,"The meal lived up to the reputation of the restaurant, which was known for having the best cuts of meat in the area.",4,3,,,,0,6,6,6,,,,,0,31,31,31,,,,,,,,,,,,,,,,,,,,,,,,,,,,,,,9,2.60368356500112,,,,,,,,,,,,,,,,,,,,,,,,,,,,030519_p1,001,2019_Mar_05_1013,body_behavioural,3.0.4,60.003337265736825,
6,"Mr. Gordon, after taking a contemplative bite of his food, said, “Mr. Shelton, I think we have a deal. ",4,4,,,,0,6,6,6,,,,,0,32,32,32,,,,,,,,,,,,,,,,,,,,,,,,,,,,,,,1,2.2199138419964584,,,,,,,,,,,,,,,,,,,,,,,,,,,,030519_p1,001,2019_Mar_05_1013,body_behavioural,3.0.4,60.003337265736825,
6,"If you can guarantee that I can still have the final say in the all the work done by my team, I think this could be beneficial for both of us.",4,4,,,,0,6,6,6,,,,,0,33,33,33,,,,,,,,,,,,,,,,,,,,,,,,,,,,,,,1,1.6862899400002789,,,,,,,,,,,,,,,,,,,,,,,,,,,,030519_p1,001,2019_Mar_05_1013,body_behavioural,3.0.4,60.003337265736825,
6,I propose a toast to the merging of our companies.”,4,4,,,,0,6,6,6,,,,,0,34,34,34,,,,,,,,,,,,,,,,,,,,,,,,,,,,,,,1,1.0676374299946474,,,,,,,,,,,,,,,,,,,,,,,,,,,,030519_p1,001,2019_Mar_05_1013,body_behavioural,3.0.4,60.003337265736825,
6,Mr. Shelton grinned and lifted his martini to clink glasses.,4,4,,,,0,6,6,6,,,,,0,35,35,35,,,,,,,,,,,,,,,,,,,,,,,,,,,,,,,1,1.0364036920072976,,,,,,,,,,,,,,,,,,,,,,,,,,,,030519_p1,001,2019_Mar_05_1013,body_behavioural,3.0.4,60.003337265736825,
6,"He said, “Cheers to a lifelong partnership and to the growth of your company.” ",4,4,,,,0,6,6,6,,,,,0,36,36,36,,,,,,,,,,,,,,,,,,,,,,,,,,,,,,,1,1.4197928069916088,,,,,,,,,,,,,,,,,,,,,,,,,,,,030519_p1,001,2019_Mar_05_1013,body_behavioural,3.0.4,60.003337265736825,
6,,,,,,,0,6,6,6,,,,,,,,,,,,,,,,,,,,,,,,,,,,,,,,,,,,,,,,,,,,,,,,,,,,,,,,,,,,,,,,,,,,030519_p1,001,2019_Mar_05_1013,body_behavioural,3.0.4,60.003337265736825,
7,,,,,,,0,7,7,7,0,0,0,0,,,,,,,,,,,,,,,,,,,,,,,,,,,,,space,0.6028981699928408,space,0.5529304119991139,space,0.5860199339949759,,,,,,,,,,,,,,,,,,,,,,,,,,,,,,030519_p1,001,2019_Mar_05_1013,body_behavioural,3.0.4,60.003337265736825,
7,,,,,,,0,7,7,7,1,0,1,0,,,,,,,,,,,,,,,,,,,,,,,,,,,,,,,,,space,0.9697763900039718,,,,,,,,,,,,,,,,,,,,,,,,,,,,,,030519_p1,001,2019_Mar_05_1013,body_behavioural,3.0.4,60.003337265736825,
7,,,,,,,0,7,7,7,2,0,2,0,,,,,,,,,,,,,,,,,,,,,,,,,,,,,,,,,space,0.5026989730104106,,,,,,,,,,,,,,,,,,,,,,,,,,,,,,030519_p1,001,2019_Mar_05_1013,body_behavioural,3.0.4,60.003337265736825,
7,"It didn’t help the situation that Calvin and Jessie were running late to the airport, since Jessie had already been fuming at Calvin and preparing to end things with him.",1,1,,,,0,7,7,7,,,,,0,0,0,0,,,,,,,,,,,,,,,,,,,,,,,,,,,,,,,9,6.62031527000363,,,,,,,,,,,,,,,,,,,,,,,,,,,,030519_p1,001,2019_Mar_05_1013,body_behavioural,3.0.4,60.003337265736825,
7,"Upon arriving, they had only 45 minutes until their international flight would depart from Jamaica for the US.",1,1,,,,0,7,7,7,,,,,0,1,1,1,,,,,,,,,,,,,,,,,,,,,,,,,,,,,,,1,1.7697667100001127,,,,,,,,,,,,,,,,,,,,,,,,,,,,030519_p1,001,2019_Mar_05_1013,body_behavioural,3.0.4,60.003337265736825,
7,It had been a tough vacation for them.,1,1,,,,0,7,7,7,,,,,0,2,2,2,,,,,,,,,,,,,,,,,,,,,,,,,,,,,,,1,1.003095767009654,,,,,,,,,,,,,,,,,,,,,,,,,,,,030519_p1,001,2019_Mar_05_1013,body_behavioural,3.0.4,60.003337265736825,
7,"Jessie had really had it with Calvin’s constant ramblings about the same excruciatingly boring golfing and work stories, which he insisted on repeating to her regardless of how little interest she showed.",1,1,,,,0,7,7,7,,,,,0,3,3,3,,,,,,,,,,,,,,,,,,,,,,,,,,,,,,,1,4.119906690000789,,,,,,,,,,,,,,,,,,,,,,,,,,,,030519_p1,001,2019_Mar_05_1013,body_behavioural,3.0.4,60.003337265736825,
7,"Calvin knew that Jessie was upset, but wasn't sure what to do besides attempting to carry on as normal and tell stories that took up the silence. ",1,1,,,,0,7,7,7,,,,,0,4,4,4,,,,,,,,,,,,,,,,,,,,,,,,,,,,,,,1,2.5027815920038847,,,,,,,,,,,,,,,,,,,,,,,,,,,,030519_p1,001,2019_Mar_05_1013,body_behavioural,3.0.4,60.003337265736825,
7,"The security line was luckily very short, and once the online boarding passes were scanned they were ushered quickly through the metal detector, not having to take off their shoes or remove the liquids from their bags.",2,1,,,,0,7,7,7,,,,,0,5,5,5,,,,,,,,,,,,,,,,,,,,,,,,,,,,,,,9,3.9866837699955795,,,,,,,,,,,,,,,,,,,,,,,,,,,,030519_p1,001,2019_Mar_05_1013,body_behavioural,3.0.4,60.003337265736825,
7,"“The infrastructure of this airport is really quite poor," said Calvin as they waited for their bags to emerge from the x-ray machine.",2,1,,,,0,7,7,7,,,,,0,6,6,6,,,,,,,,,,,,,,,,,,,,,,,,,,,,,,,1,2.6697543619957287,,,,,,,,,,,,,,,,,,,,,,,,,,,,030519_p1,001,2019_Mar_05_1013,body_behavioural,3.0.4,60.003337265736825,
7,“I really could've hidden something in my shoes quite easily.” ,2,1,,,,0,7,7,7,,,,,0,7,7,7,,,,,,,,,,,,,,,,,,,,,,,,,,,,,,,1,1.5198220169986598,,,,,,,,,,,,,,,,,,,,,,,,,,,,030519_p1,001,2019_Mar_05_1013,body_behavioural,3.0.4,60.003337265736825,
7,"Jessie, exasperated at his need to broadcast his every inner thought, scowled at the conveyor belt.",2,1,,,,0,7,7,7,,,,,0,8,8,8,,,,,,,,,,,,,,,,,,,,,,,,,,,,,,,1,2.5697721150063444,,,,,,,,,,,,,,,,,,,,,,,,,,,,030519_p1,001,2019_Mar_05_1013,body_behavioural,3.0.4,60.003337265736825,
7,"“What?”, he asked.",2,1,,,,0,7,7,7,,,,,0,9,9,9,,,,,,,,,,,,,,,,,,,,,,,,,,,,,,,1,1.0365932650020113,,,,,,,,,,,,,,,,,,,,,,,,,,,,030519_p1,001,2019_Mar_05_1013,body_behavioural,3.0.4,60.003337265736825,
7,She balled up her fists and turned to face him.,2,1,,,,0,7,7,7,,,,,0,10,10,10,,,,,,,,,,,,,,,,,,,,,,,,,,,,,,,1,1.2864192529959837,,,,,,,,,,,,,,,,,,,,,,,,,,,,030519_p1,001,2019_Mar_05_1013,body_behavioural,3.0.4,60.003337265736825,
7,"“Calvin, I really don’t think I can do this anymore.",2,2,,,,0,7,7,7,,,,,0,11,11,11,,,,,,,,,,,,,,,,,,,,,,,,,,,,,,,9,1.386407349986257,,,,,,,,,,,,,,,,,,,,,,,,,,,,030519_p1,001,2019_Mar_05_1013,body_behavioural,3.0.4,60.003337265736825,
7,I think it’s best that once we get to the States we part ways for good.” ,2,2,,,,0,7,7,7,,,,,0,12,12,12,,,,,,,,,,,,,,,,,,,,,,,,,,,,,,,1,2.7697792319959262,,,,,,,,,,,,,,,,,,,,,,,,,,,,030519_p1,001,2019_Mar_05_1013,body_behavioural,3.0.4,60.003337265736825,
7,Calvin said nothing as he grabbed his bag and quickly walked away.,2,2,,,,0,7,7,7,,,,,0,13,13,13,,,,,,,,,,,,,,,,,,,,,,,,,,,,,,,1,1.4031030570040457,,,,,,,,,,,,,,,,,,,,,,,,,,,,030519_p1,001,2019_Mar_05_1013,body_behavioural,3.0.4,60.003337265736825,
7,"Jessie trailed behind him as they made their way quickly toward their gate, shouting at his back in hopes of getting a response.",3,2,,,,0,7,7,7,,,,,0,14,14,14,,,,,,,,,,,,,,,,,,,,,,,,,,,,,,,1,4.886674249995849,,,,,,,,,,,,,,,,,,,,,,,,,,,,030519_p1,001,2019_Mar_05_1013,body_behavioural,3.0.4,60.003337265736825,
7,“So now you have nothing to say?,3,2,,,,0,7,7,7,,,,,0,15,15,15,,,,,,,,,,,,,,,,,,,,,,,,,,,,,,,1,1.8507787749986164,,,,,,,,,,,,,,,,,,,,,,,,,,,,030519_p1,001,2019_Mar_05_1013,body_behavioural,3.0.4,60.003337265736825,
7,"Every time we talk, you are just looking for a way to steer the conversation back into your stories.”",3,2,,,,0,7,7,7,,,,,0,16,16,16,,,,,,,,,,,,,,,,,,,,,,,,,,,,,,,1,2.0197977630014066,,,,,,,,,,,,,,,,,,,,,,,,,,,,030519_p1,001,2019_Mar_05_1013,body_behavioural,3.0.4,60.003337265736825,
7,"Calvin didn't slow his pace, gritting his teeth and staring straight ahead. ",3,2,,,,0,7,7,7,,,,,0,17,17,17,,,,,,,,,,,,,,,,,,,,,,,,,,,,,,,1,1.5198214880074374,,,,,,,,,,,,,,,,,,,,,,,,,,,,030519_p1,001,2019_Mar_05_1013,body_behavioural,3.0.4,60.003337265736825,
7,He was very frustrated that he had been trying to appease Jessie this whole time and this was how she responded. ,3,2,,,,0,7,7,7,,,,,0,18,18,18,,,,,,,,,,,,,,,,,,,,,,,,,,,,,,,1,4.167727896987344,,,,,,,,,,,,,,,,,,,,,,,,,,,,030519_p1,001,2019_Mar_05_1013,body_behavioural,3.0.4,60.003337265736825,
7,The silence was punctuated only by the rapid rhythmic clacking of their suitcase wheels over the tile floor as they continued power-walking through the terminal. ,3,2,,,,0,7,7,7,,,,,0,19,19,19,,,,,,,,,,,,,,,,,,,,,,,,,,,,,,,1,3.786765690005268,,,,,,,,,,,,,,,,,,,,,,,,,,,,030519_p1,001,2019_Mar_05_1013,body_behavioural,3.0.4,60.003337265736825,
7,"“Well?” Jessie said, and Calvin finally turned to her.",3,2,,,,0,7,7,7,,,,,0,20,20,20,,,,,,,,,,,,,,,,,,,,,,,,,,,,,,,9,2.519889007002348,,,,,,,,,,,,,,,,,,,,,,,,,,,,030519_p1,001,2019_Mar_05_1013,body_behavioural,3.0.4,60.003337265736825,
7,"“Well, Jessie, this makes perfect sense. ",3,3,,,,0,7,7,7,,,,,0,21,21,21,,,,,,,,,,,,,,,,,,,,,,,,,,,,,,,1,1.3195683899975847,,,,,,,,,,,,,,,,,,,,,,,,,,,,030519_p1,001,2019_Mar_05_1013,body_behavioural,3.0.4,60.003337265736825,
7,"If you feel this way, then I don’t want to keep boring you, and I agree, let’s part ways once we make it back.",3,3,,,,0,7,7,7,,,,,0,22,22,22,,,,,,,,,,,,,,,,,,,,,,,,,,,,,,,1,3.9698837129981257,,,,,,,,,,,,,,,,,,,,,,,,,,,,030519_p1,001,2019_Mar_05_1013,body_behavioural,3.0.4,60.003337265736825,
7,You should’ve spoken up about my apparent intolerability before you decided to plan this vacation.”,3,3,,,,0,7,7,7,,,,,0,23,23,23,,,,,,,,,,,,,,,,,,,,,,,,,,,,,,,1,3.40321712999139,,,,,,,,,,,,,,,,,,,,,,,,,,,,030519_p1,001,2019_Mar_05_1013,body_behavioural,3.0.4,60.003337265736825,
7,"He was clearly hurt, but thought it was pointless to argue. ",3,3,,,,0,7,7,7,,,,,0,24,24,24,,,,,,,,,,,,,,,,,,,,,,,,,,,,,,,1,1.2841410630062455,,,,,,,,,,,,,,,,,,,,,,,,,,,,030519_p1,001,2019_Mar_05_1013,body_behavioural,3.0.4,60.003337265736825,
7,"They finally made it to the gate, just as they heard the final call for passengers boarding their flight.",3,3,,,,0,7,7,7,,,,,0,25,25,25,,,,,,,,,,,,,,,,,,,,,,,,,,,,,,,1,2.53630565200001,,,,,,,,,,,,,,,,,,,,,,,,,,,,030519_p1,001,2019_Mar_05_1013,body_behavioural,3.0.4,60.003337265736825,
7,"They scanned their tickets, and the annoyed flight attendant shooed them onto the jet bridge and then closed the door behind them.",4,3,,,,0,7,7,7,,,,,0,26,26,26,,,,,,,,,,,,,,,,,,,,,,,,,,,,,,,1,3.3038272999983747,,,,,,,,,,,,,,,,,,,,,,,,,,,,030519_p1,001,2019_Mar_05_1013,body_behavioural,3.0.4,60.003337265736825,
7,"Luckily, they had forgotten to arrange seats next to each other on the flight back.",4,3,,,,0,7,7,7,,,,,0,27,27,27,,,,,,,,,,,,,,,,,,,,,,,,,,,,,,,1,2.0365031419933075,,,,,,,,,,,,,,,,,,,,,,,,,,,,030519_p1,001,2019_Mar_05_1013,body_behavioural,3.0.4,60.003337265736825,
7,"They both had first-class tickets, but Jessie was headed for seat 1B while Calvin's seat was 4F. ",4,3,,,,0,7,7,7,,,,,0,28,28,28,,,,,,,,,,,,,,,,,,,,,,,,,,,,,,,1,3.860119648001273,,,,,,,,,,,,,,,,,,,,,,,,,,,,030519_p1,001,2019_Mar_05_1013,body_behavioural,3.0.4,60.003337265736825,
7,"Before Jessie sat down, she took a deep breath and then awkwardly shook Calvin’s hand, mumbling, “Well, have a nice flight.” ",4,4,,,,0,7,7,7,,,,,0,29,29,29,,,,,,,,,,,,,,,,,,,,,,,,,,,,,,,1,3.254195557994535,,,,,,,,,,,,,,,,,,,,,,,,,,,,030519_p1,001,2019_Mar_05_1013,body_behavioural,3.0.4,60.003337265736825,
7,He laughed in disbelief and walked to his window seat three rows back to get ready for takeoff.,4,4,,,,0,7,7,7,,,,,0,30,30,30,,,,,,,,,,,,,,,,,,,,,,,,,,,,,,,1,1.8365273620001972,,,,,,,,,,,,,,,,,,,,,,,,,,,,030519_p1,001,2019_Mar_05_1013,body_behavioural,3.0.4,60.003337265736825,
7,Both were upset but glad that they would have this flight to mull things over and recenter. ,4,4,,,,0,7,7,7,,,,,0,31,31,31,,,,,,,,,,,,,,,,,,,,,,,,,,,,,,,1,1.886398217000533,,,,,,,,,,,,,,,,,,,,,,,,,,,,030519_p1,001,2019_Mar_05_1013,body_behavioural,3.0.4,60.003337265736825,
7,,,,,,,0,7,7,7,,,,,,,,,,,,,,,,,,,,,,,,,,,,,,,,,,,,,,,,,,,,,,,,,,,,,,,,,,,,,,,,,,,,030519_p1,001,2019_Mar_05_1013,body_behavioural,3.0.4,60.003337265736825,
,,,,,,,,,,,,,,,,,,,,,,,,,,,,,,,,,,,,,,,,,,,,,,,,,,,1071.4304647269892,space,0.6007130750076612,,,,,,,,,,,,,,,,,,,,,,,,,030519_p1,001,2019_Mar_05_1013,body_behavioural,3.0.4,60.003337265736825,
,,,,,,The next task in the experiment is to recall each story to the best of your ability.,,,,,,,,,,,,,0,0,0,0,,,,,,,,,,,,,,,,,,,,,,,,,,,,,,,,space,1.9700430749944644,,,,,,,,,,,,,,,,,,,,,,,030519_p1,001,2019_Mar_05_1013,body_behavioural,3.0.4,60.003337265736825,
,,,,,,"You will be presented with the story title, names, the images, and a blank text box for each story.",,,,,,,,,,,,,0,1,1,1,,,,,,,,,,,,,,,,,,,,,,,,,,,,,,,,space,0.6860041979962261,,,,,,,,,,,,,,,,,,,,,,,030519_p1,001,2019_Mar_05_1013,body_behavioural,3.0.4,60.003337265736825,
,,,,,,Describe the story with as many details as you can remember in the space provided. ,,,,,,,,,,,,,0,2,2,2,,,,,,,,,,,,,,,,,,,,,,,,,,,,,,,,space,2.0174155769927893,,,,,,,,,,,,,,,,,,,,,,,030519_p1,001,2019_Mar_05_1013,body_behavioural,3.0.4,60.003337265736825,
,,,,,,"When you are finished recalling one story, to move onto the next one hit ‘return’. ",,,,,,,,,,,,,0,3,3,3,,,,,,,,,,,,,,,,,,,,,,,,,,,,,,,,space,2.6864661750005325,,,,,,,,,,,,,,,,,,,,,,,030519_p1,001,2019_Mar_05_1013,body_behavioural,3.0.4,60.003337265736825,
,,,,,,There is a 5 minute time limit to make your response. ,,,,,,,,,,,,,0,4,4,4,,,,,,,,,,,,,,,,,,,,,,,,,,,,,,,,space,1.4866154369956348,,,,,,,,,,,,,,,,,,,,,,,030519_p1,001,2019_Mar_05_1013,body_behavioural,3.0.4,60.003337265736825,
0,,,,,,,,,,,,,,,,,,,,,,,0,0,0,0,,,,,,,,,,,,,,,,,,,,,,,,,,,,,,space,1.3031812920089578,Maria walted into the lecture hall ready to break up with henry. she had been thinking about it for a while and realized that this was her last time to do it. the teacher started talking about the class. she turned over to him and whispered to himdoublequotehenry i have something i need to tell youdoublequote doublequotewhatdoublequote he said. she said doublequote we have to break up. i can't do long distance. we cab meet up agian after i get back from my study abroad doublequote henry was sad. maria said doublequote i'm sorry i have to do this now. i realized i don't have any more time other than right nowdoublequote. when the class ended they left the lecturel hall. henry was crying. they hugged outside and then parted ways.  ,,,,,,,,,,,,,,,,,,,,030519_p1,001,2019_Mar_05_1013,body_behavioural,3.0.4,60.003337265736825,
1,,,,,,,,,,,,,,,,,,,,,,,0,1,1,1,,,,,,,,,,,,,,,,,,,,,,,,,,,,,,space,1.2368856590037467,"Anna was running late to the airport. david was at the airport. david saw this beautiful women. who is thatquestion david wondered. all of a sudden anna's cart was coming in direct contact with a car. david leaped in and pushed anna out of the way. anne looked up at this handsome man was like who's this handsome man who saved me from the carquestion also before she was pushed she had been tying her shoe-- that's why she didn't notice the car coming. anyway they started talking and david was like hey how long are you  away forquestion and anna was like doublequotea week. i'm on a short tripdoublequote and then david was like doublequotewell we should hang out when you get backdoublequote and anna was like sure that sounds great. she was really happy that she had bent over to tie her shoe, what luck. then they went through security. when they got to the gate anne gave david a crumpled buisness card.she then boarded the plane. she was so happy she didn't even notice the grumpy passangers sitting next to ther. ",,,,,,,,,,,,,,,,,,,,030519_p1,001,2019_Mar_05_1013,body_behavioural,3.0.4,60.003337265736825,
2,,,,,,,,,,,,,,,,,,,,,,,0,2,2,2,,,,,,,,,,,,,,,,,,,,,,,,,,,,,,space,1.2672499820037046,"Senna is going to propose to alivria at a fancy restaurant. the restaurant is really beautiful and is along the ocean coast. very romantic. senna and alvrira arrive at the restaurant and the waiter sits them down. he gives them menues. senna then goes to the bathroom to make sure he still has the ring. it is a really beautiful cannary diamond ring that belonged to his grandmother. he then gives the ring to the waiter. he sits back down and they order food, oysters and scallops, or something like that. parmesian cheese is involved. anyway then anna is like doublequotethis place is so fancy. why did we come here to celebrate my garden tomatoes growingdoublequote and he is like doublequotebecause your tomatotes are so delicious we need to celebrate!doublequote and then the food comes and it is super delicious. the oysters taste like the ocean. then senna starts talking about how much he loves alvira and shes likedoublequoteya i love to youdoublequote and then the waiter brings out the cake with the ring on it and senna is liike doublequotewill you marry mequestion and alvira is lkedoublequote yes of coursedoublequote and then they kiss at the table andall of the people in the restaurnat applaud. ",,,,,,,,,,,,,,,,,,,,030519_p1,001,2019_Mar_05_1013,body_behavioural,3.0.4,60.003337265736825,
3,,,,,,,,,,,,,,,,,,,,,,,0,3,3,3,,,,,,,,,,,,,,,,,,,,,,,,,,,,,,space,1.5367434070067247,Alex wants to propose to chloe in a grocery store because he wants to really surprise her. he likes the look on her face when she is surprised. they go in the grocery store. alex is nervous. chloe is thinkingdoublequote why does alex look so nerviousdoublequote. then alex is like doublequotelets go get some cranberry sauce doublequoteand so they walk to the cranberry sauce  area. chloe is looking at all of the different types of cranberry saucess. alex checks to make sure he still has the ring. he is really nervous. chloe is like doublequote why does he still look so nervousdoublequote. then they go to the check out line. alex indicates for their friends standing outside to come in. he then gets down on one knee and is like doublequote i love you will you marry medoublequote. chloe is surprised and says yes. everyone in the grocery store has started watching. people are taking pictures. its overwhelming. then they still have to pay for the cranberry sauce. it $4. ,,,,,,,,,,,,,,,,,,,,030519_p1,001,2019_Mar_05_1013,body_behavioural,3.0.4,60.003337265736825,
4,,,,,,,,,,,,,,,,,,,,,,,0,4,4,4,,,,,,,,,,,,,,,,,,,,,,,,,,,,,,space,1.453381867002463,"Ms. bianchi and ms. morrison meet at a grocery store. they meet to discuss a very important buisness deal. ms. bianchi likes meeting in the location of the place where the product is sold. ms. bianchi picks up some cheese. she is likedoublequote how about your grocery store start buying this fancy italian cheese. people love it. also because it is fancy people will then also buy other fancy things like crackers and jamdoublequote ms. morrison thinks about it. they pick up some cheese and then go to the checkout. ms. bianchi pays for the cheese in change, for some reason. ms. morrison is like yes this is a good idea i'll buy your cheese",,,,,,,,,,,,,,,,,,,,030519_p1,001,2019_Mar_05_1013,body_behavioural,3.0.4,60.003337265736825,
5,,,,,,,,,,,,,,,,,,,,,,,0,5,5,5,,,,,,,,,,,,,,,,,,,,,,,,,,,,,,space,1.6195609099959256,Leon walks into a lecture hall. he sees ariana and is like doublequotewoah who is that i recognize that person from somewheredoublequote leon is a new student and wants to make friends. he didn't expect to recognize someone from the new school. they sit down and the teacher starts giving a lecutre on mummification in egypt. leon is distracted and is like woah i need to figure out where i know this person from. he decides to write a letter to ariana. it saysdoublequote hi i think i know you from someheredoublequote she is like doublequotemaybe i have along lost twindoublequote and then they are all flirty and keep passing notes for a while like they are in high school. meanwhile the teacher keeps talking about mummmifacation. in order to mummify a person you need to be trained. and it takes 70 years. then leon writes doublequotedo you want to meet me fordinner later doublequoteand she is like doublequoteya pick me up at sixdoublequote and then the class ends and they meet outside the classroom. and leon is all cute and embarrassed and is like okay nice meeting you. and ariana is cool and mature and is like ill see you tonight at 6,,,,,,,,,,,,,,,,,,,,030519_p1,001,2019_Mar_05_1013,body_behavioural,3.0.4,60.003337265736825,
6,,,,,,,,,,,,,,,,,,,,,,,0,6,6,6,,,,,,,,,,,,,,,,,,,,,,,,,,,,,,space,1.0859047770063626,"These two guys are big buisness ceos. they are meeting at a fancy restaurant to talk about some important buisness thing. the restaurant has dark walls and is kind of old looking. these are serious buisness men, ya know, they aren't going to go to some trendy modern restauarnt. anyway thats not in the story but no matter. okay. they sit down to order food. the waitress brings them menus. they talk about theri buisness merger. oh before they talk about the buisness merger they talk about thier families to, you know, be causal. then they talk about buisness things. i don't remember the content of the conversation. at the end they agree to make the deal  ",,,,,,,,,,,,,,,,,,,,030519_p1,001,2019_Mar_05_1013,body_behavioural,3.0.4,60.003337265736825,
7,,,,,,,,,,,,,,,,,,,,,,,0,7,7,7,,,,,,,,,,,,,,,,,,,,,,,,,,,,,,space,1.6197662920021685,Calvin and jesse are at the airport. they are running late. jessie is ready to break up with calvin. they just took this vacation that she planned and he was really annoying the whole time. he kept talking about himself and also complaining about things. jessie has had it. they are going through airport security and calvin says something annoying again. this is it. jessie turns to calvin and is likedoublequote when we get back i don' t think we should see eachother anymore.doublequote he finishes putting on his clothes after going through security. he is likedoublequotewhat doublequote she is like doublequote ya you've been complaining a  lot i don't want to be with you anymoredoublequote he is liledoublequote well maybe you could have thought this through before we took a vacation togetherdoublequote she starts walking through the airport. he is shouting after her. they get on the plane. luckily they forgot to book thier tickets next to eachother. ,,,,,,,,,,,,,,,,,,,,030519_p1,001,2019_Mar_05_1013,body_behavioural,3.0.4,60.003337265736825,
,,,,,,,,,,,,,,,,,,,,,,,,,,,,,,,,,,,,,,,,,,,,,,,,,,,,,,,,,,,2838.2665386269946,space,1.5032032820017776,,,,,,,,,,,,,,,,,030519_p1,001,2019_Mar_05_1013,body_behavioural,3.0.4,60.003337265736825,
,,,,,,The next part of the task is to answer 8 questions about each story.,,,,,,,,,,,,,,,,,,,,,0,0,0,0,,,,,,,,,,,,,,,,,,,,,,,,,,,,,,,,space,1.3198183499916922,,,,,,,,,,,,,,,030519_p1,001,2019_Mar_05_1013,body_behavioural,3.0.4,60.003337265736825,
,,,,,,Some of the questions are not related to the perspective you were asked to assume.,,,,,,,,,,,,,,,,,,,,,0,1,1,1,,,,,,,,,,,,,,,,,,,,,,,,,,,,,,,,space,1.6174524249945534,,,,,,,,,,,,,,,030519_p1,001,2019_Mar_05_1013,body_behavioural,3.0.4,60.003337265736825,
,,,,,,"We realize that we did not tell you to think of these questions during the story, but do your best to answer them.",,,,,,,,,,,,,,,,,,,,,0,2,2,2,,,,,,,,,,,,,,,,,,,,,,,,,,,,,,,,space,2.8698480949969962,,,,,,,,,,,,,,,030519_p1,001,2019_Mar_05_1013,body_behavioural,3.0.4,60.003337265736825,
,,,,,,"When you have finished typing your answer, hit ‘return’ to submit your answer and move onto the next question. ",,,,,,,,,,,,,,,,,,,,,0,3,3,3,,,,,,,,,,,,,,,,,,,,,,,,,,,,,,,,space,1.5531171949987765,,,,,,,,,,,,,,,030519_p1,001,2019_Mar_05_1013,body_behavioural,3.0.4,60.003337265736825,
0,,,,,,,,,,,,,,,,,,,,,,,,,,,,,,,0,0,0,0,,,,,,,,,,,,,,,,,,,,,,,,Yes,,,,,,space,0.6864163469872437,Lots of studnets,non-primed first,I don't remeber. phliosophyquestion ,Question,I don't know,They feel badly but they know they have to do it today,She doesnt want to be in a long distance relationship,He is really sad,Yes,,,,030519_p1,001,2019_Mar_05_1013,body_behavioural,3.0.4,60.003337265736825,
1,,,,,,,,,,,,,,,,,,,,,,,,,,,,,,,0,1,1,1,,,,,,,,,,,,,,,,,,,,,,,,Anna leaves first she has to get on her flight,,,,,,space,0.9697863300098106,Not that much time. they are in a rush,non-primed first,Take off shoes,They are giddy and surpirsed,Anna and david get on different flights,David notices anna. she is pretty,David saves anna from an impending crash,David proposes going onthe date after she gets back from her trip,Anna leaves first she has to get on her flight,,,,030519_p1,001,2019_Mar_05_1013,body_behavioural,3.0.4,60.003337265736825,
2,,,,,,,,,,,,,,,,,,,,,,,,,,,,,,,0,2,2,2,,,,,,,,,,,,,,,,,,,,,,,,They love it,,,,,,space,0.6504635770106688,He is really nervous and excited,primed first,Big cannary diamond ring that belonged to his grandmother,The waiter,The people at the retaurant,It is really classy and pretty. it is next to the ocean,Lots of different tasty seafood items,Oysters and scallops ,They love it,,,,030519_p1,001,2019_Mar_05_1013,body_behavioural,3.0.4,60.003337265736825,
3,,,,,,,,,,,,,,,,,,,,,,,,,,,,,,,0,3,3,3,,,,,,,,,,,,,,,,,,,,,,,,"Friends, people in the store",,,,,,space,0.6527933370089158,Normal. not too busy,primed first,Cranberry sauce,Checkout line is long. maybe 20 mintuesquestion ,$4 chase,He is super nervous,Diamond ring,No. but their friends are outside,"Friends, people in the store",,,,030519_p1,001,2019_Mar_05_1013,body_behavioural,3.0.4,60.003337265736825,
4,,,,,,,,,,,,,,,,,,,,,,,,,,,,,,,0,4,4,4,,,,,,,,,,,,,,,,,,,,,,,,16$ i think they pay with coins,,,,,,space,0.8858561650122283,Food buisness,primed first,Cheese. i forgot about the money,Eventually they agree on it,The grocery store is going to buy a lot of new fancy cheese,It is busy,Cheese,The line is long. i think they wait for 20 min,16$ i think they pay with coins,,,,030519_p1,001,2019_Mar_05_1013,body_behavioural,3.0.4,60.003337265736825,
