count,storyText,locationEvent,socialEvent,instructText,trials.thisRepN,trials.thisTrialN,trials.thisN,trials.thisIndex,trials_7.thisRepN,trials_7.thisTrialN,trials_7.thisN,trials_7.thisIndex,trials_2.thisRepN,trials_2.thisTrialN,trials_2.thisN,trials_2.thisIndex,trials_3.thisRepN,trials_3.thisTrialN,trials_3.thisN,trials_3.thisIndex,trials_4.thisRepN,trials_4.thisTrialN,trials_4.thisN,trials_4.thisIndex,trials_5.thisRepN,trials_5.thisTrialN,trials_5.thisN,trials_5.thisIndex,trials_6.thisRepN,trials_6.thisTrialN,trials_6.thisN,trials_6.thisIndex,trials_8.thisRepN,trials_8.thisTrialN,trials_8.thisN,trials_8.thisIndex,order of stories,order of perspectives,participant 2 order - stories,participant 2 order  - schemas types,key_resp_8.keys,key_resp_8.rt,key_resp_5.keys,key_resp_5.rt,key_resp_7.keys,key_resp_7.rt,story_presses.keys,story_presses.rt,story time,key_resp_6.keys,key_resp_6.rt,key_resp_2.keys,key_resp_2.rt,key_resp_10.keys,key_resp_10.rt,recall,recall time,key_resp_12.keys,key_resp_12.rt,key_resp_3.keys,key_resp_3.rt,key_resp_11.keys,key_resp_11.rt,question1_answer,order of question,question2_answer,question3_answer,question4_answer,question5_answer,question6_answer,question7_answer,question8_answer,questions time,key_resp_13.keys,key_resp_13.rt,participant,session,date,expName,psychopyVersion,frameRate,
0,,,,,0,0,0,0,0,0,0,0,,,,,,,,,,,,,,,,,,,,,,,,,[32 24 41 42 14 23 31 13 44 34 33 43 21 12 11 22],"['Social' 'Location' 'Social' 'Location' 'Social' 'Social' 'Location'
 'Location' 'Location' 'Social' 'Location' 'Social' 'Social' 'Social'
 'Location' 'Location']",[44 34 33 43 21 12 11 22],"['Location' 'Social' 'Location' 'Social' 'Social' 'Social' 'Location'
 'Location']",space,3.521752269996796,space,2.71971075500187,space,1.5860692720016232,,,,,,,,,,,,,,,,,,,,,,,,,,,,,,030719_p1,001,2019_Mar_07_1015,body_behavioural,3.0.4,59.995223778089915,
0,"Jeff, hoping that today would be a pivotal day for his new business, had only been waiting inside the doors of the airport for a few minutes when he saw William and eagerly waved him over. ",1,1,,0,0,0,0,,,,,0,0,0,0,,,,,,,,,,,,,,,,,,,,,,,,,,,,,,,1,14.171103000000585,,,,,,,,,,,,,,,,,,,,,,,,,,,,030719_p1,001,2019_Mar_07_1015,body_behavioural,3.0.4,59.995223778089915,
0,"Jeff, checking his watch, was pleased to see that the two of them had two hours to discuss business before their flights left Boston.",1,1,,0,0,0,0,,,,,0,1,1,1,,,,,,,,,,,,,,,,,,,,,,,,,,,,,,,1,17.070831129996805,,,,,,,,,,,,,,,,,,,,,,,,,,,,030719_p1,001,2019_Mar_07_1015,body_behavioural,3.0.4,59.995223778089915,
0,The two had met the night before in line for the bathroom at a local bar. ,1,1,,0,0,0,0,,,,,0,2,2,2,,,,,,,,,,,,,,,,,,,,,,,,,,,,,,,9,5.820025255001383,,,,,,,,,,,,,,,,,,,,,,,,,,,,030719_p1,001,2019_Mar_07_1015,body_behavioural,3.0.4,59.995223778089915,
0,Jeff had delivered some surprisingly-detailed complaints to William about the wine selection.,1,1,,0,0,0,0,,,,,0,3,3,3,,,,,,,,,,,,,,,,,,,,,,,,,,,,,,,1,5.07028273200558,,,,,,,,,,,,,,,,,,,,,,,,,,,,030719_p1,001,2019_Mar_07_1015,body_behavioural,3.0.4,59.995223778089915,
0,They quickly learned about each other that Jeff was a representative for wine vineyards in the Northeast and William was a wine buyer for corporate events.,1,1,,0,0,0,0,,,,,0,4,4,4,,,,,,,,,,,,,,,,,,,,,,,,,,,,,,,1,6.620213442001841,,,,,,,,,,,,,,,,,,,,,,,,,,,,030719_p1,001,2019_Mar_07_1015,body_behavioural,3.0.4,59.995223778089915,
0,"Since they both had flights out of Boston at the same time, they had agreed to meet at the airport and talk about potentially doing business. ",1,1,,0,0,0,0,,,,,0,5,5,5,,,,,,,,,,,,,,,,,,,,,,,,,,,,,,,1,2.8695297630038112,,,,,,,,,,,,,,,,,,,,,,,,,,,,030719_p1,001,2019_Mar_07_1015,body_behavioural,3.0.4,59.995223778089915,
0,"They headed to security together, pleased to find that the line was not so long, and they chatted a little as they were waiting. ",2,1,,0,0,0,0,,,,,0,6,6,6,,,,,,,,,,,,,,,,,,,,,,,,,,,,,,,1,4.186621089989785,,,,,,,,,,,,,,,,,,,,,,,,,,,,030719_p1,001,2019_Mar_07_1015,body_behavioural,3.0.4,59.995223778089915,
0,"“It’s crazy that we met last night,” William said, “I am flying out right now to meet my boss, and was worried that I was going to show up empty handed without any local retailer prepared.” ",2,1,,0,0,0,0,,,,,0,7,7,7,,,,,,,,,,,,,,,,,,,,,,,,,,,,,,,1,8.318068841996137,,,,,,,,,,,,,,,,,,,,,,,,,,,,030719_p1,001,2019_Mar_07_1015,body_behavioural,3.0.4,59.995223778089915,
0,"“I know, what are the chances, right?” Jeff said.",2,1,,0,0,0,0,,,,,0,8,8,8,,,,,,,,,,,,,,,,,,,,,,,,,,,,,,,1,1.136253084987402,,,,,,,,,,,,,,,,,,,,,,,,,,,,030719_p1,001,2019_Mar_07_1015,body_behavioural,3.0.4,59.995223778089915,
0,"William laughed and said, “I’m glad our shared complaining can come in handy.",2,1,,0,0,0,0,,,,,0,9,9,9,,,,,,,,,,,,,,,,,,,,,,,,,,,,,,,1,4.251797876990167,,,,,,,,,,,,,,,,,,,,,,,,,,,,030719_p1,001,2019_Mar_07_1015,body_behavioural,3.0.4,59.995223778089915,
0,"I know this is fast, but I'd like to get right down to specifics.",2,2,,0,0,0,0,,,,,0,10,10,10,,,,,,,,,,,,,,,,,,,,,,,,,,,,,,,1,1.819913176994305,,,,,,,,,,,,,,,,,,,,,,,,,,,,030719_p1,001,2019_Mar_07_1015,body_behavioural,3.0.4,59.995223778089915,
0,I'd like to order a couple of sample shipments from you and present them to our corporate buyers.,2,2,,0,0,0,0,,,,,0,11,11,11,,,,,,,,,,,,,,,,,,,,,,,,,,,,,,,1,1.6358565319969784,,,,,,,,,,,,,,,,,,,,,,,,,,,,030719_p1,001,2019_Mar_07_1015,body_behavioural,3.0.4,59.995223778089915,
0,"Typically we expect to get these kinds of samples at a deep discount, at least half-off the label price.",2,2,,0,0,0,0,,,,,0,12,12,12,,,,,,,,,,,,,,,,,,,,,,,,,,,,,,,1,2.517510804987978,,,,,,,,,,,,,,,,,,,,,,,,,,,,030719_p1,001,2019_Mar_07_1015,body_behavioural,3.0.4,59.995223778089915,
0,"This is nothing, okay, compared to what you will be making if one of these buyers makes a contract.",2,2,,0,0,0,0,,,,,0,13,13,13,,,,,,,,,,,,,,,,,,,,,,,,,,,,,,,1,4.270425909999176,,,,,,,,,,,,,,,,,,,,,,,,,,,,030719_p1,001,2019_Mar_07_1015,body_behavioural,3.0.4,59.995223778089915,
0,So I propose that you send us $600 worth of wine shipments for a price of $300.”,2,2,,0,0,0,0,,,,,0,14,14,14,,,,,,,,,,,,,,,,,,,,,,,,,,,,,,,1,7.536487336998107,,,,,,,,,,,,,,,,,,,,,,,,,,,,030719_p1,001,2019_Mar_07_1015,body_behavioural,3.0.4,59.995223778089915,
0,"When it was their turn to go through the metal detector, they took off their shoes and pulled out their laptops.",2,2,,0,0,0,0,,,,,0,15,15,15,,,,,,,,,,,,,,,,,,,,,,,,,,,,,,,1,1.8032335070020054,,,,,,,,,,,,,,,,,,,,,,,,,,,,030719_p1,001,2019_Mar_07_1015,body_behavioural,3.0.4,59.995223778089915,
0,"Jeff mulled over the offer, nodding noncommittally to William's pitch as they proceeded through the metal detector and retrieved their belongings.",2,2,,0,0,0,0,,,,,0,16,16,16,,,,,,,,,,,,,,,,,,,,,,,,,,,,,,,1,5.303562847009744,,,,,,,,,,,,,,,,,,,,,,,,,,,,030719_p1,001,2019_Mar_07_1015,body_behavioural,3.0.4,59.995223778089915,
0,"They began to walk through the concourse, and William handed some printed spreadsheets to Jeff as they navigated toward their gates at the end of the terminal.",3,2,,0,0,0,0,,,,,0,17,17,17,,,,,,,,,,,,,,,,,,,,,,,,,,,,,,,1,3.9362586450006347,,,,,,,,,,,,,,,,,,,,,,,,,,,,030719_p1,001,2019_Mar_07_1015,body_behavioural,3.0.4,59.995223778089915,
0,"Jeff, weaving through the crowds of travelers, squinted at William's rosy projections of the number of bottles he could be able to purchase in the future.",3,2,,0,0,0,0,,,,,0,18,18,18,,,,,,,,,,,,,,,,,,,,,,,,,,,,,,,1,4.350916089999373,,,,,,,,,,,,,,,,,,,,,,,,,,,,030719_p1,001,2019_Mar_07_1015,body_behavioural,3.0.4,59.995223778089915,
0,"Finally Jeff said, “I don’t know, we’re not coming from corporate vineyards, so gambling with sample shipments is the kind of risk we can’t necessarily make. ",3,3,,0,0,0,0,,,,,0,19,19,19,,,,,,,,,,,,,,,,,,,,,,,,,,,,,,,1,4.267624725005589,,,,,,,,,,,,,,,,,,,,,,,,,,,,030719_p1,001,2019_Mar_07_1015,body_behavioural,3.0.4,59.995223778089915,
0,"These corporate purchases would have to be huge and practically guaranteed, to offset the loss from selling sample shipments at this price.”",3,3,,0,0,0,0,,,,,0,20,20,20,,,,,,,,,,,,,,,,,,,,,,,,,,,,,,,1,3.569772078000824,,,,,,,,,,,,,,,,,,,,,,,,,,,,030719_p1,001,2019_Mar_07_1015,body_behavioural,3.0.4,59.995223778089915,
0,"They walked to the gates very slowly, barely registering the hubbub of the airport since they were so caught up in figuring out this deal before their flights left.",3,3,,0,0,0,0,,,,,0,21,21,21,,,,,,,,,,,,,,,,,,,,,,,,,,,,,,,1,2.9033762629987905,,,,,,,,,,,,,,,,,,,,,,,,,,,,030719_p1,001,2019_Mar_07_1015,body_behavioural,3.0.4,59.995223778089915,
0,"At the end of their long walk, they got to Jeff’s gate first, which had begun boarding passengers.",3,3,,0,0,0,0,,,,,0,22,22,22,,,,,,,,,,,,,,,,,,,,,,,,,,,,,,,9,3.903398587004631,,,,,,,,,,,,,,,,,,,,,,,,,,,,030719_p1,001,2019_Mar_07_1015,body_behavioural,3.0.4,59.995223778089915,
0,"In these last minutes, William and Jeff agreed on a compromise rate on the sample shipment, paying $400 for a $600 shipment, and they finalized the deal with a handshake. ",3,4,,0,0,0,0,,,,,0,23,23,23,,,,,,,,,,,,,,,,,,,,,,,,,,,,,,,1,4.503397877997486,,,,,,,,,,,,,,,,,,,,,,,,,,,,030719_p1,001,2019_Mar_07_1015,body_behavioural,3.0.4,59.995223778089915,
0,"“Well, what a tremendous pleasure to do business with you and to have all this work out,” William said.",3,4,,0,0,0,0,,,,,0,24,24,24,,,,,,,,,,,,,,,,,,,,,,,,,,,,,,,1,1.252934659991297,,,,,,,,,,,,,,,,,,,,,,,,,,,,030719_p1,001,2019_Mar_07_1015,body_behavioural,3.0.4,59.995223778089915,
0,"Jeff nodded enthusiastically, and responded, “Likewise, this has been great.  ",3,4,,0,0,0,0,,,,,0,25,25,25,,,,,,,,,,,,,,,,,,,,,,,,,,,,,,,1,0.9029644050024217,,,,,,,,,,,,,,,,,,,,,,,,,,,,030719_p1,001,2019_Mar_07_1015,body_behavioural,3.0.4,59.995223778089915,
0,I'll let you get to your gate.,3,4,,0,0,0,0,,,,,0,26,26,26,,,,,,,,,,,,,,,,,,,,,,,,,,,,,,,1,0.4695907049899688,,,,,,,,,,,,,,,,,,,,,,,,,,,,030719_p1,001,2019_Mar_07_1015,body_behavioural,3.0.4,59.995223778089915,
0,"Once we’re both back on the ground, we can get all the shipments in the books.”",3,4,,0,0,0,0,,,,,0,27,27,27,,,,,,,,,,,,,,,,,,,,,,,,,,,,,,,1,1.286329874987132,,,,,,,,,,,,,,,,,,,,,,,,,,,,030719_p1,001,2019_Mar_07_1015,body_behavioural,3.0.4,59.995223778089915,
0,They parted with a wave as Jeff scanned his boarding pass at the gate. ,3,4,,0,0,0,0,,,,,0,28,28,28,,,,,,,,,,,,,,,,,,,,,,,,,,,,,,,1,0.7533211520058103,,,,,,,,,,,,,,,,,,,,,,,,,,,,030719_p1,001,2019_Mar_07_1015,body_behavioural,3.0.4,59.995223778089915,
0,He walked onto the plane and sat down in his aisle seat in the business class section.,4,4,,0,0,0,0,,,,,0,29,29,29,,,,,,,,,,,,,,,,,,,,,,,,,,,,,,,1,0.652746735009714,,,,,,,,,,,,,,,,,,,,,,,,,,,,030719_p1,001,2019_Mar_07_1015,body_behavioural,3.0.4,59.995223778089915,
0,He typed out a quick email on his phone letting the rest of his team know the good news. ,4,4,,0,0,0,0,,,,,0,30,30,30,,,,,,,,,,,,,,,,,,,,,,,,,,,,,,,1,1.5030294620082714,,,,,,,,,,,,,,,,,,,,,,,,,,,,030719_p1,001,2019_Mar_07_1015,body_behavioural,3.0.4,59.995223778089915,
0,"When the flight attendant came by, he ordered a glass of champagne to celebrate.",4,4,,0,0,0,0,,,,,0,31,31,31,,,,,,,,,,,,,,,,,,,,,,,,,,,,,,,1,0.8864081969950348,,,,,,,,,,,,,,,,,,,,,,,,,,,,030719_p1,001,2019_Mar_07_1015,body_behavioural,3.0.4,59.995223778089915,
0,,,,,0,0,0,0,,,,,,,,,,,,,,,,,,,,,,,,,,,,,,,,,,,,,,,,,,,,,,,,,,,,,,,,,,,,,,,,,,,,030719_p1,001,2019_Mar_07_1015,body_behavioural,3.0.4,59.995223778089915,
1,,,,,0,1,1,1,0,0,0,0,,,,,,,,,,,,,,,,,,,,,,,,,,,,,space,1.019521744994563,space,0.7196886799938511,space,0.5836611399863614,,,,,,,,,,,,,,,,,,,,,,,,,,,,,,030719_p1,001,2019_Mar_07_1015,body_behavioural,3.0.4,59.995223778089915,
1,"Lana walked into lecture holding hands with her boyfriend, Aaron, who was trying to contain his excitement and anticipation for proposing to Lana in this class. ",1,1,,0,1,1,1,,,,,0,0,0,0,,,,,,,,,,,,,,,,,,,,,,,,,,,,,,,1,11.320257044993923,,,,,,,,,,,,,,,,,,,,,,,,,,,,030719_p1,001,2019_Mar_07_1015,body_behavioural,3.0.4,59.995223778089915,
1,"Lana was lost in thought, still puzzling over a calculus problem on her problem set due that night.",1,1,,0,1,1,1,,,,,0,1,1,1,,,,,,,,,,,,,,,,,,,,,,,,,,,,,,,1,1.4528325049905106,,,,,,,,,,,,,,,,,,,,,,,,,,,,030719_p1,001,2019_Mar_07_1015,body_behavioural,3.0.4,59.995223778089915,
1,"The lecture hall was the fanciest one at Princeton, with chandeliers, high ceilings, wood floors and double-decker chalkboards.",1,1,,0,1,1,1,,,,,0,2,2,2,,,,,,,,,,,,,,,,,,,,,,,,,,,,,,,1,4.452458992993343,,,,,,,,,,,,,,,,,,,,,,,,,,,,030719_p1,001,2019_Mar_07_1015,body_behavioural,3.0.4,59.995223778089915,
1,"This is where Aaron and Lana had met two years ago during an economics class, and now they were back together in the same lecture hall for their Chemistry class. ",1,1,,0,1,1,1,,,,,0,3,3,3,,,,,,,,,,,,,,,,,,,,,,,,,,,,,,,1,4.537160225998377,,,,,,,,,,,,,,,,,,,,,,,,,,,,030719_p1,001,2019_Mar_07_1015,body_behavioural,3.0.4,59.995223778089915,
1,The professor caught Aaron's eye as he walked up to the front of the classroom and gave him a wink before the lecture began. ,1,1,,0,1,1,1,,,,,0,4,4,4,,,,,,,,,,,,,,,,,,,,,,,,,,,,,,,1,1.802989592004451,,,,,,,,,,,,,,,,,,,,,,,,,,,,030719_p1,001,2019_Mar_07_1015,body_behavioural,3.0.4,59.995223778089915,
1,Aaron responded with a huge grin. ,1,1,,0,1,1,1,,,,,0,5,5,5,,,,,,,,,,,,,,,,,,,,,,,,,,,,,,,1,1.3840574899950298,,,,,,,,,,,,,,,,,,,,,,,,,,,,030719_p1,001,2019_Mar_07_1015,body_behavioural,3.0.4,59.995223778089915,
1,"The professor cleared his throat and said,“Alright, good afternoon, everyone!",2,1,,0,1,1,1,,,,,0,6,6,6,,,,,,,,,,,,,,,,,,,,,,,,,,,,,,,1,1.9177028519916348,,,,,,,,,,,,,,,,,,,,,,,,,,,,030719_p1,001,2019_Mar_07_1015,body_behavioural,3.0.4,59.995223778089915,
1,"Last week we talked about the structure of the periodic table, and this week the topic is ions.",2,1,,0,1,1,1,,,,,0,7,7,7,,,,,,,,,,,,,,,,,,,,,,,,,,,,,,,1,1.5694735920114908,,,,,,,,,,,,,,,,,,,,,,,,,,,,030719_p1,001,2019_Mar_07_1015,body_behavioural,3.0.4,59.995223778089915,
1,These are atoms or molecules in which the number of electrons does not equal the number of protons.,2,1,,0,1,1,1,,,,,0,8,8,8,,,,,,,,,,,,,,,,,,,,,,,,,,,,,,,1,1.2526564849977149,,,,,,,,,,,,,,,,,,,,,,,,,,,,030719_p1,001,2019_Mar_07_1015,body_behavioural,3.0.4,59.995223778089915,
1,"Now, let me get my computer set up, one moment, class.”",2,1,,0,1,1,1,,,,,0,9,9,9,,,,,,,,,,,,,,,,,,,,,,,,,,,,,,,9,1.300654292004765,,,,,,,,,,,,,,,,,,,,,,,,,,,,030719_p1,001,2019_Mar_07_1015,body_behavioural,3.0.4,59.995223778089915,
1,Lana pulled out her Calculus problem set and puzzled over it.,2,1,,0,1,1,1,,,,,0,10,10,10,,,,,,,,,,,,,,,,,,,,,,,,,,,,,,,1,0.836468284993316,,,,,,,,,,,,,,,,,,,,,,,,,,,,030719_p1,001,2019_Mar_07_1015,body_behavioural,3.0.4,59.995223778089915,
1,"While she was distracted, Aaron unzipped the small pocket in his backpack and pulled out the ring box.",2,2,,0,1,1,1,,,,,0,11,11,11,,,,,,,,,,,,,,,,,,,,,,,,,,,,,,,1,0.8365134750056313,,,,,,,,,,,,,,,,,,,,,,,,,,,,030719_p1,001,2019_Mar_07_1015,body_behavioural,3.0.4,59.995223778089915,
1,He opened it up and looked at the ring.,2,2,,0,1,1,1,,,,,0,12,12,12,,,,,,,,,,,,,,,,,,,,,,,,,,,,,,,1,0.6197287469985895,,,,,,,,,,,,,,,,,,,,,,,,,,,,030719_p1,001,2019_Mar_07_1015,body_behavioural,3.0.4,59.995223778089915,
1,"Instead of one large diamond, there were 5 diamonds embedded in a thick band. ",2,2,,0,1,1,1,,,,,0,13,13,13,,,,,,,,,,,,,,,,,,,,,,,,,,,,,,,1,2.536377700002049,,,,,,,,,,,,,,,,,,,,,,,,,,,,030719_p1,001,2019_Mar_07_1015,body_behavioural,3.0.4,59.995223778089915,
1,He knew Lana would like this because her style was not flashy but more about simple elegance.,2,2,,0,1,1,1,,,,,0,14,14,14,,,,,,,,,,,,,,,,,,,,,,,,,,,,,,,1,1.269535100000212,,,,,,,,,,,,,,,,,,,,,,,,,,,,030719_p1,001,2019_Mar_07_1015,body_behavioural,3.0.4,59.995223778089915,
1,Aaron put the ring back into the bag as the professor began the lecture. ,3,2,,0,1,1,1,,,,,0,15,15,15,,,,,,,,,,,,,,,,,,,,,,,,,,,,,,,1,1.219689481993555,,,,,,,,,,,,,,,,,,,,,,,,,,,,030719_p1,001,2019_Mar_07_1015,body_behavioural,3.0.4,59.995223778089915,
1,“Recall from previous lectures that the number of protons determines the identity of the element. ,3,2,,0,1,1,1,,,,,0,16,16,16,,,,,,,,,,,,,,,,,,,,,,,,,,,,,,,1,1.08638498999062,,,,,,,,,,,,,,,,,,,,,,,,,,,,030719_p1,001,2019_Mar_07_1015,body_behavioural,3.0.4,59.995223778089915,
1,"So for example, all atoms of sodium have 11 protons in the nucleus. ",3,2,,0,1,1,1,,,,,0,17,17,17,,,,,,,,,,,,,,,,,,,,,,,,,,,,,,,1,2.18639869200706,,,,,,,,,,,,,,,,,,,,,,,,,,,,030719_p1,001,2019_Mar_07_1015,body_behavioural,3.0.4,59.995223778089915,
1,"And if you look on the periodic table, the atomic number for sodium, the symbol is Na, is eleven.”",3,2,,0,1,1,1,,,,,0,18,18,18,,,,,,,,,,,,,,,,,,,,,,,,,,,,,,,1,5.6866130769922165,,,,,,,,,,,,,,,,,,,,,,,,,,,,030719_p1,001,2019_Mar_07_1015,body_behavioural,3.0.4,59.995223778089915,
1,Lana was taking notes while Aaron was texting all of his friends in the class to get ready for the proposal. ,3,2,,0,1,1,1,,,,,0,19,19,19,,,,,,,,,,,,,,,,,,,,,,,,,,,,,,,1,2.053637727993191,,,,,,,,,,,,,,,,,,,,,,,,,,,,030719_p1,001,2019_Mar_07_1015,body_behavioural,3.0.4,59.995223778089915,
1,"Right after talking about how two ions bond into one stable molecule by covalent bonds, the professor stopped the lecture and asked Lana to come to the front of the class to do a demonstration. ",3,2,,0,1,1,1,,,,,0,20,20,20,,,,,,,,,,,,,,,,,,,,,,,,,,,,,,,1,2.9366203469980974,,,,,,,,,,,,,,,,,,,,,,,,,,,,030719_p1,001,2019_Mar_07_1015,body_behavioural,3.0.4,59.995223778089915,
1,"She walked to the front of the class confused, and the professor asked her to stand in the middle of the stage.",3,2,,0,1,1,1,,,,,0,21,21,21,,,,,,,,,,,,,,,,,,,,,,,,,,,,,,,1,0.7030831500014756,,,,,,,,,,,,,,,,,,,,,,,,,,,,030719_p1,001,2019_Mar_07_1015,body_behavioural,3.0.4,59.995223778089915,
1,"Then Aaron walked up and, taking Lana’s hand, got down on one knee. ",3,3,,0,1,1,1,,,,,0,22,22,22,,,,,,,,,,,,,,,,,,,,,,,,,,,,,,,1,0.9031363170070108,,,,,,,,,,,,,,,,,,,,,,,,,,,,030719_p1,001,2019_Mar_07_1015,body_behavioural,3.0.4,59.995223778089915,
1,"“It's time for us to make a bond of our own, Lana.",3,3,,0,1,1,1,,,,,0,23,23,23,,,,,,,,,,,,,,,,,,,,,,,,,,,,,,,1,3.652714529991499,,,,,,,,,,,,,,,,,,,,,,,,,,,,030719_p1,001,2019_Mar_07_1015,body_behavioural,3.0.4,59.995223778089915,
1,Will you marry me?” ,3,3,,0,1,1,1,,,,,0,24,24,24,,,,,,,,,,,,,,,,,,,,,,,,,,,,,,,9,1.9030353050038684,,,,,,,,,,,,,,,,,,,,,,,,,,,,030719_p1,001,2019_Mar_07_1015,body_behavioural,3.0.4,59.995223778089915,
1,Lana gasped and put her other hand to her mouth and started looking around the room as if trying to convince herself that this was really happening.,3,3,,0,1,1,1,,,,,0,25,25,25,,,,,,,,,,,,,,,,,,,,,,,,,,,,,,,1,3.117566312008421,,,,,,,,,,,,,,,,,,,,,,,,,,,,030719_p1,001,2019_Mar_07_1015,body_behavioural,3.0.4,59.995223778089915,
1,For a few moments everyone was in suspense waiting for the Lana’s shock to wear off and for her to answer. ,3,3,,0,1,1,1,,,,,0,26,26,26,,,,,,,,,,,,,,,,,,,,,,,,,,,,,,,1,1.2196525119943544,,,,,,,,,,,,,,,,,,,,,,,,,,,,030719_p1,001,2019_Mar_07_1015,body_behavioural,3.0.4,59.995223778089915,
1,"Finally, she said, “Yes!”",3,4,,0,1,1,1,,,,,0,27,27,27,,,,,,,,,,,,,,,,,,,,,,,,,,,,,,,1,2.6031897950015264,,,,,,,,,,,,,,,,,,,,,,,,,,,,030719_p1,001,2019_Mar_07_1015,body_behavioural,3.0.4,59.995223778089915,
1,"Aaron put the ring on her finger, and they hugged while the whole class clapped. ",3,4,,0,1,1,1,,,,,0,28,28,28,,,,,,,,,,,,,,,,,,,,,,,,,,,,,,,1,1.0696922719944268,,,,,,,,,,,,,,,,,,,,,,,,,,,,030719_p1,001,2019_Mar_07_1015,body_behavioural,3.0.4,59.995223778089915,
1,"Their friends came up and hugged both of them, and the professor gave Aaron a celebratory handshake.",3,4,,0,1,1,1,,,,,0,29,29,29,,,,,,,,,,,,,,,,,,,,,,,,,,,,,,,1,0.8030498099979013,,,,,,,,,,,,,,,,,,,,,,,,,,,,030719_p1,001,2019_Mar_07_1015,body_behavioural,3.0.4,59.995223778089915,
1,"They made their way back to their seats, Lana and Aaron hand-in-hand and beaming. ",3,4,,0,1,1,1,,,,,0,30,30,30,,,,,,,,,,,,,,,,,,,,,,,,,,,,,,,1,0.8364101699989988,,,,,,,,,,,,,,,,,,,,,,,,,,,,030719_p1,001,2019_Mar_07_1015,body_behavioural,3.0.4,59.995223778089915,
1,"The professor then dismissed the class, saying, “That was enough excitement for today!",4,4,,0,1,1,1,,,,,0,31,31,31,,,,,,,,,,,,,,,,,,,,,,,,,,,,,,,9,4.4865853099909145,,,,,,,,,,,,,,,,,,,,,,,,,,,,030719_p1,001,2019_Mar_07_1015,body_behavioural,3.0.4,59.995223778089915,
1,Don’t forget there’s an exam next week on the first two chapters of the textbook.”,4,4,,0,1,1,1,,,,,0,32,32,32,,,,,,,,,,,,,,,,,,,,,,,,,,,,,,,1,1.3201245819946053,,,,,,,,,,,,,,,,,,,,,,,,,,,,030719_p1,001,2019_Mar_07_1015,body_behavioural,3.0.4,59.995223778089915,
1,"As everyone was packing up their notebooks and leaving, Lana was already on her phone calling her family members to tell them the exciting news.",4,4,,0,1,1,1,,,,,0,33,33,33,,,,,,,,,,,,,,,,,,,,,,,,,,,,,,,1,1.82029500300996,,,,,,,,,,,,,,,,,,,,,,,,,,,,030719_p1,001,2019_Mar_07_1015,body_behavioural,3.0.4,59.995223778089915,
1,,,,,0,1,1,1,,,,,,,,,,,,,,,,,,,,,,,,,,,,,,,,,,,,,,,,,,,,,,,,,,,,,,,,,,,,,,,,,,,,030719_p1,001,2019_Mar_07_1015,body_behavioural,3.0.4,59.995223778089915,
2,,,,,0,2,2,2,0,0,0,0,,,,,,,,,,,,,,,,,,,,,,,,,,,,,space,0.9365338070056168,space,0.9535754569951678,space,0.7859012569970218,,,,,,,,,,,,,,,,,,,,,,,,,,,,,,030719_p1,001,2019_Mar_07_1015,body_behavioural,3.0.4,59.995223778089915,
2,"James noticed Teresa immediately as she walked into the restaurant - or, more accurately as she attempted to walk into the restaurant. ",1,1,,0,2,2,2,,,,,0,0,0,0,,,,,,,,,,,,,,,,,,,,,,,,,,,,,,,1,7.737112193004577,,,,,,,,,,,,,,,,,,,,,,,,,,,,030719_p1,001,2019_Mar_07_1015,body_behavioural,3.0.4,59.995223778089915,
2,"She was typing intently on her phone and ran straight into the diner's clear, glass door with an echoing thud. ",1,1,,0,2,2,2,,,,,0,1,1,1,,,,,,,,,,,,,,,,,,,,,,,,,,,,,,,1,2.903209769996465,,,,,,,,,,,,,,,,,,,,,,,,,,,,030719_p1,001,2019_Mar_07_1015,body_behavioural,3.0.4,59.995223778089915,
2,Everyone waiting around the cash register turned to see if she was okay.,1,1,,0,2,2,2,,,,,0,2,2,2,,,,,,,,,,,,,,,,,,,,,,,,,,,,,,,1,2.286472927997238,,,,,,,,,,,,,,,,,,,,,,,,,,,,030719_p1,001,2019_Mar_07_1015,body_behavioural,3.0.4,59.995223778089915,
2,Teresa rubbed her head.,1,1,,0,2,2,2,,,,,0,3,3,3,,,,,,,,,,,,,,,,,,,,,,,,,,,,,,,1,1.0670635620044777,,,,,,,,,,,,,,,,,,,,,,,,,,,,030719_p1,001,2019_Mar_07_1015,body_behavioural,3.0.4,59.995223778089915,
2,"While being both confused and unembarrassed, she looked mostly indignant that the door had been in her way. ",1,1,,0,2,2,2,,,,,0,4,4,4,,,,,,,,,,,,,,,,,,,,,,,,,,,,,,,1,2.1528752199956216,,,,,,,,,,,,,,,,,,,,,,,,,,,,030719_p1,001,2019_Mar_07_1015,body_behavioural,3.0.4,59.995223778089915,
2,James found this quite charming and stole a couple glances at her until she noticed and wrinkled her eyebrows at him in suspicion. ,1,1,,0,2,2,2,,,,,0,5,5,5,,,,,,,,,,,,,,,,,,,,,,,,,,,,,,,1,2.2508536449895473,,,,,,,,,,,,,,,,,,,,,,,,,,,,030719_p1,001,2019_Mar_07_1015,body_behavioural,3.0.4,59.995223778089915,
2,"The restaurant they were in was a cabin-themed diner with wooden booths and bar, walls covered in plaid blankets, and antler decorations. ",1,1,,0,2,2,2,,,,,0,6,6,6,,,,,,,,,,,,,,,,,,,,,,,,,,,,,,,1,2.036272152006859,,,,,,,,,,,,,,,,,,,,,,,,,,,,030719_p1,001,2019_Mar_07_1015,body_behavioural,3.0.4,59.995223778089915,
2,The waiter saw that James and Teresa were both alone and motioned to both of them. ,1,1,,0,2,2,2,,,,,0,7,7,7,,,,,,,,,,,,,,,,,,,,,,,,,,,,,,,9,2.5342377449997002,,,,,,,,,,,,,,,,,,,,,,,,,,,,030719_p1,001,2019_Mar_07_1015,body_behavioural,3.0.4,59.995223778089915,
2,“Right this way.,2,1,,0,2,2,2,,,,,0,8,8,8,,,,,,,,,,,,,,,,,,,,,,,,,,,,,,,1,1.2863969119935064,,,,,,,,,,,,,,,,,,,,,,,,,,,,030719_p1,001,2019_Mar_07_1015,body_behavioural,3.0.4,59.995223778089915,
2,You two don't mind sitting at the counter?” ,2,1,,0,2,2,2,,,,,0,9,9,9,,,,,,,,,,,,,,,,,,,,,,,,,,,,,,,1,1.6863291549962014,,,,,,,,,,,,,,,,,,,,,,,,,,,,030719_p1,001,2019_Mar_07_1015,body_behavioural,3.0.4,59.995223778089915,
2,They sat a seat apart from each other on the split tree trunk that served as a bench.,2,1,,0,2,2,2,,,,,0,10,10,10,,,,,,,,,,,,,,,,,,,,,,,,,,,,,,,1,4.269864925008733,,,,,,,,,,,,,,,,,,,,,,,,,,,,030719_p1,001,2019_Mar_07_1015,body_behavioural,3.0.4,59.995223778089915,
2, The waitress behind the counter gave them bright neon menus that were filled with breakfast items.,2,1,,0,2,2,2,,,,,0,11,11,11,,,,,,,,,,,,,,,,,,,,,,,,,,,,,,,1,0.8030643999954918,,,,,,,,,,,,,,,,,,,,,,,,,,,,030719_p1,001,2019_Mar_07_1015,body_behavioural,3.0.4,59.995223778089915,
2,"Teresa quickly glanced through it, then pulled out a book and started reading it while James played with the salt and pepper shakers as he tried to think of an excuse to talk to Teresa.",2,1,,0,2,2,2,,,,,0,12,12,12,,,,,,,,,,,,,,,,,,,,,,,,,,,,,,,1,7.220146964988089,,,,,,,,,,,,,,,,,,,,,,,,,,,,030719_p1,001,2019_Mar_07_1015,body_behavioural,3.0.4,59.995223778089915,
2,"James eventually turned to her and asked, “Your forehead alright?”",2,2,,0,2,2,2,,,,,0,13,13,13,,,,,,,,,,,,,,,,,,,,,,,,,,,,,,,1,2.2341566719987895,,,,,,,,,,,,,,,,,,,,,,,,,,,,030719_p1,001,2019_Mar_07_1015,body_behavioural,3.0.4,59.995223778089915,
2,She put down her book and gave him a smirk.,2,2,,0,2,2,2,,,,,0,14,14,14,,,,,,,,,,,,,,,,,,,,,,,,,,,,,,,1,1.7197699380049016,,,,,,,,,,,,,,,,,,,,,,,,,,,,030719_p1,001,2019_Mar_07_1015,body_behavioural,3.0.4,59.995223778089915,
2,"“Have you ever been stung by a scorpion?”, she asked him, tilting her head.",2,2,,0,2,2,2,,,,,0,15,15,15,,,,,,,,,,,,,,,,,,,,,,,,,,,,,,,1,1.536463256998104,,,,,,,,,,,,,,,,,,,,,,,,,,,,030719_p1,001,2019_Mar_07_1015,body_behavioural,3.0.4,59.995223778089915,
2,"“What?”, he asked confusedly.",2,2,,0,2,2,2,,,,,0,16,16,16,,,,,,,,,,,,,,,,,,,,,,,,,,,,,,,1,0.6529552900028648,,,,,,,,,,,,,,,,,,,,,,,,,,,,030719_p1,001,2019_Mar_07_1015,body_behavioural,3.0.4,59.995223778089915,
2, “A scorpion.”,2,2,,0,2,2,2,,,,,0,17,17,17,,,,,,,,,,,,,,,,,,,,,,,,,,,,,,,1,0.5029944499983685,,,,,,,,,,,,,,,,,,,,,,,,,,,,030719_p1,001,2019_Mar_07_1015,body_behavioural,3.0.4,59.995223778089915,
2,James began to worry that Teresa had possibly suffered a concussion in the door crash.,2,2,,0,2,2,2,,,,,0,18,18,18,,,,,,,,,,,,,,,,,,,,,,,,,,,,,,,1,1.3842033819964854,,,,,,,,,,,,,,,,,,,,,,,,,,,,030719_p1,001,2019_Mar_07_1015,body_behavioural,3.0.4,59.995223778089915,
2,"“Uh no, why?” ",2,2,,0,2,2,2,,,,,0,19,19,19,,,,,,,,,,,,,,,,,,,,,,,,,,,,,,,1,0.4530016619974049,,,,,,,,,,,,,,,,,,,,,,,,,,,,030719_p1,001,2019_Mar_07_1015,body_behavioural,3.0.4,59.995223778089915,
2,"“Because I’ve been stung by one, and since then, things like bumping into doors seem like pretty small potatoes.” ",2,2,,0,2,2,2,,,,,0,20,20,20,,,,,,,,,,,,,,,,,,,,,,,,,,,,,,,1,2.0697349420079263,,,,,,,,,,,,,,,,,,,,,,,,,,,,030719_p1,001,2019_Mar_07_1015,body_behavioural,3.0.4,59.995223778089915,
2,"They carried on talking, and Teresa told him all about her encounter with a Deathstalker scorpion while she was studying abroad in Egypt.",2,2,,0,2,2,2,,,,,0,21,21,21,,,,,,,,,,,,,,,,,,,,,,,,,,,,,,,1,2.684137135001947,,,,,,,,,,,,,,,,,,,,,,,,,,,,030719_p1,001,2019_Mar_07_1015,body_behavioural,3.0.4,59.995223778089915,
2,"After a few minutes, the waitress behind the counter came up to them, “Alrighty, can I take you order?” ",3,3,,0,2,2,2,,,,,0,22,22,22,,,,,,,,,,,,,,,,,,,,,,,,,,,,,,,1,0.9197052649979014,,,,,,,,,,,,,,,,,,,,,,,,,,,,030719_p1,001,2019_Mar_07_1015,body_behavioural,3.0.4,59.995223778089915,
2,"She first looked at Teresa who answered, “I’ll have a Western Omelette and a glass of milk.”",3,3,,0,2,2,2,,,,,0,23,23,23,,,,,,,,,,,,,,,,,,,,,,,,,,,,,,,1,2.967484325010446,,,,,,,,,,,,,,,,,,,,,,,,,,,,030719_p1,001,2019_Mar_07_1015,body_behavioural,3.0.4,59.995223778089915,
2,Then the waitress turned to James.,3,3,,0,2,2,2,,,,,0,24,24,24,,,,,,,,,,,,,,,,,,,,,,,,,,,,,,,1,1.2026399050082546,,,,,,,,,,,,,,,,,,,,,,,,,,,,030719_p1,001,2019_Mar_07_1015,body_behavioural,3.0.4,59.995223778089915,
2,"James said, “I’ll have the chocolate chip pancakes and a coffee.” ",3,3,,0,2,2,2,,,,,0,25,25,25,,,,,,,,,,,,,,,,,,,,,,,,,,,,,,,1,0.5195932000060566,,,,,,,,,,,,,,,,,,,,,,,,,,,,030719_p1,001,2019_Mar_07_1015,body_behavioural,3.0.4,59.995223778089915,
2,"“Alrighty, comin’ right up!”",3,3,,0,2,2,2,,,,,0,26,26,26,,,,,,,,,,,,,,,,,,,,,,,,,,,,,,,1,0.4856705549900653,,,,,,,,,,,,,,,,,,,,,,,,,,,,030719_p1,001,2019_Mar_07_1015,body_behavioural,3.0.4,59.995223778089915,
2,"They picked up their conversation, and James ended up telling Teresa about a concert he was going to later. ",3,3,,0,2,2,2,,,,,0,27,27,27,,,,,,,,,,,,,,,,,,,,,,,,,,,,,,,1,1.102980870011379,,,,,,,,,,,,,,,,,,,,,,,,,,,,030719_p1,001,2019_Mar_07_1015,body_behavioural,3.0.4,59.995223778089915,
2,"He invited her to come along, promising her that the concert would be indoors and absolutely free of venomous insects.",3,3,,0,2,2,2,,,,,0,28,28,28,,,,,,,,,,,,,,,,,,,,,,,,,,,,,,,1,3.053063542000018,,,,,,,,,,,,,,,,,,,,,,,,,,,,030719_p1,001,2019_Mar_07_1015,body_behavioural,3.0.4,59.995223778089915,
2,"Teresa agreed, gave him her number, and they worked out that James would pick her up before the concert and drive them there.",3,3,,0,2,2,2,,,,,0,29,29,29,,,,,,,,,,,,,,,,,,,,,,,,,,,,,,,1,2.319838486990193,,,,,,,,,,,,,,,,,,,,,,,,,,,,030719_p1,001,2019_Mar_07_1015,body_behavioural,3.0.4,59.995223778089915,
2,"This was not what they had expected from their solitary lunch plans and were both excited, even though Teresa was doing a much better job of hiding it than James. ",3,3,,0,2,2,2,,,,,0,30,30,30,,,,,,,,,,,,,,,,,,,,,,,,,,,,,,,1,3.4368024849973153,,,,,,,,,,,,,,,,,,,,,,,,,,,,030719_p1,001,2019_Mar_07_1015,body_behavioural,3.0.4,59.995223778089915,
2," After awhile,  the waitress brought out their food, and James took this opportunity to scoot closer to her on the log bench. ",4,4,,0,2,2,2,,,,,0,31,31,31,,,,,,,,,,,,,,,,,,,,,,,,,,,,,,,1,3.6200859550008317,,,,,,,,,,,,,,,,,,,,,,,,,,,,030719_p1,001,2019_Mar_07_1015,body_behavioural,3.0.4,59.995223778089915,
2,"Teresa was happy to share the meal with James, despite their food tasting pretty bad. ",4,4,,0,2,2,2,,,,,0,32,32,32,,,,,,,,,,,,,,,,,,,,,,,,,,,,,,,9,2.26953868700366,,,,,,,,,,,,,,,,,,,,,,,,,,,,030719_p1,001,2019_Mar_07_1015,body_behavioural,3.0.4,59.995223778089915,
2,"Judging by how salty the pancakes tasted, they suspected that the chef had confused the salt and sugar.",4,4,,0,2,2,2,,,,,0,33,33,33,,,,,,,,,,,,,,,,,,,,,,,,,,,,,,,1,3.119787540010293,,,,,,,,,,,,,,,,,,,,,,,,,,,,030719_p1,001,2019_Mar_07_1015,body_behavioural,3.0.4,59.995223778089915,
2,"When the meal was over, they got up, hugged, and parted ways. ",4,4,,0,2,2,2,,,,,0,34,34,34,,,,,,,,,,,,,,,,,,,,,,,,,,,,,,,1,0.6030085149977822,,,,,,,,,,,,,,,,,,,,,,,,,,,,030719_p1,001,2019_Mar_07_1015,body_behavioural,3.0.4,59.995223778089915,
2,"James said,“I have to run, got to get to work.",4,4,,0,2,2,2,,,,,0,35,35,35,,,,,,,,,,,,,,,,,,,,,,,,,,,,,,,1,1.6864263199968264,,,,,,,,,,,,,,,,,,,,,,,,,,,,030719_p1,001,2019_Mar_07_1015,body_behavioural,3.0.4,59.995223778089915,
2,See you tonight!”,4,4,,0,2,2,2,,,,,0,36,36,36,,,,,,,,,,,,,,,,,,,,,,,,,,,,,,,1,0.4840344050026033,,,,,,,,,,,,,,,,,,,,,,,,,,,,030719_p1,001,2019_Mar_07_1015,body_behavioural,3.0.4,59.995223778089915,
2,"Teresa smiled and walked towards the door without looking, and almost ran into the door again. ",4,4,,0,2,2,2,,,,,0,37,37,37,,,,,,,,,,,,,,,,,,,,,,,,,,,,,,,1,0.619276566998451,,,,,,,,,,,,,,,,,,,,,,,,,,,,030719_p1,001,2019_Mar_07_1015,body_behavioural,3.0.4,59.995223778089915,
2,They both laughed and smiled once more goodbye. ,4,4,,0,2,2,2,,,,,0,38,38,38,,,,,,,,,,,,,,,,,,,,,,,,,,,,,,,1,0.6028605699975742,,,,,,,,,,,,,,,,,,,,,,,,,,,,030719_p1,001,2019_Mar_07_1015,body_behavioural,3.0.4,59.995223778089915,
2,,,,,0,2,2,2,,,,,,,,,,,,,,,,,,,,,,,,,,,,,,,,,,,,,,,,,,,,,,,,,,,,,,,,,,,,,,,,,,,,030719_p1,001,2019_Mar_07_1015,body_behavioural,3.0.4,59.995223778089915,
3,,,,,0,3,3,3,0,0,0,0,,,,,,,,,,,,,,,,,,,,,,,,,,,,,space,0.7862517600005958,space,0.4530844800028717,space,0.5695675749884686,,,,,,,,,,,,,,,,,,,,,,,,,,,,,,030719_p1,001,2019_Mar_07_1015,body_behavioural,3.0.4,59.995223778089915,
3,David saw Anna for the first time when she burst into the airport with her bag skidding behind her half-zipped. ,1,1,,0,3,3,3,,,,,0,0,0,0,,,,,,,,,,,,,,,,,,,,,,,,,,,,,,,1,3.103381002001697,,,,,,,,,,,,,,,,,,,,,,,,,,,,030719_p1,001,2019_Mar_07_1015,body_behavioural,3.0.4,59.995223778089915,
3,"He had three hours until his flight, but she clearly had less than one.",1,1,,0,3,3,3,,,,,0,1,1,1,,,,,,,,,,,,,,,,,,,,,,,,,,,,,,,1,1.8693713070097147,,,,,,,,,,,,,,,,,,,,,,,,,,,,030719_p1,001,2019_Mar_07_1015,body_behavioural,3.0.4,59.995223778089915,
3,"Anna’s yoga class had ran over, and afterwards, she, forgetting the time, had lingered to talk with friends. ",1,1,,0,3,3,3,,,,,0,2,2,2,,,,,,,,,,,,,,,,,,,,,,,,,,,,,,,1,3.5699042649939656,,,,,,,,,,,,,,,,,,,,,,,,,,,,030719_p1,001,2019_Mar_07_1015,body_behavioural,3.0.4,59.995223778089915,
3,"Despite Anna's frazzled state, David was instantly intrigued by her.",1,1,,0,3,3,3,,,,,0,3,3,3,,,,,,,,,,,,,,,,,,,,,,,,,,,,,,,9,1.5531582249968778,,,,,,,,,,,,,,,,,,,,,,,,,,,,030719_p1,001,2019_Mar_07_1015,body_behavioural,3.0.4,59.995223778089915,
3,"He thought she was beautiful, and she reminded him of one of his favorite paintings.",1,1,,0,3,3,3,,,,,0,4,4,4,,,,,,,,,,,,,,,,,,,,,,,,,,,,,,,1,1.3197216199914692,,,,,,,,,,,,,,,,,,,,,,,,,,,,030719_p1,001,2019_Mar_07_1015,body_behavioural,3.0.4,59.995223778089915,
3,"Anna, a few strides into the airport, suddenly realized her shoes were untied, so she hunched over to tie them.",1,1,,0,3,3,3,,,,,0,5,5,5,,,,,,,,,,,,,,,,,,,,,,,,,,,,,,,1,1.5697336770099355,,,,,,,,,,,,,,,,,,,,,,,,,,,,030719_p1,001,2019_Mar_07_1015,body_behavioural,3.0.4,59.995223778089915,
3,David observed that someone with a tall cart of luggage was heading straight for where Anna was kneeling. ,1,1,,0,3,3,3,,,,,0,6,6,6,,,,,,,,,,,,,,,,,,,,,,,,,,,,,,,1,1.8531329370016465,,,,,,,,,,,,,,,,,,,,,,,,,,,,030719_p1,001,2019_Mar_07_1015,body_behavioural,3.0.4,59.995223778089915,
3,Both Anna and the person driving the cart were oblivious to the impending collision. ,1,1,,0,3,3,3,,,,,0,7,7,7,,,,,,,,,,,,,,,,,,,,,,,,,,,,,,,1,1.736353986998438,,,,,,,,,,,,,,,,,,,,,,,,,,,,030719_p1,001,2019_Mar_07_1015,body_behavioural,3.0.4,59.995223778089915,
3,"David had to intervene, and he ran in front of the cart pushing her out of the way just in the nick of time, and they tumbled on the airport floor. ",1,2,,0,3,3,3,,,,,0,8,8,8,,,,,,,,,,,,,,,,,,,,,,,,,,,,,,,1,2.6198661449889187,,,,,,,,,,,,,,,,,,,,,,,,,,,,030719_p1,001,2019_Mar_07_1015,body_behavioural,3.0.4,59.995223778089915,
3,"Anna, bewildered, looked up and saw the cart pass by and then looked over at David. ",1,2,,0,3,3,3,,,,,0,9,9,9,,,,,,,,,,,,,,,,,,,,,,,,,,,,,,,1,0.6693335430027219,,,,,,,,,,,,,,,,,,,,,,,,,,,,030719_p1,001,2019_Mar_07_1015,body_behavioural,3.0.4,59.995223778089915,
3,He gave a smile back.,1,2,,0,3,3,3,,,,,0,10,10,10,,,,,,,,,,,,,,,,,,,,,,,,,,,,,,,1,0.45321569200314116,,,,,,,,,,,,,,,,,,,,,,,,,,,,030719_p1,001,2019_Mar_07_1015,body_behavioural,3.0.4,59.995223778089915,
3,"“You alright?”, he said.",1,2,,0,3,3,3,,,,,0,11,11,11,,,,,,,,,,,,,,,,,,,,,,,,,,,,,,,1,0.3862163169978885,,,,,,,,,,,,,,,,,,,,,,,,,,,,030719_p1,001,2019_Mar_07_1015,body_behavioural,3.0.4,59.995223778089915,
3,"She whispered, “Uh yeah.",1,2,,0,3,3,3,,,,,0,12,12,12,,,,,,,,,,,,,,,,,,,,,,,,,,,,,,,1,0.3525316799932625,,,,,,,,,,,,,,,,,,,,,,,,,,,,030719_p1,001,2019_Mar_07_1015,body_behavioural,3.0.4,59.995223778089915,
3,I almost got smooshed by that cart.”,1,2,,0,3,3,3,,,,,0,13,13,13,,,,,,,,,,,,,,,,,,,,,,,,,,,,,,,1,0.43398998999327887,,,,,,,,,,,,,,,,,,,,,,,,,,,,030719_p1,001,2019_Mar_07_1015,body_behavioural,3.0.4,59.995223778089915,
3,Her head was still spinning as she stared at the handsome stranger who had saved her. ,1,2,,0,3,3,3,,,,,0,14,14,14,,,,,,,,,,,,,,,,,,,,,,,,,,,,,,,1,1.219795785000315,,,,,,,,,,,,,,,,,,,,,,,,,,,,030719_p1,001,2019_Mar_07_1015,body_behavioural,3.0.4,59.995223778089915,
3,David helped her up and had to keep holding on to her arms to steady her even once they were standing.,1,2,,0,3,3,3,,,,,0,15,15,15,,,,,,,,,,,,,,,,,,,,,,,,,,,,,,,1,2.9363936699955957,,,,,,,,,,,,,,,,,,,,,,,,,,,,030719_p1,001,2019_Mar_07_1015,body_behavioural,3.0.4,59.995223778089915,
3,"“I’m really late for my flight,” she said. ",1,2,,0,3,3,3,,,,,0,16,16,16,,,,,,,,,,,,,,,,,,,,,,,,,,,,,,,1,0.753008725005202,,,,,,,,,,,,,,,,,,,,,,,,,,,,030719_p1,001,2019_Mar_07_1015,body_behavioural,3.0.4,59.995223778089915,
3,"“Don't worry,” said David, "let me help you get to your gate." ",1,2,,0,3,3,3,,,,,0,17,17,17,,,,,,,,,,,,,,,,,,,,,,,,,,,,,,,9,1.886369152009138,,,,,,,,,,,,,,,,,,,,,,,,,,,,030719_p1,001,2019_Mar_07_1015,body_behavioural,3.0.4,59.995223778089915,
3,He waved off her half-hearted protests. ,1,2,,0,3,3,3,,,,,0,18,18,18,,,,,,,,,,,,,,,,,,,,,,,,,,,,,,,1,0.686034419995849,,,,,,,,,,,,,,,,,,,,,,,,,,,,030719_p1,001,2019_Mar_07_1015,body_behavioural,3.0.4,59.995223778089915,
3,"“Really , I have plenty of time and nothing better to do.”",1,2,,0,3,3,3,,,,,0,19,19,19,,,,,,,,,,,,,,,,,,,,,,,,,,,,,,,1,0.6030009650130523,,,,,,,,,,,,,,,,,,,,,,,,,,,,030719_p1,001,2019_Mar_07_1015,body_behavioural,3.0.4,59.995223778089915,
3,They headed to the security line. ,2,2,,0,3,3,3,,,,,0,20,20,20,,,,,,,,,,,,,,,,,,,,,,,,,,,,,,,1,0.38582203700207174,,,,,,,,,,,,,,,,,,,,,,,,,,,,030719_p1,001,2019_Mar_07_1015,body_behavioural,3.0.4,59.995223778089915,
3,"The line was not long, and they spent the time chatting and getting to know each other.",2,2,,0,3,3,3,,,,,0,21,21,21,,,,,,,,,,,,,,,,,,,,,,,,,,,,,,,1,0.31928411500121,,,,,,,,,,,,,,,,,,,,,,,,,,,,030719_p1,001,2019_Mar_07_1015,body_behavioural,3.0.4,59.995223778089915,
3,It turned out that Anna and David went to the same high school but Anna had been 3 years older.,2,2,,0,3,3,3,,,,,0,22,22,22,,,,,,,,,,,,,,,,,,,,,,,,,,,,,,,1,0.2530191799887689,,,,,,,,,,,,,,,,,,,,,,,,,,,,030719_p1,001,2019_Mar_07_1015,body_behavioural,3.0.4,59.995223778089915,
3,When they got to the front of the line they took off their shoes and pulled off their coats.,2,3,,0,3,3,3,,,,,0,23,23,23,,,,,,,,,,,,,,,,,,,,,,,,,,,,,,,1,1.8007748200034257,,,,,,,,,,,,,,,,,,,,,,,,,,,,030719_p1,001,2019_Mar_07_1015,body_behavioural,3.0.4,59.995223778089915,
3,Both of them went through the metal detector without any problems. ,2,3,,0,3,3,3,,,,,0,24,24,24,,,,,,,,,,,,,,,,,,,,,,,,,,,,,,,1,0.8673840219998965,,,,,,,,,,,,,,,,,,,,,,,,,,,,030719_p1,001,2019_Mar_07_1015,body_behavioural,3.0.4,59.995223778089915,
3,"Anna’s flight was in 20 minutes, and as she was rushing to put her shoes and coat back on, David asked her, “So when are you coming back?”",2,3,,0,3,3,3,,,,,0,25,25,25,,,,,,,,,,,,,,,,,,,,,,,,,,,,,,,1,2.1362568699987605,,,,,,,,,,,,,,,,,,,,,,,,,,,,030719_p1,001,2019_Mar_07_1015,body_behavioural,3.0.4,59.995223778089915,
3,"“In a week, it’s a short trip,” Anna replied. ",2,3,,0,3,3,3,,,,,0,26,26,26,,,,,,,,,,,,,,,,,,,,,,,,,,,,,,,1,0.7029235350055387,,,,,,,,,,,,,,,,,,,,,,,,,,,,030719_p1,001,2019_Mar_07_1015,body_behavioural,3.0.4,59.995223778089915,
3,"“Me too,” David said.",2,3,,0,3,3,3,,,,,0,27,27,27,,,,,,,,,,,,,,,,,,,,,,,,,,,,,,,1,0.46921705300337635,,,,,,,,,,,,,,,,,,,,,,,,,,,,030719_p1,001,2019_Mar_07_1015,body_behavioural,3.0.4,59.995223778089915,
3,"He continued, “When we're back in town, is there any chance you'd want to get dinner?",2,3,,0,3,3,3,,,,,0,28,28,28,,,,,,,,,,,,,,,,,,,,,,,,,,,,,,,1,1.5198564769962104,,,,,,,,,,,,,,,,,,,,,,,,,,,,030719_p1,001,2019_Mar_07_1015,body_behavioural,3.0.4,59.995223778089915,
3,"I know we just met, but when life throws a luggage cart at you it seems like we should listen. “",2,3,,0,3,3,3,,,,,0,29,29,29,,,,,,,,,,,,,,,,,,,,,,,,,,,,,,,1,2.753198965001502,,,,,,,,,,,,,,,,,,,,,,,,,,,,030719_p1,001,2019_Mar_07_1015,body_behavioural,3.0.4,59.995223778089915,
3,"She stopped packing, and said with a smile, “Yes I would love that.”",2,3,,0,3,3,3,,,,,0,30,30,30,,,,,,,,,,,,,,,,,,,,,,,,,,,,,,,9,2.8532263669912936,,,,,,,,,,,,,,,,,,,,,,,,,,,,030719_p1,001,2019_Mar_07_1015,body_behavioural,3.0.4,59.995223778089915,
3,Then they ran off to Anna’s gate which was at the end of the terminal. ,3,3,,0,3,3,3,,,,,0,31,31,31,,,,,,,,,,,,,,,,,,,,,,,,,,,,,,,1,0.9534372000052826,,,,,,,,,,,,,,,,,,,,,,,,,,,,030719_p1,001,2019_Mar_07_1015,body_behavioural,3.0.4,59.995223778089915,
3,"David took put on her backpack, grabbed her hand, and navigated quickly through the crowds of people.",3,3,,0,3,3,3,,,,,0,32,32,32,,,,,,,,,,,,,,,,,,,,,,,,,,,,,,,1,0.5864208020066144,,,,,,,,,,,,,,,,,,,,,,,,,,,,030719_p1,001,2019_Mar_07_1015,body_behavioural,3.0.4,59.995223778089915,
3,Anna was amazed at everything that was happening; she had arrived at the airport doubtful that she would make it and was now confident that she would due to this handsome and kind man she just met.,3,3,,0,3,3,3,,,,,0,33,33,33,,,,,,,,,,,,,,,,,,,,,,,,,,,,,,,1,2.8363685229996918,,,,,,,,,,,,,,,,,,,,,,,,,,,,030719_p1,001,2019_Mar_07_1015,body_behavioural,3.0.4,59.995223778089915,
3,"As they approached her gate, Anna fished out a crumbled business card from her pocket and handed it to David, who handed her the backpack, and he promised to call her next week.",3,4,,0,3,3,3,,,,,0,34,34,34,,,,,,,,,,,,,,,,,,,,,,,,,,,,,,,1,3.4693245819944423,,,,,,,,,,,,,,,,,,,,,,,,,,,,030719_p1,001,2019_Mar_07_1015,body_behavioural,3.0.4,59.995223778089915,
3,She gave him one last embarrassed smile and approached the flight attendant who scanned her ticket. ,3,4,,0,3,3,3,,,,,0,35,35,35,,,,,,,,,,,,,,,,,,,,,,,,,,,,,,,1,0.8361719050008105,,,,,,,,,,,,,,,,,,,,,,,,,,,,030719_p1,001,2019_Mar_07_1015,body_behavioural,3.0.4,59.995223778089915,
3,"Finally, she boarded the plane, sliding into her window seat located all the way in the back of the plane.",4,4,,0,3,3,3,,,,,0,36,36,36,,,,,,,,,,,,,,,,,,,,,,,,,,,,,,,1,0.702518232006696,,,,,,,,,,,,,,,,,,,,,,,,,,,,030719_p1,001,2019_Mar_07_1015,body_behavioural,3.0.4,59.995223778089915,
3,"Barely containing her glee, she ignored the grumbles of complaint as she squeezed past the other passengers in her row and settled back in her seat. ",4,4,,0,3,3,3,,,,,0,37,37,37,,,,,,,,,,,,,,,,,,,,,,,,,,,,,,,1,1.786415976996068,,,,,,,,,,,,,,,,,,,,,,,,,,,,030719_p1,001,2019_Mar_07_1015,body_behavioural,3.0.4,59.995223778089915,
3,"She was thankful that she had not only made it onto the plane in time, but also that she had been clumsy enough to forget to tie her shoes.",4,4,,0,3,3,3,,,,,0,38,38,38,,,,,,,,,,,,,,,,,,,,,,,,,,,,,,,1,3.469905142002972,,,,,,,,,,,,,,,,,,,,,,,,,,,,030719_p1,001,2019_Mar_07_1015,body_behavioural,3.0.4,59.995223778089915,
3,,,,,0,3,3,3,,,,,,,,,,,,,,,,,,,,,,,,,,,,,,,,,,,,,,,,,,,,,,,,,,,,,,,,,,,,,,,,,,,,030719_p1,001,2019_Mar_07_1015,body_behavioural,3.0.4,59.995223778089915,
4,,,,,0,4,4,4,0,0,0,0,,,,,,,,,,,,,,,,,,,,,,,,,,,,,space,1.0509330249915365,space,1.0692930600052932,space,0.6863231199968141,,,,,,,,,,,,,,,,,,,,,,,,,,,,,,030719_p1,001,2019_Mar_07_1015,body_behavioural,3.0.4,59.995223778089915,
4,"Maria walked into lecture beside Henry, and she was mentally rehearsing what she should say to break up with him.",1,1,,0,4,4,4,,,,,0,0,0,0,,,,,,,,,,,,,,,,,,,,,,,,,,,,,,,1,5.5196853800007375,,,,,,,,,,,,,,,,,,,,,,,,,,,,030719_p1,001,2019_Mar_07_1015,body_behavioural,3.0.4,59.995223778089915,
4,"She had been putting it off with a growing sense of dread, and now this lecture was the last chance before she had to leave campus. ",1,1,,0,4,4,4,,,,,0,1,1,1,,,,,,,,,,,,,,,,,,,,,,,,,,,,,,,1,2.469979069996043,,,,,,,,,,,,,,,,,,,,,,,,,,,,030719_p1,001,2019_Mar_07_1015,body_behavioural,3.0.4,59.995223778089915,
4,"The lecture hall was large, with a stage for the lecturer in the front of the room, and tiered seats that stretched up in 15 stacked rows. ",1,1,,0,4,4,4,,,,,0,2,2,2,,,,,,,,,,,,,,,,,,,,,,,,,,,,,,,1,1.9531187969987513,,,,,,,,,,,,,,,,,,,,,,,,,,,,030719_p1,001,2019_Mar_07_1015,body_behavioural,3.0.4,59.995223778089915,
4,"The clock struck 3 pm, and Maria and Henry slid into neighboring seats near the back of the room.",1,1,,0,4,4,4,,,,,0,3,3,3,,,,,,,,,,,,,,,,,,,,,,,,,,,,,,,1,1.3197266249917448,,,,,,,,,,,,,,,,,,,,,,,,,,,,030719_p1,001,2019_Mar_07_1015,body_behavioural,3.0.4,59.995223778089915,
4,"“Good afternoon, everybody,” said the professor, fiddling to connect his laptop with the projector.",2,1,,0,4,4,4,,,,,0,4,4,4,,,,,,,,,,,,,,,,,,,,,,,,,,,,,,,1,2.734091902995715,,,,,,,,,,,,,,,,,,,,,,,,,,,,030719_p1,001,2019_Mar_07_1015,body_behavioural,3.0.4,59.995223778089915,
4,“Welcome to week 4 of Intro to Ancient Philosophy. ,2,1,,0,4,4,4,,,,,0,5,5,5,,,,,,,,,,,,,,,,,,,,,,,,,,,,,,,1,2.652782164994278,,,,,,,,,,,,,,,,,,,,,,,,,,,,030719_p1,001,2019_Mar_07_1015,body_behavioural,3.0.4,59.995223778089915,
4,Today we are going to continue our lecture on Aristotelian Philosophy.”,2,1,,0,4,4,4,,,,,0,6,6,6,,,,,,,,,,,,,,,,,,,,,,,,,,,,,,,1,0.6197981369914487,,,,,,,,,,,,,,,,,,,,,,,,,,,,030719_p1,001,2019_Mar_07_1015,body_behavioural,3.0.4,59.995223778089915,
4,Everyone in class pulled out their notebooks and settled in their seats as the slides appeared on the large front screens.,2,1,,0,4,4,4,,,,,0,7,7,7,,,,,,,,,,,,,,,,,,,,,,,,,,,,,,,9,0.9697718499955954,,,,,,,,,,,,,,,,,,,,,,,,,,,,030719_p1,001,2019_Mar_07_1015,body_behavioural,3.0.4,59.995223778089915,
4,"“Henry,” Maria whispered.",2,1,,0,4,4,4,,,,,0,8,8,8,,,,,,,,,,,,,,,,,,,,,,,,,,,,,,,1,0.9198383100010687,,,,,,,,,,,,,,,,,,,,,,,,,,,,030719_p1,001,2019_Mar_07_1015,body_behavioural,3.0.4,59.995223778089915,
4,"“Hmm?” he replied, distracted.",2,1,,0,4,4,4,,,,,0,9,9,9,,,,,,,,,,,,,,,,,,,,,,,,,,,,,,,1,1.05073058999551,,,,,,,,,,,,,,,,,,,,,,,,,,,,030719_p1,001,2019_Mar_07_1015,body_behavioural,3.0.4,59.995223778089915,
4,"“Henry, I need to tell you something really important, and I don’t know when else I’ll have a chance to do it,” she said.",2,1,,0,4,4,4,,,,,0,10,10,10,,,,,,,,,,,,,,,,,,,,,,,,,,,,,,,1,0.919681205006782,,,,,,,,,,,,,,,,,,,,,,,,,,,,030719_p1,001,2019_Mar_07_1015,body_behavioural,3.0.4,59.995223778089915,
4,"“Okay, what's up?”, he said, tilting his head close to her. ",2,1,,0,4,4,4,,,,,0,11,11,11,,,,,,,,,,,,,,,,,,,,,,,,,,,,,,,1,0.5030185750074452,,,,,,,,,,,,,,,,,,,,,,,,,,,,030719_p1,001,2019_Mar_07_1015,body_behavioural,3.0.4,59.995223778089915,
4," “Henry, I don’t think I can do long distance.",2,2,,0,4,4,4,,,,,0,12,12,12,,,,,,,,,,,,,,,,,,,,,,,,,,,,,,,1,0.4696616300061578,,,,,,,,,,,,,,,,,,,,,,,,,,,,030719_p1,001,2019_Mar_07_1015,body_behavioural,3.0.4,59.995223778089915,
4,"I think what we have here is great, but I think it will be really hard when we are so far apart for such an extended period.",2,2,,0,4,4,4,,,,,0,13,13,13,,,,,,,,,,,,,,,,,,,,,,,,,,,,,,,1,2.4699070950009627,,,,,,,,,,,,,,,,,,,,,,,,,,,,030719_p1,001,2019_Mar_07_1015,body_behavioural,3.0.4,59.995223778089915,
4,"I’m sorry I’m telling you now in lecture, but I'm out of time, and it’s taken me awhile to come to this decision.",2,2,,0,4,4,4,,,,,0,14,14,14,,,,,,,,,,,,,,,,,,,,,,,,,,,,,,,1,2.6174860920000356,,,,,,,,,,,,,,,,,,,,,,,,,,,,030719_p1,001,2019_Mar_07_1015,body_behavioural,3.0.4,59.995223778089915,
4,"I really think this is best, and who knows what will happen when I get back from my study abroad.” ",2,2,,0,4,4,4,,,,,0,15,15,15,,,,,,,,,,,,,,,,,,,,,,,,,,,,,,,1,2.551710018000449,,,,,,,,,,,,,,,,,,,,,,,,,,,,030719_p1,001,2019_Mar_07_1015,body_behavioural,3.0.4,59.995223778089915,
4,"While Henry tried to think of what to say, he and Maria stared unlistening at the professor as he started the lecture, “First we will talk about Aristotle’s work, The Categories.",3,2,,0,4,4,4,,,,,0,16,16,16,,,,,,,,,,,,,,,,,,,,,,,,,,,,,,,1,3.637238991999766,,,,,,,,,,,,,,,,,,,,,,,,,,,,030719_p1,001,2019_Mar_07_1015,body_behavioural,3.0.4,59.995223778089915,
4,"This text, as you might have been able to guess, is about the kinds, or categories, of things that there are.",3,2,,0,4,4,4,,,,,0,17,17,17,,,,,,,,,,,,,,,,,,,,,,,,,,,,,,,1,1.3695099299948197,,,,,,,,,,,,,,,,,,,,,,,,,,,,030719_p1,001,2019_Mar_07_1015,body_behavioural,3.0.4,59.995223778089915,
4,"In fact, our term category comes from this Aristotelian context.” ",3,2,,0,4,4,4,,,,,0,18,18,18,,,,,,,,,,,,,,,,,,,,,,,,,,,,,,,1,0.6529536570014898,,,,,,,,,,,,,,,,,,,,,,,,,,,,030719_p1,001,2019_Mar_07_1015,body_behavioural,3.0.4,59.995223778089915,
4,"Henry felt horrible, like the wind had just been knocked out of him.",3,2,,0,4,4,4,,,,,0,19,19,19,,,,,,,,,,,,,,,,,,,,,,,,,,,,,,,1,0.8865712319966406,,,,,,,,,,,,,,,,,,,,,,,,,,,,030719_p1,001,2019_Mar_07_1015,body_behavioural,3.0.4,59.995223778089915,
4,"A few tears started to fall down his cheeks as he whispered back, “Maria, I think we can make it work.",3,3,,0,4,4,4,,,,,0,20,20,20,,,,,,,,,,,,,,,,,,,,,,,,,,,,,,,1,1.1529778499971144,,,,,,,,,,,,,,,,,,,,,,,,,,,,030719_p1,001,2019_Mar_07_1015,body_behavioural,3.0.4,59.995223778089915,
4,I’ll come visit you.,3,3,,0,4,4,4,,,,,0,21,21,21,,,,,,,,,,,,,,,,,,,,,,,,,,,,,,,1,0.7027311269921483,,,,,,,,,,,,,,,,,,,,,,,,,,,,030719_p1,001,2019_Mar_07_1015,body_behavioural,3.0.4,59.995223778089915,
4,It will be fine.,3,3,,0,4,4,4,,,,,0,22,22,22,,,,,,,,,,,,,,,,,,,,,,,,,,,,,,,1,0.38625923200743273,,,,,,,,,,,,,,,,,,,,,,,,,,,,030719_p1,001,2019_Mar_07_1015,body_behavioural,3.0.4,59.995223778089915,
4,I don’t want to break up.”,3,3,,0,4,4,4,,,,,0,23,23,23,,,,,,,,,,,,,,,,,,,,,,,,,,,,,,,1,0.36732392499106936,,,,,,,,,,,,,,,,,,,,,,,,,,,,030719_p1,001,2019_Mar_07_1015,body_behavioural,3.0.4,59.995223778089915,
4,"Maria felt so guilty that she nearly gave in, but forced herself to hold her ground, knowing that this would make things much easier for both of them in the future.",3,3,,0,4,4,4,,,,,0,24,24,24,,,,,,,,,,,,,,,,,,,,,,,,,,,,,,,1,1.669658642000286,,,,,,,,,,,,,,,,,,,,,,,,,,,,030719_p1,001,2019_Mar_07_1015,body_behavioural,3.0.4,59.995223778089915,
4,"She gave his hand a squeeze but shook her head sadly, before turning back to her laptop and half-heartedly taking notes on the lecture which they sat through in painful silence.",3,3,,0,4,4,4,,,,,0,25,25,25,,,,,,,,,,,,,,,,,,,,,,,,,,,,,,,1,2.4528428869962227,,,,,,,,,,,,,,,,,,,,,,,,,,,,030719_p1,001,2019_Mar_07_1015,body_behavioural,3.0.4,59.995223778089915,
4,"Finally, the professor was wrapping up, “This is what Aristotle means when he says that an animal’s or plant’s form rather than its matter is its nature. ",4,3,,0,4,4,4,,,,,0,26,26,26,,,,,,,,,,,,,,,,,,,,,,,,,,,,,,,1,1.3031266250036424,,,,,,,,,,,,,,,,,,,,,,,,,,,,030719_p1,001,2019_Mar_07_1015,body_behavioural,3.0.4,59.995223778089915,
4,"Alright class, that’s all for today. ",4,3,,0,4,4,4,,,,,0,27,27,27,,,,,,,,,,,,,,,,,,,,,,,,,,,,,,,1,0.5863531850045547,,,,,,,,,,,,,,,,,,,,,,,,,,,,030719_p1,001,2019_Mar_07_1015,body_behavioural,3.0.4,59.995223778089915,
4,"Remember the final exam is coming up next week on Tuesday on the Pre-Socratics, Plato, and Aristotle, so feel free to come by office hours to discuss if you have the inspiration.",4,3,,0,4,4,4,,,,,0,28,28,28,,,,,,,,,,,,,,,,,,,,,,,,,,,,,,,1,2.736100064998027,,,,,,,,,,,,,,,,,,,,,,,,,,,,030719_p1,001,2019_Mar_07_1015,body_behavioural,3.0.4,59.995223778089915,
4,"And if anyone is doing the 20 page paper in lieu of the final, that’s due next Tuesday as well.",4,3,,0,4,4,4,,,,,0,29,29,29,,,,,,,,,,,,,,,,,,,,,,,,,,,,,,,1,3.986303716999828,,,,,,,,,,,,,,,,,,,,,,,,,,,,030719_p1,001,2019_Mar_07_1015,body_behavioural,3.0.4,59.995223778089915,
4,"Have a good day, folks.” ",4,3,,0,4,4,4,,,,,0,30,30,30,,,,,,,,,,,,,,,,,,,,,,,,,,,,,,,1,0.46950921700045,,,,,,,,,,,,,,,,,,,,,,,,,,,,030719_p1,001,2019_Mar_07_1015,body_behavioural,3.0.4,59.995223778089915,
4,"Maria and Henry packed up hurriedly, and slipped quickly out of the class before the rest of the crowd. ",4,3,,0,4,4,4,,,,,0,31,31,31,,,,,,,,,,,,,,,,,,,,,,,,,,,,,,,9,0.8196255270013353,,,,,,,,,,,,,,,,,,,,,,,,,,,,030719_p1,001,2019_Mar_07_1015,body_behavioural,3.0.4,59.995223778089915,
4,"They hugged outside, and both of them were crying. ",4,4,,0,4,4,4,,,,,0,32,32,32,,,,,,,,,,,,,,,,,,,,,,,,,,,,,,,1,0.6862668920075521,,,,,,,,,,,,,,,,,,,,,,,,,,,,030719_p1,001,2019_Mar_07_1015,body_behavioural,3.0.4,59.995223778089915,
4,"“Maria, I don’t want you to leave.",4,4,,0,4,4,4,,,,,0,33,33,33,,,,,,,,,,,,,,,,,,,,,,,,,,,,,,,1,0.43690970199531876,,,,,,,,,,,,,,,,,,,,,,,,,,,,030719_p1,001,2019_Mar_07_1015,body_behavioural,3.0.4,59.995223778089915,
4,I don’t want this to end. ,4,4,,0,4,4,4,,,,,0,34,34,34,,,,,,,,,,,,,,,,,,,,,,,,,,,,,,,1,0.35080567699333187,,,,,,,,,,,,,,,,,,,,,,,,,,,,030719_p1,001,2019_Mar_07_1015,body_behavioural,3.0.4,59.995223778089915,
4,"But if this is what you think is best, I can’t make it otherwise.” ",4,4,,0,4,4,4,,,,,0,35,35,35,,,,,,,,,,,,,,,,,,,,,,,,,,,,,,,1,1.1026718549983343,,,,,,,,,,,,,,,,,,,,,,,,,,,,030719_p1,001,2019_Mar_07_1015,body_behavioural,3.0.4,59.995223778089915,
4,"They hugged one last time, and Maria ran off to get her things from her dorm.",4,4,,0,4,4,4,,,,,0,36,36,36,,,,,,,,,,,,,,,,,,,,,,,,,,,,,,,1,0.46962276499834843,,,,,,,,,,,,,,,,,,,,,,,,,,,,030719_p1,001,2019_Mar_07_1015,body_behavioural,3.0.4,59.995223778089915,
4,Henry sadly watched her go. ,4,4,,0,4,4,4,,,,,0,37,37,37,,,,,,,,,,,,,,,,,,,,,,,,,,,,,,,1,0.4028881449921755,,,,,,,,,,,,,,,,,,,,,,,,,,,,030719_p1,001,2019_Mar_07_1015,body_behavioural,3.0.4,59.995223778089915,
4,,,,,0,4,4,4,,,,,,,,,,,,,,,,,,,,,,,,,,,,,,,,,,,,,,,,,,,,,,,,,,,,,,,,,,,,,,,,,,,,030719_p1,001,2019_Mar_07_1015,body_behavioural,3.0.4,59.995223778089915,
5,,,,,0,5,5,5,0,0,0,0,,,,,,,,,,,,,,,,,,,,,,,,,,,,,space,0.7029072199948132,space,0.4029828280035872,space,0.5195689649990527,,,,,,,,,,,,,,,,,,,,,,,,,,,,,,030719_p1,001,2019_Mar_07_1015,body_behavioural,3.0.4,59.995223778089915,
5,"Alex was a distracted, sweaty mess as he walked into the grocery store with Chloe; he was hoping that she wouldn't suspect that he was about to propose.",1,1,,0,5,5,5,,,,,0,0,0,0,,,,,,,,,,,,,,,,,,,,,,,,,,,,,,,1,8.053788017001352,,,,,,,,,,,,,,,,,,,,,,,,,,,,030719_p1,001,2019_Mar_07_1015,body_behavioural,3.0.4,59.995223778089915,
5,"The grocery store was brightly lit; this was one of the nicest grocery stores in Atlanta, and sunlight poured in through the glass walls.",1,1,,0,5,5,5,,,,,0,1,1,1,,,,,,,,,,,,,,,,,,,,,,,,,,,,,,,1,1.0695097749994602,,,,,,,,,,,,,,,,,,,,,,,,,,,,030719_p1,001,2019_Mar_07_1015,body_behavioural,3.0.4,59.995223778089915,
5,"The atmosphere was also bright because tomorrow was Thanksgiving, and most shoppers had carts piled high with turkey, stuffing, and pies.",1,1,,0,5,5,5,,,,,0,2,2,2,,,,,,,,,,,,,,,,,,,,,,,,,,,,,,,1,4.836391990000266,,,,,,,,,,,,,,,,,,,,,,,,,,,,030719_p1,001,2019_Mar_07_1015,body_behavioural,3.0.4,59.995223778089915,
5,Alex wanted to propose to Chloe here because he knew she would not suspect it at all. ,1,1,,0,5,5,5,,,,,0,3,3,3,,,,,,,,,,,,,,,,,,,,,,,,,,,,,,,9,1.7701596169936238,,,,,,,,,,,,,,,,,,,,,,,,,,,,030719_p1,001,2019_Mar_07_1015,body_behavioural,3.0.4,59.995223778089915,
5,"Chloe loved surprises, and Alex loved the look on Chloe’s face when she was surprised. ",1,1,,0,5,5,5,,,,,0,4,4,4,,,,,,,,,,,,,,,,,,,,,,,,,,,,,,,1,0.9695883300009882,,,,,,,,,,,,,,,,,,,,,,,,,,,,030719_p1,001,2019_Mar_07_1015,body_behavioural,3.0.4,59.995223778089915,
5,"“Alex, we need to get some cranberry sauce, so let’s go there first.” ",2,1,,0,5,5,5,,,,,0,5,5,5,,,,,,,,,,,,,,,,,,,,,,,,,,,,,,,1,0.5841397499898449,,,,,,,,,,,,,,,,,,,,,,,,,,,,030719_p1,001,2019_Mar_07_1015,body_behavioural,3.0.4,59.995223778089915,
5,She led the way to the section of the store that held the canned foods. ,2,1,,0,5,5,5,,,,,0,6,6,6,,,,,,,,,,,,,,,,,,,,,,,,,,,,,,,1,0.5336313669977244,,,,,,,,,,,,,,,,,,,,,,,,,,,,030719_p1,001,2019_Mar_07_1015,body_behavioural,3.0.4,59.995223778089915,
5,Alex looked like he was going to throw up. ,2,1,,0,5,5,5,,,,,0,7,7,7,,,,,,,,,,,,,,,,,,,,,,,,,,,,,,,1,0.5841223869938403,,,,,,,,,,,,,,,,,,,,,,,,,,,,030719_p1,001,2019_Mar_07_1015,body_behavioural,3.0.4,59.995223778089915,
5,"As they were walking there, Chloe asked him, “Is everything okay, dear?”",2,1,,0,5,5,5,,,,,0,8,8,8,,,,,,,,,,,,,,,,,,,,,,,,,,,,,,,1,0.7863597370014759,,,,,,,,,,,,,,,,,,,,,,,,,,,,030719_p1,001,2019_Mar_07_1015,body_behavioural,3.0.4,59.995223778089915,
5,"“Oh yeah, for sure,” he said, unconvincingly. ",2,1,,0,5,5,5,,,,,0,9,9,9,,,,,,,,,,,,,,,,,,,,,,,,,,,,,,,1,0.8029763550002826,,,,,,,,,,,,,,,,,,,,,,,,,,,,030719_p1,001,2019_Mar_07_1015,body_behavioural,3.0.4,59.995223778089915,
5,"She chuckled, “Alright, whatever you say.” ",2,1,,0,5,5,5,,,,,0,10,10,10,,,,,,,,,,,,,,,,,,,,,,,,,,,,,,,1,0.7529727200017078,,,,,,,,,,,,,,,,,,,,,,,,,,,,030719_p1,001,2019_Mar_07_1015,body_behavioural,3.0.4,59.995223778089915,
5,"She was mulling over the different cans of cranberry sauce, and Alex knew she would be a while.",2,1,,0,5,5,5,,,,,0,11,11,11,,,,,,,,,,,,,,,,,,,,,,,,,,,,,,,1,0.28649583998776507,,,,,,,,,,,,,,,,,,,,,,,,,,,,030719_p1,001,2019_Mar_07_1015,body_behavioural,3.0.4,59.995223778089915,
5,He turned his back to her and pulled out the ring.,2,2,,0,5,5,5,,,,,0,12,12,12,,,,,,,,,,,,,,,,,,,,,,,,,,,,,,,1,0.5531330749945482,,,,,,,,,,,,,,,,,,,,,,,,,,,,030719_p1,001,2019_Mar_07_1015,body_behavioural,3.0.4,59.995223778089915,
5,He had been saving up for this for a while. ,2,2,,0,5,5,5,,,,,0,13,13,13,,,,,,,,,,,,,,,,,,,,,,,,,,,,,,,1,0.5365036849980243,,,,,,,,,,,,,,,,,,,,,,,,,,,,030719_p1,001,2019_Mar_07_1015,body_behavioural,3.0.4,59.995223778089915,
5,The ring had three large diamonds with smaller ones encircling each one: all of them sparkled in the light streaming in from the windows. ,2,2,,0,5,5,5,,,,,0,14,14,14,,,,,,,,,,,,,,,,,,,,,,,,,,,,,,,1,0.9529451400012476,,,,,,,,,,,,,,,,,,,,,,,,,,,,030719_p1,001,2019_Mar_07_1015,body_behavioural,3.0.4,59.995223778089915,
5,"“Alex?”, Chloe said suspiciously. ",2,2,,0,5,5,5,,,,,0,15,15,15,,,,,,,,,,,,,,,,,,,,,,,,,,,,,,,1,0.4863457300089067,,,,,,,,,,,,,,,,,,,,,,,,,,,,030719_p1,001,2019_Mar_07_1015,body_behavioural,3.0.4,59.995223778089915,
5,He closed the box and whipped around. “Yes?”,2,2,,0,5,5,5,,,,,0,16,16,16,,,,,,,,,,,,,,,,,,,,,,,,,,,,,,,1,0.5196933499973966,,,,,,,,,,,,,,,,,,,,,,,,,,,,030719_p1,001,2019_Mar_07_1015,body_behavioural,3.0.4,59.995223778089915,
5,“Do we need anything else?”,2,2,,0,5,5,5,,,,,0,17,17,17,,,,,,,,,,,,,,,,,,,,,,,,,,,,,,,1,0.5525999320088886,,,,,,,,,,,,,,,,,,,,,,,,,,,,030719_p1,001,2019_Mar_07_1015,body_behavioural,3.0.4,59.995223778089915,
5,"“Yeah I don’t know, honey.” ",2,2,,0,5,5,5,,,,,0,18,18,18,,,,,,,,,,,,,,,,,,,,,,,,,,,,,,,1,0.5196215750038391,,,,,,,,,,,,,,,,,,,,,,,,,,,,030719_p1,001,2019_Mar_07_1015,body_behavioural,3.0.4,59.995223778089915,
5,They went to the checkout and waited in a long line.,3,2,,0,5,5,5,,,,,0,19,19,19,,,,,,,,,,,,,,,,,,,,,,,,,,,,,,,1,0.4696694349986501,,,,,,,,,,,,,,,,,,,,,,,,,,,,030719_p1,001,2019_Mar_07_1015,body_behavioural,3.0.4,59.995223778089915,
5,Alex was staring intensely off into the distance. ,3,2,,0,5,5,5,,,,,0,20,20,20,,,,,,,,,,,,,,,,,,,,,,,,,,,,,,,1,0.4195013520075008,,,,,,,,,,,,,,,,,,,,,,,,,,,,030719_p1,001,2019_Mar_07_1015,body_behavioural,3.0.4,59.995223778089915,
5,Chloe was watching him trying to decide whether he looked scared or confused. ,3,2,,0,5,5,5,,,,,0,21,21,21,,,,,,,,,,,,,,,,,,,,,,,,,,,,,,,1,0.6507123820047127,,,,,,,,,,,,,,,,,,,,,,,,,,,,030719_p1,001,2019_Mar_07_1015,body_behavioural,3.0.4,59.995223778089915,
5,Alex looked over at their friends who were waiting by the entrance of the grocery store.,3,2,,0,5,5,5,,,,,0,22,22,22,,,,,,,,,,,,,,,,,,,,,,,,,,,,,,,1,1.4530395269975998,,,,,,,,,,,,,,,,,,,,,,,,,,,,030719_p1,001,2019_Mar_07_1015,body_behavioural,3.0.4,59.995223778089915,
5,They got the message and walked over slowly. ,3,2,,0,5,5,5,,,,,0,23,23,23,,,,,,,,,,,,,,,,,,,,,,,,,,,,,,,1,0.7029453169961926,,,,,,,,,,,,,,,,,,,,,,,,,,,,030719_p1,001,2019_Mar_07_1015,body_behavioural,3.0.4,59.995223778089915,
5,"“Honey,” he said to get her attention, “Look, Chloe, I love you so much and I want to be with you forever, I can’t imagine a day without you.”",3,2,,0,5,5,5,,,,,0,24,24,24,,,,,,,,,,,,,,,,,,,,,,,,,,,,,,,1,3.0365160670044133,,,,,,,,,,,,,,,,,,,,,,,,,,,,030719_p1,001,2019_Mar_07_1015,body_behavioural,3.0.4,59.995223778089915,
5,"“Awww, Alex, me too.”",3,2,,0,5,5,5,,,,,0,25,25,25,,,,,,,,,,,,,,,,,,,,,,,,,,,,,,,1,0.8196205169952009,,,,,,,,,,,,,,,,,,,,,,,,,,,,030719_p1,001,2019_Mar_07_1015,body_behavioural,3.0.4,59.995223778089915,
5,"Alex got down on one knee, and Chloe gasped. ",3,3,,0,5,5,5,,,,,0,26,26,26,,,,,,,,,,,,,,,,,,,,,,,,,,,,,,,1,0.46951313500176184,,,,,,,,,,,,,,,,,,,,,,,,,,,,030719_p1,001,2019_Mar_07_1015,body_behavioural,3.0.4,59.995223778089915,
5,"“I am serious, Chloe. Will you marry me?”",3,3,,0,5,5,5,,,,,0,27,27,27,,,,,,,,,,,,,,,,,,,,,,,,,,,,,,,1,0.8696600770053919,,,,,,,,,,,,,,,,,,,,,,,,,,,,030719_p1,001,2019_Mar_07_1015,body_behavioural,3.0.4,59.995223778089915,
5,"The people in line around them realized what was happening, stepped back, and started taking pictures.",3,3,,0,5,5,5,,,,,0,28,28,28,,,,,,,,,,,,,,,,,,,,,,,,,,,,,,,9,0.7197192550083855,,,,,,,,,,,,,,,,,,,,,,,,,,,,030719_p1,001,2019_Mar_07_1015,body_behavioural,3.0.4,59.995223778089915,
5,Their friends were no longer trying to hide and were videotaping and taking pictures too. ,3,3,,0,5,5,5,,,,,0,29,29,29,,,,,,,,,,,,,,,,,,,,,,,,,,,,,,,1,1.4532100750075188,,,,,,,,,,,,,,,,,,,,,,,,,,,,030719_p1,001,2019_Mar_07_1015,body_behavioural,3.0.4,59.995223778089915,
5,Chloe looked around and laughed. ,3,3,,0,5,5,5,,,,,0,30,30,30,,,,,,,,,,,,,,,,,,,,,,,,,,,,,,,1,0.5526553420058917,,,,,,,,,,,,,,,,,,,,,,,,,,,,030719_p1,001,2019_Mar_07_1015,body_behavioural,3.0.4,59.995223778089915,
5,"“Yes!” she shouted, and jumped to embrace Alex in a hug. ",3,4,,0,5,5,5,,,,,0,31,31,31,,,,,,,,,,,,,,,,,,,,,,,,,,,,,,,1,0.4864119299891172,,,,,,,,,,,,,,,,,,,,,,,,,,,,030719_p1,001,2019_Mar_07_1015,body_behavioural,3.0.4,59.995223778089915,
5,Everyone in line clapped and cheered. ,3,4,,0,5,5,5,,,,,0,32,32,32,,,,,,,,,,,,,,,,,,,,,,,,,,,,,,,1,0.4026055349968374,,,,,,,,,,,,,,,,,,,,,,,,,,,,030719_p1,001,2019_Mar_07_1015,body_behavioural,3.0.4,59.995223778089915,
5,"Alex put the ring on Chloe’s finger, who was nearly spinning in excitement.",3,4,,0,5,5,5,,,,,0,33,33,33,,,,,,,,,,,,,,,,,,,,,,,,,,,,,,,1,1.069807790001505,,,,,,,,,,,,,,,,,,,,,,,,,,,,030719_p1,001,2019_Mar_07_1015,body_behavioural,3.0.4,59.995223778089915,
5,"“I love it, oh my gosh, it’s so glittery!",3,4,,0,5,5,5,,,,,0,34,34,34,,,,,,,,,,,,,,,,,,,,,,,,,,,,,,,1,0.7198874820023775,,,,,,,,,,,,,,,,,,,,,,,,,,,,030719_p1,001,2019_Mar_07_1015,body_behavioural,3.0.4,59.995223778089915,
5,Look at this!” she said as she shoved her hand in a stranger’s face.,3,4,,0,5,5,5,,,,,0,35,35,35,,,,,,,,,,,,,,,,,,,,,,,,,,,,,,,1,1.1840843399986625,,,,,,,,,,,,,,,,,,,,,,,,,,,,030719_p1,001,2019_Mar_07_1015,body_behavioural,3.0.4,59.995223778089915,
5,Her friends came over and hugged them.,3,4,,0,5,5,5,,,,,0,36,36,36,,,,,,,,,,,,,,,,,,,,,,,,,,,,,,,1,0.5362930200062692,,,,,,,,,,,,,,,,,,,,,,,,,,,,030719_p1,001,2019_Mar_07_1015,body_behavioural,3.0.4,59.995223778089915,
5,The other people let them move up to the front of the checkout line. ,3,4,,0,5,5,5,,,,,0,37,37,37,,,,,,,,,,,,,,,,,,,,,,,,,,,,,,,1,0.40308470200398006,,,,,,,,,,,,,,,,,,,,,,,,,,,,030719_p1,001,2019_Mar_07_1015,body_behavioural,3.0.4,59.995223778089915,
5,The cashier congratulated them and scanned their cranberry sauce. ,4,4,,0,5,5,5,,,,,0,38,38,38,,,,,,,,,,,,,,,,,,,,,,,,,,,,,,,1,0.46927991199481767,,,,,,,,,,,,,,,,,,,,,,,,,,,,030719_p1,001,2019_Mar_07_1015,body_behavioural,3.0.4,59.995223778089915,
5,The total came to $4 and Chloe paid in cash while getting distracted and staring at the ring as she pulled out the bills.,4,4,,0,5,5,5,,,,,0,39,39,39,,,,,,,,,,,,,,,,,,,,,,,,,,,,,,,1,2.5508532699896023,,,,,,,,,,,,,,,,,,,,,,,,,,,,030719_p1,001,2019_Mar_07_1015,body_behavioural,3.0.4,59.995223778089915,
5,"Alex grabbed the cans, and they walked out with their friends bunched around them. ",4,4,,0,5,5,5,,,,,0,40,40,40,,,,,,,,,,,,,,,,,,,,,,,,,,,,,,,1,1.2031925800110912,,,,,,,,,,,,,,,,,,,,,,,,,,,,030719_p1,001,2019_Mar_07_1015,body_behavioural,3.0.4,59.995223778089915,
5,,,,,0,5,5,5,,,,,,,,,,,,,,,,,,,,,,,,,,,,,,,,,,,,,,,,,,,,,,,,,,,,,,,,,,,,,,,,,,,,030719_p1,001,2019_Mar_07_1015,body_behavioural,3.0.4,59.995223778089915,
6,,,,,0,6,6,6,0,0,0,0,,,,,,,,,,,,,,,,,,,,,,,,,,,,,space,0.6863348699989729,space,0.5341071800066857,space,0.7363140870002098,,,,,,,,,,,,,,,,,,,,,,,,,,,,,,030719_p1,001,2019_Mar_07_1015,body_behavioural,3.0.4,59.995223778089915,
6,,,,,0,6,6,6,1,0,1,0,,,,,,,,,,,,,,,,,,,,,,,,,,,,,,,,,space,0.7213940430083312,,,,,,,,,,,,,,,,,,,,,,,,,,,,,,030719_p1,001,2019_Mar_07_1015,body_behavioural,3.0.4,59.995223778089915,
6,Mr. Shelton and Mr. Gordon shook hands inside the foyer of the restaurant: lunch today was about big business. ,1,1,,0,6,6,6,,,,,0,0,0,0,,,,,,,,,,,,,,,,,,,,,,,,,,,,,,,1,2.367429637000896,,,,,,,,,,,,,,,,,,,,,,,,,,,,030719_p1,001,2019_Mar_07_1015,body_behavioural,3.0.4,59.995223778089915,
6,Mr. Shelton and Mr. Gordon both were CEOs of airplane manufacturing companies.,1,1,,0,6,6,6,,,,,0,1,1,1,,,,,,,,,,,,,,,,,,,,,,,,,,,,,,,1,1.2894298970059026,,,,,,,,,,,,,,,,,,,,,,,,,,,,030719_p1,001,2019_Mar_07_1015,body_behavioural,3.0.4,59.995223778089915,
6,"Mr. Shelton was in charge of a larger, well-established company and had been in the aviation business for decades.",1,1,,0,6,6,6,,,,,0,2,2,2,,,,,,,,,,,,,,,,,,,,,,,,,,,,,,,1,1.5890732050029328,,,,,,,,,,,,,,,,,,,,,,,,,,,,030719_p1,001,2019_Mar_07_1015,body_behavioural,3.0.4,59.995223778089915,
6,"On the other hand, Mr. Gordon led a smaller but technologically-advanced company that was projected to disrupt the airplane manufacturing market. ",1,1,,0,6,6,6,,,,,0,3,3,3,,,,,,,,,,,,,,,,,,,,,,,,,,,,,,,1,1.5047866280074231,,,,,,,,,,,,,,,,,,,,,,,,,,,,030719_p1,001,2019_Mar_07_1015,body_behavioural,3.0.4,59.995223778089915,
6,"The restaurant they chose to meet at was old and fancy with high ceilings, dark wood paneling, and crystal chandeliers.",1,1,,0,6,6,6,,,,,0,4,4,4,,,,,,,,,,,,,,,,,,,,,,,,,,,,,,,9,2.8214601700019557,,,,,,,,,,,,,,,,,,,,,,,,,,,,030719_p1,001,2019_Mar_07_1015,body_behavioural,3.0.4,59.995223778089915,
6,"The waitress led them to their table in the back, and they settled into a private table in the corner by the fireplace. ",2,1,,0,6,6,6,,,,,0,5,5,5,,,,,,,,,,,,,,,,,,,,,,,,,,,,,,,1,1.4217314449924743,,,,,,,,,,,,,,,,,,,,,,,,,,,,030719_p1,001,2019_Mar_07_1015,body_behavioural,3.0.4,59.995223778089915,
6,The waitress brought out the menus and they broke the ice with some small talk.,2,1,,0,6,6,6,,,,,0,6,6,6,,,,,,,,,,,,,,,,,,,,,,,,,,,,,,,1,1.7715083100047195,,,,,,,,,,,,,,,,,,,,,,,,,,,,030719_p1,001,2019_Mar_07_1015,body_behavioural,3.0.4,59.995223778089915,
6,"Mr. Gordon took out a picture of his daughter and talked about her recent engagement, and Mr. Gordon boasted about his purchase of a Tesla. ",2,1,,0,6,6,6,,,,,0,7,7,7,,,,,,,,,,,,,,,,,,,,,,,,,,,,,,,1,1.7713309219980147,,,,,,,,,,,,,,,,,,,,,,,,,,,,030719_p1,001,2019_Mar_07_1015,body_behavioural,3.0.4,59.995223778089915,
6,"They looked at the menus as well, which were full of Italian classics like Carbonara and Tiramisu, and in the back section of the menu was a lengthy drink selection.",2,1,,0,6,6,6,,,,,0,8,8,8,,,,,,,,,,,,,,,,,,,,,,,,,,,,,,,1,2.83823996000865,,,,,,,,,,,,,,,,,,,,,,,,,,,,030719_p1,001,2019_Mar_07_1015,body_behavioural,3.0.4,59.995223778089915,
6,"After awhile, Mr. Shelton brought the conversation around to business.",2,2,,0,6,6,6,,,,,0,9,9,9,,,,,,,,,,,,,,,,,,,,,,,,,,,,,,,1,0.5880187299917452,,,,,,,,,,,,,,,,,,,,,,,,,,,,030719_p1,001,2019_Mar_07_1015,body_behavioural,3.0.4,59.995223778089915,
6,"“Mr. Gordon, we really admire what you’re doing at your company.",2,2,,0,6,6,6,,,,,0,10,10,10,,,,,,,,,,,,,,,,,,,,,,,,,,,,,,,1,1.2545492019999074,,,,,,,,,,,,,,,,,,,,,,,,,,,,030719_p1,001,2019_Mar_07_1015,body_behavioural,3.0.4,59.995223778089915,
6,We think it’s genius; we want to support your vision and make this tiny company of yours internationally known.,2,2,,0,6,6,6,,,,,0,11,11,11,,,,,,,,,,,,,,,,,,,,,,,,,,,,,,,1,0.6548872899875278,,,,,,,,,,,,,,,,,,,,,,,,,,,,030719_p1,001,2019_Mar_07_1015,body_behavioural,3.0.4,59.995223778089915,
6,"But honestly, your company doesn’t have the resources to reach international markets right now.",2,2,,0,6,6,6,,,,,0,12,12,12,,,,,,,,,,,,,,,,,,,,,,,,,,,,,,,1,2.0048518020048505,,,,,,,,,,,,,,,,,,,,,,,,,,,,030719_p1,001,2019_Mar_07_1015,body_behavioural,3.0.4,59.995223778089915,
6,"Maybe in a few years you could, but by that time, other companies may have already filled your niche.",2,2,,0,6,6,6,,,,,0,13,13,13,,,,,,,,,,,,,,,,,,,,,,,,,,,,,,,1,1.0711670419987058,,,,,,,,,,,,,,,,,,,,,,,,,,,,030719_p1,001,2019_Mar_07_1015,body_behavioural,3.0.4,59.995223778089915,
6,I think we should join forces.”,2,2,,0,6,6,6,,,,,0,14,14,14,,,,,,,,,,,,,,,,,,,,,,,,,,,,,,,1,1.054859435011167,,,,,,,,,,,,,,,,,,,,,,,,,,,,030719_p1,001,2019_Mar_07_1015,body_behavioural,3.0.4,59.995223778089915,
6,The waitress came up to them and asked if they were ready to order.,3,2,,0,6,6,6,,,,,0,15,15,15,,,,,,,,,,,,,,,,,,,,,,,,,,,,,,,1,0.5542378019890748,,,,,,,,,,,,,,,,,,,,,,,,,,,,030719_p1,001,2019_Mar_07_1015,body_behavioural,3.0.4,59.995223778089915,
6,"Mr. Gordon ordered a medium-rare steak and martini, and Mr. Shelton ordered veal and a manhattan. ",3,2,,0,6,6,6,,,,,0,16,16,16,,,,,,,,,,,,,,,,,,,,,,,,,,,,,,,1,1.3048174249997828,,,,,,,,,,,,,,,,,,,,,,,,,,,,030719_p1,001,2019_Mar_07_1015,body_behavioural,3.0.4,59.995223778089915,
6,"Then Mr. Shelton continued, “Look, I’ve talked to other members of the board, and we are prepared to offer $600 million to buy your company. ",3,2,,0,6,6,6,,,,,0,17,17,17,,,,,,,,,,,,,,,,,,,,,,,,,,,,,,,1,4.038154462003149,,,,,,,,,,,,,,,,,,,,,,,,,,,,030719_p1,001,2019_Mar_07_1015,body_behavioural,3.0.4,59.995223778089915,
6,"We'd keep on all of your current employees, and you would join as the director of your company branch.” ",3,2,,0,6,6,6,,,,,0,18,18,18,,,,,,,,,,,,,,,,,,,,,,,,,,,,,,,1,1.6878487250069156,,,,,,,,,,,,,,,,,,,,,,,,,,,,030719_p1,001,2019_Mar_07_1015,body_behavioural,3.0.4,59.995223778089915,
6,Mr. Gordon sat looking at Mr. Shelton for a few moments considering his response. ,3,2,,0,6,6,6,,,,,0,19,19,19,,,,,,,,,,,,,,,,,,,,,,,,,,,,,,,1,0.5205180299963104,,,,,,,,,,,,,,,,,,,,,,,,,,,,030719_p1,001,2019_Mar_07_1015,body_behavioural,3.0.4,59.995223778089915,
6,He looked at Mr. Shelton skeptically.,3,2,,0,6,6,6,,,,,0,20,20,20,,,,,,,,,,,,,,,,,,,,,,,,,,,,,,,1,0.5883819700102322,,,,,,,,,,,,,,,,,,,,,,,,,,,,030719_p1,001,2019_Mar_07_1015,body_behavioural,3.0.4,59.995223778089915,
6,"He said, “Mr. Shelton, I think that you make a compelling offer, but there are definitely some disadvantages to attaching our small, streamlined productions to a large company like yours.",3,3,,0,6,6,6,,,,,0,21,21,21,,,,,,,,,,,,,,,,,,,,,,,,,,,,,,,1,2.286443966004299,,,,,,,,,,,,,,,,,,,,,,,,,,,,030719_p1,001,2019_Mar_07_1015,body_behavioural,3.0.4,59.995223778089915,
6,"We operate in a very different way than a large company, and the kind of administrative complexity that makes the scale of your productions possible would suffocate our business.",3,3,,0,6,6,6,,,,,0,22,22,22,,,,,,,,,,,,,,,,,,,,,,,,,,,,,,,1,2.7219945960096084,,,,,,,,,,,,,,,,,,,,,,,,,,,,030719_p1,001,2019_Mar_07_1015,body_behavioural,3.0.4,59.995223778089915,
6,"With our product, scaling-up doesn’t necessarily make sense.” ",3,3,,0,6,6,6,,,,,0,23,23,23,,,,,,,,,,,,,,,,,,,,,,,,,,,,,,,1,1.9719872059940826,,,,,,,,,,,,,,,,,,,,,,,,,,,,030719_p1,001,2019_Mar_07_1015,body_behavioural,3.0.4,59.995223778089915,
6,Mr. Shelton had expected this response and had come prepared.,3,3,,0,6,6,6,,,,,0,24,24,24,,,,,,,,,,,,,,,,,,,,,,,,,,,,,,,1,1.3219942819996504,,,,,,,,,,,,,,,,,,,,,,,,,,,,030719_p1,001,2019_Mar_07_1015,body_behavioural,3.0.4,59.995223778089915,
6,He began laying out the details of how he had handled similar acquisitions successfully in the past.,3,3,,0,6,6,6,,,,,0,25,25,25,,,,,,,,,,,,,,,,,,,,,,,,,,,,,,,1,3.5383450469962554,,,,,,,,,,,,,,,,,,,,,,,,,,,,030719_p1,001,2019_Mar_07_1015,body_behavioural,3.0.4,59.995223778089915,
6,"Mr. Gordon was impressed, and they went back and forth hashing out what the company configuration would look like post-merger. ",3,3,,0,6,6,6,,,,,0,26,26,26,,,,,,,,,,,,,,,,,,,,,,,,,,,,,,,1,3.5884151549980743,,,,,,,,,,,,,,,,,,,,,,,,,,,,030719_p1,001,2019_Mar_07_1015,body_behavioural,3.0.4,59.995223778089915,
6,"The waitress brought the food out, interrupting their animated conversation.",4,3,,0,6,6,6,,,,,0,27,27,27,,,,,,,,,,,,,,,,,,,,,,,,,,,,,,,9,0.6378768200083869,,,,,,,,,,,,,,,,,,,,,,,,,,,,030719_p1,001,2019_Mar_07_1015,body_behavioural,3.0.4,59.995223778089915,
6,“Oh this looks so good!” Mr. Gordon said. ,4,3,,0,6,6,6,,,,,0,28,28,28,,,,,,,,,,,,,,,,,,,,,,,,,,,,,,,1,1.3007838549965527,,,,,,,,,,,,,,,,,,,,,,,,,,,,030719_p1,001,2019_Mar_07_1015,body_behavioural,3.0.4,59.995223778089915,
6, “Can I get you anything else?” the waitress asked.,4,3,,0,6,6,6,,,,,0,29,29,29,,,,,,,,,,,,,,,,,,,,,,,,,,,,,,,1,0.6030291719944216,,,,,,,,,,,,,,,,,,,,,,,,,,,,030719_p1,001,2019_Mar_07_1015,body_behavioural,3.0.4,59.995223778089915,
6,They declined and continued to talk.,4,3,,0,6,6,6,,,,,0,30,30,30,,,,,,,,,,,,,,,,,,,,,,,,,,,,,,,1,0.3530657549999887,,,,,,,,,,,,,,,,,,,,,,,,,,,,030719_p1,001,2019_Mar_07_1015,body_behavioural,3.0.4,59.995223778089915,
6,"The meal lived up to the reputation of the restaurant, which was known for having the best cuts of meat in the area.",4,3,,0,6,6,6,,,,,0,31,31,31,,,,,,,,,,,,,,,,,,,,,,,,,,,,,,,1,1.4863794470002176,,,,,,,,,,,,,,,,,,,,,,,,,,,,030719_p1,001,2019_Mar_07_1015,body_behavioural,3.0.4,59.995223778089915,
6,"Mr. Gordon, after taking a contemplative bite of his food, said, “Mr. Shelton, I think we have a deal. ",4,4,,0,6,6,6,,,,,0,32,32,32,,,,,,,,,,,,,,,,,,,,,,,,,,,,,,,1,2.3699004250083817,,,,,,,,,,,,,,,,,,,,,,,,,,,,030719_p1,001,2019_Mar_07_1015,body_behavioural,3.0.4,59.995223778089915,
6,"If you can guarantee that I can still have the final say in the all the work done by my team, I think this could be beneficial for both of us.",4,4,,0,6,6,6,,,,,0,33,33,33,,,,,,,,,,,,,,,,,,,,,,,,,,,,,,,1,1.3864074750017608,,,,,,,,,,,,,,,,,,,,,,,,,,,,030719_p1,001,2019_Mar_07_1015,body_behavioural,3.0.4,59.995223778089915,
6,I propose a toast to the merging of our companies.”,4,4,,0,6,6,6,,,,,0,34,34,34,,,,,,,,,,,,,,,,,,,,,,,,,,,,,,,1,0.7198716230050195,,,,,,,,,,,,,,,,,,,,,,,,,,,,030719_p1,001,2019_Mar_07_1015,body_behavioural,3.0.4,59.995223778089915,
6,Mr. Shelton grinned and lifted his martini to clink glasses.,4,4,,0,6,6,6,,,,,0,35,35,35,,,,,,,,,,,,,,,,,,,,,,,,,,,,,,,1,0.5030890020134393,,,,,,,,,,,,,,,,,,,,,,,,,,,,030719_p1,001,2019_Mar_07_1015,body_behavioural,3.0.4,59.995223778089915,
6,"He said, “Cheers to a lifelong partnership and to the growth of your company.” ",4,4,,0,6,6,6,,,,,0,36,36,36,,,,,,,,,,,,,,,,,,,,,,,,,,,,,,,1,0.5362976949982112,,,,,,,,,,,,,,,,,,,,,,,,,,,,030719_p1,001,2019_Mar_07_1015,body_behavioural,3.0.4,59.995223778089915,
6,,,,,0,6,6,6,,,,,,,,,,,,,,,,,,,,,,,,,,,,,,,,,,,,,,,,,,,,,,,,,,,,,,,,,,,,,,,,,,,,030719_p1,001,2019_Mar_07_1015,body_behavioural,3.0.4,59.995223778089915,
7,,,,,0,7,7,7,0,0,0,0,,,,,,,,,,,,,,,,,,,,,,,,,,,,,space,0.7008795120054856,space,0.519238110005972,space,0.5197776749992045,,,,,,,,,,,,,,,,,,,,,,,,,,,,,,030719_p1,001,2019_Mar_07_1015,body_behavioural,3.0.4,59.995223778089915,
7,,,,,0,7,7,7,1,0,1,0,,,,,,,,,,,,,,,,,,,,,,,,,,,,,,,,,space,0.38605555999674834,,,,,,,,,,,,,,,,,,,,,,,,,,,,,,030719_p1,001,2019_Mar_07_1015,body_behavioural,3.0.4,59.995223778089915,
7,,,,,0,7,7,7,2,0,2,0,,,,,,,,,,,,,,,,,,,,,,,,,,,,,,,,,space,0.436541679999209,,,,,,,,,,,,,,,,,,,,,,,,,,,,,,030719_p1,001,2019_Mar_07_1015,body_behavioural,3.0.4,59.995223778089915,
7,,,,,0,7,7,7,3,0,3,0,,,,,,,,,,,,,,,,,,,,,,,,,,,,,,,,,space,0.43633895499806385,,,,,,,,,,,,,,,,,,,,,,,,,,,,,,030719_p1,001,2019_Mar_07_1015,body_behavioural,3.0.4,59.995223778089915,
7,,,,,0,7,7,7,4,0,4,0,,,,,,,,,,,,,,,,,,,,,,,,,,,,,,,,,space,0.4196982180001214,,,,,,,,,,,,,,,,,,,,,,,,,,,,,,030719_p1,001,2019_Mar_07_1015,body_behavioural,3.0.4,59.995223778089915,
7,,,,,0,7,7,7,5,0,5,0,,,,,,,,,,,,,,,,,,,,,,,,,,,,,,,,,space,0.436275811996893,,,,,,,,,,,,,,,,,,,,,,,,,,,,,,030719_p1,001,2019_Mar_07_1015,body_behavioural,3.0.4,59.995223778089915,
7,,,,,0,7,7,7,6,0,6,0,,,,,,,,,,,,,,,,,,,,,,,,,,,,,,,,,space,0.386247464994085,,,,,,,,,,,,,,,,,,,,,,,,,,,,,,030719_p1,001,2019_Mar_07_1015,body_behavioural,3.0.4,59.995223778089915,
7,The grocery store was not the place Emmanuella and Liam wanted to be at the moment considering they had been fighting beforehand to the point where Emmanuella was thinking of breaking up with Liam.,1,1,,0,7,7,7,,,,,0,0,0,0,,,,,,,,,,,,,,,,,,,,,,,,,,,,,,,1,8.303144491990679,,,,,,,,,,,,,,,,,,,,,,,,,,,,030719_p1,001,2019_Mar_07_1015,body_behavioural,3.0.4,59.995223778089915,
7,"However, they had to go grocery shopping because they were hosting a dinner party for friends that evening and had no groceries. ",1,1,,0,7,7,7,,,,,0,1,1,1,,,,,,,,,,,,,,,,,,,,,,,,,,,,,,,1,3.1532003000029363,,,,,,,,,,,,,,,,,,,,,,,,,,,,030719_p1,001,2019_Mar_07_1015,body_behavioural,3.0.4,59.995223778089915,
7,The grocery store was dimly lit and had dark wood paneling for all the shelves.,1,1,,0,7,7,7,,,,,0,2,2,2,,,,,,,,,,,,,,,,,,,,,,,,,,,,,,,1,1.0197248850017786,,,,,,,,,,,,,,,,,,,,,,,,,,,,030719_p1,001,2019_Mar_07_1015,body_behavioural,3.0.4,59.995223778089915,
7,"The store specialized in organic produce and products catering to desires for high-end products, such as imported cheeses and sauces. ",1,1,,0,7,7,7,,,,,0,3,3,3,,,,,,,,,,,,,,,,,,,,,,,,,,,,,,,1,2.9866250649938593,,,,,,,,,,,,,,,,,,,,,,,,,,,,030719_p1,001,2019_Mar_07_1015,body_behavioural,3.0.4,59.995223778089915,
7,"Emmanuella felt angry as she headed immediately for the pasta section, and Liam trailed behind her. ",2,1,,0,7,7,7,,,,,0,4,4,4,,,,,,,,,,,,,,,,,,,,,,,,,,,,,,,9,2.2195114819915034,,,,,,,,,,,,,,,,,,,,,,,,,,,,030719_p1,001,2019_Mar_07_1015,body_behavioural,3.0.4,59.995223778089915,
7,Emmanuella selected a few boxes of linguine.,2,1,,0,7,7,7,,,,,0,5,5,5,,,,,,,,,,,,,,,,,,,,,,,,,,,,,,,1,0.6863750650081784,,,,,,,,,,,,,,,,,,,,,,,,,,,,030719_p1,001,2019_Mar_07_1015,body_behavioural,3.0.4,59.995223778089915,
7,"“I guess we are having pasta tonight,” Liam said.",2,1,,0,7,7,7,,,,,0,6,6,6,,,,,,,,,,,,,,,,,,,,,,,,,,,,,,,1,0.36735360699822195,,,,,,,,,,,,,,,,,,,,,,,,,,,,030719_p1,001,2019_Mar_07_1015,body_behavioural,3.0.4,59.995223778089915,
7,"Emmanuella looked back at him and said, “Well if you were going to actually help cook, I would be fine with something else.”",2,1,,0,7,7,7,,,,,0,7,7,7,,,,,,,,,,,,,,,,,,,,,,,,,,,,,,,1,1.5007543950050604,,,,,,,,,,,,,,,,,,,,,,,,,,,,030719_p1,001,2019_Mar_07_1015,body_behavioural,3.0.4,59.995223778089915,
7,"Liam sighed, and finally said, “You don’t want me to help.",2,1,,0,7,7,7,,,,,0,8,8,8,,,,,,,,,,,,,,,,,,,,,,,,,,,,,,,1,0.5363424370007124,,,,,,,,,,,,,,,,,,,,,,,,,,,,030719_p1,001,2019_Mar_07_1015,body_behavioural,3.0.4,59.995223778089915,
7,"I try to, but it seems like I always get in the way!” ",2,1,,0,7,7,7,,,,,0,9,9,9,,,,,,,,,,,,,,,,,,,,,,,,,,,,,,,1,0.7362363720021676,,,,,,,,,,,,,,,,,,,,,,,,,,,,030719_p1,001,2019_Mar_07_1015,body_behavioural,3.0.4,59.995223778089915,
7,"Emmanuella angrily threw the pasta into the cart, losing her temper.",2,1,,0,7,7,7,,,,,0,10,10,10,,,,,,,,,,,,,,,,,,,,,,,,,,,,,,,1,1.1694729500013636,,,,,,,,,,,,,,,,,,,,,,,,,,,,030719_p1,001,2019_Mar_07_1015,body_behavioural,3.0.4,59.995223778089915,
7," “Liam, you don’t even try!",2,1,,0,7,7,7,,,,,0,11,11,11,,,,,,,,,,,,,,,,,,,,,,,,,,,,,,,1,0.6340922470117221,,,,,,,,,,,,,,,,,,,,,,,,,,,,030719_p1,001,2019_Mar_07_1015,body_behavioural,3.0.4,59.995223778089915,
7,You know what?,2,1,,0,7,7,7,,,,,0,12,12,12,,,,,,,,,,,,,,,,,,,,,,,,,,,,,,,1,0.46981486699951347,,,,,,,,,,,,,,,,,,,,,,,,,,,,030719_p1,001,2019_Mar_07_1015,body_behavioural,3.0.4,59.995223778089915,
7,I don’t think I can do this anymore. ,2,2,,0,7,7,7,,,,,0,13,13,13,,,,,,,,,,,,,,,,,,,,,,,,,,,,,,,1,0.48410560499178246,,,,,,,,,,,,,,,,,,,,,,,,,,,,030719_p1,001,2019_Mar_07_1015,body_behavioural,3.0.4,59.995223778089915,
7,"I was going to wait until after this unfortunately-timed dinner party tonight to talk about this, but I might as well say it now: I don’t want to be in a relationship with you anymore.",2,2,,0,7,7,7,,,,,0,14,14,14,,,,,,,,,,,,,,,,,,,,,,,,,,,,,,,1,1.4869399050076026,,,,,,,,,,,,,,,,,,,,,,,,,,,,030719_p1,001,2019_Mar_07_1015,body_behavioural,3.0.4,59.995223778089915,
7," I’m tired of the constant fighting, and I feel like when we try to do anything fun anymore it ends up unpleasant for the stupidest reasons, and I am just past  trying to work things out.”",2,2,,0,7,7,7,,,,,0,15,15,15,,,,,,,,,,,,,,,,,,,,,,,,,,,,,,,1,1.7363694020023104,,,,,,,,,,,,,,,,,,,,,,,,,,,,030719_p1,001,2019_Mar_07_1015,body_behavioural,3.0.4,59.995223778089915,
7,"Liam refused to look at her as she picked out sauces for the pasta, and then she threw up her hands, saying, “You know what, if this party is still happening we are going to just eat pasta.”",2,2,,0,7,7,7,,,,,0,16,16,16,,,,,,,,,,,,,,,,,,,,,,,,,,,,,,,1,1.7363772069948027,,,,,,,,,,,,,,,,,,,,,,,,,,,,030719_p1,001,2019_Mar_07_1015,body_behavioural,3.0.4,59.995223778089915,
7,They headed to the checkout area where there was only one station open but it was not crowded at all.,3,2,,0,7,7,7,,,,,0,17,17,17,,,,,,,,,,,,,,,,,,,,,,,,,,,,,,,1,4.670125232994906,,,,,,,,,,,,,,,,,,,,,,,,,,,,030719_p1,001,2019_Mar_07_1015,body_behavioural,3.0.4,59.995223778089915,
7,Emmanuella sighed and got in line while Liam pretended to be interested in the magazine racks as he thought. ,3,2,,0,7,7,7,,,,,0,18,18,18,,,,,,,,,,,,,,,,,,,,,,,,,,,,,,,1,4.703609795004013,,,,,,,,,,,,,,,,,,,,,,,,,,,,030719_p1,001,2019_Mar_07_1015,body_behavioural,3.0.4,59.995223778089915,
7,"Finally he turned to her and sighed, “Yes, I was thinking the same thing - I think we could definitely be happier with other people.” ",3,3,,0,7,7,7,,,,,0,19,19,19,,,,,,,,,,,,,,,,,,,,,,,,,,,,,,,1,2.5364545670017833,,,,,,,,,,,,,,,,,,,,,,,,,,,,030719_p1,001,2019_Mar_07_1015,body_behavioural,3.0.4,59.995223778089915,
7,"As if she hadn't heard him, Emmanuella looked at their cart and said, “I'm not sure this will be enough, could you grab another box of pasta?”",3,3,,0,7,7,7,,,,,0,20,20,20,,,,,,,,,,,,,,,,,,,,,,,,,,,,,,,1,3.002711992012337,,,,,,,,,,,,,,,,,,,,,,,,,,,,030719_p1,001,2019_Mar_07_1015,body_behavioural,3.0.4,59.995223778089915,
7, Liam scoffed and walked off to quickly get it.,3,3,,0,7,7,7,,,,,0,21,21,21,,,,,,,,,,,,,,,,,,,,,,,,,,,,,,,1,2.0673212069959845,,,,,,,,,,,,,,,,,,,,,,,,,,,,030719_p1,001,2019_Mar_07_1015,body_behavioural,3.0.4,59.995223778089915,
7,"As Emmanuella waited in line, she took a moment to compose herself, deciding that there was no reason to continue making a scene in the store. ",3,3,,0,7,7,7,,,,,0,22,22,22,,,,,,,,,,,,,,,,,,,,,,,,,,,,,,,9,3.769620296996436,,,,,,,,,,,,,,,,,,,,,,,,,,,,030719_p1,001,2019_Mar_07_1015,body_behavioural,3.0.4,59.995223778089915,
7," Right when Liam came back with the pasta, the cashier started scanning their groceries.",4,3,,0,7,7,7,,,,,0,23,23,23,,,,,,,,,,,,,,,,,,,,,,,,,,,,,,,1,0.7852071539964527,,,,,,,,,,,,,,,,,,,,,,,,,,,,030719_p1,001,2019_Mar_07_1015,body_behavioural,3.0.4,59.995223778089915,
7,"The cost came to $30, and Emmanuella paid with her credit card.",4,3,,0,7,7,7,,,,,0,24,24,24,,,,,,,,,,,,,,,,,,,,,,,,,,,,,,,1,0.9205922609980917,,,,,,,,,,,,,,,,,,,,,,,,,,,,030719_p1,001,2019_Mar_07_1015,body_behavioural,3.0.4,59.995223778089915,
7,"She asked Liam politely to take the bags, and he obliged, following her to toward the exit. ",4,3,,0,7,7,7,,,,,0,25,25,25,,,,,,,,,,,,,,,,,,,,,,,,,,,,,,,1,0.95306661700306,,,,,,,,,,,,,,,,,,,,,,,,,,,,030719_p1,001,2019_Mar_07_1015,body_behavioural,3.0.4,59.995223778089915,
7,"“Liam, I think we are making the right decision.",4,4,,0,7,7,7,,,,,0,26,26,26,,,,,,,,,,,,,,,,,,,,,,,,,,,,,,,1,0.5359897669986822,,,,,,,,,,,,,,,,,,,,,,,,,,,,030719_p1,001,2019_Mar_07_1015,body_behavioural,3.0.4,59.995223778089915,
7,This is good.” ,4,4,,0,7,7,7,,,,,0,27,27,27,,,,,,,,,,,,,,,,,,,,,,,,,,,,,,,1,0.38628489700204227,,,,,,,,,,,,,,,,,,,,,,,,,,,,030719_p1,001,2019_Mar_07_1015,body_behavioural,3.0.4,59.995223778089915,
7,"“I agree,” he said, visibly relieved at the thought that they had gotten through the last fight they would ever need to have.",4,4,,0,7,7,7,,,,,0,28,28,28,,,,,,,,,,,,,,,,,,,,,,,,,,,,,,,1,3.7032369899970945,,,,,,,,,,,,,,,,,,,,,,,,,,,,030719_p1,001,2019_Mar_07_1015,body_behavioural,3.0.4,59.995223778089915,
7,"“I think we can still host this dinner tonight, as long as you're still on board,” Emmanuella said.",4,4,,0,7,7,7,,,,,0,29,29,29,,,,,,,,,,,,,,,,,,,,,,,,,,,,,,,1,0.5863804620021256,,,,,,,,,,,,,,,,,,,,,,,,,,,,030719_p1,001,2019_Mar_07_1015,body_behavioural,3.0.4,59.995223778089915,
7,"Liam nodded, “Yes, let’s just not tell anyone yet.” ",4,4,,0,7,7,7,,,,,0,30,30,30,,,,,,,,,,,,,,,,,,,,,,,,,,,,,,,1,0.7197001570020802,,,,,,,,,,,,,,,,,,,,,,,,,,,,030719_p1,001,2019_Mar_07_1015,body_behavioural,3.0.4,59.995223778089915,
7,"Emmanuella laughed, “Whoever leaks it loses their rights to the cat.”",4,4,,0,7,7,7,,,,,0,31,31,31,,,,,,,,,,,,,,,,,,,,,,,,,,,,,,,1,0.5674380720010959,,,,,,,,,,,,,,,,,,,,,,,,,,,,030719_p1,001,2019_Mar_07_1015,body_behavioural,3.0.4,59.995223778089915,
7,"Liam rolled his eyes and managed a weak chuckle, knowing the cat would be a whole other issue to sort out later.
",4,4,,0,7,7,7,,,,,0,32,32,32,,,,,,,,,,,,,,,,,,,,,,,,,,,,,,,1,1.9530679400049848,,,,,,,,,,,,,,,,,,,,,,,,,,,,030719_p1,001,2019_Mar_07_1015,body_behavioural,3.0.4,59.995223778089915,
7,,,,,0,7,7,7,,,,,,,,,,,,,,,,,,,,,,,,,,,,,,,,,,,,,,,,,,,,,,,,,,,,,,,,,,,,,,,,,,,,030719_p1,001,2019_Mar_07_1015,body_behavioural,3.0.4,59.995223778089915,
,,,,,,,,,,,,,,,,,,,,,,,,,,,,,,,,,,,,,,,,,,,,,,,,,799.0883170300076,space,1.0029958649975015,,,,,,,,,,,,,,,,,,,,,,,,,030719_p1,001,2019_Mar_07_1015,body_behavioural,3.0.4,59.995223778089915,
,,,,The next task in the experiment is to recall each story to the best of your ability.,,,,,,,,,,,,,0,0,0,0,,,,,,,,,,,,,,,,,,,,,,,,,,,,,,,,space,1.350757659994997,,,,,,,,,,,,,,,,,,,,,,,030719_p1,001,2019_Mar_07_1015,body_behavioural,3.0.4,59.995223778089915,
,,,,"You will be presented with the story title, names, the images, and a blank text box for each story.",,,,,,,,,,,,,0,1,1,1,,,,,,,,,,,,,,,,,,,,,,,,,,,,,,,,space,0.7029532200103858,,,,,,,,,,,,,,,,,,,,,,,030719_p1,001,2019_Mar_07_1015,body_behavioural,3.0.4,59.995223778089915,
,,,,Describe the story with as many details as you can remember in the space provided. ,,,,,,,,,,,,,0,2,2,2,,,,,,,,,,,,,,,,,,,,,,,,,,,,,,,,space,0.7840701270033605,,,,,,,,,,,,,,,,,,,,,,,030719_p1,001,2019_Mar_07_1015,body_behavioural,3.0.4,59.995223778089915,
,,,,"When you are finished recalling one story, to move onto the next one hit ‘return’. ",,,,,,,,,,,,,0,3,3,3,,,,,,,,,,,,,,,,,,,,,,,,,,,,,,,,space,0.7196755870099878,,,,,,,,,,,,,,,,,,,,,,,030719_p1,001,2019_Mar_07_1015,body_behavioural,3.0.4,59.995223778089915,
,,,,There is a 5 minute time limit to make your response. ,,,,,,,,,,,,,0,4,4,4,,,,,,,,,,,,,,,,,,,,,,,,,,,,,,,,space,0.7031234400055837,,,,,,,,,,,,,,,,,,,,,,,030719_p1,001,2019_Mar_07_1015,body_behavioural,3.0.4,59.995223778089915,
0,,,,,,,,,,,,,,,,,,,,,0,0,0,0,,,,,,,,,,,,,,,,,,,,,,,,,,,,,,space,0.5863975599932019,Jeff and william are business men that meet in an airpot while waiting for their flight. one of them sells wine and the other owns a vineyard. they go through the airport security together and discuss a possible deal. they negotiate and ultimately settle on a $400 for 600 deal.,,,,,,,,,,,,,,,,,,,,030719_p1,001,2019_Mar_07_1015,body_behavioural,3.0.4,59.995223778089915,
1,,,,,,,,,,,,,,,,,,,,,0,1,1,1,,,,,,,,,,,,,,,,,,,,,,,,,,,,,,space,1.4532508600095753,Aaron and lana are in lecture together. they are learning about elements and the periodic table in class. the professor knows aaron is going to propose and has lana demonstrate something about sodium. aaron proposes with a simple right and lana says yes. they are both very happy and class ends early.,,,,,,,,,,,,,,,,,,,,030719_p1,001,2019_Mar_07_1015,body_behavioural,3.0.4,59.995223778089915,
2,,,,,,,,,,,,,,,,,,,,,0,2,2,2,,,,,,,,,,,,,,,,,,,,,,,,,,,,,,space,0.9364330970129231,Teresa and james are at a restaurant and teresa bumps into a door because she is on her phone. the waitress notices the two of them are alone and seat them together. james tries to start conversation and teresa asks if he's ever been bitten by a scorpion. she has and now bumping into things seem much less significant. they strike up conversation and james proposes another date.,,,,,,,,,,,,,,,,,,,,030719_p1,001,2019_Mar_07_1015,body_behavioural,3.0.4,59.995223778089915,
3,,,,,,,,,,,,,,,,,,,,,0,3,3,3,,,,,,,,,,,,,,,,,,,,,,,,,,,,,,space,1.2692731179995462,Anna and david are in an airport and anna almost gets hit by a cart because she is tying her shoe. david saves anna and asks her on a date upon both of their returns back.,,,,,,,,,,,,,,,,,,,,030719_p1,001,2019_Mar_07_1015,body_behavioural,3.0.4,59.995223778089915,
4,,,,,,,,,,,,,,,,,,,,,0,4,4,4,,,,,,,,,,,,,,,,,,,,,,,,,,,,,,space,1.353058749999036,Maria and henry are both together and semester is ending. maria wants to break up with david because she doesn't have faith long distance will work. she does so in a lecture with henry. henry is shocked and begs to stay together but ultimately they break up and leave.,,,,,,,,,,,,,,,,,,,,030719_p1,001,2019_Mar_07_1015,body_behavioural,3.0.4,59.995223778089915,
5,,,,,,,,,,,,,,,,,,,,,0,5,5,5,,,,,,,,,,,,,,,,,,,,,,,,,,,,,,space,0.417847944991081,Alex proposes to chloe inside of a grocery store when they are buying cranberry sauce. chlor says yes.,,,,,,,,,,,,,,,,,,,,030719_p1,001,2019_Mar_07_1015,body_behavioural,3.0.4,59.995223778089915,
6,,,,,,,,,,,,,,,,,,,,,0,6,6,6,,,,,,,,,,,,,,,,,,,,,,,,,,,,,,space,1.1673862220050069,"Shelton and gordon meet for dinner to discuss merging their two businesses. one of them is reluctant to because they do not believe that upscaling will be a good decision. the other one convinces him that with the help of his company, growing internationally will be extremely easier and that merging is a good idea. they ultimately make an agreement. they both eat meat with wine.",,,,,,,,,,,,,,,,,,,,030719_p1,001,2019_Mar_07_1015,body_behavioural,3.0.4,59.995223778089915,
7,,,,,,,,,,,,,,,,,,,,,0,7,7,7,,,,,,,,,,,,,,,,,,,,,,,,,,,,,,space,0.6696565430029295,"Emmanuella and liam go grocery shopping for a dinner party later that day. they fight in the aisles and while emmanuella had decided until after the party to break up, they break up right then. both of them decide its for the best and the groceries come out to $30.",,,,,,,,,,,,,,,,,,,,030719_p1,001,2019_Mar_07_1015,body_behavioural,3.0.4,59.995223778089915,
,,,,,,,,,,,,,,,,,,,,,,,,,,,,,,,,,,,,,,,,,,,,,,,,,,,,,,,,,1524.6184842399962,space,0.4696393499907572,,,,,,,,,,,,,,,,,030719_p1,001,2019_Mar_07_1015,body_behavioural,3.0.4,59.995223778089915,
,,,,The next part of the task is to answer 8 questions about each story.,,,,,,,,,,,,,,,,,,,,,0,0,0,0,,,,,,,,,,,,,,,,,,,,,,,,,,,,,,,,space,0.6693760600028327,,,,,,,,,,,,,,,030719_p1,001,2019_Mar_07_1015,body_behavioural,3.0.4,59.995223778089915,
,,,,Some of the questions are not related to the perspective you were asked to assume.,,,,,,,,,,,,,,,,,,,,,0,1,1,1,,,,,,,,,,,,,,,,,,,,,,,,,,,,,,,,space,0.9173918519954896,,,,,,,,,,,,,,,030719_p1,001,2019_Mar_07_1015,body_behavioural,3.0.4,59.995223778089915,
,,,,"We realize that we did not tell you to think of these questions during the story, but do your best to answer them.",,,,,,,,,,,,,,,,,,,,,0,2,2,2,,,,,,,,,,,,,,,,,,,,,,,,,,,,,,,,space,2.136373088011169,,,,,,,,,,,,,,,030719_p1,001,2019_Mar_07_1015,body_behavioural,3.0.4,59.995223778089915,
,,,,"When you have finished typing your answer, hit ‘return’ to submit your answer and move onto the next question. ",,,,,,,,,,,,,,,,,,,,,0,3,3,3,,,,,,,,,,,,,,,,,,,,,,,,,,,,,,,,space,0.8696664820017759,,,,,,,,,,,,,,,030719_p1,001,2019_Mar_07_1015,body_behavioural,3.0.4,59.995223778089915,
0,,,,,,,,,,,,,,,,,,,,,,,,,,,,,0,0,0,0,,,,,,,,,,,,,,,,,,,,,,,,New retailer,,,,,,space,0.5197596450016135,2 hours,non-primed first,Go through metal detector,Good,Assigned seating,Wine,400,Agreement,New retailer,,,,030719_p1,001,2019_Mar_07_1015,body_behavioural,3.0.4,59.995223778089915,
1,,,,,,,,,,,,,,,,,,,,,,,,,,,,,0,1,1,1,,,,,,,,,,,,,,,,,,,,,,,,Classmates,,,,,,space,1.1529301200062037,Big with dark wood panels,primed first,"Science, periodic table",Na,Two weeks,Nervous,Simple,Professor,Classmates,,,,030719_p1,001,2019_Mar_07_1015,body_behavioural,3.0.4,59.995223778089915,
2,,,,,,,,,,,,,,,,,,,,,,,,,,,,,0,2,2,2,,,,,,,,,,,,,,,,,,,,,,,,It is salty not sweet,,,,,,space,0.9502999450050993,James because teresa hits the door,primed first,They are seated together and james talks first,"James, a dinner",Don't know,Log as wooden bench,Breakfast foods,Pancakes ,It is salty not sweet,,,,030719_p1,001,2019_Mar_07_1015,body_behavioural,3.0.4,59.995223778089915,
3,,,,,,,,,,,,,,,,,,,,,,,,,,,,,0,3,3,3,,,,,,,,,,,,,,,,,,,,,,,,In their assigned seats,,,,,,space,1.019430767002632,David notices anna,non-primed first,David saves anna from getting trampled by a cart,"David does, getting dinner when they  get back",Anna is going to be late to her flight,David 3 hours and anna 1 hour,Take off shoes,Anna is rushed david is not,In their assigned seats,,,,030719_p1,001,2019_Mar_07_1015,body_behavioural,3.0.4,59.995223778089915,
4,,,,,,,,,,,,,,,,,,,,,,,,,,,,,0,4,4,4,,,,,,,,,,,,,,,,,,,,,,,,2 weeks,,,,,,space,0.8863482099986868,Maria is dreading it,primed first,Because she can't do long distance,Henry is shocked and upset,No,Big spacious and dim,Ancient history,I don't know,2 weeks,,,,030719_p1,001,2019_Mar_07_1015,body_behavioural,3.0.4,59.995223778089915,
5,,,,,,,,,,,,,,,,,,,,,,,,,,,,,0,5,5,5,,,,,,,,,,,,,,,,,,,,,,,,Cash  4$,,,,,,space,1.352776902000187,Nervous very,primed first,Don't know,His friends,"His friends, cashier","Fancy, lots of cheese",Cranberry sauce,Don't know,Cash  4$,,,,030719_p1,001,2019_Mar_07_1015,body_behavioural,3.0.4,59.995223778089915,
6,,,,,,,,,,,,,,,,,,,,,,,,,,,,,0,6,6,6,,,,,,,,,,,,,,,,,,,,,,,,They like it,,,,,,space,0.9011491579876747,Don;'t know,non-primed first,"A lot , merging",Hesitation and reluctance,Ultimate agreement to merge,Very fancing with wood paneling,Upscale dining,Veal and steak,They like it,,,,030719_p1,001,2019_Mar_07_1015,body_behavioural,3.0.4,59.995223778089915,
7,,,,,,,,,,,,,,,,,,,,,,,,,,,,,0,7,7,7,,,,,,,,,,,,,,,,,,,,,,,,Yes,,,,,,space,0.8699654049996752,Don't recall,primed first,Linguine,Not long,30,Angry ,Because they keep fighting,Relief that they won't fight anymore,Yes,,,,030719_p1,001,2019_Mar_07_1015,body_behavioural,3.0.4,59.995223778089915,
,,,,,,,,,,,,,,,,,,,,,,,,,,,,,,,,,,,,,,,,,,,,,,,,,,,,,,,,,,,,,,,,,,,,,,,,,1971.7986851449969,space,1.034097023002687,030719_p1,001,2019_Mar_07_1015,body_behavioural,3.0.4,59.995223778089915,
,,,,,,,,,,,,,,,,,,,,,,,,,,,,,,,,,0,0,0,0,,,,,,,,,,,,,,,,,,,,,,,,,,,,,,,,,,,,,,,,030719_p1,001,2019_Mar_07_1015,body_behavioural,3.0.4,59.995223778089915,
,,,,,,,,,,,,,,,,,,,,,,,,,,,,,,,,,1,0,1,0,,,,,,,,,,,,,,,,,,,,,,,,,,,,,,,,,,,,,,,,030719_p1,001,2019_Mar_07_1015,body_behavioural,3.0.4,59.995223778089915,
,,,,,,,,,,,,,,,,,,,,,,,,,,,,,,,,,2,0,2,0,,,,,,,,,,,,,,,,,,,,,,,,,,,,,,,,,,,,,,,,030719_p1,001,2019_Mar_07_1015,body_behavioural,3.0.4,59.995223778089915,
,,,,,,,,,,,,,,,,,,,,,,,,,,,,,,,,,3,0,3,0,,,,,,,,,,,,,,,,,,,,,,,,,,,,,,,,,,,,,,,,030719_p1,001,2019_Mar_07_1015,body_behavioural,3.0.4,59.995223778089915,
,,,,,,,,,,,,,,,,,,,,,,,,,,,,,,,,,4,0,4,0,,,,,,,,,,,,,,,,,,,,,,,,,,,,,,,,,,,,,,,,030719_p1,001,2019_Mar_07_1015,body_behavioural,3.0.4,59.995223778089915,
