count,storyText,locationEvent,socialEvent,locationEventSize,socialEventSize,instructText,trials.thisRepN,trials.thisTrialN,trials.thisN,trials.thisIndex,trials_7.thisRepN,trials_7.thisTrialN,trials_7.thisN,trials_7.thisIndex,trials_2.thisRepN,trials_2.thisTrialN,trials_2.thisN,trials_2.thisIndex,trials_3.thisRepN,trials_3.thisTrialN,trials_3.thisN,trials_3.thisIndex,trials_4.thisRepN,trials_4.thisTrialN,trials_4.thisN,trials_4.thisIndex,trials_5.thisRepN,trials_5.thisTrialN,trials_5.thisN,trials_5.thisIndex,trials_6.thisRepN,trials_6.thisTrialN,trials_6.thisN,trials_6.thisIndex,trials_8.thisRepN,trials_8.thisTrialN,trials_8.thisN,trials_8.thisIndex,order of stories,order of perspectives,key_resp_8.keys,key_resp_8.rt,key_resp_5.keys,key_resp_5.rt,key_resp_7.keys,key_resp_7.rt,story_presses.keys,story_presses.rt,story time,key_resp_6.keys,key_resp_6.rt,key_resp_2.keys,key_resp_2.rt,key_resp_10.keys,key_resp_10.rt,recall,recall time,key_resp_12.keys,key_resp_12.rt,key_resp_3.keys,key_resp_3.rt,key_resp_11.keys,key_resp_11.rt,question1_answer,order of question,question2_answer,question3_answer,question4_answer,question5_answer,question6_answer,question7_answer,question8_answer,questions time,key_resp_13.keys,key_resp_13.rt,participant,session,date,expName,psychopyVersion,frameRate,
0,,,,,,,0,0,0,0,0,0,0,0,,,,,,,,,,,,,,,,,,,,,,,,,[12 44 23 14 21 42 31 33],"['Social' 'Social' 'Location' 'Location' 'Social' 'Location' 'Location'
 'Social']",space,22.67285749700386,space,1.637139358004788,space,2.485582815017551,,,,,,,,,,,,,,,,,,,,,,,,,,,,,,031219_p1,001,2019_Mar_12_1027,body_behavioural,3.0.4,59.87686203768379,
0,,,,,,,0,0,0,0,1,0,1,0,,,,,,,,,,,,,,,,,,,,,,,,,,,,,,,space,0.8037343549949583,,,,,,,,,,,,,,,,,,,,,,,,,,,,,,031219_p1,001,2019_Mar_12_1027,body_behavioural,3.0.4,59.87686203768379,
0,"It didn’t help the situation that Calvin and Jessie were running late to the airport, since Jessie had already been fuming at Calvin and preparing to end things with him.",1,1,,,,0,0,0,0,,,,,0,0,0,0,,,,,,,,,,,,,,,,,,,,,,,,,,,,,1,51.77277774200775,,,,,,,,,,,,,,,,,,,,,,,,,,,,031219_p1,001,2019_Mar_12_1027,body_behavioural,3.0.4,59.87686203768379,
0,"Upon arriving, they had only 45 minutes until their international flight would depart from Jamaica for the US.",1,1,,,,0,0,0,0,,,,,0,1,1,1,,,,,,,,,,,,,,,,,,,,,,,,,,,,,1,12.120279866998317,,,,,,,,,,,,,,,,,,,,,,,,,,,,031219_p1,001,2019_Mar_12_1027,body_behavioural,3.0.4,59.87686203768379,
0,It had been a tough vacation for them.,1,1,,,,0,0,0,0,,,,,0,2,2,2,,,,,,,,,,,,,,,,,,,,,,,,,,,,,9,6.051731015002588,,,,,,,,,,,,,,,,,,,,,,,,,,,,031219_p1,001,2019_Mar_12_1027,body_behavioural,3.0.4,59.87686203768379,
0,"Jessie had really had it with Calvin’s constant ramblings about the same excruciatingly boring golfing and work stories, which he insisted on repeating to her regardless of how little interest she showed.",1,1,,,,0,0,0,0,,,,,0,3,3,3,,,,,,,,,,,,,,,,,,,,,,,,,,,,,9,27.805184160009958,,,,,,,,,,,,,,,,,,,,,,,,,,,,031219_p1,001,2019_Mar_12_1027,body_behavioural,3.0.4,59.87686203768379,
0,"Calvin knew that Jessie was upset, but wasn't sure what to do besides attempting to carry on as normal and tell stories that took up the silence. ",1,1,,,,0,0,0,0,,,,,0,4,4,4,,,,,,,,,,,,,,,,,,,,,,,,,,,,,1,10.318367970001418,,,,,,,,,,,,,,,,,,,,,,,,,,,,031219_p1,001,2019_Mar_12_1027,body_behavioural,3.0.4,59.87686203768379,
0,"The security line was luckily very short, and once the online boarding passes were scanned they were ushered quickly through the metal detector, not having to take off their shoes or remove the liquids from their bags.",2,1,,,,0,0,0,0,,,,,0,5,5,5,,,,,,,,,,,,,,,,,,,,,,,,,,,,,9,36.27101724999375,,,,,,,,,,,,,,,,,,,,,,,,,,,,031219_p1,001,2019_Mar_12_1027,body_behavioural,3.0.4,59.87686203768379,
0,"“The infrastructure of this airport is really quite poor," said Calvin as they waited for their bags to emerge from the x-ray machine.",2,1,,,,0,0,0,0,,,,,0,6,6,6,,,,,,,,,,,,,,,,,,,,,,,,,,,,,1,8.186017482017633,,,,,,,,,,,,,,,,,,,,,,,,,,,,031219_p1,001,2019_Mar_12_1027,body_behavioural,3.0.4,59.87686203768379,
0,“I really could've hidden something in my shoes quite easily.” ,2,1,,,,0,0,0,0,,,,,0,7,7,7,,,,,,,,,,,,,,,,,,,,,,,,,,,,,1,7.035957902990049,,,,,,,,,,,,,,,,,,,,,,,,,,,,031219_p1,001,2019_Mar_12_1027,body_behavioural,3.0.4,59.87686203768379,
0,"Jessie, exasperated at his need to broadcast his every inner thought, scowled at the conveyor belt.",2,1,,,,0,0,0,0,,,,,0,8,8,8,,,,,,,,,,,,,,,,,,,,,,,,,,,,,1,9.77020624501165,,,,,,,,,,,,,,,,,,,,,,,,,,,,031219_p1,001,2019_Mar_12_1027,body_behavioural,3.0.4,59.87686203768379,
0,"“What?”, he asked.",2,1,,,,0,0,0,0,,,,,0,9,9,9,,,,,,,,,,,,,,,,,,,,,,,,,,,,,1,3.0190187319822144,,,,,,,,,,,,,,,,,,,,,,,,,,,,031219_p1,001,2019_Mar_12_1027,body_behavioural,3.0.4,59.87686203768379,
0,She balled up her fists and turned to face him.,2,1,,,,0,0,0,0,,,,,0,10,10,10,,,,,,,,,,,,,,,,,,,,,,,,,,,,,1,4.170515739999246,,,,,,,,,,,,,,,,,,,,,,,,,,,,031219_p1,001,2019_Mar_12_1027,body_behavioural,3.0.4,59.87686203768379,
0,"“Calvin, I really don’t think I can do this anymore.",2,2,,,,0,0,0,0,,,,,0,11,11,11,,,,,,,,,,,,,,,,,,,,,,,,,,,,,1,2.818159062007908,,,,,,,,,,,,,,,,,,,,,,,,,,,,031219_p1,001,2019_Mar_12_1027,body_behavioural,3.0.4,59.87686203768379,
0,I think it’s best that once we get to the States we part ways for good.” ,2,2,,,,0,0,0,0,,,,,0,12,12,12,,,,,,,,,,,,,,,,,,,,,,,,,,,,,1,5.91977919000783,,,,,,,,,,,,,,,,,,,,,,,,,,,,031219_p1,001,2019_Mar_12_1027,body_behavioural,3.0.4,59.87686203768379,
0,Calvin said nothing as he grabbed his bag and quickly walked away.,2,2,,,,0,0,0,0,,,,,0,13,13,13,,,,,,,,,,,,,,,,,,,,,,,,,,,,,1,1.4529599030211102,,,,,,,,,,,,,,,,,,,,,,,,,,,,031219_p1,001,2019_Mar_12_1027,body_behavioural,3.0.4,59.87686203768379,
0,"Jessie trailed behind him as they made their way quickly toward their gate, shouting at his back in hopes of getting a response.",3,2,,,,0,0,0,0,,,,,0,14,14,14,,,,,,,,,,,,,,,,,,,,,,,,,,,,,1,5.053859302017372,,,,,,,,,,,,,,,,,,,,,,,,,,,,031219_p1,001,2019_Mar_12_1027,body_behavioural,3.0.4,59.87686203768379,
0,“So now you have nothing to say?,3,2,,,,0,0,0,0,,,,,0,15,15,15,,,,,,,,,,,,,,,,,,,,,,,,,,,,,1,1.099656269972911,,,,,,,,,,,,,,,,,,,,,,,,,,,,031219_p1,001,2019_Mar_12_1027,body_behavioural,3.0.4,59.87686203768379,
0,"Every time we talk, you are just looking for a way to steer the conversation back into your stories.”",3,2,,,,0,0,0,0,,,,,0,16,16,16,,,,,,,,,,,,,,,,,,,,,,,,,,,,,1,6.436709539993899,,,,,,,,,,,,,,,,,,,,,,,,,,,,031219_p1,001,2019_Mar_12_1027,body_behavioural,3.0.4,59.87686203768379,
0,"Calvin didn't slow his pace, gritting his teeth and staring straight ahead. ",3,2,,,,0,0,0,0,,,,,0,17,17,17,,,,,,,,,,,,,,,,,,,,,,,,,,,,,1,2.7026126129785553,,,,,,,,,,,,,,,,,,,,,,,,,,,,031219_p1,001,2019_Mar_12_1027,body_behavioural,3.0.4,59.87686203768379,
0,He was very frustrated that he had been trying to appease Jessie this whole time and this was how she responded. ,3,2,,,,0,0,0,0,,,,,0,18,18,18,,,,,,,,,,,,,,,,,,,,,,,,,,,,,1,3.9174112899927422,,,,,,,,,,,,,,,,,,,,,,,,,,,,031219_p1,001,2019_Mar_12_1027,body_behavioural,3.0.4,59.87686203768379,
0,The silence was punctuated only by the rapid rhythmic clacking of their suitcase wheels over the tile floor as they continued power-walking through the terminal. ,3,2,,,,0,0,0,0,,,,,0,19,19,19,,,,,,,,,,,,,,,,,,,,,,,,,,,,,1,8.286859387008008,,,,,,,,,,,,,,,,,,,,,,,,,,,,031219_p1,001,2019_Mar_12_1027,body_behavioural,3.0.4,59.87686203768379,
0,"“Well?” Jessie said, and Calvin finally turned to her.",3,2,,,,0,0,0,0,,,,,0,20,20,20,,,,,,,,,,,,,,,,,,,,,,,,,,,,,1,1.4686367569956928,,,,,,,,,,,,,,,,,,,,,,,,,,,,031219_p1,001,2019_Mar_12_1027,body_behavioural,3.0.4,59.87686203768379,
0,"“Well, Jessie, this makes perfect sense. ",3,3,,,,0,0,0,0,,,,,0,21,21,21,,,,,,,,,,,,,,,,,,,,,,,,,,,,,1,2.3353796000010334,,,,,,,,,,,,,,,,,,,,,,,,,,,,031219_p1,001,2019_Mar_12_1027,body_behavioural,3.0.4,59.87686203768379,
0,"If you feel this way, then I don’t want to keep boring you, and I agree, let’s part ways once we make it back.",3,3,,,,0,0,0,0,,,,,0,22,22,22,,,,,,,,,,,,,,,,,,,,,,,,,,,,,1,3.3690075780032203,,,,,,,,,,,,,,,,,,,,,,,,,,,,031219_p1,001,2019_Mar_12_1027,body_behavioural,3.0.4,59.87686203768379,
0,You should’ve spoken up about my apparent intolerability before you decided to plan this vacation.”,3,3,,,,0,0,0,0,,,,,0,23,23,23,,,,,,,,,,,,,,,,,,,,,,,,,,,,,1,4.317039804998785,,,,,,,,,,,,,,,,,,,,,,,,,,,,031219_p1,001,2019_Mar_12_1027,body_behavioural,3.0.4,59.87686203768379,
0,"He was clearly hurt, but thought it was pointless to argue. ",3,3,,,,0,0,0,0,,,,,0,24,24,24,,,,,,,,,,,,,,,,,,,,,,,,,,,,,1,1.953161142009776,,,,,,,,,,,,,,,,,,,,,,,,,,,,031219_p1,001,2019_Mar_12_1027,body_behavioural,3.0.4,59.87686203768379,
0,"They finally made it to the gate, just as they heard the final call for passengers boarding their flight.",3,3,,,,0,0,0,0,,,,,0,25,25,25,,,,,,,,,,,,,,,,,,,,,,,,,,,,,1,3.687340483011212,,,,,,,,,,,,,,,,,,,,,,,,,,,,031219_p1,001,2019_Mar_12_1027,body_behavioural,3.0.4,59.87686203768379,
0,"They scanned their tickets, and the annoyed flight attendant shooed them onto the jet bridge and then closed the door behind them.",4,3,,,,0,0,0,0,,,,,0,26,26,26,,,,,,,,,,,,,,,,,,,,,,,,,,,,,1,4.61979510798119,,,,,,,,,,,,,,,,,,,,,,,,,,,,031219_p1,001,2019_Mar_12_1027,body_behavioural,3.0.4,59.87686203768379,
0,"Luckily, they had forgotten to arrange seats next to each other on the flight back.",4,3,,,,0,0,0,0,,,,,0,27,27,27,,,,,,,,,,,,,,,,,,,,,,,,,,,,,1,2.2359030849765986,,,,,,,,,,,,,,,,,,,,,,,,,,,,031219_p1,001,2019_Mar_12_1027,body_behavioural,3.0.4,59.87686203768379,
0,"They both had first-class tickets, but Jessie was headed for seat 1B while Calvin's seat was 4F. ",4,3,,,,0,0,0,0,,,,,0,28,28,28,,,,,,,,,,,,,,,,,,,,,,,,,,,,,1,6.719148497009883,,,,,,,,,,,,,,,,,,,,,,,,,,,,031219_p1,001,2019_Mar_12_1027,body_behavioural,3.0.4,59.87686203768379,
0,"Before Jessie sat down, she took a deep breath and then awkwardly shook Calvin’s hand, mumbling, “Well, have a nice flight.” ",4,4,,,,0,0,0,0,,,,,0,29,29,29,,,,,,,,,,,,,,,,,,,,,,,,,,,,,1,4.103548798011616,,,,,,,,,,,,,,,,,,,,,,,,,,,,031219_p1,001,2019_Mar_12_1027,body_behavioural,3.0.4,59.87686203768379,
0,He laughed in disbelief and walked to his window seat three rows back to get ready for takeoff.,4,4,,,,0,0,0,0,,,,,0,30,30,30,,,,,,,,,,,,,,,,,,,,,,,,,,,,,1,6.469239167985506,,,,,,,,,,,,,,,,,,,,,,,,,,,,031219_p1,001,2019_Mar_12_1027,body_behavioural,3.0.4,59.87686203768379,
0,Both were upset but glad that they would have this flight to mull things over and recenter. ,4,4,,,,0,0,0,0,,,,,0,31,31,31,,,,,,,,,,,,,,,,,,,,,,,,,,,,,1,4.435213977005333,,,,,,,,,,,,,,,,,,,,,,,,,,,,031219_p1,001,2019_Mar_12_1027,body_behavioural,3.0.4,59.87686203768379,
0,,,,,,,0,0,0,0,,,,,,,,,,,,,,,,,,,,,,,,,,,,,,,,,,,,,,,,,,,,,,,,,,,,,,,,,,,,,,,,,,031219_p1,001,2019_Mar_12_1027,body_behavioural,3.0.4,59.87686203768379,
1,,,,,,,0,1,1,1,0,0,0,0,,,,,,,,,,,,,,,,,,,,,,,,,,,space,2.651835883007152,space,1.2369071650027763,space,0.9851614849758334,,,,,,,,,,,,,,,,,,,,,,,,,,,,,,031219_p1,001,2019_Mar_12_1027,body_behavioural,3.0.4,59.87686203768379,
1,,,,,,,0,1,1,1,1,0,1,0,,,,,,,,,,,,,,,,,,,,,,,,,,,,,,,space,1.152770424989285,,,,,,,,,,,,,,,,,,,,,,,,,,,,,,031219_p1,001,2019_Mar_12_1027,body_behavioural,3.0.4,59.87686203768379,
1,"Leon and  Ariana hurried into the classroom at the same time, and Leon did a double-take when he saw her. ",1,1,,,,0,1,1,1,,,,,0,0,0,0,,,,,,,,,,,,,,,,,,,,,,,,,,,,,9,14.420138557994505,,,,,,,,,,,,,,,,,,,,,,,,,,,,031219_p1,001,2019_Mar_12_1027,body_behavioural,3.0.4,59.87686203768379,
1,"This was his first day after transferring to this university, and he had assumed that he wouldn’t know anyone on campus, but he couldn't shake the nagging feeling  that he had seen her somewhere before. ",1,1,,,,0,1,1,1,,,,,0,1,1,1,,,,,,,,,,,,,,,,,,,,,,,,,,,,,1,10.85453295998741,,,,,,,,,,,,,,,,,,,,,,,,,,,,031219_p1,001,2019_Mar_12_1027,body_behavioural,3.0.4,59.87686203768379,
1,"They were both a bit late, so they quickly slid into seats next to each other in the back of the small classroom.",1,1,,,,0,1,1,1,,,,,0,2,2,2,,,,,,,,,,,,,,,,,,,,,,,,,,,,,1,8.053238984983182,,,,,,,,,,,,,,,,,,,,,,,,,,,,031219_p1,001,2019_Mar_12_1027,body_behavioural,3.0.4,59.87686203768379,
1,"This room was usually used for small meetings, but had been rearranged with the table pushed to the side and chairs set up in rows to face the projector screen. ",1,1,,,,0,1,1,1,,,,,0,3,3,3,,,,,,,,,,,,,,,,,,,,,,,,,,,,,1,6.736027214996284,,,,,,,,,,,,,,,,,,,,,,,,,,,,031219_p1,001,2019_Mar_12_1027,body_behavioural,3.0.4,59.87686203768379,
1,"There were no windows in the room, since they were down in the sub-basement of the history department.",1,1,,,,0,1,1,1,,,,,0,4,4,4,,,,,,,,,,,,,,,,,,,,,,,,,,,,,1,5.220420206984272,,,,,,,,,,,,,,,,,,,,,,,,,,,,031219_p1,001,2019_Mar_12_1027,body_behavioural,3.0.4,59.87686203768379,
1,"Leon, trying to figure out where he had seen her before, could not stop looking over at Ariana.",1,1,,,,0,1,1,1,,,,,0,5,5,5,,,,,,,,,,,,,,,,,,,,,,,,,,,,,1,3.3359932999883313,,,,,,,,,,,,,,,,,,,,,,,,,,,,031219_p1,001,2019_Mar_12_1027,body_behavioural,3.0.4,59.87686203768379,
1,Ariana was oblivious to Leon’s gaze and was only focused on getting ready for class. ,1,1,,,,0,1,1,1,,,,,0,6,6,6,,,,,,,,,,,,,,,,,,,,,,,,,,,,,1,3.2026600599929225,,,,,,,,,,,,,,,,,,,,,,,,,,,,031219_p1,001,2019_Mar_12_1027,body_behavioural,3.0.4,59.87686203768379,
1,"“Good afternoon class,” the professor began.",2,1,,,,0,1,1,1,,,,,0,7,7,7,,,,,,,,,,,,,,,,,,,,,,,,,,,,,1,1.752479545015376,,,,,,,,,,,,,,,,,,,,,,,,,,,,031219_p1,001,2019_Mar_12_1027,body_behavioural,3.0.4,59.87686203768379,
1,“Welcome to Egyptian Cultural Studies. ,2,1,,,,0,1,1,1,,,,,0,8,8,8,,,,,,,,,,,,,,,,,,,,,,,,,,,,,1,5.250755998014938,,,,,,,,,,,,,,,,,,,,,,,,,,,,031219_p1,001,2019_Mar_12_1027,body_behavioural,3.0.4,59.87686203768379,
1,"Today we will be talking about mummification, one of the most famous and often misunderstood customs in ancient Egyptian society.”",2,1,,,,0,1,1,1,,,,,0,9,9,9,,,,,,,,,,,,,,,,,,,,,,,,,,,,,1,6.735210913990159,,,,,,,,,,,,,,,,,,,,,,,,,,,,031219_p1,001,2019_Mar_12_1027,body_behavioural,3.0.4,59.87686203768379,
1,Leon pulled out his notebook and tried to concentrate on the class.,2,1,,,,0,1,1,1,,,,,0,10,10,10,,,,,,,,,,,,,,,,,,,,,,,,,,,,,1,2.3869665259844624,,,,,,,,,,,,,,,,,,,,,,,,,,,,031219_p1,001,2019_Mar_12_1027,body_behavioural,3.0.4,59.87686203768379,
1,Within a few minutes though he found his attention wandering back to Ariana.,2,1,,,,0,1,1,1,,,,,0,11,11,11,,,,,,,,,,,,,,,,,,,,,,,,,,,,,1,2.237104064988671,,,,,,,,,,,,,,,,,,,,,,,,,,,,031219_p1,001,2019_Mar_12_1027,body_behavioural,3.0.4,59.87686203768379,
1,"He decided to do something about his hunch so he ripped off a corner of a page in his notebook, wrote a note, and set it on her desk.",2,1,,,,0,1,1,1,,,,,0,12,12,12,,,,,,,,,,,,,,,,,,,,,,,,,,,,,1,4.553010275005363,,,,,,,,,,,,,,,,,,,,,,,,,,,,031219_p1,001,2019_Mar_12_1027,body_behavioural,3.0.4,59.87686203768379,
1,"“Hi, sorry to distract you from mummies, but you look really familiar," it read.",2,2,,,,0,1,1,1,,,,,0,13,13,13,,,,,,,,,,,,,,,,,,,,,,,,,,,,,1,2.7005882099911105,,,,,,,,,,,,,,,,,,,,,,,,,,,,031219_p1,001,2019_Mar_12_1027,body_behavioural,3.0.4,59.87686203768379,
1,It continued: “Do I know you from somewhere?”,2,2,,,,0,1,1,1,,,,,0,14,14,14,,,,,,,,,,,,,,,,,,,,,,,,,,,,,1,2.5697482170071453,,,,,,,,,,,,,,,,,,,,,,,,,,,,031219_p1,001,2019_Mar_12_1027,body_behavioural,3.0.4,59.87686203768379,
1,"She looked at the note with surprise, and then turned to notice Leon for the first time. ",2,2,,,,0,1,1,1,,,,,0,15,15,15,,,,,,,,,,,,,,,,,,,,,,,,,,,,,1,2.8205013499828056,,,,,,,,,,,,,,,,,,,,,,,,,,,,031219_p1,001,2019_Mar_12_1027,body_behavioural,3.0.4,59.87686203768379,
1,"She instantly liked him when she saw him; he had very soft eyes and sharp features, a combination that made him seem  trustworthy and genuine.",2,2,,,,0,1,1,1,,,,,0,16,16,16,,,,,,,,,,,,,,,,,,,,,,,,,,,,,1,3.370813793007983,,,,,,,,,,,,,,,,,,,,,,,,,,,,031219_p1,001,2019_Mar_12_1027,body_behavioural,3.0.4,59.87686203768379,
1,He smiled at her and she flashed him a smile back.,2,2,,,,0,1,1,1,,,,,0,17,17,17,,,,,,,,,,,,,,,,,,,,,,,,,,,,,1,1.0191746180062182,,,,,,,,,,,,,,,,,,,,,,,,,,,,031219_p1,001,2019_Mar_12_1027,body_behavioural,3.0.4,59.87686203768379,
1,Then she turned the note over to the back and started to write a reply.,2,2,,,,0,1,1,1,,,,,0,18,18,18,,,,,,,,,,,,,,,,,,,,,,,,,,,,,1,2.0852169150020927,,,,,,,,,,,,,,,,,,,,,,,,,,,,031219_p1,001,2019_Mar_12_1027,body_behavioural,3.0.4,59.87686203768379,
1,"Meanwhile the professor continued, “One may well question why the ancient Egyptians spent so much time and effort on their funerary practices.",3,2,,,,0,1,1,1,,,,,0,19,19,19,,,,,,,,,,,,,,,,,,,,,,,,,,,,,1,2.9194651799916755,,,,,,,,,,,,,,,,,,,,,,,,,,,,031219_p1,001,2019_Mar_12_1027,body_behavioural,3.0.4,59.87686203768379,
1,"Not only was the mummification process itself a complicated affair, but there were also elaborate rituals before, during, and after death.",3,2,,,,0,1,1,1,,,,,0,20,20,20,,,,,,,,,,,,,,,,,,,,,,,,,,,,,1,4.920376522990409,,,,,,,,,,,,,,,,,,,,,,,,,,,,031219_p1,001,2019_Mar_12_1027,body_behavioural,3.0.4,59.87686203768379,
1,The practice required teams of experts with years of training and took a total of 70 days to complete.” ,3,2,,,,0,1,1,1,,,,,0,21,21,21,,,,,,,,,,,,,,,,,,,,,,,,,,,,,1,5.252780542010441,,,,,,,,,,,,,,,,,,,,,,,,,,,,031219_p1,001,2019_Mar_12_1027,body_behavioural,3.0.4,59.87686203768379,
1,"Ariana passed the note back to Leon, and she had replied, “No, but maybe my twin and I were separated at birth.”",3,2,,,,0,1,1,1,,,,,0,22,22,22,,,,,,,,,,,,,,,,,,,,,,,,,,,,,1,5.018565612001112,,,,,,,,,,,,,,,,,,,,,,,,,,,,031219_p1,001,2019_Mar_12_1027,body_behavioural,3.0.4,59.87686203768379,
1,They passed notes back and forth the whole class like they were back in high school.,3,2,,,,0,1,1,1,,,,,0,23,23,23,,,,,,,,,,,,,,,,,,,,,,,,,,,,,1,0.9014237750088796,,,,,,,,,,,,,,,,,,,,,,,,,,,,031219_p1,001,2019_Mar_12_1027,body_behavioural,3.0.4,59.87686203768379,
1,"Near the end of the lecture, Leon wrote, “Would you like to go to dinner tonight?” ",3,3,,,,0,1,1,1,,,,,0,24,24,24,,,,,,,,,,,,,,,,,,,,,,,,,,,,,1,2.1486388299963437,,,,,,,,,,,,,,,,,,,,,,,,,,,,031219_p1,001,2019_Mar_12_1027,body_behavioural,3.0.4,59.87686203768379,
1,"Ariana read the note, and looked at him and nodded her head",3,3,,,,0,1,1,1,,,,,0,25,25,25,,,,,,,,,,,,,,,,,,,,,,,,,,,,,1,2.6190482629754115,,,,,,,,,,,,,,,,,,,,,,,,,,,,031219_p1,001,2019_Mar_12_1027,body_behavioural,3.0.4,59.87686203768379,
1,"She wrote back on the slip of paper, “Pick me up at 6 in front of Patton Hall.”",3,3,,,,0,1,1,1,,,,,0,26,26,26,,,,,,,,,,,,,,,,,,,,,,,,,,,,,1,4.568061167985434,,,,,,,,,,,,,,,,,,,,,,,,,,,,031219_p1,001,2019_Mar_12_1027,body_behavioural,3.0.4,59.87686203768379,
1,Then the professor ended the lecture and announced to the class that they would have their first quiz next class on Friday on mummification. ,4,3,,,,0,1,1,1,,,,,0,27,27,27,,,,,,,,,,,,,,,,,,,,,,,,,,,,,1,3.002205775002949,,,,,,,,,,,,,,,,,,,,,,,,,,,,031219_p1,001,2019_Mar_12_1027,body_behavioural,3.0.4,59.87686203768379,
1,"Everyone packed up and started heading out, as well as Sophie and Leon.",4,3,,,,0,1,1,1,,,,,0,28,28,28,,,,,,,,,,,,,,,,,,,,,,,,,,,,,9,15.786583840003004,,,,,,,,,,,,,,,,,,,,,,,,,,,,031219_p1,001,2019_Mar_12_1027,body_behavioural,3.0.4,59.87686203768379,
1,"They approached each other smiling, and Leon said, “Well it was great to meet you, again, or maybe not again, but regardless it was great to meet you.” ",4,3,,,,0,1,1,1,,,,,0,29,29,29,,,,,,,,,,,,,,,,,,,,,,,,,,,,,1,3.200895514979493,,,,,,,,,,,,,,,,,,,,,,,,,,,,031219_p1,001,2019_Mar_12_1027,body_behavioural,3.0.4,59.87686203768379,
1,"She replied, “Yes, it was.",4,4,,,,0,1,1,1,,,,,0,30,30,30,,,,,,,,,,,,,,,,,,,,,,,,,,,,,1,1.1331481449888088,,,,,,,,,,,,,,,,,,,,,,,,,,,,031219_p1,001,2019_Mar_12_1027,body_behavioural,3.0.4,59.87686203768379,
1,"I have to run to my next class, but I’ll see you later tonight.” ",4,4,,,,0,1,1,1,,,,,0,31,31,31,,,,,,,,,,,,,,,,,,,,,,,,,,,,,1,1.3035930230107624,,,,,,,,,,,,,,,,,,,,,,,,,,,,031219_p1,001,2019_Mar_12_1027,body_behavioural,3.0.4,59.87686203768379,
1,"She waved as they parted ways outside of the door of the classroom, and Leon was still trying to figure out where he had seen her before as he watched her go. ",4,4,,,,0,1,1,1,,,,,0,32,32,32,,,,,,,,,,,,,,,,,,,,,,,,,,,,,1,3.9868715569900814,,,,,,,,,,,,,,,,,,,,,,,,,,,,031219_p1,001,2019_Mar_12_1027,body_behavioural,3.0.4,59.87686203768379,
1,,,,,,,0,1,1,1,,,,,,,,,,,,,,,,,,,,,,,,,,,,,,,,,,,,,,,,,,,,,,,,,,,,,,,,,,,,,,,,,,031219_p1,001,2019_Mar_12_1027,body_behavioural,3.0.4,59.87686203768379,
2,,,,,,,0,2,2,2,0,0,0,0,,,,,,,,,,,,,,,,,,,,,,,,,,,space,1.3033696200000122,space,1.0861594149901066,space,1.469692247977946,,,,,,,,,,,,,,,,,,,,,,,,,,,,,,031219_p1,001,2019_Mar_12_1027,body_behavioural,3.0.4,59.87686203768379,
2,,,,,,,0,2,2,2,1,0,1,0,,,,,,,,,,,,,,,,,,,,,,,,,,,,,,,space,1.1863605479884427,,,,,,,,,,,,,,,,,,,,,,,,,,,,,,031219_p1,001,2019_Mar_12_1027,body_behavioural,3.0.4,59.87686203768379,
2,,,,,,,0,2,2,2,2,0,2,0,,,,,,,,,,,,,,,,,,,,,,,,,,,,,,,space,0.953020232002018,,,,,,,,,,,,,,,,,,,,,,,,,,,,,,031219_p1,001,2019_Mar_12_1027,body_behavioural,3.0.4,59.87686203768379,
2,,,,,,,0,2,2,2,3,0,3,0,,,,,,,,,,,,,,,,,,,,,,,,,,,,,,,space,0.48673430501366965,,,,,,,,,,,,,,,,,,,,,,,,,,,,,,031219_p1,001,2019_Mar_12_1027,body_behavioural,3.0.4,59.87686203768379,
2,"Alex was a distracted, sweaty mess as he walked into the grocery store with Chloe; he was hoping that she wouldn't suspect that he was about to propose.",1,1,,,,0,2,2,2,,,,,0,0,0,0,,,,,,,,,,,,,,,,,,,,,,,,,,,,,9,17.270888757979264,,,,,,,,,,,,,,,,,,,,,,,,,,,,031219_p1,001,2019_Mar_12_1027,body_behavioural,3.0.4,59.87686203768379,
2,"The grocery store was brightly lit; this was one of the nicest grocery stores in Atlanta, and sunlight poured in through the glass walls.",1,1,,,,0,2,2,2,,,,,0,1,1,1,,,,,,,,,,,,,,,,,,,,,,,,,,,,,1,7.732671139994636,,,,,,,,,,,,,,,,,,,,,,,,,,,,031219_p1,001,2019_Mar_12_1027,body_behavioural,3.0.4,59.87686203768379,
2,"The atmosphere was also bright because tomorrow was Thanksgiving, and most shoppers had carts piled high with turkey, stuffing, and pies.",1,1,,,,0,2,2,2,,,,,0,2,2,2,,,,,,,,,,,,,,,,,,,,,,,,,,,,,1,8.336394785001175,,,,,,,,,,,,,,,,,,,,,,,,,,,,031219_p1,001,2019_Mar_12_1027,body_behavioural,3.0.4,59.87686203768379,
2,Alex wanted to propose to Chloe here because he knew she would not suspect it at all. ,1,1,,,,0,2,2,2,,,,,0,3,3,3,,,,,,,,,,,,,,,,,,,,,,,,,,,,,1,2.319591150007909,,,,,,,,,,,,,,,,,,,,,,,,,,,,031219_p1,001,2019_Mar_12_1027,body_behavioural,3.0.4,59.87686203768379,
2,"Chloe loved surprises, and Alex loved the look on Chloe’s face when she was surprised. ",1,1,,,,0,2,2,2,,,,,0,4,4,4,,,,,,,,,,,,,,,,,,,,,,,,,,,,,1,5.9858684099745005,,,,,,,,,,,,,,,,,,,,,,,,,,,,031219_p1,001,2019_Mar_12_1027,body_behavioural,3.0.4,59.87686203768379,
2,"“Alex, we need to get some cranberry sauce, so let’s go there first.” ",2,1,,,,0,2,2,2,,,,,0,5,5,5,,,,,,,,,,,,,,,,,,,,,,,,,,,,,1,2.118584032985382,,,,,,,,,,,,,,,,,,,,,,,,,,,,031219_p1,001,2019_Mar_12_1027,body_behavioural,3.0.4,59.87686203768379,
2,She led the way to the section of the store that held the canned foods. ,2,1,,,,0,2,2,2,,,,,0,6,6,6,,,,,,,,,,,,,,,,,,,,,,,,,,,,,1,1.5359550429857336,,,,,,,,,,,,,,,,,,,,,,,,,,,,031219_p1,001,2019_Mar_12_1027,body_behavioural,3.0.4,59.87686203768379,
2,Alex looked like he was going to throw up. ,2,1,,,,0,2,2,2,,,,,0,7,7,7,,,,,,,,,,,,,,,,,,,,,,,,,,,,,1,1.635832633008249,,,,,,,,,,,,,,,,,,,,,,,,,,,,031219_p1,001,2019_Mar_12_1027,body_behavioural,3.0.4,59.87686203768379,
2,"As they were walking there, Chloe asked him, “Is everything okay, dear?”",2,1,,,,0,2,2,2,,,,,0,8,8,8,,,,,,,,,,,,,,,,,,,,,,,,,,,,,1,3.6517908919777256,,,,,,,,,,,,,,,,,,,,,,,,,,,,031219_p1,001,2019_Mar_12_1027,body_behavioural,3.0.4,59.87686203768379,
2,"“Oh yeah, for sure,” he said, unconvincingly. ",2,1,,,,0,2,2,2,,,,,0,9,9,9,,,,,,,,,,,,,,,,,,,,,,,,,,,,,1,1.1365519099927042,,,,,,,,,,,,,,,,,,,,,,,,,,,,031219_p1,001,2019_Mar_12_1027,body_behavioural,3.0.4,59.87686203768379,
2,"She chuckled, “Alright, whatever you say.” ",2,1,,,,0,2,2,2,,,,,0,10,10,10,,,,,,,,,,,,,,,,,,,,,,,,,,,,,1,1.134021676989505,,,,,,,,,,,,,,,,,,,,,,,,,,,,031219_p1,001,2019_Mar_12_1027,body_behavioural,3.0.4,59.87686203768379,
2,"She was mulling over the different cans of cranberry sauce, and Alex knew she would be a while.",2,1,,,,0,2,2,2,,,,,0,11,11,11,,,,,,,,,,,,,,,,,,,,,,,,,,,,,1,2.852433371997904,,,,,,,,,,,,,,,,,,,,,,,,,,,,031219_p1,001,2019_Mar_12_1027,body_behavioural,3.0.4,59.87686203768379,
2,He turned his back to her and pulled out the ring.,2,2,,,,0,2,2,2,,,,,0,12,12,12,,,,,,,,,,,,,,,,,,,,,,,,,,,,,1,1.3189352249901276,,,,,,,,,,,,,,,,,,,,,,,,,,,,031219_p1,001,2019_Mar_12_1027,body_behavioural,3.0.4,59.87686203768379,
2,He had been saving up for this for a while. ,2,2,,,,0,2,2,2,,,,,0,13,13,13,,,,,,,,,,,,,,,,,,,,,,,,,,,,,1,2.5529139479913283,,,,,,,,,,,,,,,,,,,,,,,,,,,,031219_p1,001,2019_Mar_12_1027,body_behavioural,3.0.4,59.87686203768379,
2,The ring had three large diamonds with smaller ones encircling each one: all of them sparkled in the light streaming in from the windows. ,2,2,,,,0,2,2,2,,,,,0,14,14,14,,,,,,,,,,,,,,,,,,,,,,,,,,,,,1,2.5520966349868104,,,,,,,,,,,,,,,,,,,,,,,,,,,,031219_p1,001,2019_Mar_12_1027,body_behavioural,3.0.4,59.87686203768379,
2,"“Alex?”, Chloe said suspiciously. ",2,2,,,,0,2,2,2,,,,,0,15,15,15,,,,,,,,,,,,,,,,,,,,,,,,,,,,,1,1.1350991519866511,,,,,,,,,,,,,,,,,,,,,,,,,,,,031219_p1,001,2019_Mar_12_1027,body_behavioural,3.0.4,59.87686203768379,
2,He closed the box and whipped around. “Yes?”,2,2,,,,0,2,2,2,,,,,0,16,16,16,,,,,,,,,,,,,,,,,,,,,,,,,,,,,1,1.3852557509962935,,,,,,,,,,,,,,,,,,,,,,,,,,,,031219_p1,001,2019_Mar_12_1027,body_behavioural,3.0.4,59.87686203768379,
2,“Do we need anything else?”,2,2,,,,0,2,2,2,,,,,0,17,17,17,,,,,,,,,,,,,,,,,,,,,,,,,,,,,1,0.6863556680036709,,,,,,,,,,,,,,,,,,,,,,,,,,,,031219_p1,001,2019_Mar_12_1027,body_behavioural,3.0.4,59.87686203768379,
2,"“Yeah I don’t know, honey.” ",2,2,,,,0,2,2,2,,,,,0,18,18,18,,,,,,,,,,,,,,,,,,,,,,,,,,,,,1,1.3198376850050408,,,,,,,,,,,,,,,,,,,,,,,,,,,,031219_p1,001,2019_Mar_12_1027,body_behavioural,3.0.4,59.87686203768379,
2,They went to the checkout and waited in a long line.,3,2,,,,0,2,2,2,,,,,0,19,19,19,,,,,,,,,,,,,,,,,,,,,,,,,,,,,1,3.5021781859977636,,,,,,,,,,,,,,,,,,,,,,,,,,,,031219_p1,001,2019_Mar_12_1027,body_behavioural,3.0.4,59.87686203768379,
2,Alex was staring intensely off into the distance. ,3,2,,,,0,2,2,2,,,,,0,20,20,20,,,,,,,,,,,,,,,,,,,,,,,,,,,,,1,1.7677033419895452,,,,,,,,,,,,,,,,,,,,,,,,,,,,031219_p1,001,2019_Mar_12_1027,body_behavioural,3.0.4,59.87686203768379,
2,Chloe was watching him trying to decide whether he looked scared or confused. ,3,2,,,,0,2,2,2,,,,,0,21,21,21,,,,,,,,,,,,,,,,,,,,,,,,,,,,,1,3.9525342249835376,,,,,,,,,,,,,,,,,,,,,,,,,,,,031219_p1,001,2019_Mar_12_1027,body_behavioural,3.0.4,59.87686203768379,
2,Alex looked over at their friends who were waiting by the entrance of the grocery store.,3,2,,,,0,2,2,2,,,,,0,22,22,22,,,,,,,,,,,,,,,,,,,,,,,,,,,,,1,2.7501301080046687,,,,,,,,,,,,,,,,,,,,,,,,,,,,031219_p1,001,2019_Mar_12_1027,body_behavioural,3.0.4,59.87686203768379,
2,They got the message and walked over slowly. ,3,2,,,,0,2,2,2,,,,,0,23,23,23,,,,,,,,,,,,,,,,,,,,,,,,,,,,,1,3.1336347149917856,,,,,,,,,,,,,,,,,,,,,,,,,,,,031219_p1,001,2019_Mar_12_1027,body_behavioural,3.0.4,59.87686203768379,
2,"“Honey,” he said to get her attention, “Look, Chloe, I love you so much and I want to be with you forever, I can’t imagine a day without you.”",3,2,,,,0,2,2,2,,,,,0,24,24,24,,,,,,,,,,,,,,,,,,,,,,,,,,,,,1,4.403115091990912,,,,,,,,,,,,,,,,,,,,,,,,,,,,031219_p1,001,2019_Mar_12_1027,body_behavioural,3.0.4,59.87686203768379,
2,"“Awww, Alex, me too.”",3,2,,,,0,2,2,2,,,,,0,25,25,25,,,,,,,,,,,,,,,,,,,,,,,,,,,,,1,1.118891057005385,,,,,,,,,,,,,,,,,,,,,,,,,,,,031219_p1,001,2019_Mar_12_1027,body_behavioural,3.0.4,59.87686203768379,
2,"Alex got down on one knee, and Chloe gasped. ",3,3,,,,0,2,2,2,,,,,0,26,26,26,,,,,,,,,,,,,,,,,,,,,,,,,,,,,1,1.3847620879823808,,,,,,,,,,,,,,,,,,,,,,,,,,,,031219_p1,001,2019_Mar_12_1027,body_behavioural,3.0.4,59.87686203768379,
2,"“I am serious, Chloe. Will you marry me?”",3,3,,,,0,2,2,2,,,,,0,27,27,27,,,,,,,,,,,,,,,,,,,,,,,,,,,,,1,1.485364780004602,,,,,,,,,,,,,,,,,,,,,,,,,,,,031219_p1,001,2019_Mar_12_1027,body_behavioural,3.0.4,59.87686203768379,
2,"The people in line around them realized what was happening, stepped back, and started taking pictures.",3,3,,,,0,2,2,2,,,,,0,28,28,28,,,,,,,,,,,,,,,,,,,,,,,,,,,,,1,2.5361082250019535,,,,,,,,,,,,,,,,,,,,,,,,,,,,031219_p1,001,2019_Mar_12_1027,body_behavioural,3.0.4,59.87686203768379,
2,Their friends were no longer trying to hide and were videotaping and taking pictures too. ,3,3,,,,0,2,2,2,,,,,0,29,29,29,,,,,,,,,,,,,,,,,,,,,,,,,,,,,1,1.985778839996783,,,,,,,,,,,,,,,,,,,,,,,,,,,,031219_p1,001,2019_Mar_12_1027,body_behavioural,3.0.4,59.87686203768379,
2,Chloe looked around and laughed. ,3,3,,,,0,2,2,2,,,,,0,30,30,30,,,,,,,,,,,,,,,,,,,,,,,,,,,,,1,1.7036648450011853,,,,,,,,,,,,,,,,,,,,,,,,,,,,031219_p1,001,2019_Mar_12_1027,body_behavioural,3.0.4,59.87686203768379,
2,"“Yes!” she shouted, and jumped to embrace Alex in a hug. ",3,4,,,,0,2,2,2,,,,,0,31,31,31,,,,,,,,,,,,,,,,,,,,,,,,,,,,,1,1.2508412250026595,,,,,,,,,,,,,,,,,,,,,,,,,,,,031219_p1,001,2019_Mar_12_1027,body_behavioural,3.0.4,59.87686203768379,
2,Everyone in line clapped and cheered. ,3,4,,,,0,2,2,2,,,,,0,32,32,32,,,,,,,,,,,,,,,,,,,,,,,,,,,,,1,0.8861941880022641,,,,,,,,,,,,,,,,,,,,,,,,,,,,031219_p1,001,2019_Mar_12_1027,body_behavioural,3.0.4,59.87686203768379,
2,"Alex put the ring on Chloe’s finger, who was nearly spinning in excitement.",3,4,,,,0,2,2,2,,,,,0,33,33,33,,,,,,,,,,,,,,,,,,,,,,,,,,,,,1,1.9696808019944,,,,,,,,,,,,,,,,,,,,,,,,,,,,031219_p1,001,2019_Mar_12_1027,body_behavioural,3.0.4,59.87686203768379,
2,"“I love it, oh my gosh, it’s so glittery!",3,4,,,,0,2,2,2,,,,,0,34,34,34,,,,,,,,,,,,,,,,,,,,,,,,,,,,,1,0.9194523649930488,,,,,,,,,,,,,,,,,,,,,,,,,,,,031219_p1,001,2019_Mar_12_1027,body_behavioural,3.0.4,59.87686203768379,
2,Look at this!” she said as she shoved her hand in a stranger’s face.,3,4,,,,0,2,2,2,,,,,0,35,35,35,,,,,,,,,,,,,,,,,,,,,,,,,,,,,1,2.736953696992714,,,,,,,,,,,,,,,,,,,,,,,,,,,,031219_p1,001,2019_Mar_12_1027,body_behavioural,3.0.4,59.87686203768379,
2,Her friends came over and hugged them.,3,4,,,,0,2,2,2,,,,,0,36,36,36,,,,,,,,,,,,,,,,,,,,,,,,,,,,,1,1.2162417030194774,,,,,,,,,,,,,,,,,,,,,,,,,,,,031219_p1,001,2019_Mar_12_1027,body_behavioural,3.0.4,59.87686203768379,
2,The other people let them move up to the front of the checkout line. ,3,4,,,,0,2,2,2,,,,,0,37,37,37,,,,,,,,,,,,,,,,,,,,,,,,,,,,,1,3.702446873008739,,,,,,,,,,,,,,,,,,,,,,,,,,,,031219_p1,001,2019_Mar_12_1027,body_behavioural,3.0.4,59.87686203768379,
2,The cashier congratulated them and scanned their cranberry sauce. ,4,4,,,,0,2,2,2,,,,,0,38,38,38,,,,,,,,,,,,,,,,,,,,,,,,,,,,,1,1.5020456369966269,,,,,,,,,,,,,,,,,,,,,,,,,,,,031219_p1,001,2019_Mar_12_1027,body_behavioural,3.0.4,59.87686203768379,
2,The total came to $4 and Chloe paid in cash while getting distracted and staring at the ring as she pulled out the bills.,4,4,,,,0,2,2,2,,,,,0,39,39,39,,,,,,,,,,,,,,,,,,,,,,,,,,,,,1,3.801054879993899,,,,,,,,,,,,,,,,,,,,,,,,,,,,031219_p1,001,2019_Mar_12_1027,body_behavioural,3.0.4,59.87686203768379,
2,"Alex grabbed the cans, and they walked out with their friends bunched around them. ",4,4,,,,0,2,2,2,,,,,0,40,40,40,,,,,,,,,,,,,,,,,,,,,,,,,,,,,1,1.9671620769950096,,,,,,,,,,,,,,,,,,,,,,,,,,,,031219_p1,001,2019_Mar_12_1027,body_behavioural,3.0.4,59.87686203768379,
2,,,,,,,0,2,2,2,,,,,,,,,,,,,,,,,,,,,,,,,,,,,,,,,,,,,,,,,,,,,,,,,,,,,,,,,,,,,,,,,,031219_p1,001,2019_Mar_12_1027,body_behavioural,3.0.4,59.87686203768379,
3,,,,,,,0,3,3,3,0,0,0,0,,,,,,,,,,,,,,,,,,,,,,,,,,,space,0.9521695470029954,space,0.8362182879936881,space,1.4534732879837975,,,,,,,,,,,,,,,,,,,,,,,,,,,,,,031219_p1,001,2019_Mar_12_1027,body_behavioural,3.0.4,59.87686203768379,
3,,,,,,,0,3,3,3,1,0,1,0,,,,,,,,,,,,,,,,,,,,,,,,,,,,,,,space,0.5869041350088082,,,,,,,,,,,,,,,,,,,,,,,,,,,,,,031219_p1,001,2019_Mar_12_1027,body_behavioural,3.0.4,59.87686203768379,
3,,,,,,,0,3,3,3,2,0,2,0,,,,,,,,,,,,,,,,,,,,,,,,,,,,,,,space,0.5701925949833822,,,,,,,,,,,,,,,,,,,,,,,,,,,,,,031219_p1,001,2019_Mar_12_1027,body_behavioural,3.0.4,59.87686203768379,
3,,,,,,,0,3,3,3,3,0,3,0,,,,,,,,,,,,,,,,,,,,,,,,,,,,,,,space,0.7196014829969499,,,,,,,,,,,,,,,,,,,,,,,,,,,,,,031219_p1,001,2019_Mar_12_1027,body_behavioural,3.0.4,59.87686203768379,
3,,,,,,,0,3,3,3,4,0,4,0,,,,,,,,,,,,,,,,,,,,,,,,,,,,,,,space,0.43632368999533355,,,,,,,,,,,,,,,,,,,,,,,,,,,,,,031219_p1,001,2019_Mar_12_1027,body_behavioural,3.0.4,59.87686203768379,
3,"Maria walked into lecture beside Henry, and she was mentally rehearsing what she should say to break up with him.",1,1,,,,0,3,3,3,,,,,0,0,0,0,,,,,,,,,,,,,,,,,,,,,,,,,,,,,9,12.286142319993814,,,,,,,,,,,,,,,,,,,,,,,,,,,,031219_p1,001,2019_Mar_12_1027,body_behavioural,3.0.4,59.87686203768379,
3,"She had been putting it off with a growing sense of dread, and now this lecture was the last chance before she had to leave campus. ",1,1,,,,0,3,3,3,,,,,0,1,1,1,,,,,,,,,,,,,,,,,,,,,,,,,,,,,1,7.053759687987622,,,,,,,,,,,,,,,,,,,,,,,,,,,,031219_p1,001,2019_Mar_12_1027,body_behavioural,3.0.4,59.87686203768379,
3,"The lecture hall was large, with a stage for the lecturer in the front of the room, and tiered seats that stretched up in 15 stacked rows. ",1,1,,,,0,3,3,3,,,,,0,2,2,2,,,,,,,,,,,,,,,,,,,,,,,,,,,,,1,4.036942940001609,,,,,,,,,,,,,,,,,,,,,,,,,,,,031219_p1,001,2019_Mar_12_1027,body_behavioural,3.0.4,59.87686203768379,
3,"The clock struck 3 pm, and Maria and Henry slid into neighboring seats near the back of the room.",1,1,,,,0,3,3,3,,,,,0,3,3,3,,,,,,,,,,,,,,,,,,,,,,,,,,,,,1,8.569954817998223,,,,,,,,,,,,,,,,,,,,,,,,,,,,031219_p1,001,2019_Mar_12_1027,body_behavioural,3.0.4,59.87686203768379,
3,"“Good afternoon, everybody,” said the professor, fiddling to connect his laptop with the projector.",2,1,,,,0,3,3,3,,,,,0,4,4,4,,,,,,,,,,,,,,,,,,,,,,,,,,,,,1,2.568529079988366,,,,,,,,,,,,,,,,,,,,,,,,,,,,031219_p1,001,2019_Mar_12_1027,body_behavioural,3.0.4,59.87686203768379,
3,“Welcome to week 4 of Intro to Ancient Philosophy. ,2,1,,,,0,3,3,3,,,,,0,5,5,5,,,,,,,,,,,,,,,,,,,,,,,,,,,,,1,1.3191416350018699,,,,,,,,,,,,,,,,,,,,,,,,,,,,031219_p1,001,2019_Mar_12_1027,body_behavioural,3.0.4,59.87686203768379,
3,Today we are going to continue our lecture on Aristotelian Philosophy.”,2,1,,,,0,3,3,3,,,,,0,6,6,6,,,,,,,,,,,,,,,,,,,,,,,,,,,,,1,1.0348556130193174,,,,,,,,,,,,,,,,,,,,,,,,,,,,031219_p1,001,2019_Mar_12_1027,body_behavioural,3.0.4,59.87686203768379,
3,Everyone in class pulled out their notebooks and settled in their seats as the slides appeared on the large front screens.,2,1,,,,0,3,3,3,,,,,0,7,7,7,,,,,,,,,,,,,,,,,,,,,,,,,,,,,1,3.168425287003629,,,,,,,,,,,,,,,,,,,,,,,,,,,,031219_p1,001,2019_Mar_12_1027,body_behavioural,3.0.4,59.87686203768379,
3,"“Henry,” Maria whispered.",2,1,,,,0,3,3,3,,,,,0,8,8,8,,,,,,,,,,,,,,,,,,,,,,,,,,,,,1,0.9358853949815966,,,,,,,,,,,,,,,,,,,,,,,,,,,,031219_p1,001,2019_Mar_12_1027,body_behavioural,3.0.4,59.87686203768379,
3,"“Hmm?” he replied, distracted.",2,1,,,,0,3,3,3,,,,,0,9,9,9,,,,,,,,,,,,,,,,,,,,,,,,,,,,,1,2.2359688699943945,,,,,,,,,,,,,,,,,,,,,,,,,,,,031219_p1,001,2019_Mar_12_1027,body_behavioural,3.0.4,59.87686203768379,
3,"“Henry, I need to tell you something really important, and I don’t know when else I’ll have a chance to do it,” she said.",2,1,,,,0,3,3,3,,,,,0,10,10,10,,,,,,,,,,,,,,,,,,,,,,,,,,,,,1,2.686142952006776,,,,,,,,,,,,,,,,,,,,,,,,,,,,031219_p1,001,2019_Mar_12_1027,body_behavioural,3.0.4,59.87686203768379,
3,"“Okay, what's up?”, he said, tilting his head close to her. ",2,1,,,,0,3,3,3,,,,,0,11,11,11,,,,,,,,,,,,,,,,,,,,,,,,,,,,,1,1.5692824569996446,,,,,,,,,,,,,,,,,,,,,,,,,,,,031219_p1,001,2019_Mar_12_1027,body_behavioural,3.0.4,59.87686203768379,
3," “Henry, I don’t think I can do long distance.",2,2,,,,0,3,3,3,,,,,0,12,12,12,,,,,,,,,,,,,,,,,,,,,,,,,,,,,1,0.9338359099929221,,,,,,,,,,,,,,,,,,,,,,,,,,,,031219_p1,001,2019_Mar_12_1027,body_behavioural,3.0.4,59.87686203768379,
3,"I think what we have here is great, but I think it will be really hard when we are so far apart for such an extended period.",2,2,,,,0,3,3,3,,,,,0,13,13,13,,,,,,,,,,,,,,,,,,,,,,,,,,,,,1,4.470367222005734,,,,,,,,,,,,,,,,,,,,,,,,,,,,031219_p1,001,2019_Mar_12_1027,body_behavioural,3.0.4,59.87686203768379,
3,"I’m sorry I’m telling you now in lecture, but I'm out of time, and it’s taken me awhile to come to this decision.",2,2,,,,0,3,3,3,,,,,0,14,14,14,,,,,,,,,,,,,,,,,,,,,,,,,,,,,1,3.235727414023131,,,,,,,,,,,,,,,,,,,,,,,,,,,,031219_p1,001,2019_Mar_12_1027,body_behavioural,3.0.4,59.87686203768379,
3,"I really think this is best, and who knows what will happen when I get back from my study abroad.” ",2,2,,,,0,3,3,3,,,,,0,15,15,15,,,,,,,,,,,,,,,,,,,,,,,,,,,,,1,6.30283772299299,,,,,,,,,,,,,,,,,,,,,,,,,,,,031219_p1,001,2019_Mar_12_1027,body_behavioural,3.0.4,59.87686203768379,
3,"While Henry tried to think of what to say, he and Maria stared unlistening at the professor as he started the lecture, “First we will talk about Aristotle’s work, The Categories.",3,2,,,,0,3,3,3,,,,,0,16,16,16,,,,,,,,,,,,,,,,,,,,,,,,,,,,,1,11.701378294994356,,,,,,,,,,,,,,,,,,,,,,,,,,,,031219_p1,001,2019_Mar_12_1027,body_behavioural,3.0.4,59.87686203768379,
3,"This text, as you might have been able to guess, is about the kinds, or categories, of things that there are.",3,2,,,,0,3,3,3,,,,,0,17,17,17,,,,,,,,,,,,,,,,,,,,,,,,,,,,,1,3.8024797470134217,,,,,,,,,,,,,,,,,,,,,,,,,,,,031219_p1,001,2019_Mar_12_1027,body_behavioural,3.0.4,59.87686203768379,
3,"In fact, our term category comes from this Aristotelian context.” ",3,2,,,,0,3,3,3,,,,,0,18,18,18,,,,,,,,,,,,,,,,,,,,,,,,,,,,,1,1.5345228269870859,,,,,,,,,,,,,,,,,,,,,,,,,,,,031219_p1,001,2019_Mar_12_1027,body_behavioural,3.0.4,59.87686203768379,
3,"Henry felt horrible, like the wind had just been knocked out of him.",3,2,,,,0,3,3,3,,,,,0,19,19,19,,,,,,,,,,,,,,,,,,,,,,,,,,,,,1,1.503377562010428,,,,,,,,,,,,,,,,,,,,,,,,,,,,031219_p1,001,2019_Mar_12_1027,body_behavioural,3.0.4,59.87686203768379,
3,"A few tears started to fall down his cheeks as he whispered back, “Maria, I think we can make it work.",3,3,,,,0,3,3,3,,,,,0,20,20,20,,,,,,,,,,,,,,,,,,,,,,,,,,,,,1,4.4358133699861355,,,,,,,,,,,,,,,,,,,,,,,,,,,,031219_p1,001,2019_Mar_12_1027,body_behavioural,3.0.4,59.87686203768379,
3,I’ll come visit you.,3,3,,,,0,3,3,3,,,,,0,21,21,21,,,,,,,,,,,,,,,,,,,,,,,,,,,,,1,1.052457965008216,,,,,,,,,,,,,,,,,,,,,,,,,,,,031219_p1,001,2019_Mar_12_1027,body_behavioural,3.0.4,59.87686203768379,
3,It will be fine.,3,3,,,,0,3,3,3,,,,,0,22,22,22,,,,,,,,,,,,,,,,,,,,,,,,,,,,,1,0.683954284992069,,,,,,,,,,,,,,,,,,,,,,,,,,,,031219_p1,001,2019_Mar_12_1027,body_behavioural,3.0.4,59.87686203768379,
3,I don’t want to break up.”,3,3,,,,0,3,3,3,,,,,0,23,23,23,,,,,,,,,,,,,,,,,,,,,,,,,,,,,1,1.053291674994398,,,,,,,,,,,,,,,,,,,,,,,,,,,,031219_p1,001,2019_Mar_12_1027,body_behavioural,3.0.4,59.87686203768379,
3,"Maria felt so guilty that she nearly gave in, but forced herself to hold her ground, knowing that this would make things much easier for both of them in the future.",3,3,,,,0,3,3,3,,,,,0,24,24,24,,,,,,,,,,,,,,,,,,,,,,,,,,,,,1,4.786318360012956,,,,,,,,,,,,,,,,,,,,,,,,,,,,031219_p1,001,2019_Mar_12_1027,body_behavioural,3.0.4,59.87686203768379,
3,"She gave his hand a squeeze but shook her head sadly, before turning back to her laptop and half-heartedly taking notes on the lecture which they sat through in painful silence.",3,3,,,,0,3,3,3,,,,,0,25,25,25,,,,,,,,,,,,,,,,,,,,,,,,,,,,,1,5.952833251998527,,,,,,,,,,,,,,,,,,,,,,,,,,,,031219_p1,001,2019_Mar_12_1027,body_behavioural,3.0.4,59.87686203768379,
3,"Finally, the professor was wrapping up, “This is what Aristotle means when he says that an animal’s or plant’s form rather than its matter is its nature. ",4,3,,,,0,3,3,3,,,,,0,26,26,26,,,,,,,,,,,,,,,,,,,,,,,,,,,,,1,4.469087623001542,,,,,,,,,,,,,,,,,,,,,,,,,,,,031219_p1,001,2019_Mar_12_1027,body_behavioural,3.0.4,59.87686203768379,
3,"Alright class, that’s all for today. ",4,3,,,,0,3,3,3,,,,,0,27,27,27,,,,,,,,,,,,,,,,,,,,,,,,,,,,,1,0.9519475249981042,,,,,,,,,,,,,,,,,,,,,,,,,,,,031219_p1,001,2019_Mar_12_1027,body_behavioural,3.0.4,59.87686203768379,
3,"Remember the final exam is coming up next week on Tuesday on the Pre-Socratics, Plato, and Aristotle, so feel free to come by office hours to discuss if you have the inspiration.",4,3,,,,0,3,3,3,,,,,0,28,28,28,,,,,,,,,,,,,,,,,,,,,,,,,,,,,1,4.269063695013756,,,,,,,,,,,,,,,,,,,,,,,,,,,,031219_p1,001,2019_Mar_12_1027,body_behavioural,3.0.4,59.87686203768379,
3,"And if anyone is doing the 20 page paper in lieu of the final, that’s due next Tuesday as well.",4,3,,,,0,3,3,3,,,,,0,29,29,29,,,,,,,,,,,,,,,,,,,,,,,,,,,,,1,3.8698788349865936,,,,,,,,,,,,,,,,,,,,,,,,,,,,031219_p1,001,2019_Mar_12_1027,body_behavioural,3.0.4,59.87686203768379,
3,"Have a good day, folks.” ",4,3,,,,0,3,3,3,,,,,0,30,30,30,,,,,,,,,,,,,,,,,,,,,,,,,,,,,1,0.7853366729978006,,,,,,,,,,,,,,,,,,,,,,,,,,,,031219_p1,001,2019_Mar_12_1027,body_behavioural,3.0.4,59.87686203768379,
3,"Maria and Henry packed up hurriedly, and slipped quickly out of the class before the rest of the crowd. ",4,3,,,,0,3,3,3,,,,,0,31,31,31,,,,,,,,,,,,,,,,,,,,,,,,,,,,,1,2.533442819985794,,,,,,,,,,,,,,,,,,,,,,,,,,,,031219_p1,001,2019_Mar_12_1027,body_behavioural,3.0.4,59.87686203768379,
3,"They hugged outside, and both of them were crying. ",4,4,,,,0,3,3,3,,,,,0,32,32,32,,,,,,,,,,,,,,,,,,,,,,,,,,,,,1,1.2857339850161225,,,,,,,,,,,,,,,,,,,,,,,,,,,,031219_p1,001,2019_Mar_12_1027,body_behavioural,3.0.4,59.87686203768379,
3,"“Maria, I don’t want you to leave.",4,4,,,,0,3,3,3,,,,,0,33,33,33,,,,,,,,,,,,,,,,,,,,,,,,,,,,,1,1.0350376999995206,,,,,,,,,,,,,,,,,,,,,,,,,,,,031219_p1,001,2019_Mar_12_1027,body_behavioural,3.0.4,59.87686203768379,
3,I don’t want this to end. ,4,4,,,,0,3,3,3,,,,,0,34,34,34,,,,,,,,,,,,,,,,,,,,,,,,,,,,,1,1.103485951985931,,,,,,,,,,,,,,,,,,,,,,,,,,,,031219_p1,001,2019_Mar_12_1027,body_behavioural,3.0.4,59.87686203768379,
3,"But if this is what you think is best, I can’t make it otherwise.” ",4,4,,,,0,3,3,3,,,,,0,35,35,35,,,,,,,,,,,,,,,,,,,,,,,,,,,,,1,1.8013304930063896,,,,,,,,,,,,,,,,,,,,,,,,,,,,031219_p1,001,2019_Mar_12_1027,body_behavioural,3.0.4,59.87686203768379,
3,"They hugged one last time, and Maria ran off to get her things from her dorm.",4,4,,,,0,3,3,3,,,,,0,36,36,36,,,,,,,,,,,,,,,,,,,,,,,,,,,,,1,2.8506019650085364,,,,,,,,,,,,,,,,,,,,,,,,,,,,031219_p1,001,2019_Mar_12_1027,body_behavioural,3.0.4,59.87686203768379,
3,Henry sadly watched her go. ,4,4,,,,0,3,3,3,,,,,0,37,37,37,,,,,,,,,,,,,,,,,,,,,,,,,,,,,1,1.066977765003685,,,,,,,,,,,,,,,,,,,,,,,,,,,,031219_p1,001,2019_Mar_12_1027,body_behavioural,3.0.4,59.87686203768379,
3,,,,,,,0,3,3,3,,,,,,,,,,,,,,,,,,,,,,,,,,,,,,,,,,,,,,,,,,,,,,,,,,,,,,,,,,,,,,,,,,031219_p1,001,2019_Mar_12_1027,body_behavioural,3.0.4,59.87686203768379,
4,,,,,,,0,4,4,4,0,0,0,0,,,,,,,,,,,,,,,,,,,,,,,,,,,space,1.2019423919846304,space,0.9852915820083581,space,0.9663081199978478,,,,,,,,,,,,,,,,,,,,,,,,,,,,,,031219_p1,001,2019_Mar_12_1027,body_behavioural,3.0.4,59.87686203768379,
4,"Alvira and Senna walked into the restaurant hand in sweaty hand with quite different expectations: Senna was going to propose tonight, and Alvira had no idea.",1,1,None,None,,0,4,4,4,,,,,0,0,0,0,,,,,,,,,,,,,,,,,,,,,,,,,,,,,9,9.554547874984564,,,,,,,,,,,,,,,,,,,,,,,,,,,,031219_p1,001,2019_Mar_12_1027,body_behavioural,3.0.4,59.87686203768379,
4,"He took a deep breath, trying to calm his nerves as worst case scenarios ran through his mind. ",1,1,None,None,,0,4,4,4,,,,,0,1,1,1,,,,,,,,,,,,,,,,,,,,,,,,,,,,,1,6.186128010012908,,,,,,,,,,,,,,,,,,,,,,,,,,,,031219_p1,001,2019_Mar_12_1027,body_behavioural,3.0.4,59.87686203768379,
4,The entrance of the restaurant was dazzling; chandeliers spread their warm light onto the delicate place settings of all the tables filled with guests dressed to the nines. ,1,1,None,None,,0,4,4,4,,,,,0,2,2,2,,,,,,,,,,,,,,,,,,,,,,,,,,,,,1,10.5701841750124,,,,,,,,,,,,,,,,,,,,,,,,,,,,031219_p1,001,2019_Mar_12_1027,body_behavioural,3.0.4,59.87686203768379,
4,"Through the floor-to-ceiling arched windows of the back wall, they saw the sun setting onto the Pacific ocean.",1,1,None,None,,0,4,4,4,,,,,0,3,3,3,,,,,,,,,,,,,,,,,,,,,,,,,,,,,1,2.0525954919867218,,,,,,,,,,,,,,,,,,,,,,,,,,,,031219_p1,001,2019_Mar_12_1027,body_behavioural,3.0.4,59.87686203768379,
4,"This was surely one of the best restaurants on the west coast, situated right on the beach.",1,1,None,None,,0,4,4,4,,,,,0,4,4,4,,,,,,,,,,,,,,,,,,,,,,,,,,,,,1,1.6354708450089674,,,,,,,,,,,,,,,,,,,,,,,,,,,,031219_p1,001,2019_Mar_12_1027,body_behavioural,3.0.4,59.87686203768379,
4,"Senna gave his name to the host, who quickly located their reservation with an almost comically wide customer-service smile.",1,1,7.0,None,,0,4,4,4,,,,,0,5,5,5,,,,,,,,,,,,,,,,,,,,,,,,,,,,,1,2.236314907990163,,,,,,,,,,,,,,,,,,,,,,,,,,,,031219_p1,001,2019_Mar_12_1027,body_behavioural,3.0.4,59.87686203768379,
4,He led them to a table right by the window.,2,1,None,None,,0,4,4,4,,,,,0,6,6,6,,,,,,,,,,,,,,,,,,,,,,,,,,,,,1,1.0845617699960712,,,,,,,,,,,,,,,,,,,,,,,,,,,,031219_p1,001,2019_Mar_12_1027,body_behavioural,3.0.4,59.87686203768379,
4,"He brought out some very small menus, with a short list of the celebrity chef's carefully selected daily dishes written in a loopy, cursive font unadorned by any mention of prices.",2,1,None,9.0,,0,4,4,4,,,,,0,7,7,7,,,,,,,,,,,,,,,,,,,,,,,,,,,,,1,2.535839722986566,,,,,,,,,,,,,,,,,,,,,,,,,,,,031219_p1,001,2019_Mar_12_1027,body_behavioural,3.0.4,59.87686203768379,
4,Senna slipped off to the bathroom to check to make sure the ring was in order.,2,2,None,None,,0,4,4,4,,,,,0,8,8,8,,,,,,,,,,,,,,,,,,,,,,,,,,,,,1,3.9869090749998577,,,,,,,,,,,,,,,,,,,,,,,,,,,,031219_p1,001,2019_Mar_12_1027,body_behavioural,3.0.4,59.87686203768379,
4,"The ring contained a canary diamond that had been in his grandmother’s wedding ring, and it was a brilliant stone that was accentuated by the small white diamonds encircling it.",2,2,None,None,,0,4,4,4,,,,,0,9,9,9,,,,,,,,,,,,,,,,,,,,,,,,,,,,,1,30.053836785024032,,,,,,,,,,,,,,,,,,,,,,,,,,,,031219_p1,001,2019_Mar_12_1027,body_behavioural,3.0.4,59.87686203768379,
4,"He walked back to the table after handing the small, velvet box to a waiter at the front podium.",2,2,6.0,None,,0,4,4,4,,,,,0,10,10,10,,,,,,,,,,,,,,,,,,,,,,,,,,,,,1,1.8835839499952272,,,,,,,,,,,,,,,,,,,,,,,,,,,,031219_p1,001,2019_Mar_12_1027,body_behavioural,3.0.4,59.87686203768379,
4,He came back just as their waiter was approaching the table to get their order.,3,2,None,None,,0,4,4,4,,,,,0,11,11,11,,,,,,,,,,,,,,,,,,,,,,,,,,,,,1,1.9525278949877247,,,,,,,,,,,,,,,,,,,,,,,,,,,,031219_p1,001,2019_Mar_12_1027,body_behavioural,3.0.4,59.87686203768379,
4,"Senna ordered the oysters with garlic-parmesan sauce, and Alvira ordered the sauteed sea scallops with caramelized apples. ",3,2,None,None,,0,4,4,4,,,,,0,12,12,12,,,,,,,,,,,,,,,,,,,,,,,,,,,,,1,2.5194177350203972,,,,,,,,,,,,,,,,,,,,,,,,,,,,031219_p1,001,2019_Mar_12_1027,body_behavioural,3.0.4,59.87686203768379,
4,"“Excellent choices,” the waiter said with a subsequent brisk spin away from the table.",3,2,None,None,,0,4,4,4,,,,,0,13,13,13,,,,,,,,,,,,,,,,,,,,,,,,,,,,,1,3.2485603950044606,,,,,,,,,,,,,,,,,,,,,,,,,,,,031219_p1,001,2019_Mar_12_1027,body_behavioural,3.0.4,59.87686203768379,
4,"“What a beautiful place, Senna. ",3,2,None,None,,0,4,4,4,,,,,0,14,14,14,,,,,,,,,,,,,,,,,,,,,,,,,,,,,1,2.2038527429976966,,,,,,,,,,,,,,,,,,,,,,,,,,,,031219_p1,001,2019_Mar_12_1027,body_behavioural,3.0.4,59.87686203768379,
4,"Really this is too much just to celebrate the first tomatoes I grew in the garden, like, this is absurd,” Alvira said.",3,2,None,None,,0,4,4,4,,,,,0,15,15,15,,,,,,,,,,,,,,,,,,,,,,,,,,,,,1,7.7856845849892125,,,,,,,,,,,,,,,,,,,,,,,,,,,,031219_p1,001,2019_Mar_12_1027,body_behavioural,3.0.4,59.87686203768379,
4,"Senna laughed and said, “No, those were really the best tomatoes I’ve ever had. ",3,2,None,None,,0,4,4,4,,,,,0,16,16,16,,,,,,,,,,,,,,,,,,,,,,,,,,,,,1,1.685422894981457,,,,,,,,,,,,,,,,,,,,,,,,,,,,031219_p1,001,2019_Mar_12_1027,body_behavioural,3.0.4,59.87686203768379,
4,We had to celebrate.” ,3,2,None,None,,0,4,4,4,,,,,0,17,17,17,,,,,,,,,,,,,,,,,,,,,,,,,,,,,1,1.2857649269863032,,,,,,,,,,,,,,,,,,,,,,,,,,,,031219_p1,001,2019_Mar_12_1027,body_behavioural,3.0.4,59.87686203768379,
4,"They talked and laughed as the sun sank below the horizon, and the glow from the ocean was replaced by the glow from the chandeliers.",3,2,8.0,None,,0,4,4,4,,,,,0,18,18,18,,,,,,,,,,,,,,,,,,,,,,,,,,,,,1,5.502734199981205,,,,,,,,,,,,,,,,,,,,,,,,,,,,031219_p1,001,2019_Mar_12_1027,body_behavioural,3.0.4,59.87686203768379,
4,"The waiter eventually returned with their meals, and everything was even more delicious than they had expected, especially the oysters, which Senna said tasted like the ocean. ",4,2,None,None,,0,4,4,4,,,,,0,19,19,19,,,,,,,,,,,,,,,,,,,,,,,,,,,,,1,5.7670719049929176,,,,,,,,,,,,,,,,,,,,,,,,,,,,031219_p1,001,2019_Mar_12_1027,body_behavioural,3.0.4,59.87686203768379,
4,Then he paused and looked at Alvira meaningfully. ,4,2,None,None,,0,4,4,4,,,,,0,20,20,20,,,,,,,,,,,,,,,,,,,,,,,,,,,,,1,1.735513669991633,,,,,,,,,,,,,,,,,,,,,,,,,,,,031219_p1,001,2019_Mar_12_1027,body_behavioural,3.0.4,59.87686203768379,
4, “It’s really been the best three years of my life with you.,4,2,None,None,,0,4,4,4,,,,,0,21,21,21,,,,,,,,,,,,,,,,,,,,,,,,,,,,,1,0.8859010100131854,,,,,,,,,,,,,,,,,,,,,,,,,,,,031219_p1,001,2019_Mar_12_1027,body_behavioural,3.0.4,59.87686203768379,
4,"I couldn’t imagine it any other way, and I don’t want to.",4,2,None,None,,0,4,4,4,,,,,0,22,22,22,,,,,,,,,,,,,,,,,,,,,,,,,,,,,1,1.2036023100081366,,,,,,,,,,,,,,,,,,,,,,,,,,,,031219_p1,001,2019_Mar_12_1027,body_behavioural,3.0.4,59.87686203768379,
4,"I really want to spend the rest of my years eating garden tomatoes, whatever it is, with you.” ",4,2,None,None,,0,4,4,4,,,,,0,23,23,23,,,,,,,,,,,,,,,,,,,,,,,,,,,,,1,3.3342783779953606,,,,,,,,,,,,,,,,,,,,,,,,,,,,031219_p1,001,2019_Mar_12_1027,body_behavioural,3.0.4,59.87686203768379,
4,"Alvira smiled, “I want the same with you too, Senna.” ",4,2,None,17.0,,0,4,4,4,,,,,0,24,24,24,,,,,,,,,,,,,,,,,,,,,,,,,,,,,1,1.4193078550160863,,,,,,,,,,,,,,,,,,,,,,,,,,,,031219_p1,001,2019_Mar_12_1027,body_behavioural,3.0.4,59.87686203768379,
4,"Senna nodded at the waiter who had been watching attentively, and he quickly strode over to place a small, elegant cake topped with the ring in front of Alvira. ",4,3,None,None,,0,4,4,4,,,,,0,25,25,25,,,,,,,,,,,,,,,,,,,,,,,,,,,,,1,11.737183730001561,,,,,,,,,,,,,,,,,,,,,,,,,,,,031219_p1,001,2019_Mar_12_1027,body_behavioural,3.0.4,59.87686203768379,
4,Her eyes widened in shock when she realized what she was looking at.,4,3,None,None,,0,4,4,4,,,,,0,26,26,26,,,,,,,,,,,,,,,,,,,,,,,,,,,,,1,2.436149849992944,,,,,,,,,,,,,,,,,,,,,,,,,,,,031219_p1,001,2019_Mar_12_1027,body_behavioural,3.0.4,59.87686203768379,
4,"“Alvira, will you marry me? ",4,3,None,None,,0,4,4,4,,,,,0,27,27,27,,,,,,,,,,,,,,,,,,,,,,,,,,,,,1,1.0684626750007737,,,,,,,,,,,,,,,,,,,,,,,,,,,,031219_p1,001,2019_Mar_12_1027,body_behavioural,3.0.4,59.87686203768379,
4,"I love you, and I will never stop loving you.” ",4,3,None,None,,0,4,4,4,,,,,0,28,28,28,,,,,,,,,,,,,,,,,,,,,,,,,,,,,1,1.7503928699879907,,,,,,,,,,,,,,,,,,,,,,,,,,,,031219_p1,001,2019_Mar_12_1027,body_behavioural,3.0.4,59.87686203768379,
4,Alvira started to cry.,4,3,None,None,,0,4,4,4,,,,,0,29,29,29,,,,,,,,,,,,,,,,,,,,,,,,,,,,,1,0.7357466600078624,,,,,,,,,,,,,,,,,,,,,,,,,,,,031219_p1,001,2019_Mar_12_1027,body_behavioural,3.0.4,59.87686203768379,
4,"The room became silent, and everyone turned to their table. ",4,3,None,5.0,,0,4,4,4,,,,,0,30,30,30,,,,,,,,,,,,,,,,,,,,,,,,,,,,,1,1.6345524180214852,,,,,,,,,,,,,,,,,,,,,,,,,,,,031219_p1,001,2019_Mar_12_1027,body_behavioural,3.0.4,59.87686203768379,
4,"“Yes, of course, yes!” she shouted as she wiped away tears.",4,4,None,None,,0,4,4,4,,,,,0,31,31,31,,,,,,,,,,,,,,,,,,,,,,,,,,,,,1,1.8007490579911973,,,,,,,,,,,,,,,,,,,,,,,,,,,,031219_p1,001,2019_Mar_12_1027,body_behavioural,3.0.4,59.87686203768379,
4,The neighboring tables exploded in applause.,4,4,None,None,,0,4,4,4,,,,,0,32,32,32,,,,,,,,,,,,,,,,,,,,,,,,,,,,,1,1.467809980007587,,,,,,,,,,,,,,,,,,,,,,,,,,,,031219_p1,001,2019_Mar_12_1027,body_behavioural,3.0.4,59.87686203768379,
4,The waiter returned with a bottle of champagne and popped it. ,4,4,None,None,,0,4,4,4,,,,,0,33,33,33,,,,,,,,,,,,,,,,,,,,,,,,,,,,,1,1.202635769994231,,,,,,,,,,,,,,,,,,,,,,,,,,,,031219_p1,001,2019_Mar_12_1027,body_behavioural,3.0.4,59.87686203768379,
4,"All of this went unnoticed by Senna and Alvira as they looked into each others’ eyes, and he slipped the ring onto her finger. ",4,4,None,None,,0,4,4,4,,,,,0,34,34,34,,,,,,,,,,,,,,,,,,,,,,,,,,,,,1,5.736582737998106,,,,,,,,,,,,,,,,,,,,,,,,,,,,031219_p1,001,2019_Mar_12_1027,body_behavioural,3.0.4,59.87686203768379,
4,"She held up her hand to admire it, and her glittering tears of joy matched the shine from her ring.   
",4,4,17.0,5.0,,0,4,4,4,,,,,0,35,35,35,,,,,,,,,,,,,,,,,,,,,,,,,,,,,1,4.985566644987557,,,,,,,,,,,,,,,,,,,,,,,,,,,,031219_p1,001,2019_Mar_12_1027,body_behavioural,3.0.4,59.87686203768379,
4,,,,,,,0,4,4,4,,,,,,,,,,,,,,,,,,,,,,,,,,,,,,,,,,,,,,,,,,,,,,,,,,,,,,,,,,,,,,,,,,031219_p1,001,2019_Mar_12_1027,body_behavioural,3.0.4,59.87686203768379,
5,,,,,,,0,5,5,5,0,0,0,0,,,,,,,,,,,,,,,,,,,,,,,,,,,space,1.0361192320124246,space,0.7830522749864031,space,0.5694607399927918,,,,,,,,,,,,,,,,,,,,,,,,,,,,,,031219_p1,001,2019_Mar_12_1027,body_behavioural,3.0.4,59.87686203768379,
5,David saw Anna for the first time when she burst into the airport with her bag skidding behind her half-zipped. ,1,1,,,,0,5,5,5,,,,,0,0,0,0,,,,,,,,,,,,,,,,,,,,,,,,,,,,,9,5.519849139993312,,,,,,,,,,,,,,,,,,,,,,,,,,,,031219_p1,001,2019_Mar_12_1027,body_behavioural,3.0.4,59.87686203768379,
5,"He had three hours until his flight, but she clearly had less than one.",1,1,,,,0,5,5,5,,,,,0,1,1,1,,,,,,,,,,,,,,,,,,,,,,,,,,,,,1,6.0842376700020395,,,,,,,,,,,,,,,,,,,,,,,,,,,,031219_p1,001,2019_Mar_12_1027,body_behavioural,3.0.4,59.87686203768379,
5,"Anna’s yoga class had ran over, and afterwards, she, forgetting the time, had lingered to talk with friends. ",1,1,,,,0,5,5,5,,,,,0,2,2,2,,,,,,,,,,,,,,,,,,,,,,,,,,,,,1,4.253370096994331,,,,,,,,,,,,,,,,,,,,,,,,,,,,031219_p1,001,2019_Mar_12_1027,body_behavioural,3.0.4,59.87686203768379,
5,"Despite Anna's frazzled state, David was instantly intrigued by her.",1,1,,,,0,5,5,5,,,,,0,3,3,3,,,,,,,,,,,,,,,,,,,,,,,,,,,,,1,11.319712170021376,,,,,,,,,,,,,,,,,,,,,,,,,,,,031219_p1,001,2019_Mar_12_1027,body_behavioural,3.0.4,59.87686203768379,
5,"He thought she was beautiful, and she reminded him of one of his favorite paintings.",1,1,,,,0,5,5,5,,,,,0,4,4,4,,,,,,,,,,,,,,,,,,,,,,,,,,,,,1,2.833803731977241,,,,,,,,,,,,,,,,,,,,,,,,,,,,031219_p1,001,2019_Mar_12_1027,body_behavioural,3.0.4,59.87686203768379,
5,"Anna, a few strides into the airport, suddenly realized her shoes were untied, so she hunched over to tie them.",1,1,,,,0,5,5,5,,,,,0,5,5,5,,,,,,,,,,,,,,,,,,,,,,,,,,,,,1,3.8686706330045126,,,,,,,,,,,,,,,,,,,,,,,,,,,,031219_p1,001,2019_Mar_12_1027,body_behavioural,3.0.4,59.87686203768379,
5,David observed that someone with a tall cart of luggage was heading straight for where Anna was kneeling. ,1,1,,,,0,5,5,5,,,,,0,6,6,6,,,,,,,,,,,,,,,,,,,,,,,,,,,,,1,8.102576806995785,,,,,,,,,,,,,,,,,,,,,,,,,,,,031219_p1,001,2019_Mar_12_1027,body_behavioural,3.0.4,59.87686203768379,
5,Both Anna and the person driving the cart were oblivious to the impending collision. ,1,1,,,,0,5,5,5,,,,,0,7,7,7,,,,,,,,,,,,,,,,,,,,,,,,,,,,,1,1.9025411829934455,,,,,,,,,,,,,,,,,,,,,,,,,,,,031219_p1,001,2019_Mar_12_1027,body_behavioural,3.0.4,59.87686203768379,
5,"David had to intervene, and he ran in front of the cart pushing her out of the way just in the nick of time, and they tumbled on the airport floor. ",1,2,,,,0,5,5,5,,,,,0,8,8,8,,,,,,,,,,,,,,,,,,,,,,,,,,,,,1,3.5856662149890326,,,,,,,,,,,,,,,,,,,,,,,,,,,,031219_p1,001,2019_Mar_12_1027,body_behavioural,3.0.4,59.87686203768379,
5,"Anna, bewildered, looked up and saw the cart pass by and then looked over at David. ",1,2,,,,0,5,5,5,,,,,0,9,9,9,,,,,,,,,,,,,,,,,,,,,,,,,,,,,1,4.419404600019334,,,,,,,,,,,,,,,,,,,,,,,,,,,,031219_p1,001,2019_Mar_12_1027,body_behavioural,3.0.4,59.87686203768379,
5,He gave a smile back.,1,2,,,,0,5,5,5,,,,,0,10,10,10,,,,,,,,,,,,,,,,,,,,,,,,,,,,,1,0.8861055000161286,,,,,,,,,,,,,,,,,,,,,,,,,,,,031219_p1,001,2019_Mar_12_1027,body_behavioural,3.0.4,59.87686203768379,
5,"“You alright?”, he said.",1,2,,,,0,5,5,5,,,,,0,11,11,11,,,,,,,,,,,,,,,,,,,,,,,,,,,,,1,0.9005690799967851,,,,,,,,,,,,,,,,,,,,,,,,,,,,031219_p1,001,2019_Mar_12_1027,body_behavioural,3.0.4,59.87686203768379,
5,"She whispered, “Uh yeah.",1,2,,,,0,5,5,5,,,,,0,12,12,12,,,,,,,,,,,,,,,,,,,,,,,,,,,,,1,0.6685265600099228,,,,,,,,,,,,,,,,,,,,,,,,,,,,031219_p1,001,2019_Mar_12_1027,body_behavioural,3.0.4,59.87686203768379,
5,I almost got smooshed by that cart.”,1,2,,,,0,5,5,5,,,,,0,13,13,13,,,,,,,,,,,,,,,,,,,,,,,,,,,,,1,1.2510575000196695,,,,,,,,,,,,,,,,,,,,,,,,,,,,031219_p1,001,2019_Mar_12_1027,body_behavioural,3.0.4,59.87686203768379,
5,Her head was still spinning as she stared at the handsome stranger who had saved her. ,1,2,,,,0,5,5,5,,,,,0,14,14,14,,,,,,,,,,,,,,,,,,,,,,,,,,,,,1,3.950878311996348,,,,,,,,,,,,,,,,,,,,,,,,,,,,031219_p1,001,2019_Mar_12_1027,body_behavioural,3.0.4,59.87686203768379,
5,David helped her up and had to keep holding on to her arms to steady her even once they were standing.,1,2,,,,0,5,5,5,,,,,0,15,15,15,,,,,,,,,,,,,,,,,,,,,,,,,,,,,1,9.584463651990518,,,,,,,,,,,,,,,,,,,,,,,,,,,,031219_p1,001,2019_Mar_12_1027,body_behavioural,3.0.4,59.87686203768379,
5,"“I’m really late for my flight,” she said. ",1,2,,,,0,5,5,5,,,,,0,16,16,16,,,,,,,,,,,,,,,,,,,,,,,,,,,,,1,1.1853883599978872,,,,,,,,,,,,,,,,,,,,,,,,,,,,031219_p1,001,2019_Mar_12_1027,body_behavioural,3.0.4,59.87686203768379,
5,"“Don't worry,” said David, "let me help you get to your gate." ",1,2,,,,0,5,5,5,,,,,0,17,17,17,,,,,,,,,,,,,,,,,,,,,,,,,,,,,1,2.0671236729831435,,,,,,,,,,,,,,,,,,,,,,,,,,,,031219_p1,001,2019_Mar_12_1027,body_behavioural,3.0.4,59.87686203768379,
5,He waved off her half-hearted protests. ,1,2,,,,0,5,5,5,,,,,0,18,18,18,,,,,,,,,,,,,,,,,,,,,,,,,,,,,1,2.886035327013815,,,,,,,,,,,,,,,,,,,,,,,,,,,,031219_p1,001,2019_Mar_12_1027,body_behavioural,3.0.4,59.87686203768379,
5,"“Really , I have plenty of time and nothing better to do.”",1,2,,,,0,5,5,5,,,,,0,19,19,19,,,,,,,,,,,,,,,,,,,,,,,,,,,,,1,3.6353199400182348,,,,,,,,,,,,,,,,,,,,,,,,,,,,031219_p1,001,2019_Mar_12_1027,body_behavioural,3.0.4,59.87686203768379,
5,They headed to the security line. ,2,2,,,,0,5,5,5,,,,,0,20,20,20,,,,,,,,,,,,,,,,,,,,,,,,,,,,,1,0.8857872530061286,,,,,,,,,,,,,,,,,,,,,,,,,,,,031219_p1,001,2019_Mar_12_1027,body_behavioural,3.0.4,59.87686203768379,
5,"The line was not long, and they spent the time chatting and getting to know each other.",2,2,,,,0,5,5,5,,,,,0,21,21,21,,,,,,,,,,,,,,,,,,,,,,,,,,,,,1,3.3026441900001373,,,,,,,,,,,,,,,,,,,,,,,,,,,,031219_p1,001,2019_Mar_12_1027,body_behavioural,3.0.4,59.87686203768379,
5,It turned out that Anna and David went to the same high school but Anna had been 3 years older.,2,2,,,,0,5,5,5,,,,,0,22,22,22,,,,,,,,,,,,,,,,,,,,,,,,,,,,,1,3.619368610001402,,,,,,,,,,,,,,,,,,,,,,,,,,,,031219_p1,001,2019_Mar_12_1027,body_behavioural,3.0.4,59.87686203768379,
5,When they got to the front of the line they took off their shoes and pulled off their coats.,2,3,,,,0,5,5,5,,,,,0,23,23,23,,,,,,,,,,,,,,,,,,,,,,,,,,,,,1,8.185652420012048,,,,,,,,,,,,,,,,,,,,,,,,,,,,031219_p1,001,2019_Mar_12_1027,body_behavioural,3.0.4,59.87686203768379,
5,Both of them went through the metal detector without any problems. ,2,3,,,,0,5,5,5,,,,,0,24,24,24,,,,,,,,,,,,,,,,,,,,,,,,,,,,,1,1.9683988399920054,,,,,,,,,,,,,,,,,,,,,,,,,,,,031219_p1,001,2019_Mar_12_1027,body_behavioural,3.0.4,59.87686203768379,
5,"Anna’s flight was in 20 minutes, and as she was rushing to put her shoes and coat back on, David asked her, “So when are you coming back?”",2,3,,,,0,5,5,5,,,,,0,25,25,25,,,,,,,,,,,,,,,,,,,,,,,,,,,,,1,4.451957369979937,,,,,,,,,,,,,,,,,,,,,,,,,,,,031219_p1,001,2019_Mar_12_1027,body_behavioural,3.0.4,59.87686203768379,
5,"“In a week, it’s a short trip,” Anna replied. ",2,3,,,,0,5,5,5,,,,,0,26,26,26,,,,,,,,,,,,,,,,,,,,,,,,,,,,,1,1.6691281420062296,,,,,,,,,,,,,,,,,,,,,,,,,,,,031219_p1,001,2019_Mar_12_1027,body_behavioural,3.0.4,59.87686203768379,
5,"“Me too,” David said.",2,3,,,,0,5,5,5,,,,,0,27,27,27,,,,,,,,,,,,,,,,,,,,,,,,,,,,,1,0.83560113699059,,,,,,,,,,,,,,,,,,,,,,,,,,,,031219_p1,001,2019_Mar_12_1027,body_behavioural,3.0.4,59.87686203768379,
5,"He continued, “When we're back in town, is there any chance you'd want to get dinner?",2,3,,,,0,5,5,5,,,,,0,28,28,28,,,,,,,,,,,,,,,,,,,,,,,,,,,,,1,2.102297103003366,,,,,,,,,,,,,,,,,,,,,,,,,,,,031219_p1,001,2019_Mar_12_1027,body_behavioural,3.0.4,59.87686203768379,
5,"I know we just met, but when life throws a luggage cart at you it seems like we should listen. “",2,3,,,,0,5,5,5,,,,,0,29,29,29,,,,,,,,,,,,,,,,,,,,,,,,,,,,,1,7.620387960021617,,,,,,,,,,,,,,,,,,,,,,,,,,,,031219_p1,001,2019_Mar_12_1027,body_behavioural,3.0.4,59.87686203768379,
5,"She stopped packing, and said with a smile, “Yes I would love that.”",2,3,,,,0,5,5,5,,,,,0,30,30,30,,,,,,,,,,,,,,,,,,,,,,,,,,,,,1,1.5693910529953428,,,,,,,,,,,,,,,,,,,,,,,,,,,,031219_p1,001,2019_Mar_12_1027,body_behavioural,3.0.4,59.87686203768379,
5,Then they ran off to Anna’s gate which was at the end of the terminal. ,3,3,,,,0,5,5,5,,,,,0,31,31,31,,,,,,,,,,,,,,,,,,,,,,,,,,,,,1,1.9868127280205954,,,,,,,,,,,,,,,,,,,,,,,,,,,,031219_p1,001,2019_Mar_12_1027,body_behavioural,3.0.4,59.87686203768379,
5,"David took put on her backpack, grabbed her hand, and navigated quickly through the crowds of people.",3,3,,,,0,5,5,5,,,,,0,32,32,32,,,,,,,,,,,,,,,,,,,,,,,,,,,,,1,8.286091271991609,,,,,,,,,,,,,,,,,,,,,,,,,,,,031219_p1,001,2019_Mar_12_1027,body_behavioural,3.0.4,59.87686203768379,
5,Anna was amazed at everything that was happening; she had arrived at the airport doubtful that she would make it and was now confident that she would due to this handsome and kind man she just met.,3,3,,,,0,5,5,5,,,,,0,33,33,33,,,,,,,,,,,,,,,,,,,,,,,,,,,,,1,5.386320974997943,,,,,,,,,,,,,,,,,,,,,,,,,,,,031219_p1,001,2019_Mar_12_1027,body_behavioural,3.0.4,59.87686203768379,
5,"As they approached her gate, Anna fished out a crumbled business card from her pocket and handed it to David, who handed her the backpack, and he promised to call her next week.",3,4,,,,0,5,5,5,,,,,0,34,34,34,,,,,,,,,,,,,,,,,,,,,,,,,,,,,1,7.051137605012627,,,,,,,,,,,,,,,,,,,,,,,,,,,,031219_p1,001,2019_Mar_12_1027,body_behavioural,3.0.4,59.87686203768379,
5,She gave him one last embarrassed smile and approached the flight attendant who scanned her ticket. ,3,4,,,,0,5,5,5,,,,,0,35,35,35,,,,,,,,,,,,,,,,,,,,,,,,,,,,,1,2.652452957991045,,,,,,,,,,,,,,,,,,,,,,,,,,,,031219_p1,001,2019_Mar_12_1027,body_behavioural,3.0.4,59.87686203768379,
5,"Finally, she boarded the plane, sliding into her window seat located all the way in the back of the plane.",4,4,,,,0,5,5,5,,,,,0,36,36,36,,,,,,,,,,,,,,,,,,,,,,,,,,,,,1,3.4195339150028303,,,,,,,,,,,,,,,,,,,,,,,,,,,,031219_p1,001,2019_Mar_12_1027,body_behavioural,3.0.4,59.87686203768379,
5,"Barely containing her glee, she ignored the grumbles of complaint as she squeezed past the other passengers in her row and settled back in her seat. ",4,4,,,,0,5,5,5,,,,,0,37,37,37,,,,,,,,,,,,,,,,,,,,,,,,,,,,,1,6.4699400270183105,,,,,,,,,,,,,,,,,,,,,,,,,,,,031219_p1,001,2019_Mar_12_1027,body_behavioural,3.0.4,59.87686203768379,
5,"She was thankful that she had not only made it onto the plane in time, but also that she had been clumsy enough to forget to tie her shoes.",4,4,,,,0,5,5,5,,,,,0,38,38,38,,,,,,,,,,,,,,,,,,,,,,,,,,,,,1,2.5351783119840547,,,,,,,,,,,,,,,,,,,,,,,,,,,,031219_p1,001,2019_Mar_12_1027,body_behavioural,3.0.4,59.87686203768379,
5,,,,,,,0,5,5,5,,,,,,,,,,,,,,,,,,,,,,,,,,,,,,,,,,,,,,,,,,,,,,,,,,,,,,,,,,,,,,,,,,031219_p1,001,2019_Mar_12_1027,body_behavioural,3.0.4,59.87686203768379,
6,,,,,,,0,6,6,6,0,0,0,0,,,,,,,,,,,,,,,,,,,,,,,,,,,space,1.3023593719990458,space,0.8184797100257128,space,0.7040851749770809,,,,,,,,,,,,,,,,,,,,,,,,,,,,,,031219_p1,001,2019_Mar_12_1027,body_behavioural,3.0.4,59.87686203768379,
6,Mr. Shelton and Mr. Gordon shook hands inside the foyer of the restaurant: lunch today was about big business. ,1,1,,,,0,6,6,6,,,,,0,0,0,0,,,,,,,,,,,,,,,,,,,,,,,,,,,,,9,12.036196437024046,,,,,,,,,,,,,,,,,,,,,,,,,,,,031219_p1,001,2019_Mar_12_1027,body_behavioural,3.0.4,59.87686203768379,
6,Mr. Shelton and Mr. Gordon both were CEOs of airplane manufacturing companies.,1,1,,,,0,6,6,6,,,,,0,1,1,1,,,,,,,,,,,,,,,,,,,,,,,,,,,,,1,4.802605882025091,,,,,,,,,,,,,,,,,,,,,,,,,,,,031219_p1,001,2019_Mar_12_1027,body_behavioural,3.0.4,59.87686203768379,
6,"Mr. Shelton was in charge of a larger, well-established company and had been in the aviation business for decades.",1,1,,,,0,6,6,6,,,,,0,2,2,2,,,,,,,,,,,,,,,,,,,,,,,,,,,,,1,12.719627711980138,,,,,,,,,,,,,,,,,,,,,,,,,,,,031219_p1,001,2019_Mar_12_1027,body_behavioural,3.0.4,59.87686203768379,
6,"On the other hand, Mr. Gordon led a smaller but technologically-advanced company that was projected to disrupt the airplane manufacturing market. ",1,1,,,,0,6,6,6,,,,,0,3,3,3,,,,,,,,,,,,,,,,,,,,,,,,,,,,,1,3.500870791991474,,,,,,,,,,,,,,,,,,,,,,,,,,,,031219_p1,001,2019_Mar_12_1027,body_behavioural,3.0.4,59.87686203768379,
6,"The restaurant they chose to meet at was old and fancy with high ceilings, dark wood paneling, and crystal chandeliers.",1,1,,,,0,6,6,6,,,,,0,4,4,4,,,,,,,,,,,,,,,,,,,,,,,,,,,,,1,16.23677581199445,,,,,,,,,,,,,,,,,,,,,,,,,,,,031219_p1,001,2019_Mar_12_1027,body_behavioural,3.0.4,59.87686203768379,
6,"The waitress led them to their table in the back, and they settled into a private table in the corner by the fireplace. ",2,1,,,,0,6,6,6,,,,,0,5,5,5,,,,,,,,,,,,,,,,,,,,,,,,,,,,,1,3.2032607149740215,,,,,,,,,,,,,,,,,,,,,,,,,,,,031219_p1,001,2019_Mar_12_1027,body_behavioural,3.0.4,59.87686203768379,
6,The waitress brought out the menus and they broke the ice with some small talk.,2,1,,,,0,6,6,6,,,,,0,6,6,6,,,,,,,,,,,,,,,,,,,,,,,,,,,,,1,4.551769954996416,,,,,,,,,,,,,,,,,,,,,,,,,,,,031219_p1,001,2019_Mar_12_1027,body_behavioural,3.0.4,59.87686203768379,
6,"Mr. Gordon took out a picture of his daughter and talked about her recent engagement, and Mr. Gordon boasted about his purchase of a Tesla. ",2,1,,,,0,6,6,6,,,,,0,7,7,7,,,,,,,,,,,,,,,,,,,,,,,,,,,,,1,5.652746912994189,,,,,,,,,,,,,,,,,,,,,,,,,,,,031219_p1,001,2019_Mar_12_1027,body_behavioural,3.0.4,59.87686203768379,
6,"They looked at the menus as well, which were full of Italian classics like Carbonara and Tiramisu, and in the back section of the menu was a lengthy drink selection.",2,1,,,,0,6,6,6,,,,,0,8,8,8,,,,,,,,,,,,,,,,,,,,,,,,,,,,,1,10.419041474990081,,,,,,,,,,,,,,,,,,,,,,,,,,,,031219_p1,001,2019_Mar_12_1027,body_behavioural,3.0.4,59.87686203768379,
6,"After awhile, Mr. Shelton brought the conversation around to business.",2,2,,,,0,6,6,6,,,,,0,9,9,9,,,,,,,,,,,,,,,,,,,,,,,,,,,,,1,6.420309073000681,,,,,,,,,,,,,,,,,,,,,,,,,,,,031219_p1,001,2019_Mar_12_1027,body_behavioural,3.0.4,59.87686203768379,
6,"“Mr. Gordon, we really admire what you’re doing at your company.",2,2,,,,0,6,6,6,,,,,0,10,10,10,,,,,,,,,,,,,,,,,,,,,,,,,,,,,1,2.1674697420094162,,,,,,,,,,,,,,,,,,,,,,,,,,,,031219_p1,001,2019_Mar_12_1027,body_behavioural,3.0.4,59.87686203768379,
6,We think it’s genius; we want to support your vision and make this tiny company of yours internationally known.,2,2,,,,0,6,6,6,,,,,0,11,11,11,,,,,,,,,,,,,,,,,,,,,,,,,,,,,1,3.119874001975404,,,,,,,,,,,,,,,,,,,,,,,,,,,,031219_p1,001,2019_Mar_12_1027,body_behavioural,3.0.4,59.87686203768379,
6,"But honestly, your company doesn’t have the resources to reach international markets right now.",2,2,,,,0,6,6,6,,,,,0,12,12,12,,,,,,,,,,,,,,,,,,,,,,,,,,,,,1,3.086857822985621,,,,,,,,,,,,,,,,,,,,,,,,,,,,031219_p1,001,2019_Mar_12_1027,body_behavioural,3.0.4,59.87686203768379,
6,"Maybe in a few years you could, but by that time, other companies may have already filled your niche.",2,2,,,,0,6,6,6,,,,,0,13,13,13,,,,,,,,,,,,,,,,,,,,,,,,,,,,,1,2.283771535003325,,,,,,,,,,,,,,,,,,,,,,,,,,,,031219_p1,001,2019_Mar_12_1027,body_behavioural,3.0.4,59.87686203768379,
6,I think we should join forces.”,2,2,,,,0,6,6,6,,,,,0,14,14,14,,,,,,,,,,,,,,,,,,,,,,,,,,,,,1,0.9522193599841557,,,,,,,,,,,,,,,,,,,,,,,,,,,,031219_p1,001,2019_Mar_12_1027,body_behavioural,3.0.4,59.87686203768379,
6,The waitress came up to them and asked if they were ready to order.,3,2,,,,0,6,6,6,,,,,0,15,15,15,,,,,,,,,,,,,,,,,,,,,,,,,,,,,1,1.8018532279820647,,,,,,,,,,,,,,,,,,,,,,,,,,,,031219_p1,001,2019_Mar_12_1027,body_behavioural,3.0.4,59.87686203768379,
6,"Mr. Gordon ordered a medium-rare steak and martini, and Mr. Shelton ordered veal and a manhattan. ",3,2,,,,0,6,6,6,,,,,0,16,16,16,,,,,,,,,,,,,,,,,,,,,,,,,,,,,1,4.702916899987031,,,,,,,,,,,,,,,,,,,,,,,,,,,,031219_p1,001,2019_Mar_12_1027,body_behavioural,3.0.4,59.87686203768379,
6,"Then Mr. Shelton continued, “Look, I’ve talked to other members of the board, and we are prepared to offer $600 million to buy your company. ",3,2,,,,0,6,6,6,,,,,0,17,17,17,,,,,,,,,,,,,,,,,,,,,,,,,,,,,1,4.3847307130054105,,,,,,,,,,,,,,,,,,,,,,,,,,,,031219_p1,001,2019_Mar_12_1027,body_behavioural,3.0.4,59.87686203768379,
6,"We'd keep on all of your current employees, and you would join as the director of your company branch.” ",3,2,,,,0,6,6,6,,,,,0,18,18,18,,,,,,,,,,,,,,,,,,,,,,,,,,,,,1,3.202045146987075,,,,,,,,,,,,,,,,,,,,,,,,,,,,031219_p1,001,2019_Mar_12_1027,body_behavioural,3.0.4,59.87686203768379,
6,Mr. Gordon sat looking at Mr. Shelton for a few moments considering his response. ,3,2,,,,0,6,6,6,,,,,0,19,19,19,,,,,,,,,,,,,,,,,,,,,,,,,,,,,1,9.16681014499045,,,,,,,,,,,,,,,,,,,,,,,,,,,,031219_p1,001,2019_Mar_12_1027,body_behavioural,3.0.4,59.87686203768379,
6,He looked at Mr. Shelton skeptically.,3,2,,,,0,6,6,6,,,,,0,20,20,20,,,,,,,,,,,,,,,,,,,,,,,,,,,,,1,1.0495175800169818,,,,,,,,,,,,,,,,,,,,,,,,,,,,031219_p1,001,2019_Mar_12_1027,body_behavioural,3.0.4,59.87686203768379,
6,"He said, “Mr. Shelton, I think that you make a compelling offer, but there are definitely some disadvantages to attaching our small, streamlined productions to a large company like yours.",3,3,,,,0,6,6,6,,,,,0,21,21,21,,,,,,,,,,,,,,,,,,,,,,,,,,,,,1,5.33615421000286,,,,,,,,,,,,,,,,,,,,,,,,,,,,031219_p1,001,2019_Mar_12_1027,body_behavioural,3.0.4,59.87686203768379,
6,"We operate in a very different way than a large company, and the kind of administrative complexity that makes the scale of your productions possible would suffocate our business.",3,3,,,,0,6,6,6,,,,,0,22,22,22,,,,,,,,,,,,,,,,,,,,,,,,,,,,,1,3.9692465069820173,,,,,,,,,,,,,,,,,,,,,,,,,,,,031219_p1,001,2019_Mar_12_1027,body_behavioural,3.0.4,59.87686203768379,
6,"With our product, scaling-up doesn’t necessarily make sense.” ",3,3,,,,0,6,6,6,,,,,0,23,23,23,,,,,,,,,,,,,,,,,,,,,,,,,,,,,1,1.96935931200278,,,,,,,,,,,,,,,,,,,,,,,,,,,,031219_p1,001,2019_Mar_12_1027,body_behavioural,3.0.4,59.87686203768379,
6,Mr. Shelton had expected this response and had come prepared.,3,3,,,,0,6,6,6,,,,,0,24,24,24,,,,,,,,,,,,,,,,,,,,,,,,,,,,,1,2.8200338069873396,,,,,,,,,,,,,,,,,,,,,,,,,,,,031219_p1,001,2019_Mar_12_1027,body_behavioural,3.0.4,59.87686203768379,
6,He began laying out the details of how he had handled similar acquisitions successfully in the past.,3,3,,,,0,6,6,6,,,,,0,25,25,25,,,,,,,,,,,,,,,,,,,,,,,,,,,,,1,1.7679081300157122,,,,,,,,,,,,,,,,,,,,,,,,,,,,031219_p1,001,2019_Mar_12_1027,body_behavioural,3.0.4,59.87686203768379,
6,"Mr. Gordon was impressed, and they went back and forth hashing out what the company configuration would look like post-merger. ",3,3,,,,0,6,6,6,,,,,0,26,26,26,,,,,,,,,,,,,,,,,,,,,,,,,,,,,1,3.7529414700111374,,,,,,,,,,,,,,,,,,,,,,,,,,,,031219_p1,001,2019_Mar_12_1027,body_behavioural,3.0.4,59.87686203768379,
6,"The waitress brought the food out, interrupting their animated conversation.",4,3,,,,0,6,6,6,,,,,0,27,27,27,,,,,,,,,,,,,,,,,,,,,,,,,,,,,1,1.8015402599994559,,,,,,,,,,,,,,,,,,,,,,,,,,,,031219_p1,001,2019_Mar_12_1027,body_behavioural,3.0.4,59.87686203768379,
6,“Oh this looks so good!” Mr. Gordon said. ,4,3,,,,0,6,6,6,,,,,0,28,28,28,,,,,,,,,,,,,,,,,,,,,,,,,,,,,1,1.0701191299885977,,,,,,,,,,,,,,,,,,,,,,,,,,,,031219_p1,001,2019_Mar_12_1027,body_behavioural,3.0.4,59.87686203768379,
6, “Can I get you anything else?” the waitress asked.,4,3,,,,0,6,6,6,,,,,0,29,29,29,,,,,,,,,,,,,,,,,,,,,,,,,,,,,1,2.6534565199981444,,,,,,,,,,,,,,,,,,,,,,,,,,,,031219_p1,001,2019_Mar_12_1027,body_behavioural,3.0.4,59.87686203768379,
6,They declined and continued to talk.,4,3,,,,0,6,6,6,,,,,0,30,30,30,,,,,,,,,,,,,,,,,,,,,,,,,,,,,1,0.8351476700045168,,,,,,,,,,,,,,,,,,,,,,,,,,,,031219_p1,001,2019_Mar_12_1027,body_behavioural,3.0.4,59.87686203768379,
6,"The meal lived up to the reputation of the restaurant, which was known for having the best cuts of meat in the area.",4,3,,,,0,6,6,6,,,,,0,31,31,31,,,,,,,,,,,,,,,,,,,,,,,,,,,,,1,4.685508836992085,,,,,,,,,,,,,,,,,,,,,,,,,,,,031219_p1,001,2019_Mar_12_1027,body_behavioural,3.0.4,59.87686203768379,
6,"Mr. Gordon, after taking a contemplative bite of his food, said, “Mr. Shelton, I think we have a deal. ",4,4,,,,0,6,6,6,,,,,0,32,32,32,,,,,,,,,,,,,,,,,,,,,,,,,,,,,1,6.221218385006068,,,,,,,,,,,,,,,,,,,,,,,,,,,,031219_p1,001,2019_Mar_12_1027,body_behavioural,3.0.4,59.87686203768379,
6,"If you can guarantee that I can still have the final say in the all the work done by my team, I think this could be beneficial for both of us.",4,4,,,,0,6,6,6,,,,,0,33,33,33,,,,,,,,,,,,,,,,,,,,,,,,,,,,,1,3.602201130008325,,,,,,,,,,,,,,,,,,,,,,,,,,,,031219_p1,001,2019_Mar_12_1027,body_behavioural,3.0.4,59.87686203768379,
6,I propose a toast to the merging of our companies.”,4,4,,,,0,6,6,6,,,,,0,34,34,34,,,,,,,,,,,,,,,,,,,,,,,,,,,,,1,1.3691285800014157,,,,,,,,,,,,,,,,,,,,,,,,,,,,031219_p1,001,2019_Mar_12_1027,body_behavioural,3.0.4,59.87686203768379,
6,Mr. Shelton grinned and lifted his martini to clink glasses.,4,4,,,,0,6,6,6,,,,,0,35,35,35,,,,,,,,,,,,,,,,,,,,,,,,,,,,,1,3.201711706991773,,,,,,,,,,,,,,,,,,,,,,,,,,,,031219_p1,001,2019_Mar_12_1027,body_behavioural,3.0.4,59.87686203768379,
6,"He said, “Cheers to a lifelong partnership and to the growth of your company.” ",4,4,,,,0,6,6,6,,,,,0,36,36,36,,,,,,,,,,,,,,,,,,,,,,,,,,,,,1,1.4694922249764204,,,,,,,,,,,,,,,,,,,,,,,,,,,,031219_p1,001,2019_Mar_12_1027,body_behavioural,3.0.4,59.87686203768379,
6,,,,,,,0,6,6,6,,,,,,,,,,,,,,,,,,,,,,,,,,,,,,,,,,,,,,,,,,,,,,,,,,,,,,,,,,,,,,,,,,031219_p1,001,2019_Mar_12_1027,body_behavioural,3.0.4,59.87686203768379,
7,,,,,,,0,7,7,7,0,0,0,0,,,,,,,,,,,,,,,,,,,,,,,,,,,space,1.2184496400004718,space,0.5030534050019924,space,2.036480542999925,,,,,,,,,,,,,,,,,,,,,,,,,,,,,,031219_p1,001,2019_Mar_12_1027,body_behavioural,3.0.4,59.87686203768379,
7,,,,,,,0,7,7,7,1,0,1,0,,,,,,,,,,,,,,,,,,,,,,,,,,,,,,,space,0.5358266000112053,,,,,,,,,,,,,,,,,,,,,,,,,,,,,,031219_p1,001,2019_Mar_12_1027,body_behavioural,3.0.4,59.87686203768379,
7,"Ms. Bianchi and Ms. Morrison walked into the grocery store at the same time, and, after a moment of mutual recognition, greeted each other and shook hands.",1,1,,,,0,7,7,7,,,,,0,0,0,0,,,,,,,,,,,,,,,,,,,,,,,,,,,,,9,11.321071479993407,,,,,,,,,,,,,,,,,,,,,,,,,,,,031219_p1,001,2019_Mar_12_1027,body_behavioural,3.0.4,59.87686203768379,
7,"“Thank you again for inviting me here to discuss my business proposal,” said Ms. Bianchi, “And it’s a pleasure to be out of the office.” ",1,1,,,,0,7,7,7,,,,,0,1,1,1,,,,,,,,,,,,,,,,,,,,,,,,,,,,,1,6.034696871996857,,,,,,,,,,,,,,,,,,,,,,,,,,,,031219_p1,001,2019_Mar_12_1027,body_behavioural,3.0.4,59.87686203768379,
7,"As a salesperson for an Italian cheese company that was trying to expand its outreach to more mainstream grocery stores, this meeting could be a big break for her.",1,1,,,,0,7,7,7,,,,,0,2,2,2,,,,,,,,,,,,,,,,,,,,,,,,,,,,,1,12.304235345014604,,,,,,,,,,,,,,,,,,,,,,,,,,,,031219_p1,001,2019_Mar_12_1027,body_behavioural,3.0.4,59.87686203768379,
7,"Her sales target, Ms. Morrison,  who had a reputation for being a bit quirky, was a corporate buyer for a large chain grocery store. ",1,1,,,,0,7,7,7,,,,,0,3,3,3,,,,,,,,,,,,,,,,,,,,,,,,,,,,,1,5.585168310004519,,,,,,,,,,,,,,,,,,,,,,,,,,,,031219_p1,001,2019_Mar_12_1027,body_behavioural,3.0.4,59.87686203768379,
7,"She was known for doing things unconventionally: for example, she said that she liked to make deals with suppliers in the place where the products were sold- “to keep their minds focused on what’s important.” ",1,1,,,,0,7,7,7,,,,,0,4,4,4,,,,,,,,,,,,,,,,,,,,,,,,,,,,,1,7.285408660012763,,,,,,,,,,,,,,,,,,,,,,,,,,,,031219_p1,001,2019_Mar_12_1027,body_behavioural,3.0.4,59.87686203768379,
7,"They chatted a little in the front of the grocery store, which was surrounded by pumpkins and halloween decorations set up in special displays for the holiday season.",1,1,,,,0,7,7,7,,,,,0,5,5,5,,,,,,,,,,,,,,,,,,,,,,,,,,,,,1,5.751435860001948,,,,,,,,,,,,,,,,,,,,,,,,,,,,031219_p1,001,2019_Mar_12_1027,body_behavioural,3.0.4,59.87686203768379,
7,"Ms. Bianchi and Ms. Morrison walked to the cheese section, and Ms. Morrison picked up a block of parmesan.",2,1,,,,0,7,7,7,,,,,0,6,6,6,,,,,,,,,,,,,,,,,,,,,,,,,,,,,1,8.98472043100628,,,,,,,,,,,,,,,,,,,,,,,,,,,,031219_p1,001,2019_Mar_12_1027,body_behavioural,3.0.4,59.87686203768379,
7,“We have quite a selection here.,2,1,,,,0,7,7,7,,,,,0,7,7,7,,,,,,,,,,,,,,,,,,,,,,,,,,,,,1,2.051852422999218,,,,,,,,,,,,,,,,,,,,,,,,,,,,031219_p1,001,2019_Mar_12_1027,body_behavioural,3.0.4,59.87686203768379,
7,I don’t know that it needs an additional section for more gourmet cheeses.” ,2,1,,,,0,7,7,7,,,,,0,8,8,8,,,,,,,,,,,,,,,,,,,,,,,,,,,,,1,2.38645800499944,,,,,,,,,,,,,,,,,,,,,,,,,,,,031219_p1,001,2019_Mar_12_1027,body_behavioural,3.0.4,59.87686203768379,
7,"Ms. Bianchi's confidence faltered for a minute at this remark, but then she launched into her prepared pitch.",2,1,,,,0,7,7,7,,,,,0,9,9,9,,,,,,,,,,,,,,,,,,,,,,,,,,,,,1,4.404524945974117,,,,,,,,,,,,,,,,,,,,,,,,,,,,031219_p1,001,2019_Mar_12_1027,body_behavioural,3.0.4,59.87686203768379,
7," “Ms. Morrison, I think you would agree that selling food is more than just providing variety, but also about providing the highest quality.",2,2,,,,0,7,7,7,,,,,0,10,10,10,,,,,,,,,,,,,,,,,,,,,,,,,,,,,1,5.1030758570123,,,,,,,,,,,,,,,,,,,,,,,,,,,,031219_p1,001,2019_Mar_12_1027,body_behavioural,3.0.4,59.87686203768379,
7,"You don’t have cheeses made in America that are like ours, it is true.",2,2,,,,0,7,7,7,,,,,0,11,11,11,,,,,,,,,,,,,,,,,,,,,,,,,,,,,1,1.702580740005942,,,,,,,,,,,,,,,,,,,,,,,,,,,,031219_p1,001,2019_Mar_12_1027,body_behavioural,3.0.4,59.87686203768379,
7,Your store could be providing American consumers with a dimension in taste that they've never known before with our product.,2,2,,,,0,7,7,7,,,,,0,12,12,12,,,,,,,,,,,,,,,,,,,,,,,,,,,,,1,2.819349992001662,,,,,,,,,,,,,,,,,,,,,,,,,,,,031219_p1,001,2019_Mar_12_1027,body_behavioural,3.0.4,59.87686203768379,
7,"I propose that you give it a shot, buy $1000 worth of cheese products for a few stores, and see how the sales increase not only in our cheeses but also in products related to cheeses: crackers, jams, olives. ",2,2,,,,0,7,7,7,,,,,0,13,13,13,,,,,,,,,,,,,,,,,,,,,,,,,,,,,1,7.953194129979238,,,,,,,,,,,,,,,,,,,,,,,,,,,,031219_p1,001,2019_Mar_12_1027,body_behavioural,3.0.4,59.87686203768379,
7,"The availability of a finer product leads to the appreciation of the product, and your consumers will start to consume in a new, more profitable way.”",2,2,,,,0,7,7,7,,,,,0,14,14,14,,,,,,,,,,,,,,,,,,,,,,,,,,,,,1,3.1029407599999104,,,,,,,,,,,,,,,,,,,,,,,,,,,,031219_p1,001,2019_Mar_12_1027,body_behavioural,3.0.4,59.87686203768379,
7,"Ms. Bianchi picked up a box of crackers by the cheese section, and said, “Here, I will buy these, and we can try some of our cheeses that I've brought with me.”",2,2,,,,0,7,7,7,,,,,0,15,15,15,,,,,,,,,,,,,,,,,,,,,,,,,,,,,1,4.8027555019943975,,,,,,,,,,,,,,,,,,,,,,,,,,,,031219_p1,001,2019_Mar_12_1027,body_behavioural,3.0.4,59.87686203768379,
7,"Ms. Morrison, who was thinking, nodded in agreement and said, “That sounds like a great idea.",2,2,,,,0,7,7,7,,,,,0,16,16,16,,,,,,,,,,,,,,,,,,,,,,,,,,,,,1,2.336601057992084,,,,,,,,,,,,,,,,,,,,,,,,,,,,031219_p1,001,2019_Mar_12_1027,body_behavioural,3.0.4,59.87686203768379,
7,"Let’s head to check out, and those crackers are on me.” ",2,2,,,,0,7,7,7,,,,,0,17,17,17,,,,,,,,,,,,,,,,,,,,,,,,,,,,,1,1.884413512016181,,,,,,,,,,,,,,,,,,,,,,,,,,,,031219_p1,001,2019_Mar_12_1027,body_behavioural,3.0.4,59.87686203768379,
7,They walked over to the checkout area.,3,2,,,,0,7,7,7,,,,,0,18,18,18,,,,,,,,,,,,,,,,,,,,,,,,,,,,,1,0.8521159829979297,,,,,,,,,,,,,,,,,,,,,,,,,,,,031219_p1,001,2019_Mar_12_1027,body_behavioural,3.0.4,59.87686203768379,
7,"There was a very long line, and it was very busy in the checkout area as people were stocking up for Halloween parties and trick-or-treating. ",3,2,,,,0,7,7,7,,,,,0,19,19,19,,,,,,,,,,,,,,,,,,,,,,,,,,,,,1,3.069102035020478,,,,,,,,,,,,,,,,,,,,,,,,,,,,031219_p1,001,2019_Mar_12_1027,body_behavioural,3.0.4,59.87686203768379,
7,"Since they had almost a 10 minute wait in line, Ms. Bianchi handed a sheet with printed graphs to Ms. Morrison the increase in profits that several other stores had seen after starting to carry their products.",3,2,,,,0,7,7,7,,,,,0,20,20,20,,,,,,,,,,,,,,,,,,,,,,,,,,,,,1,5.484548099979293,,,,,,,,,,,,,,,,,,,,,,,,,,,,031219_p1,001,2019_Mar_12_1027,body_behavioural,3.0.4,59.87686203768379,
7,"Eventually, Ms. Morrison replied, “You know what, I think you've convinced me that this could work. ",3,3,,,,0,7,7,7,,,,,0,21,21,21,,,,,,,,,,,,,,,,,,,,,,,,,,,,,1,3.369419975002529,,,,,,,,,,,,,,,,,,,,,,,,,,,,031219_p1,001,2019_Mar_12_1027,body_behavioural,3.0.4,59.87686203768379,
7,We've been trying to find a way to add a little European cachet to our stores.,3,3,,,,0,7,7,7,,,,,0,22,22,22,,,,,,,,,,,,,,,,,,,,,,,,,,,,,1,1.4016974449914414,,,,,,,,,,,,,,,,,,,,,,,,,,,,031219_p1,001,2019_Mar_12_1027,body_behavioural,3.0.4,59.87686203768379,
7,There's still a problem though - I'm worried we'll be paying out the nose for the import taxes.,3,3,,,,0,7,7,7,,,,,0,23,23,23,,,,,,,,,,,,,,,,,,,,,,,,,,,,,1,3.0361665999807883,,,,,,,,,,,,,,,,,,,,,,,,,,,,031219_p1,001,2019_Mar_12_1027,body_behavioural,3.0.4,59.87686203768379,
7,Is that the case?",3,3,,,,0,7,7,7,,,,,0,24,24,24,,,,,,,,,,,,,,,,,,,,,,,,,,,,,1,0.7865059679897968,,,,,,,,,,,,,,,,,,,,,,,,,,,,031219_p1,001,2019_Mar_12_1027,body_behavioural,3.0.4,59.87686203768379,
7,"It was Ms. Morrison’s turn to checkout, and the two businesswomen continued to talk back and forth as she did so. ",4,3,,,,0,7,7,7,,,,,0,25,25,25,,,,,,,,,,,,,,,,,,,,,,,,,,,,,1,2.616355059988564,,,,,,,,,,,,,,,,,,,,,,,,,,,,031219_p1,001,2019_Mar_12_1027,body_behavioural,3.0.4,59.87686203768379,
7,"The cashier scanned the crackers, and Ms. Bianchi watched in amusement as Ms. Morrison paid the $6 price entirely in quarters from a wallet bulging with change.",4,3,,,,0,7,7,7,,,,,0,26,26,26,,,,,,,,,,,,,,,,,,,,,,,,,,,,,1,4.967740968015278,,,,,,,,,,,,,,,,,,,,,,,,,,,,031219_p1,001,2019_Mar_12_1027,body_behavioural,3.0.4,59.87686203768379,
7,"They shortly came to an agreement and would have enough cheese shipments, $5000 worth, to different stores to qualify for a subsidized import tax. ",4,4,,,,0,7,7,7,,,,,0,27,27,27,,,,,,,,,,,,,,,,,,,,,,,,,,,,,1,7.602832476986805,,,,,,,,,,,,,,,,,,,,,,,,,,,,031219_p1,001,2019_Mar_12_1027,body_behavioural,3.0.4,59.87686203768379,
7,"Ms. Bianchi retrieved some of her samples from her car, and they toasted their new deal with crackers topped with fresh mozzarella. ",4,4,,,,0,7,7,7,,,,,0,28,28,28,,,,,,,,,,,,,,,,,,,,,,,,,,,,,1,3.3689598769997247,,,,,,,,,,,,,,,,,,,,,,,,,,,,031219_p1,001,2019_Mar_12_1027,body_behavioural,3.0.4,59.87686203768379,
7,,,,,,,0,7,7,7,,,,,,,,,,,,,,,,,,,,,,,,,,,,,,,,,,,,,,,,,,,,,,,,,,,,,,,,,,,,,,,,,,031219_p1,001,2019_Mar_12_1027,body_behavioural,3.0.4,59.87686203768379,
,,,,,,,,,,,,,,,,,,,,,,,,,,,,,,,,,,,,,,,,,,,,,,,,,1734.1099655250146,space,2.0862981370009948,,,,,,,,,,,,,,,,,,,,,,,,,031219_p1,001,2019_Mar_12_1027,body_behavioural,3.0.4,59.87686203768379,
,,,,,,The next task in the experiment is to recall each story to the best of your ability.,,,,,,,,,,,,,0,0,0,0,,,,,,,,,,,,,,,,,,,,,,,,,,,,,,space,3.1354893000097945,,,,,,,,,,,,,,,,,,,,,,,031219_p1,001,2019_Mar_12_1027,body_behavioural,3.0.4,59.87686203768379,
,,,,,,"You will be presented with the story title, names, the images, and a blank text box for each story.",,,,,,,,,,,,,0,1,1,1,,,,,,,,,,,,,,,,,,,,,,,,,,,,,,space,5.685448730015196,,,,,,,,,,,,,,,,,,,,,,,031219_p1,001,2019_Mar_12_1027,body_behavioural,3.0.4,59.87686203768379,
,,,,,,Describe the story with as many details as you can remember in the space provided. ,,,,,,,,,,,,,0,2,2,2,,,,,,,,,,,,,,,,,,,,,,,,,,,,,,space,2.168549983005505,,,,,,,,,,,,,,,,,,,,,,,031219_p1,001,2019_Mar_12_1027,body_behavioural,3.0.4,59.87686203768379,
,,,,,,"When you are finished recalling one story, to move onto the next one hit ‘return’. ",,,,,,,,,,,,,0,3,3,3,,,,,,,,,,,,,,,,,,,,,,,,,,,,,,space,1.802059502020711,,,,,,,,,,,,,,,,,,,,,,,031219_p1,001,2019_Mar_12_1027,body_behavioural,3.0.4,59.87686203768379,
,,,,,,There is a 5 minute time limit to make your response. ,,,,,,,,,,,,,0,4,4,4,,,,,,,,,,,,,,,,,,,,,,,,,,,,,,space,1.4694310519844294,,,,,,,,,,,,,,,,,,,,,,,031219_p1,001,2019_Mar_12_1027,body_behavioural,3.0.4,59.87686203768379,
0,,,,,,,,,,,,,,,,,,,,,,,0,0,0,0,,,,,,,,,,,,,,,,,,,,,,,,,,,,space,1.10332491499139,Calvin and jessie were having an argument at the airport. jessie was annoyed with calvin and his stories. they sat in separate rows because they did not remember to book seats close to eachother. they decided to part ways once they returned to their destination.,,,,,,,,,,,,,,,,,,,,031219_p1,001,2019_Mar_12_1027,body_behavioural,3.0.4,59.87686203768379,
1,,,,,,,,,,,,,,,,,,,,,,,0,1,1,1,,,,,,,,,,,,,,,,,,,,,,,,,,,,space,1.135226882994175,"Leon saw ariana in class and she looked familiar, as if he had seen her before. he passed her a note and she responded that it must be her twin. they continued to exchange notes in class and agreed on meeting up later. ",,,,,,,,,,,,,,,,,,,,031219_p1,001,2019_Mar_12_1027,body_behavioural,3.0.4,59.87686203768379,
2,,,,,,,,,,,,,,,,,,,,,,,0,2,2,2,,,,,,,,,,,,,,,,,,,,,,,,,,,,space,0.8363178069994319,"Alex proposed to chloe in a grocery store, while they were standing on the check out line. their friends were also there, watching. chloe said yes and showed her ring to a stranger. ",,,,,,,,,,,,,,,,,,,,031219_p1,001,2019_Mar_12_1027,body_behavioural,3.0.4,59.87686203768379,
3,,,,,,,,,,,,,,,,,,,,,,,0,3,3,3,,,,,,,,,,,,,,,,,,,,,,,,,,,,space,0.8857272649765946,,,,,,,,,,,,,,,,,,,,,031219_p1,001,2019_Mar_12_1027,body_behavioural,3.0.4,59.87686203768379,
4,,,,,,,,,,,,,,,,,,,,,,,0,4,4,4,,,,,,,,,,,,,,,,,,,,,,,,,,,,space,0.9995088200084865,Senna proposed to alvira at a grocery store. ,,,,,,,,,,,,,,,,,,,,031219_p1,001,2019_Mar_12_1027,body_behavioural,3.0.4,59.87686203768379,
5,,,,,,,,,,,,,,,,,,,,,,,0,5,5,5,,,,,,,,,,,,,,,,,,,,,,,,,,,,space,1.8496100649936125,"David saw anna in the airport and immediately liked her. she was about to get hit by a cart and he prevented it. anna was running late for her flight, and david helped her to get to the gate on time. they exchanged numbers and agreed to meet when they returned from their trips in a week. ",,,,,,,,,,,,,,,,,,,,031219_p1,001,2019_Mar_12_1027,body_behavioural,3.0.4,59.87686203768379,
6,,,,,,,,,,,,,,,,,,,,,,,0,6,6,6,,,,,,,,,,,,,,,,,,,,,,,,,,,,space,0.768688491982175,Mr. shelton and mr. gordon met at a restaurant to discuss business. mr. shelton offered mr. gordon a deal to merge their businesses. mr. gordon was skeptical at first but later agreed.,,,,,,,,,,,,,,,,,,,,031219_p1,001,2019_Mar_12_1027,body_behavioural,3.0.4,59.87686203768379,
7,,,,,,,,,,,,,,,,,,,,,,,0,7,7,7,,,,,,,,,,,,,,,,,,,,,,,,,,,,space,0.7855101370078046,"Ms. bianchi and ms morrison met at the grocery store. in the cheese section, ms. bianchi offered a deal to ms. morrison, concerning cheese. they eventually agreed, with a price dealing with $5000.",,,,,,,,,,,,,,,,,,,,031219_p1,001,2019_Mar_12_1027,body_behavioural,3.0.4,59.87686203768379,
,,,,,,,,,,,,,,,,,,,,,,,,,,,,,,,,,,,,,,,,,,,,,,,,,,,,,,,,,2491.726934114995,space,0.9526641289994586,,,,,,,,,,,,,,,,,031219_p1,001,2019_Mar_12_1027,body_behavioural,3.0.4,59.87686203768379,
,,,,,,The next part of the task is to answer 8 questions about each story.,,,,,,,,,,,,,,,,,,,,,0,0,0,0,,,,,,,,,,,,,,,,,,,,,,,,,,,,,,space,1.7698635699925944,,,,,,,,,,,,,,,031219_p1,001,2019_Mar_12_1027,body_behavioural,3.0.4,59.87686203768379,
,,,,,,Some of the questions are not related to the perspective you were asked to assume.,,,,,,,,,,,,,,,,,,,,,0,1,1,1,,,,,,,,,,,,,,,,,,,,,,,,,,,,,,space,4.2317839699971955,,,,,,,,,,,,,,,031219_p1,001,2019_Mar_12_1027,body_behavioural,3.0.4,59.87686203768379,
,,,,,,"We realize that we did not tell you to think of these questions during the story, but do your best to answer them.",,,,,,,,,,,,,,,,,,,,,0,2,2,2,,,,,,,,,,,,,,,,,,,,,,,,,,,,,,space,2.2903113949869294,,,,,,,,,,,,,,,031219_p1,001,2019_Mar_12_1027,body_behavioural,3.0.4,59.87686203768379,
,,,,,,"When you have finished typing your answer, hit ‘return’ to submit your answer and move onto the next question. ",,,,,,,,,,,,,,,,,,,,,0,3,3,3,,,,,,,,,,,,,,,,,,,,,,,,,,,,,,space,3.0410242220095824,,,,,,,,,,,,,,,031219_p1,001,2019_Mar_12_1027,body_behavioural,3.0.4,59.87686203768379,
0,,,,,,,,,,,,,,,,,,,,,,,,,,,,,,,0,0,0,0,,,,,,,,,,,,,,,,,,,,,,No,,,,,,space,0.7525000030000228,,non-primed first,Take their shoes off and get scanned.,,,She thought about it before. during the story she was upset. ,Because she is tired of calvin's stories,He responds with anger,No,,,,031219_p1,001,2019_Mar_12_1027,body_behavioural,3.0.4,59.87686203768379,
1,,,,,,,,,,,,,,,,,,,,,,,,,,,,,,,0,1,1,1,,,,,,,,,,,,,,,,,,,,,,They both leave at the end of class,,,,,,space,0.8519579179992434, ,non-primed first,History. ,,Next week,Leon notices ariana because she looks familiar,Leon sends ariana a note,Leon proposes a date and they agree to meet at 6,They both leave at the end of class,,,,031219_p1,001,2019_Mar_12_1027,body_behavioural,3.0.4,59.87686203768379,
2,,,,,,,,,,,,,,,,,,,,,,,,,,,,,,,0,2,2,2,,,,,,,,,,,,,,,,,,,,,,Credit card,,,,,,space,0.9353464450105093,Nervous,non-primed first,A huge diamond with three smaller ones,No,"The people in the grocery, as well as friends",,Tomato,,Credit card,,,,031219_p1,001,2019_Mar_12_1027,body_behavioural,3.0.4,59.87686203768379,
3,,,,,,,,,,,,,,,,,,,,,,,,,,,,,,,0,3,3,3,,,,,,,,,,,,,,,,,,,,,,Yes,,,,,,space,1.0021729620057158,,primed first,,,,,Because she does not want to do long-distance,He wants to try to make it work. ,Yes,,,,031219_p1,001,2019_Mar_12_1027,body_behavioural,3.0.4,59.87686203768379,
4,,,,,,,,,,,,,,,,,,,,,,,,,,,,,,,0,4,4,4,,,,,,,,,,,,,,,,,,,,,,,,,,,,space,0.8344053269829601,,non-primed first,,,,,,The waitor ,,,,,031219_p1,001,2019_Mar_12_1027,body_behavioural,3.0.4,59.87686203768379,
5,,,,,,,,,,,,,,,,,,,,,,,,,,,,,,,0,5,5,5,,,,,,,,,,,,,,,,,,,,,,,,,,,,space,0.9692795680020936,David notices anna,non-primed first,Anna nearly gets hit and david prevents it,"David proposes the date, and he asks to meet up after their trips",Anna leaves first to get on the plane,,Put their bags through the conveyor belt,,,,,,031219_p1,001,2019_Mar_12_1027,body_behavioural,3.0.4,59.87686203768379,
6,,,,,,,,,,,,,,,,,,,,,,,,,,,,,,,0,6,6,6,,,,,,,,,,,,,,,,,,,,,,,,,,,,space,0.9022099899884779, ,primed first,,,,Technology,Merging businesses. ,They agree,,,,,031219_p1,001,2019_Mar_12_1027,body_behavioural,3.0.4,59.87686203768379,
7,,,,,,,,,,,,,,,,,,,,,,,,,,,,,,,0,7,7,7,,,,,,,,,,,,,,,,,,,,,,,,,,,,space,0.9182868319912814, ,non-primed first,Cheese,,,,$5000,They agree,,,,,031219_p1,001,2019_Mar_12_1027,body_behavioural,3.0.4,59.87686203768379,
,,,,,,,,,,,,,,,,,,,,,,,,,,,,,,,,,,,,,,,,,,,,,,,,,,,,,,,,,,,,,,,,,,,,,,,,,2984.5439635619987,space,1.3858193820051383,031219_p1,001,2019_Mar_12_1027,body_behavioural,3.0.4,59.87686203768379,
,,,,,,,,,,,,,,,,,,,,,,,,,,,,,,,,,,,0,0,0,0,,,,,,,,,,,,,,,,,,,,,,,,,,,,,,,,,,,,,,031219_p1,001,2019_Mar_12_1027,body_behavioural,3.0.4,59.87686203768379,
,,,,,,,,,,,,,,,,,,,,,,,,,,,,,,,,,,,1,0,1,0,,,,,,,,,,,,,,,,,,,,,,,,,,,,,,,,,,,,,,031219_p1,001,2019_Mar_12_1027,body_behavioural,3.0.4,59.87686203768379,
,,,,,,,,,,,,,,,,,,,,,,,,,,,,,,,,,,,2,0,2,0,,,,,,,,,,,,,,,,,,,,,,,,,,,,,,,,,,,,,,031219_p1,001,2019_Mar_12_1027,body_behavioural,3.0.4,59.87686203768379,
,,,,,,,,,,,,,,,,,,,,,,,,,,,,,,,,,,,3,0,3,0,,,,,,,,,,,,,,,,,,,,,,,,,,,,,,,,,,,,,,031219_p1,001,2019_Mar_12_1027,body_behavioural,3.0.4,59.87686203768379,
,,,,,,,,,,,,,,,,,,,,,,,,,,,,,,,,,,,4,0,4,0,,,,,,,,,,,,,,,,,,,,,,,,,,,,,,,,,,,,,,031219_p1,001,2019_Mar_12_1027,body_behavioural,3.0.4,59.87686203768379,
