count,storyText,locationEvent,socialEvent,locationEventSize,socialEventSize,instructText,trials.thisRepN,trials.thisTrialN,trials.thisN,trials.thisIndex,trials_7.thisRepN,trials_7.thisTrialN,trials_7.thisN,trials_7.thisIndex,trials_2.thisRepN,trials_2.thisTrialN,trials_2.thisN,trials_2.thisIndex,trials_3.thisRepN,trials_3.thisTrialN,trials_3.thisN,trials_3.thisIndex,trials_4.thisRepN,trials_4.thisTrialN,trials_4.thisN,trials_4.thisIndex,trials_5.thisRepN,trials_5.thisTrialN,trials_5.thisN,trials_5.thisIndex,trials_6.thisRepN,trials_6.thisTrialN,trials_6.thisN,trials_6.thisIndex,order of stories,order of perspectives,participant 2 order - stories,participant 2 order  - schemas types,key_resp_8.keys,key_resp_8.rt,key_resp_5.keys,key_resp_5.rt,key_resp_7.keys,key_resp_7.rt,story_presses.keys,story_presses.rt,story time,key_resp_6.keys,key_resp_6.rt,key_resp_2.keys,key_resp_2.rt,key_resp_10.keys,key_resp_10.rt,recall,recall time,key_resp_12.keys,key_resp_12.rt,key_resp_3.keys,key_resp_3.rt,key_resp_11.keys,key_resp_11.rt,question1_answer,order of question,question2_answer,question3_answer,question4_answer,question5_answer,question6_answer,question7_answer,question8_answer,participant,session,date,expName,psychopyVersion,frameRate,
0,,,,,,,0,0,0,0,0,0,0,0,,,,,,,,,,,,,,,,,,,,,[33 34 43 12 44 22 21 11 14 31 32 41 23 13 24 42],"['Social' 'Location' 'Location' 'Location' 'Social' 'Social' 'Location'
 'Social' 'Social' 'Location' 'Social' 'Social' 'Social' 'Location'
 'Location' 'Location']",[14 31 32 41 23 13 24 42],"['Social' 'Location' 'Social' 'Social' 'Social' 'Location' 'Location'
 'Location']",space,16.70552466501249,space,2.0370171219983604,space,3.453522073017666,,,,,,,,,,,,,,,,,,,,,,,,,,,031319_p1,001,2019_Mar_13_0952,body_behavioural,3.0.4,59.87191947423961,
0,"Ms. Bianchi and Ms. Morrison walked into the grocery store at the same time, and, after a moment of mutual recognition, greeted each other and shook hands.",1,1,,,,0,0,0,0,,,,,0,0,0,0,,,,,,,,,,,,,,,,,,,,,,,,,,,9,25.138460437010508,,,,,,,,,,,,,,,,,,,,,,,,,031319_p1,001,2019_Mar_13_0952,body_behavioural,3.0.4,59.87191947423961,
0,"“Thank you again for inviting me here to discuss my business proposal,” said Ms. Bianchi, “And it’s a pleasure to be out of the office.” ",1,1,,,,0,0,0,0,,,,,0,1,1,1,,,,,,,,,,,,,,,,,,,,,,,,,,,1,12.087257602019235,,,,,,,,,,,,,,,,,,,,,,,,,031319_p1,001,2019_Mar_13_0952,body_behavioural,3.0.4,59.87191947423961,
0,"As a salesperson for an Italian cheese company that was trying to expand its outreach to more mainstream grocery stores, this meeting could be a big break for her.",1,1,,,,0,0,0,0,,,,,0,2,2,2,,,,,,,,,,,,,,,,,,,,,,,,,,,1,7.453666112996871,,,,,,,,,,,,,,,,,,,,,,,,,031319_p1,001,2019_Mar_13_0952,body_behavioural,3.0.4,59.87191947423961,
0,"Her sales target, Ms. Morrison,  who had a reputation for being a bit quirky, was a corporate buyer for a large chain grocery store. ",1,1,,,,0,0,0,0,,,,,0,3,3,3,,,,,,,,,,,,,,,,,,,,,,,,,,,1,10.92058710200945,,,,,,,,,,,,,,,,,,,,,,,,,031319_p1,001,2019_Mar_13_0952,body_behavioural,3.0.4,59.87191947423961,
0,"She was known for doing things unconventionally: for example, she said that she liked to make deals with suppliers in the place where the products were sold- “to keep their minds focused on what’s important.” ",1,1,,,,0,0,0,0,,,,,0,4,4,4,,,,,,,,,,,,,,,,,,,,,,,,,,,1,14.987406704982277,,,,,,,,,,,,,,,,,,,,,,,,,031319_p1,001,2019_Mar_13_0952,body_behavioural,3.0.4,59.87191947423961,
0,"They chatted a little in the front of the grocery store, which was surrounded by pumpkins and halloween decorations set up in special displays for the holiday season.",1,1,,,,0,0,0,0,,,,,0,5,5,5,,,,,,,,,,,,,,,,,,,,,,,,,,,1,8.003508724999847,,,,,,,,,,,,,,,,,,,,,,,,,031319_p1,001,2019_Mar_13_0952,body_behavioural,3.0.4,59.87191947423961,
0,"Ms. Bianchi and Ms. Morrison walked to the cheese section, and Ms. Morrison picked up a block of parmesan.",2,1,,,,0,0,0,0,,,,,0,6,6,6,,,,,,,,,,,,,,,,,,,,,,,,,,,1,12.887008341989713,,,,,,,,,,,,,,,,,,,,,,,,,031319_p1,001,2019_Mar_13_0952,body_behavioural,3.0.4,59.87191947423961,
0,“We have quite a selection here.,2,1,,,,0,0,0,0,,,,,0,7,7,7,,,,,,,,,,,,,,,,,,,,,,,,,,,1,3.0013960450014565,,,,,,,,,,,,,,,,,,,,,,,,,031319_p1,001,2019_Mar_13_0952,body_behavioural,3.0.4,59.87191947423961,
0,I don’t know that it needs an additional section for more gourmet cheeses.” ,2,1,,,,0,0,0,0,,,,,0,8,8,8,,,,,,,,,,,,,,,,,,,,,,,,,,,1,6.337751977000153,,,,,,,,,,,,,,,,,,,,,,,,,031319_p1,001,2019_Mar_13_0952,body_behavioural,3.0.4,59.87191947423961,
0,"Ms. Bianchi's confidence faltered for a minute at this remark, but then she launched into her prepared pitch.",2,1,,,,0,0,0,0,,,,,0,9,9,9,,,,,,,,,,,,,,,,,,,,,,,,,,,1,6.6369020999991335,,,,,,,,,,,,,,,,,,,,,,,,,031319_p1,001,2019_Mar_13_0952,body_behavioural,3.0.4,59.87191947423961,
0," “Ms. Morrison, I think you would agree that selling food is more than just providing variety, but also about providing the highest quality.",2,2,,,,0,0,0,0,,,,,0,10,10,10,,,,,,,,,,,,,,,,,,,,,,,,,,,1,11.7707349670236,,,,,,,,,,,,,,,,,,,,,,,,,031319_p1,001,2019_Mar_13_0952,body_behavioural,3.0.4,59.87191947423961,
0,"You don’t have cheeses made in America that are like ours, it is true.",2,2,,,,0,0,0,0,,,,,0,11,11,11,,,,,,,,,,,,,,,,,,,,,,,,,,,1,3.453168853011448,,,,,,,,,,,,,,,,,,,,,,,,,031319_p1,001,2019_Mar_13_0952,body_behavioural,3.0.4,59.87191947423961,
0,Your store could be providing American consumers with a dimension in taste that they've never known before with our product.,2,2,,,,0,0,0,0,,,,,0,12,12,12,,,,,,,,,,,,,,,,,,,,,,,,,,,1,3.3030133499996737,,,,,,,,,,,,,,,,,,,,,,,,,031319_p1,001,2019_Mar_13_0952,body_behavioural,3.0.4,59.87191947423961,
0,"I propose that you give it a shot, buy $1000 worth of cheese products for a few stores, and see how the sales increase not only in our cheeses but also in products related to cheeses: crackers, jams, olives. ",2,2,,,,0,0,0,0,,,,,0,13,13,13,,,,,,,,,,,,,,,,,,,,,,,,,,,1,12.020794275013031,,,,,,,,,,,,,,,,,,,,,,,,,031319_p1,001,2019_Mar_13_0952,body_behavioural,3.0.4,59.87191947423961,
0,"The availability of a finer product leads to the appreciation of the product, and your consumers will start to consume in a new, more profitable way.”",2,2,,,,0,0,0,0,,,,,0,14,14,14,,,,,,,,,,,,,,,,,,,,,,,,,,,1,2.053116280003451,,,,,,,,,,,,,,,,,,,,,,,,,031319_p1,001,2019_Mar_13_0952,body_behavioural,3.0.4,59.87191947423961,
0,"Ms. Bianchi picked up a box of crackers by the cheese section, and said, “Here, I will buy these, and we can try some of our cheeses that I've brought with me.”",2,2,,,,0,0,0,0,,,,,0,15,15,15,,,,,,,,,,,,,,,,,,,,,,,,,,,1,14.354036456992617,,,,,,,,,,,,,,,,,,,,,,,,,031319_p1,001,2019_Mar_13_0952,body_behavioural,3.0.4,59.87191947423961,
0,"Ms. Morrison, who was thinking, nodded in agreement and said, “That sounds like a great idea.",2,2,,,,0,0,0,0,,,,,0,16,16,16,,,,,,,,,,,,,,,,,,,,,,,,,,,1,1.6532480629975908,,,,,,,,,,,,,,,,,,,,,,,,,031319_p1,001,2019_Mar_13_0952,body_behavioural,3.0.4,59.87191947423961,
0,"Let’s head to check out, and those crackers are on me.” ",2,2,,,,0,0,0,0,,,,,0,17,17,17,,,,,,,,,,,,,,,,,,,,,,,,,,,1,3.2700468320108484,,,,,,,,,,,,,,,,,,,,,,,,,031319_p1,001,2019_Mar_13_0952,body_behavioural,3.0.4,59.87191947423961,
0,They walked over to the checkout area.,3,2,,,,0,0,0,0,,,,,0,18,18,18,,,,,,,,,,,,,,,,,,,,,,,,,,,1,3.801625354011776,,,,,,,,,,,,,,,,,,,,,,,,,031319_p1,001,2019_Mar_13_0952,body_behavioural,3.0.4,59.87191947423961,
0,"There was a very long line, and it was very busy in the checkout area as people were stocking up for Halloween parties and trick-or-treating. ",3,2,,,,0,0,0,0,,,,,0,19,19,19,,,,,,,,,,,,,,,,,,,,,,,,,,,9,11.237698487995658,,,,,,,,,,,,,,,,,,,,,,,,,031319_p1,001,2019_Mar_13_0952,body_behavioural,3.0.4,59.87191947423961,
0,"Since they had almost a 10 minute wait in line, Ms. Bianchi handed a sheet with printed graphs to Ms. Morrison the increase in profits that several other stores had seen after starting to carry their products.",3,2,,,,0,0,0,0,,,,,0,20,20,20,,,,,,,,,,,,,,,,,,,,,,,,,,,1,15.837287837988697,,,,,,,,,,,,,,,,,,,,,,,,,031319_p1,001,2019_Mar_13_0952,body_behavioural,3.0.4,59.87191947423961,
0,"Eventually, Ms. Morrison replied, “You know what, I think you've convinced me that this could work. ",3,3,,,,0,0,0,0,,,,,0,21,21,21,,,,,,,,,,,,,,,,,,,,,,,,,,,1,3.08650634001242,,,,,,,,,,,,,,,,,,,,,,,,,031319_p1,001,2019_Mar_13_0952,body_behavioural,3.0.4,59.87191947423961,
0,We've been trying to find a way to add a little European cachet to our stores.,3,3,,,,0,0,0,0,,,,,0,22,22,22,,,,,,,,,,,,,,,,,,,,,,,,,,,1,10.053723983000964,,,,,,,,,,,,,,,,,,,,,,,,,031319_p1,001,2019_Mar_13_0952,body_behavioural,3.0.4,59.87191947423961,
0,There's still a problem though - I'm worried we'll be paying out the nose for the import taxes.,3,3,,,,0,0,0,0,,,,,0,23,23,23,,,,,,,,,,,,,,,,,,,,,,,,,,,9,5.003630316001363,,,,,,,,,,,,,,,,,,,,,,,,,031319_p1,001,2019_Mar_13_0952,body_behavioural,3.0.4,59.87191947423961,
0,Is that the case?",3,3,,,,0,0,0,0,,,,,0,24,24,24,,,,,,,,,,,,,,,,,,,,,,,,,,,1,1.1365519580140244,,,,,,,,,,,,,,,,,,,,,,,,,031319_p1,001,2019_Mar_13_0952,body_behavioural,3.0.4,59.87191947423961,
0,"It was Ms. Morrison’s turn to checkout, and the two businesswomen continued to talk back and forth as she did so. ",4,3,,,,0,0,0,0,,,,,0,25,25,25,,,,,,,,,,,,,,,,,,,,,,,,,,,1,4.52021720999619,,,,,,,,,,,,,,,,,,,,,,,,,031319_p1,001,2019_Mar_13_0952,body_behavioural,3.0.4,59.87191947423961,
0,"The cashier scanned the crackers, and Ms. Bianchi watched in amusement as Ms. Morrison paid the $6 price entirely in quarters from a wallet bulging with change.",4,3,,,,0,0,0,0,,,,,0,26,26,26,,,,,,,,,,,,,,,,,,,,,,,,,,,1,7.968699532008031,,,,,,,,,,,,,,,,,,,,,,,,,031319_p1,001,2019_Mar_13_0952,body_behavioural,3.0.4,59.87191947423961,
0,"They shortly came to an agreement and would have enough cheese shipments, $5000 worth, to different stores to qualify for a subsidized import tax. ",4,4,,,,0,0,0,0,,,,,0,27,27,27,,,,,,,,,,,,,,,,,,,,,,,,,,,1,5.653789282980142,,,,,,,,,,,,,,,,,,,,,,,,,031319_p1,001,2019_Mar_13_0952,body_behavioural,3.0.4,59.87191947423961,
0,"Ms. Bianchi retrieved some of her samples from her car, and they toasted their new deal with crackers topped with fresh mozzarella. ",4,4,,,,0,0,0,0,,,,,0,28,28,28,,,,,,,,,,,,,,,,,,,,,,,,,,,1,5.736621807998745,,,,,,,,,,,,,,,,,,,,,,,,,031319_p1,001,2019_Mar_13_0952,body_behavioural,3.0.4,59.87191947423961,
0,,,,,,,0,0,0,0,,,,,,,,,,,,,,,,,,,,,,,,,,,,,,,,,,,,,,,,,,,,,,,,,,,,,,,,,,,,,031319_p1,001,2019_Mar_13_0952,body_behavioural,3.0.4,59.87191947423961,
1,,,,,,,0,1,1,1,0,0,0,0,,,,,,,,,,,,,,,,,,,,,,,,,space,2.353392260003602,space,1.0193766099982895,space,0.9528473000100348,,,,,,,,,,,,,,,,,,,,,,,,,,,031319_p1,001,2019_Mar_13_0952,body_behavioural,3.0.4,59.87191947423961,
1,,,,,,,0,1,1,1,1,0,1,0,,,,,,,,,,,,,,,,,,,,,,,,,,,,,space,0.7029662170098163,,,,,,,,,,,,,,,,,,,,,,,,,,,031319_p1,001,2019_Mar_13_0952,body_behavioural,3.0.4,59.87191947423961,
1,Charlie saw Alma as they walked into class and he motioned for her to come sit in the back next to him: they had business to discuss.,1,1,,,,0,1,1,1,,,,,0,0,0,0,,,,,,,,,,,,,,,,,,,,,,,,,,,9,19.98536595000769,,,,,,,,,,,,,,,,,,,,,,,,,031319_p1,001,2019_Mar_13_0952,body_behavioural,3.0.4,59.87191947423961,
1,Charlie and Alma were both economics students with entrepreneurial bents.,1,1,,,,0,1,1,1,,,,,0,1,1,1,,,,,,,,,,,,,,,,,,,,,,,,,,,1,7.751219775003847,,,,,,,,,,,,,,,,,,,,,,,,,031319_p1,001,2019_Mar_13_0952,body_behavioural,3.0.4,59.87191947423961,
1,They were also both very busy and in the same class.,1,1,,,,0,1,1,1,,,,,0,2,2,2,,,,,,,,,,,,,,,,,,,,,,,,,,,1,3.153346237988444,,,,,,,,,,,,,,,,,,,,,,,,,031319_p1,001,2019_Mar_13_0952,body_behavioural,3.0.4,59.87191947423961,
1,"After talking at a party, Charlie had discovered that Alma was looking for financing for her web development company.",1,1,,,,0,1,1,1,,,,,0,3,3,3,,,,,,,,,,,,,,,,,,,,,,,,,,,1,10.518214412004454,,,,,,,,,,,,,,,,,,,,,,,,,031319_p1,001,2019_Mar_13_0952,body_behavioural,3.0.4,59.87191947423961,
1,It was serendipitous because he had been talking with other members of his venture capital group about making an investment. ,1,1,,,,0,1,1,1,,,,,0,4,4,4,,,,,,,,,,,,,,,,,,,,,,,,,,,1,7.903018378012348,,,,,,,,,,,,,,,,,,,,,,,,,031319_p1,001,2019_Mar_13_0952,body_behavioural,3.0.4,59.87191947423961,
1,"His financial group had come to a decision that morning about Alma’s idea, and he didn't want to wait until after class to discuss the proposal with her. ",1,1,,,,0,1,1,1,,,,,0,5,5,5,,,,,,,,,,,,,,,,,,,,,,,,,,,1,11.253687943011755,,,,,,,,,,,,,,,,,,,,,,,,,031319_p1,001,2019_Mar_13_0952,body_behavioural,3.0.4,59.87191947423961,
1,"The class was in a large auditorium with small, foldable desks on the side of each cushioned chair. ",1,1,,,,0,1,1,1,,,,,0,6,6,6,,,,,,,,,,,,,,,,,,,,,,,,,,,1,2.2030757530010305,,,,,,,,,,,,,,,,,,,,,,,,,031319_p1,001,2019_Mar_13_0952,body_behavioural,3.0.4,59.87191947423961,
1,"There were large windows on both sides of the hall, and they could see the first flurries of a winter storm starting outside. ",1,1,,,,0,1,1,1,,,,,0,7,7,7,,,,,,,,,,,,,,,,,,,,,,,,,,,1,3.6028330299886875,,,,,,,,,,,,,,,,,,,,,,,,,031319_p1,001,2019_Mar_13_0952,body_behavioural,3.0.4,59.87191947423961,
1,"“Here we are at Lecture Seven already in History of the Eternal City,” said the professor. ",2,1,,,,0,1,1,1,,,,,0,8,8,8,,,,,,,,,,,,,,,,,,,,,,,,,,,1,9.235304603993427,,,,,,,,,,,,,,,,,,,,,,,,,031319_p1,001,2019_Mar_13_0952,body_behavioural,3.0.4,59.87191947423961,
1,“We're going to talk today about the age of the first Roman emperor: Augustus.” ,2,1,,,,0,1,1,1,,,,,0,9,9,9,,,,,,,,,,,,,,,,,,,,,,,,,,,1,2.46957289299462,,,,,,,,,,,,,,,,,,,,,,,,,031319_p1,001,2019_Mar_13_0952,body_behavioural,3.0.4,59.87191947423961,
1,"She went into some recap of the last lecture, and Charlie took this as an opportunity to start talking to Alma.",2,1,,,,0,1,1,1,,,,,0,10,10,10,,,,,,,,,,,,,,,,,,,,,,,,,,,1,6.136614472983638,,,,,,,,,,,,,,,,,,,,,,,,,031319_p1,001,2019_Mar_13_0952,body_behavioural,3.0.4,59.87191947423961,
1,"“Okay so I’ve been thinking about your startup idea, and I have talked about it with my fellow investors.",2,2,,,,0,1,1,1,,,,,0,11,11,11,,,,,,,,,,,,,,,,,,,,,,,,,,,9,8.320252967008855,,,,,,,,,,,,,,,,,,,,,,,,,031319_p1,001,2019_Mar_13_0952,body_behavioural,3.0.4,59.87191947423961,
1,We’d like to invest half of what you originally suggested.,2,2,,,,0,1,1,1,,,,,0,12,12,12,,,,,,,,,,,,,,,,,,,,,,,,,,,1,8.23689621000085,,,,,,,,,,,,,,,,,,,,,,,,,031319_p1,001,2019_Mar_13_0952,body_behavioural,3.0.4,59.87191947423961,
1,"Rather than $30,000, we start with $15,000.",2,2,,,,0,1,1,1,,,,,0,13,13,13,,,,,,,,,,,,,,,,,,,,,,,,,,,1,1.786253738013329,,,,,,,,,,,,,,,,,,,,,,,,,031319_p1,001,2019_Mar_13_0952,body_behavioural,3.0.4,59.87191947423961,
1,We would see how the company does and then invest the other half later.” ,2,2,,,,0,1,1,1,,,,,0,14,14,14,,,,,,,,,,,,,,,,,,,,,,,,,,,1,4.184369466995122,,,,,,,,,,,,,,,,,,,,,,,,,031319_p1,001,2019_Mar_13_0952,body_behavioural,3.0.4,59.87191947423961,
1,"Alma, tapping her pen on her notebook, narrowed her eyes and pursed her lips.",2,2,,,,0,1,1,1,,,,,0,15,15,15,,,,,,,,,,,,,,,,,,,,,,,,,,,1,1.9027575050131418,,,,,,,,,,,,,,,,,,,,,,,,,031319_p1,001,2019_Mar_13_0952,body_behavioural,3.0.4,59.87191947423961,
1,She turned back to the lecture as she considered this.,2,2,,,,0,1,1,1,,,,,0,16,16,16,,,,,,,,,,,,,,,,,,,,,,,,,,,1,2.719820799975423,,,,,,,,,,,,,,,,,,,,,,,,,031319_p1,001,2019_Mar_13_0952,body_behavioural,3.0.4,59.87191947423961,
1,"The professor was going on: “The senate had conferred upon him the title of Augustus the sacred and revered one, the restorer of traditional values, the city’s new religious leader, the restorer of temples. ",3,2,,,,0,1,1,1,,,,,0,17,17,17,,,,,,,,,,,,,,,,,,,,,,,,,,,1,5.986798618017929,,,,,,,,,,,,,,,,,,,,,,,,,031319_p1,001,2019_Mar_13_0952,body_behavioural,3.0.4,59.87191947423961,
1,"Augustus also sought to beautify Rome, make it into a new Athens, and dispel the criticisms of Rome as disorganized and ugly.”",3,2,,,,0,1,1,1,,,,,0,18,18,18,,,,,,,,,,,,,,,,,,,,,,,,,,,1,11.554315639979905,,,,,,,,,,,,,,,,,,,,,,,,,031319_p1,001,2019_Mar_13_0952,body_behavioural,3.0.4,59.87191947423961,
1,"Alma turned back to Charlie and offered her rebuttal, “I don’t know about that: it’s not going to be possible to implement our ideas effectively unless the project is fully funded. ",3,3,,,,0,1,1,1,,,,,0,19,19,19,,,,,,,,,,,,,,,,,,,,,,,,,,,1,16.768433037999785,,,,,,,,,,,,,,,,,,,,,,,,,031319_p1,001,2019_Mar_13_0952,body_behavioural,3.0.4,59.87191947423961,
1,We would have to find other investors and that would set us back in our timeline. ,3,3,,,,0,1,1,1,,,,,0,20,20,20,,,,,,,,,,,,,,,,,,,,,,,,,,,1,2.002664478000952,,,,,,,,,,,,,,,,,,,,,,,,,031319_p1,001,2019_Mar_13_0952,body_behavioural,3.0.4,59.87191947423961,
1,"Our profit projections assumed we'd be starting relatively soon, not months down the line.” ",3,3,,,,0,1,1,1,,,,,0,21,21,21,,,,,,,,,,,,,,,,,,,,,,,,,,,1,3.3698496529832482,,,,,,,,,,,,,,,,,,,,,,,,,031319_p1,001,2019_Mar_13_0952,body_behavioural,3.0.4,59.87191947423961,
1,They whispered back and forth during the whole class in order to work out a compromise. ,3,3,,,,0,1,1,1,,,,,0,22,22,22,,,,,,,,,,,,,,,,,,,,,,,,,,,1,5.536222494993126,,,,,,,,,,,,,,,,,,,,,,,,,031319_p1,001,2019_Mar_13_0952,body_behavioural,3.0.4,59.87191947423961,
1,"Finally, the class ended, and the professor dismissed the students with a reminder that the midterm paper was due on Thursday and that they should email their papers to the TA.",4,3,,,,0,1,1,1,,,,,0,23,23,23,,,,,,,,,,,,,,,,,,,,,,,,,,,1,8.220116900018184,,,,,,,,,,,,,,,,,,,,,,,,,031319_p1,001,2019_Mar_13_0952,body_behavioural,3.0.4,59.87191947423961,
1,"Everyone, except Charlie and Alma, packed up their things and headed out of the lecture hall to get to their next class. ",4,3,,,,0,1,1,1,,,,,0,24,24,24,,,,,,,,,,,,,,,,,,,,,,,,,,,9,5.336759821977466,,,,,,,,,,,,,,,,,,,,,,,,,031319_p1,001,2019_Mar_13_0952,body_behavioural,3.0.4,59.87191947423961,
1,"“Alright, so we’ll have the $30,000 wired to you by tomorrow,” Charlie said. ",4,4,,,,0,1,1,1,,,,,0,25,25,25,,,,,,,,,,,,,,,,,,,,,,,,,,,1,6.736477352998918,,,,,,,,,,,,,,,,,,,,,,,,,031319_p1,001,2019_Mar_13_0952,body_behavioural,3.0.4,59.87191947423961,
1,"This wasn't ideal for Charlie, but Alma had refused to budge, and his investment group had told him they were willing to pay the full amount if necessary. ",4,4,,,,0,1,1,1,,,,,0,26,26,26,,,,,,,,,,,,,,,,,,,,,,,,,,,1,11.220420412020758,,,,,,,,,,,,,,,,,,,,,,,,,031319_p1,001,2019_Mar_13_0952,body_behavioural,3.0.4,59.87191947423961,
1,"They shook hands, walked out of the now-empty lecture hall, and made plans to sign the official paperwork the next day.",4,4,,,,0,1,1,1,,,,,0,27,27,27,,,,,,,,,,,,,,,,,,,,,,,,,,,1,5.736928119993536,,,,,,,,,,,,,,,,,,,,,,,,,031319_p1,001,2019_Mar_13_0952,body_behavioural,3.0.4,59.87191947423961,
1,,,,,,,0,1,1,1,,,,,,,,,,,,,,,,,,,,,,,,,,,,,,,,,,,,,,,,,,,,,,,,,,,,,,,,,,,,,031319_p1,001,2019_Mar_13_0952,body_behavioural,3.0.4,59.87191947423961,
2,,,,,,,0,2,2,2,0,0,0,0,,,,,,,,,,,,,,,,,,,,,,,,,space,1.4197111729881726,space,0.6028469999728259,space,8.637544437020551,,,,,,,,,,,,,,,,,,,,,,,,,,,031319_p1,001,2019_Mar_13_0952,body_behavioural,3.0.4,59.87191947423961,
2,"Simon and Carina noticed each other as they walked into the grocery store at the same time, their carts nearly colliding as they squeezed into the entrance.",1,1,,,,0,2,2,2,,,,,0,0,0,0,,,,,,,,,,,,,,,,,,,,,,,,,,,9,17.135284814983606,,,,,,,,,,,,,,,,,,,,,,,,,031319_p1,001,2019_Mar_13_0952,body_behavioural,3.0.4,59.87191947423961,
2,"They were both new to the Boston area, and this was their first time in this store. ",1,1,,,,0,2,2,2,,,,,0,1,1,1,,,,,,,,,,,,,,,,,,,,,,,,,,,1,1.9700722899870016,,,,,,,,,,,,,,,,,,,,,,,,,031319_p1,001,2019_Mar_13_0952,body_behavioural,3.0.4,59.87191947423961,
2,"It kind of looked like a large warehouse, with high unfurnished ceilings, industrial lights, and large packages of food. ",1,1,,,,0,2,2,2,,,,,0,2,2,2,,,,,,,,,,,,,,,,,,,,,,,,,,,1,5.603066829993622,,,,,,,,,,,,,,,,,,,,,,,,,031319_p1,001,2019_Mar_13_0952,body_behavioural,3.0.4,59.87191947423961,
2,"They went off along separate routes, but soon ended up back together in the meat section. ",2,1,,,,0,2,2,2,,,,,0,3,3,3,,,,,,,,,,,,,,,,,,,,,,,,,,,1,2.770043947995873,,,,,,,,,,,,,,,,,,,,,,,,,031319_p1,001,2019_Mar_13_0952,body_behavioural,3.0.4,59.87191947423961,
2,"They were both preparing for barbecues, so they were looking over the same cuts of meat. ",2,1,,,,0,2,2,2,,,,,0,4,4,4,,,,,,,,,,,,,,,,,,,,,,,,,,,1,8.019884448003722,,,,,,,,,,,,,,,,,,,,,,,,,031319_p1,001,2019_Mar_13_0952,body_behavioural,3.0.4,59.87191947423961,
2,"Simon really wanted to talk to Carina, and Carina really wanted to say something to Simon, but they felt embarrassed striking up a conversation with a stranger.",2,1,,,,0,2,2,2,,,,,0,5,5,5,,,,,,,,,,,,,,,,,,,,,,,,,,,9,8.886932135006646,,,,,,,,,,,,,,,,,,,,,,,,,031319_p1,001,2019_Mar_13_0952,body_behavioural,3.0.4,59.87191947423961,
2,"Carina suddenly turned to Simon and, pointing at a Cornish hen, asked, “Isn’t this meat cute?”",2,2,,,,0,2,2,2,,,,,0,6,6,6,,,,,,,,,,,,,,,,,,,,,,,,,,,1,4.1531178999866825,,,,,,,,,,,,,,,,,,,,,,,,,031319_p1,001,2019_Mar_13_0952,body_behavioural,3.0.4,59.87191947423961,
2,"He laughed, and said, “It is very cute.",2,2,,,,0,2,2,2,,,,,0,7,7,7,,,,,,,,,,,,,,,,,,,,,,,,,,,1,1.9674437700014096,,,,,,,,,,,,,,,,,,,,,,,,,031319_p1,001,2019_Mar_13_0952,body_behavioural,3.0.4,59.87191947423961,
2,"Probably the younger brother of this guy,” and he picked up a regular-sized chicken.",2,2,,,,0,2,2,2,,,,,0,8,8,8,,,,,,,,,,,,,,,,,,,,,,,,,,,1,6.251036682981066,,,,,,,,,,,,,,,,,,,,,,,,,031319_p1,001,2019_Mar_13_0952,body_behavioural,3.0.4,59.87191947423961,
2,"“Unlucky family,” she responded. ",2,2,,,,0,2,2,2,,,,,0,9,9,9,,,,,,,,,,,,,,,,,,,,,,,,,,,1,2.4342885150108486,,,,,,,,,,,,,,,,,,,,,,,,,031319_p1,001,2019_Mar_13_0952,body_behavioural,3.0.4,59.87191947423961,
2,They continued to chat as they picked out their groceries.,2,2,,,,0,2,2,2,,,,,0,10,10,10,,,,,,,,,,,,,,,,,,,,,,,,,,,1,3.5008310319972225,,,,,,,,,,,,,,,,,,,,,,,,,031319_p1,001,2019_Mar_13_0952,body_behavioural,3.0.4,59.87191947423961,
2,"Simon helped Carina pick out the best ribs and his personal favorite barbeque sauce, and she helped him gather the  peppers, onions, and spices for a vegetable kabob she recommended.",2,2,,,,0,2,2,2,,,,,0,11,11,11,,,,,,,,,,,,,,,,,,,,,,,,,,,1,12.937213522993261,,,,,,,,,,,,,,,,,,,,,,,,,031319_p1,001,2019_Mar_13_0952,body_behavioural,3.0.4,59.87191947423961,
2,"When they were both finished shopping, they went to the checkout area.",3,2,,,,0,2,2,2,,,,,0,12,12,12,,,,,,,,,,,,,,,,,,,,,,,,,,,1,3.8365411929844413,,,,,,,,,,,,,,,,,,,,,,,,,031319_p1,001,2019_Mar_13_0952,body_behavioural,3.0.4,59.87191947423961,
2,"Simon was disappointed to see that the lines were short, since he had been hoping for an excuse to spend more time with Carina.",3,2,,,,0,2,2,2,,,,,0,13,13,13,,,,,,,,,,,,,,,,,,,,,,,,,,,9,10.38752585000475,,,,,,,,,,,,,,,,,,,,,,,,,031319_p1,001,2019_Mar_13_0952,body_behavioural,3.0.4,59.87191947423961,
2,"They had real chemistry, and both of them could definitely see a future together despite having just met.",3,2,,,,0,2,2,2,,,,,0,14,14,14,,,,,,,,,,,,,,,,,,,,,,,,,,,1,7.768771322007524,,,,,,,,,,,,,,,,,,,,,,,,,031319_p1,001,2019_Mar_13_0952,body_behavioural,3.0.4,59.87191947423961,
2,"“So you haven’t been around the city much?”, Simon asked. ",3,2,,,,0,2,2,2,,,,,0,15,15,15,,,,,,,,,,,,,,,,,,,,,,,,,,,1,3.619705951976357,,,,,,,,,,,,,,,,,,,,,,,,,031319_p1,001,2019_Mar_13_0952,body_behavioural,3.0.4,59.87191947423961,
2,"“No, not really.",3,2,,,,0,2,2,2,,,,,0,16,16,16,,,,,,,,,,,,,,,,,,,,,,,,,,,1,0.5196019299910404,,,,,,,,,,,,,,,,,,,,,,,,,031319_p1,001,2019_Mar_13_0952,body_behavioural,3.0.4,59.87191947423961,
2,I’ve mainly been working and setting up my apartment.”,3,2,,,,0,2,2,2,,,,,0,17,17,17,,,,,,,,,,,,,,,,,,,,,,,,,,,1,6.136641390010482,,,,,,,,,,,,,,,,,,,,,,,,,031319_p1,001,2019_Mar_13_0952,body_behavioural,3.0.4,59.87191947423961,
2,"Simon asked her, “Ok well, if you’d like I could pick you up next weekend, and we could go around Harvard Square and get dinner.",3,3,,,,0,2,2,2,,,,,0,18,18,18,,,,,,,,,,,,,,,,,,,,,,,,,,,1,10.219917594979052,,,,,,,,,,,,,,,,,,,,,,,,,031319_p1,001,2019_Mar_13_0952,body_behavioural,3.0.4,59.87191947423961,
2,"There are a lot of great places around there, and it’s really nice during the summer.",3,3,,,,0,2,2,2,,,,,0,19,19,19,,,,,,,,,,,,,,,,,,,,,,,,,,,1,6.720170048007276,,,,,,,,,,,,,,,,,,,,,,,,,031319_p1,001,2019_Mar_13_0952,body_behavioural,3.0.4,59.87191947423961,
2,The Harvard campus is also beautiful.” ,3,3,,,,0,2,2,2,,,,,0,20,20,20,,,,,,,,,,,,,,,,,,,,,,,,,,,1,8.787021464988356,,,,,,,,,,,,,,,,,,,,,,,,,031319_p1,001,2019_Mar_13_0952,body_behavioural,3.0.4,59.87191947423961,
2,"Carina smiled, “I’d love to: that sounds great!”",3,3,,,,0,2,2,2,,,,,0,21,21,21,,,,,,,,,,,,,,,,,,,,,,,,,,,1,31.322030369978165,,,,,,,,,,,,,,,,,,,,,,,,,031319_p1,001,2019_Mar_13_0952,body_behavioural,3.0.4,59.87191947423961,
2,"She quickly entered her number in his phone, since they only had to wait a couple minutes in line.",3,3,,,,0,2,2,2,,,,,0,22,22,22,,,,,,,,,,,,,,,,,,,,,,,,,,,1,2.7364718629978597,,,,,,,,,,,,,,,,,,,,,,,,,031319_p1,001,2019_Mar_13_0952,body_behavioural,3.0.4,59.87191947423961,
2,Then it was her turn to check out with the cashier. ,4,3,,,,0,2,2,2,,,,,0,23,23,23,,,,,,,,,,,,,,,,,,,,,,,,,,,1,3.3699292179953773,,,,,,,,,,,,,,,,,,,,,,,,,031319_p1,001,2019_Mar_13_0952,body_behavioural,3.0.4,59.87191947423961,
2,"Simon, wanting to make a gesture of his affection, lifted up the divider on the conveyor belt and said to the cashier, “Actually these are together.",4,3,,,,0,2,2,2,,,,,0,24,24,24,,,,,,,,,,,,,,,,,,,,,,,,,,,1,10.43683912200504,,,,,,,,,,,,,,,,,,,,,,,,,031319_p1,001,2019_Mar_13_0952,body_behavioural,3.0.4,59.87191947423961,
2,"Carina, I’ve got it.",4,3,,,,0,2,2,2,,,,,0,25,25,25,,,,,,,,,,,,,,,,,,,,,,,,,,,1,2.9704082520038355,,,,,,,,,,,,,,,,,,,,,,,,,031319_p1,001,2019_Mar_13_0952,body_behavioural,3.0.4,59.87191947423961,
2,This was kind-of a date today.”,4,3,,,,0,2,2,2,,,,,0,26,26,26,,,,,,,,,,,,,,,,,,,,,,,,,,,1,5.8176349850255065,,,,,,,,,,,,,,,,,,,,,,,,,031319_p1,001,2019_Mar_13_0952,body_behavioural,3.0.4,59.87191947423961,
2,Carina blushed and laughed; she thought this was ridiculous but also very sweet. ,4,3,,,,0,2,2,2,,,,,0,27,27,27,,,,,,,,,,,,,,,,,,,,,,,,,,,1,5.169999714998994,,,,,,,,,,,,,,,,,,,,,,,,,031319_p1,001,2019_Mar_13_0952,body_behavioural,3.0.4,59.87191947423961,
2,"The cashier rolled her eyes when they weren’t looking, and she scanned the rest of his items. ",4,3,,,,0,2,2,2,,,,,0,28,28,28,,,,,,,,,,,,,,,,,,,,,,,,,,,1,3.3184808660007548,,,,,,,,,,,,,,,,,,,,,,,,,031319_p1,001,2019_Mar_13_0952,body_behavioural,3.0.4,59.87191947423961,
2,"The total came to $120, and he paid with his credit card.",4,3,,,,0,2,2,2,,,,,0,29,29,29,,,,,,,,,,,,,,,,,,,,,,,,,,,1,1.703507147001801,,,,,,,,,,,,,,,,,,,,,,,,,031319_p1,001,2019_Mar_13_0952,body_behavioural,3.0.4,59.87191947423961,
2,"Carina thanked him, and they took the groceries and walked out.",4,3,,,,0,2,2,2,,,,,0,30,30,30,,,,,,,,,,,,,,,,,,,,,,,,,,,1,1.6028635099937674,,,,,,,,,,,,,,,,,,,,,,,,,031319_p1,001,2019_Mar_13_0952,body_behavioural,3.0.4,59.87191947423961,
2,"As they were walking towards the exit, Carina reluctantly said goodbye since she was running late for the barbeque she was hosting that afternoon.",4,4,,,,0,2,2,2,,,,,0,31,31,31,,,,,,,,,,,,,,,,,,,,,,,,,,,1,10.503722132998519,,,,,,,,,,,,,,,,,,,,,,,,,031319_p1,001,2019_Mar_13_0952,body_behavioural,3.0.4,59.87191947423961,
2,"They hugged and parted ways, stealing glances at each other as they both walked back to their cars.",4,4,,,,0,2,2,2,,,,,0,32,32,32,,,,,,,,,,,,,,,,,,,,,,,,,,,1,3.352867454988882,,,,,,,,,,,,,,,,,,,,,,,,,031319_p1,001,2019_Mar_13_0952,body_behavioural,3.0.4,59.87191947423961,
2,,,,,,,0,2,2,2,,,,,,,,,,,,,,,,,,,,,,,,,,,,,,,,,,,,,,,,,,,,,,,,,,,,,,,,,,,,,031319_p1,001,2019_Mar_13_0952,body_behavioural,3.0.4,59.87191947423961,
3,,,,,,,0,3,3,3,0,0,0,0,,,,,,,,,,,,,,,,,,,,,,,,,space,5.136457848013379,space,0.5692844730219804,space,1.4526744849863462,,,,,,,,,,,,,,,,,,,,,,,,,,,031319_p1,001,2019_Mar_13_0952,body_behavioural,3.0.4,59.87191947423961,
3,"It didn’t help the situation that Calvin and Jessie were running late to the airport, since Jessie had already been fuming at Calvin and preparing to end things with him.",1,1,,,,0,3,3,3,,,,,0,0,0,0,,,,,,,,,,,,,,,,,,,,,,,,,,,9,13.703984533000039,,,,,,,,,,,,,,,,,,,,,,,,,031319_p1,001,2019_Mar_13_0952,body_behavioural,3.0.4,59.87191947423961,
3,"Upon arriving, they had only 45 minutes until their international flight would depart from Jamaica for the US.",1,1,,,,0,3,3,3,,,,,0,1,1,1,,,,,,,,,,,,,,,,,,,,,,,,,,,1,8.319908945006318,,,,,,,,,,,,,,,,,,,,,,,,,031319_p1,001,2019_Mar_13_0952,body_behavioural,3.0.4,59.87191947423961,
3,It had been a tough vacation for them.,1,1,,,,0,3,3,3,,,,,0,2,2,2,,,,,,,,,,,,,,,,,,,,,,,,,,,1,1.2197365899919532,,,,,,,,,,,,,,,,,,,,,,,,,031319_p1,001,2019_Mar_13_0952,body_behavioural,3.0.4,59.87191947423961,
3,"Jessie had really had it with Calvin’s constant ramblings about the same excruciatingly boring golfing and work stories, which he insisted on repeating to her regardless of how little interest she showed.",1,1,,,,0,3,3,3,,,,,0,3,3,3,,,,,,,,,,,,,,,,,,,,,,,,,,,1,12.070872129988857,,,,,,,,,,,,,,,,,,,,,,,,,031319_p1,001,2019_Mar_13_0952,body_behavioural,3.0.4,59.87191947423961,
3,"Calvin knew that Jessie was upset, but wasn't sure what to do besides attempting to carry on as normal and tell stories that took up the silence. ",1,1,,,,0,3,3,3,,,,,0,4,4,4,,,,,,,,,,,,,,,,,,,,,,,,,,,1,5.953731897985563,,,,,,,,,,,,,,,,,,,,,,,,,031319_p1,001,2019_Mar_13_0952,body_behavioural,3.0.4,59.87191947423961,
3,"The security line was luckily very short, and once the online boarding passes were scanned they were ushered quickly through the metal detector, not having to take off their shoes or remove the liquids from their bags.",2,1,,,,0,3,3,3,,,,,0,5,5,5,,,,,,,,,,,,,,,,,,,,,,,,,,,1,11.985598414001288,,,,,,,,,,,,,,,,,,,,,,,,,031319_p1,001,2019_Mar_13_0952,body_behavioural,3.0.4,59.87191947423961,
3,"“The infrastructure of this airport is really quite poor," said Calvin as they waited for their bags to emerge from the x-ray machine.",2,1,,,,0,3,3,3,,,,,0,6,6,6,,,,,,,,,,,,,,,,,,,,,,,,,,,1,5.237148999993224,,,,,,,,,,,,,,,,,,,,,,,,,031319_p1,001,2019_Mar_13_0952,body_behavioural,3.0.4,59.87191947423961,
3,“I really could've hidden something in my shoes quite easily.” ,2,1,,,,0,3,3,3,,,,,0,7,7,7,,,,,,,,,,,,,,,,,,,,,,,,,,,1,5.219724608003162,,,,,,,,,,,,,,,,,,,,,,,,,031319_p1,001,2019_Mar_13_0952,body_behavioural,3.0.4,59.87191947423961,
3,"Jessie, exasperated at his need to broadcast his every inner thought, scowled at the conveyor belt.",2,1,,,,0,3,3,3,,,,,0,8,8,8,,,,,,,,,,,,,,,,,,,,,,,,,,,1,10.153409173013642,,,,,,,,,,,,,,,,,,,,,,,,,031319_p1,001,2019_Mar_13_0952,body_behavioural,3.0.4,59.87191947423961,
3,"“What?”, he asked.",2,1,,,,0,3,3,3,,,,,0,9,9,9,,,,,,,,,,,,,,,,,,,,,,,,,,,1,1.6863306429877412,,,,,,,,,,,,,,,,,,,,,,,,,031319_p1,001,2019_Mar_13_0952,body_behavioural,3.0.4,59.87191947423961,
3,She balled up her fists and turned to face him.,2,1,,,,0,3,3,3,,,,,0,10,10,10,,,,,,,,,,,,,,,,,,,,,,,,,,,9,2.6197676570154727,,,,,,,,,,,,,,,,,,,,,,,,,031319_p1,001,2019_Mar_13_0952,body_behavioural,3.0.4,59.87191947423961,
3,"“Calvin, I really don’t think I can do this anymore.",2,2,,,,0,3,3,3,,,,,0,11,11,11,,,,,,,,,,,,,,,,,,,,,,,,,,,1,3.1178839950007387,,,,,,,,,,,,,,,,,,,,,,,,,031319_p1,001,2019_Mar_13_0952,body_behavioural,3.0.4,59.87191947423961,
3,I think it’s best that once we get to the States we part ways for good.” ,2,2,,,,0,3,3,3,,,,,0,12,12,12,,,,,,,,,,,,,,,,,,,,,,,,,,,1,3.2364796930050943,,,,,,,,,,,,,,,,,,,,,,,,,031319_p1,001,2019_Mar_13_0952,body_behavioural,3.0.4,59.87191947423961,
3,Calvin said nothing as he grabbed his bag and quickly walked away.,2,2,,,,0,3,3,3,,,,,0,13,13,13,,,,,,,,,,,,,,,,,,,,,,,,,,,1,2.3860294749902096,,,,,,,,,,,,,,,,,,,,,,,,,031319_p1,001,2019_Mar_13_0952,body_behavioural,3.0.4,59.87191947423961,
3,"Jessie trailed behind him as they made their way quickly toward their gate, shouting at his back in hopes of getting a response.",3,2,,,,0,3,3,3,,,,,0,14,14,14,,,,,,,,,,,,,,,,,,,,,,,,,,,1,7.570177073008381,,,,,,,,,,,,,,,,,,,,,,,,,031319_p1,001,2019_Mar_13_0952,body_behavioural,3.0.4,59.87191947423961,
3,“So now you have nothing to say?,3,2,,,,0,3,3,3,,,,,0,15,15,15,,,,,,,,,,,,,,,,,,,,,,,,,,,1,2.7697610699979123,,,,,,,,,,,,,,,,,,,,,,,,,031319_p1,001,2019_Mar_13_0952,body_behavioural,3.0.4,59.87191947423961,
3,"Every time we talk, you are just looking for a way to steer the conversation back into your stories.”",3,2,,,,0,3,3,3,,,,,0,16,16,16,,,,,,,,,,,,,,,,,,,,,,,,,,,1,4.786572179989889,,,,,,,,,,,,,,,,,,,,,,,,,031319_p1,001,2019_Mar_13_0952,body_behavioural,3.0.4,59.87191947423961,
3,"Calvin didn't slow his pace, gritting his teeth and staring straight ahead. ",3,2,,,,0,3,3,3,,,,,0,17,17,17,,,,,,,,,,,,,,,,,,,,,,,,,,,1,3.650679129990749,,,,,,,,,,,,,,,,,,,,,,,,,031319_p1,001,2019_Mar_13_0952,body_behavioural,3.0.4,59.87191947423961,
3,He was very frustrated that he had been trying to appease Jessie this whole time and this was how she responded. ,3,2,,,,0,3,3,3,,,,,0,18,18,18,,,,,,,,,,,,,,,,,,,,,,,,,,,1,5.57029425498331,,,,,,,,,,,,,,,,,,,,,,,,,031319_p1,001,2019_Mar_13_0952,body_behavioural,3.0.4,59.87191947423961,
3,The silence was punctuated only by the rapid rhythmic clacking of their suitcase wheels over the tile floor as they continued power-walking through the terminal. ,3,2,,,,0,3,3,3,,,,,0,19,19,19,,,,,,,,,,,,,,,,,,,,,,,,,,,1,12.603739877988119,,,,,,,,,,,,,,,,,,,,,,,,,031319_p1,001,2019_Mar_13_0952,body_behavioural,3.0.4,59.87191947423961,
3,"“Well?” Jessie said, and Calvin finally turned to her.",3,2,,,,0,3,3,3,,,,,0,20,20,20,,,,,,,,,,,,,,,,,,,,,,,,,,,9,2.519705498008989,,,,,,,,,,,,,,,,,,,,,,,,,031319_p1,001,2019_Mar_13_0952,body_behavioural,3.0.4,59.87191947423961,
3,"“Well, Jessie, this makes perfect sense. ",3,3,,,,0,3,3,3,,,,,0,21,21,21,,,,,,,,,,,,,,,,,,,,,,,,,,,1,1.9861717999738175,,,,,,,,,,,,,,,,,,,,,,,,,031319_p1,001,2019_Mar_13_0952,body_behavioural,3.0.4,59.87191947423961,
3,"If you feel this way, then I don’t want to keep boring you, and I agree, let’s part ways once we make it back.",3,3,,,,0,3,3,3,,,,,0,22,22,22,,,,,,,,,,,,,,,,,,,,,,,,,,,1,6.201076299999841,,,,,,,,,,,,,,,,,,,,,,,,,031319_p1,001,2019_Mar_13_0952,body_behavioural,3.0.4,59.87191947423961,
3,You should’ve spoken up about my apparent intolerability before you decided to plan this vacation.”,3,3,,,,0,3,3,3,,,,,0,23,23,23,,,,,,,,,,,,,,,,,,,,,,,,,,,1,4.46994013999938,,,,,,,,,,,,,,,,,,,,,,,,,031319_p1,001,2019_Mar_13_0952,body_behavioural,3.0.4,59.87191947423961,
3,"He was clearly hurt, but thought it was pointless to argue. ",3,3,,,,0,3,3,3,,,,,0,24,24,24,,,,,,,,,,,,,,,,,,,,,,,,,,,1,2.3365829329995904,,,,,,,,,,,,,,,,,,,,,,,,,031319_p1,001,2019_Mar_13_0952,body_behavioural,3.0.4,59.87191947423961,
3,"They finally made it to the gate, just as they heard the final call for passengers boarding their flight.",3,3,,,,0,3,3,3,,,,,0,25,25,25,,,,,,,,,,,,,,,,,,,,,,,,,,,1,10.01996108001913,,,,,,,,,,,,,,,,,,,,,,,,,031319_p1,001,2019_Mar_13_0952,body_behavioural,3.0.4,59.87191947423961,
3,"They scanned their tickets, and the annoyed flight attendant shooed them onto the jet bridge and then closed the door behind them.",4,3,,,,0,3,3,3,,,,,0,26,26,26,,,,,,,,,,,,,,,,,,,,,,,,,,,9,10.869967045000521,,,,,,,,,,,,,,,,,,,,,,,,,031319_p1,001,2019_Mar_13_0952,body_behavioural,3.0.4,59.87191947423961,
3,"Luckily, they had forgotten to arrange seats next to each other on the flight back.",4,3,,,,0,3,3,3,,,,,0,27,27,27,,,,,,,,,,,,,,,,,,,,,,,,,,,1,3.669824852986494,,,,,,,,,,,,,,,,,,,,,,,,,031319_p1,001,2019_Mar_13_0952,body_behavioural,3.0.4,59.87191947423961,
3,"They both had first-class tickets, but Jessie was headed for seat 1B while Calvin's seat was 4F. ",4,3,,,,0,3,3,3,,,,,0,28,28,28,,,,,,,,,,,,,,,,,,,,,,,,,,,1,7.902617309009656,,,,,,,,,,,,,,,,,,,,,,,,,031319_p1,001,2019_Mar_13_0952,body_behavioural,3.0.4,59.87191947423961,
3,"Before Jessie sat down, she took a deep breath and then awkwardly shook Calvin’s hand, mumbling, “Well, have a nice flight.” ",4,4,,,,0,3,3,3,,,,,0,29,29,29,,,,,,,,,,,,,,,,,,,,,,,,,,,1,7.3349454529816285,,,,,,,,,,,,,,,,,,,,,,,,,031319_p1,001,2019_Mar_13_0952,body_behavioural,3.0.4,59.87191947423961,
3,He laughed in disbelief and walked to his window seat three rows back to get ready for takeoff.,4,4,,,,0,3,3,3,,,,,0,30,30,30,,,,,,,,,,,,,,,,,,,,,,,,,,,1,4.653526670008432,,,,,,,,,,,,,,,,,,,,,,,,,031319_p1,001,2019_Mar_13_0952,body_behavioural,3.0.4,59.87191947423961,
3,Both were upset but glad that they would have this flight to mull things over and recenter. ,4,4,,,,0,3,3,3,,,,,0,31,31,31,,,,,,,,,,,,,,,,,,,,,,,,,,,1,4.903402738011209,,,,,,,,,,,,,,,,,,,,,,,,,031319_p1,001,2019_Mar_13_0952,body_behavioural,3.0.4,59.87191947423961,
3,,,,,,,0,3,3,3,,,,,,,,,,,,,,,,,,,,,,,,,,,,,,,,,,,,,,,,,,,,,,,,,,,,,,,,,,,,,031319_p1,001,2019_Mar_13_0952,body_behavioural,3.0.4,59.87191947423961,
4,,,,,,,0,4,4,4,0,0,0,0,,,,,,,,,,,,,,,,,,,,,,,,,space,1.6698461970081553,space,0.6506960400147364,space,1.2531811130174901,,,,,,,,,,,,,,,,,,,,,,,,,,,031319_p1,001,2019_Mar_13_0952,body_behavioural,3.0.4,59.87191947423961,
4,"Leon and  Ariana hurried into the classroom at the same time, and Leon did a double-take when he saw her. ",1,1,,,,0,4,4,4,,,,,0,0,0,0,,,,,,,,,,,,,,,,,,,,,,,,,,,9,8.75185212001088,,,,,,,,,,,,,,,,,,,,,,,,,031319_p1,001,2019_Mar_13_0952,body_behavioural,3.0.4,59.87191947423961,
4,"This was his first day after transferring to this university, and he had assumed that he wouldn’t know anyone on campus, but he couldn't shake the nagging feeling  that he had seen her somewhere before. ",1,1,,,,0,4,4,4,,,,,0,1,1,1,,,,,,,,,,,,,,,,,,,,,,,,,,,1,8.136882274993695,,,,,,,,,,,,,,,,,,,,,,,,,031319_p1,001,2019_Mar_13_0952,body_behavioural,3.0.4,59.87191947423961,
4,"They were both a bit late, so they quickly slid into seats next to each other in the back of the small classroom.",1,1,,,,0,4,4,4,,,,,0,2,2,2,,,,,,,,,,,,,,,,,,,,,,,,,,,1,1.8531065979914274,,,,,,,,,,,,,,,,,,,,,,,,,031319_p1,001,2019_Mar_13_0952,body_behavioural,3.0.4,59.87191947423961,
4,"This room was usually used for small meetings, but had been rearranged with the table pushed to the side and chairs set up in rows to face the projector screen. ",1,1,,,,0,4,4,4,,,,,0,3,3,3,,,,,,,,,,,,,,,,,,,,,,,,,,,1,3.9863960850052536,,,,,,,,,,,,,,,,,,,,,,,,,031319_p1,001,2019_Mar_13_0952,body_behavioural,3.0.4,59.87191947423961,
4,"There were no windows in the room, since they were down in the sub-basement of the history department.",1,1,,,,0,4,4,4,,,,,0,4,4,4,,,,,,,,,,,,,,,,,,,,,,,,,,,1,3.119455924985232,,,,,,,,,,,,,,,,,,,,,,,,,031319_p1,001,2019_Mar_13_0952,body_behavioural,3.0.4,59.87191947423961,
4,"Leon, trying to figure out where he had seen her before, could not stop looking over at Ariana.",1,1,,,,0,4,4,4,,,,,0,5,5,5,,,,,,,,,,,,,,,,,,,,,,,,,,,1,2.436610508011654,,,,,,,,,,,,,,,,,,,,,,,,,031319_p1,001,2019_Mar_13_0952,body_behavioural,3.0.4,59.87191947423961,
4,Ariana was oblivious to Leon’s gaze and was only focused on getting ready for class. ,1,1,,,,0,4,4,4,,,,,0,6,6,6,,,,,,,,,,,,,,,,,,,,,,,,,,,1,3.036185345001286,,,,,,,,,,,,,,,,,,,,,,,,,031319_p1,001,2019_Mar_13_0952,body_behavioural,3.0.4,59.87191947423961,
4,"“Good afternoon class,” the professor began.",2,1,,,,0,4,4,4,,,,,0,7,7,7,,,,,,,,,,,,,,,,,,,,,,,,,,,1,0.9362566999916453,,,,,,,,,,,,,,,,,,,,,,,,,031319_p1,001,2019_Mar_13_0952,body_behavioural,3.0.4,59.87191947423961,
4,“Welcome to Egyptian Cultural Studies. ,2,1,,,,0,4,4,4,,,,,0,8,8,8,,,,,,,,,,,,,,,,,,,,,,,,,,,1,4.169960383005673,,,,,,,,,,,,,,,,,,,,,,,,,031319_p1,001,2019_Mar_13_0952,body_behavioural,3.0.4,59.87191947423961,
4,"Today we will be talking about mummification, one of the most famous and often misunderstood customs in ancient Egyptian society.”",2,1,,,,0,4,4,4,,,,,0,9,9,9,,,,,,,,,,,,,,,,,,,,,,,,,,,1,2.2696526150102727,,,,,,,,,,,,,,,,,,,,,,,,,031319_p1,001,2019_Mar_13_0952,body_behavioural,3.0.4,59.87191947423961,
4,Leon pulled out his notebook and tried to concentrate on the class.,2,1,,,,0,4,4,4,,,,,0,10,10,10,,,,,,,,,,,,,,,,,,,,,,,,,,,1,4.769985324994195,,,,,,,,,,,,,,,,,,,,,,,,,031319_p1,001,2019_Mar_13_0952,body_behavioural,3.0.4,59.87191947423961,
4,Within a few minutes though he found his attention wandering back to Ariana.,2,1,,,,0,4,4,4,,,,,0,11,11,11,,,,,,,,,,,,,,,,,,,,,,,,,,,9,2.8192493229871616,,,,,,,,,,,,,,,,,,,,,,,,,031319_p1,001,2019_Mar_13_0952,body_behavioural,3.0.4,59.87191947423961,
4,"He decided to do something about his hunch so he ripped off a corner of a page in his notebook, wrote a note, and set it on her desk.",2,1,,,,0,4,4,4,,,,,0,12,12,12,,,,,,,,,,,,,,,,,,,,,,,,,,,1,8.268000185023993,,,,,,,,,,,,,,,,,,,,,,,,,031319_p1,001,2019_Mar_13_0952,body_behavioural,3.0.4,59.87191947423961,
4,"“Hi, sorry to distract you from mummies, but you look really familiar," it read.",2,2,,,,0,4,4,4,,,,,0,13,13,13,,,,,,,,,,,,,,,,,,,,,,,,,,,1,8.036872294993373,,,,,,,,,,,,,,,,,,,,,,,,,031319_p1,001,2019_Mar_13_0952,body_behavioural,3.0.4,59.87191947423961,
4,It continued: “Do I know you from somewhere?”,2,2,,,,0,4,4,4,,,,,0,14,14,14,,,,,,,,,,,,,,,,,,,,,,,,,,,1,1.5193541150074452,,,,,,,,,,,,,,,,,,,,,,,,,031319_p1,001,2019_Mar_13_0952,body_behavioural,3.0.4,59.87191947423961,
4,"She looked at the note with surprise, and then turned to notice Leon for the first time. ",2,2,,,,0,4,4,4,,,,,0,15,15,15,,,,,,,,,,,,,,,,,,,,,,,,,,,1,5.703156030009268,,,,,,,,,,,,,,,,,,,,,,,,,031319_p1,001,2019_Mar_13_0952,body_behavioural,3.0.4,59.87191947423961,
4,"She instantly liked him when she saw him; he had very soft eyes and sharp features, a combination that made him seem  trustworthy and genuine.",2,2,,,,0,4,4,4,,,,,0,16,16,16,,,,,,,,,,,,,,,,,,,,,,,,,,,1,16.337280645006103,,,,,,,,,,,,,,,,,,,,,,,,,031319_p1,001,2019_Mar_13_0952,body_behavioural,3.0.4,59.87191947423961,
4,He smiled at her and she flashed him a smile back.,2,2,,,,0,4,4,4,,,,,0,17,17,17,,,,,,,,,,,,,,,,,,,,,,,,,,,9,2.986801335006021,,,,,,,,,,,,,,,,,,,,,,,,,031319_p1,001,2019_Mar_13_0952,body_behavioural,3.0.4,59.87191947423961,
4,Then she turned the note over to the back and started to write a reply.,2,2,,,,0,4,4,4,,,,,0,18,18,18,,,,,,,,,,,,,,,,,,,,,,,,,,,1,7.920270601985976,,,,,,,,,,,,,,,,,,,,,,,,,031319_p1,001,2019_Mar_13_0952,body_behavioural,3.0.4,59.87191947423961,
4,"Meanwhile the professor continued, “One may well question why the ancient Egyptians spent so much time and effort on their funerary practices.",3,2,,,,0,4,4,4,,,,,0,19,19,19,,,,,,,,,,,,,,,,,,,,,,,,,,,1,6.020106234995183,,,,,,,,,,,,,,,,,,,,,,,,,031319_p1,001,2019_Mar_13_0952,body_behavioural,3.0.4,59.87191947423961,
4,"Not only was the mummification process itself a complicated affair, but there were also elaborate rituals before, during, and after death.",3,2,,,,0,4,4,4,,,,,0,20,20,20,,,,,,,,,,,,,,,,,,,,,,,,,,,1,4.567567088000942,,,,,,,,,,,,,,,,,,,,,,,,,031319_p1,001,2019_Mar_13_0952,body_behavioural,3.0.4,59.87191947423961,
4,The practice required teams of experts with years of training and took a total of 70 days to complete.” ,3,2,,,,0,4,4,4,,,,,0,21,21,21,,,,,,,,,,,,,,,,,,,,,,,,,,,1,2.200887393002631,,,,,,,,,,,,,,,,,,,,,,,,,031319_p1,001,2019_Mar_13_0952,body_behavioural,3.0.4,59.87191947423961,
4,"Ariana passed the note back to Leon, and she had replied, “No, but maybe my twin and I were separated at birth.”",3,2,,,,0,4,4,4,,,,,0,22,22,22,,,,,,,,,,,,,,,,,,,,,,,,,,,1,7.170131527993362,,,,,,,,,,,,,,,,,,,,,,,,,031319_p1,001,2019_Mar_13_0952,body_behavioural,3.0.4,59.87191947423961,
4,They passed notes back and forth the whole class like they were back in high school.,3,2,,,,0,4,4,4,,,,,0,23,23,23,,,,,,,,,,,,,,,,,,,,,,,,,,,1,4.086533713008976,,,,,,,,,,,,,,,,,,,,,,,,,031319_p1,001,2019_Mar_13_0952,body_behavioural,3.0.4,59.87191947423961,
4,"Near the end of the lecture, Leon wrote, “Would you like to go to dinner tonight?” ",3,3,,,,0,4,4,4,,,,,0,24,24,24,,,,,,,,,,,,,,,,,,,,,,,,,,,1,2.169888100004755,,,,,,,,,,,,,,,,,,,,,,,,,031319_p1,001,2019_Mar_13_0952,body_behavioural,3.0.4,59.87191947423961,
4,"Ariana read the note, and looked at him and nodded her head",3,3,,,,0,4,4,4,,,,,0,25,25,25,,,,,,,,,,,,,,,,,,,,,,,,,,,1,1.500773699983256,,,,,,,,,,,,,,,,,,,,,,,,,031319_p1,001,2019_Mar_13_0952,body_behavioural,3.0.4,59.87191947423961,
4,"She wrote back on the slip of paper, “Pick me up at 6 in front of Patton Hall.”",3,3,,,,0,4,4,4,,,,,0,26,26,26,,,,,,,,,,,,,,,,,,,,,,,,,,,1,4.386724812007742,,,,,,,,,,,,,,,,,,,,,,,,,031319_p1,001,2019_Mar_13_0952,body_behavioural,3.0.4,59.87191947423961,
4,Then the professor ended the lecture and announced to the class that they would have their first quiz next class on Friday on mummification. ,4,3,,,,0,4,4,4,,,,,0,27,27,27,,,,,,,,,,,,,,,,,,,,,,,,,,,1,2.3032656620198395,,,,,,,,,,,,,,,,,,,,,,,,,031319_p1,001,2019_Mar_13_0952,body_behavioural,3.0.4,59.87191947423961,
4,"Everyone packed up and started heading out, as well as Sophie and Leon.",4,3,,,,0,4,4,4,,,,,0,28,28,28,,,,,,,,,,,,,,,,,,,,,,,,,,,1,1.7032758950081188,,,,,,,,,,,,,,,,,,,,,,,,,031319_p1,001,2019_Mar_13_0952,body_behavioural,3.0.4,59.87191947423961,
4,"They approached each other smiling, and Leon said, “Well it was great to meet you, again, or maybe not again, but regardless it was great to meet you.” ",4,3,,,,0,4,4,4,,,,,0,29,29,29,,,,,,,,,,,,,,,,,,,,,,,,,,,1,4.686687225010246,,,,,,,,,,,,,,,,,,,,,,,,,031319_p1,001,2019_Mar_13_0952,body_behavioural,3.0.4,59.87191947423961,
4,"She replied, “Yes, it was.",4,4,,,,0,4,4,4,,,,,0,30,30,30,,,,,,,,,,,,,,,,,,,,,,,,,,,1,1.053210924990708,,,,,,,,,,,,,,,,,,,,,,,,,031319_p1,001,2019_Mar_13_0952,body_behavioural,3.0.4,59.87191947423961,
4,"I have to run to my next class, but I’ll see you later tonight.” ",4,4,,,,0,4,4,4,,,,,0,31,31,31,,,,,,,,,,,,,,,,,,,,,,,,,,,1,1.052793273003772,,,,,,,,,,,,,,,,,,,,,,,,,031319_p1,001,2019_Mar_13_0952,body_behavioural,3.0.4,59.87191947423961,
4,"She waved as they parted ways outside of the door of the classroom, and Leon was still trying to figure out where he had seen her before as he watched her go. ",4,4,,,,0,4,4,4,,,,,0,32,32,32,,,,,,,,,,,,,,,,,,,,,,,,,,,1,3.502842839981895,,,,,,,,,,,,,,,,,,,,,,,,,031319_p1,001,2019_Mar_13_0952,body_behavioural,3.0.4,59.87191947423961,
4,,,,,,,0,4,4,4,,,,,,,,,,,,,,,,,,,,,,,,,,,,,,,,,,,,,,,,,,,,,,,,,,,,,,,,,,,,,031319_p1,001,2019_Mar_13_0952,body_behavioural,3.0.4,59.87191947423961,
5,,,,,,,0,5,5,5,0,0,0,0,,,,,,,,,,,,,,,,,,,,,,,,,space,4.953501782001695,space,0.4693071400106419,space,1.2197726629965473,,,,,,,,,,,,,,,,,,,,,,,,,,,031319_p1,001,2019_Mar_13_0952,body_behavioural,3.0.4,59.87191947423961,
5,,,,,,,0,5,5,5,1,0,1,0,,,,,,,,,,,,,,,,,,,,,,,,,,,,,space,0.5526079920236953,,,,,,,,,,,,,,,,,,,,,,,,,,,031319_p1,001,2019_Mar_13_0952,body_behavioural,3.0.4,59.87191947423961,
5,,,,,,,0,5,5,5,2,0,2,0,,,,,,,,,,,,,,,,,,,,,,,,,,,,,space,0.4530035399948247,,,,,,,,,,,,,,,,,,,,,,,,,,,031319_p1,001,2019_Mar_13_0952,body_behavioural,3.0.4,59.87191947423961,
5,"Sven and Isabel walked hurriedly from the cab into the Barcelona Airport after an incredible weekend with Isabel’s family, which had wiped away any doubts Sven had had about his decision to propose. ",1,1,,,,0,5,5,5,,,,,0,0,0,0,,,,,,,,,,,,,,,,,,,,,,,,,,,9,12.1041589579836,,,,,,,,,,,,,,,,,,,,,,,,,031319_p1,001,2019_Mar_13_0952,body_behavioural,3.0.4,59.87191947423961,
5,"They were a little pressed for time, with only a little over an hour until their flight would take off to go back to the US, but they already had their online boarding passes and no checked luggage. ",1,1,,,,0,5,5,5,,,,,0,1,1,1,,,,,,,,,,,,,,,,,,,,,,,,,,,1,8.903143620002083,,,,,,,,,,,,,,,,,,,,,,,,,031319_p1,001,2019_Mar_13_0952,body_behavioural,3.0.4,59.87191947423961,
5,"When Isabel stopped to rummage through her purse looking for her phone, Sven turned his back to her and took the velvet box out of his backpack, opening it to look at the ring he bought her.",1,2,,,,0,5,5,5,,,,,0,2,2,2,,,,,,,,,,,,,,,,,,,,,,,,,,,9,11.020470254996326,,,,,,,,,,,,,,,,,,,,,,,,,031319_p1,001,2019_Mar_13_0952,body_behavioural,3.0.4,59.87191947423961,
5,"He had received her parents’ blessing during the trip, and he was almost giddy with excitement. ",1,2,,,,0,5,5,5,,,,,0,3,3,3,,,,,,,,,,,,,,,,,,,,,,,,,,,1,1.4363341179850977,,,,,,,,,,,,,,,,,,,,,,,,,031319_p1,001,2019_Mar_13_0952,body_behavioural,3.0.4,59.87191947423961,
5,"He tilted the ring backward and forward, despite having already studied it daily since he had purchased it a few weeks ago. ",1,2,,,,0,5,5,5,,,,,0,4,4,4,,,,,,,,,,,,,,,,,,,,,,,,,,,1,2.519527485012077,,,,,,,,,,,,,,,,,,,,,,,,,031319_p1,001,2019_Mar_13_0952,body_behavioural,3.0.4,59.87191947423961,
5,"It was a simple design, with a clear, white diamond on a thin silver band.",1,2,,,,0,5,5,5,,,,,0,5,5,5,,,,,,,,,,,,,,,,,,,,,,,,,,,1,2.1864500749798026,,,,,,,,,,,,,,,,,,,,,,,,,031319_p1,001,2019_Mar_13_0952,body_behavioural,3.0.4,59.87191947423961,
5,"“Sven, let’s go! ” Isabel said. ",1,2,,,,0,5,5,5,,,,,0,6,6,6,,,,,,,,,,,,,,,,,,,,,,,,,,,1,1.2532000599894673,,,,,,,,,,,,,,,,,,,,,,,,,031319_p1,001,2019_Mar_13_0952,body_behavioural,3.0.4,59.87191947423961,
5,Sven discretely closed the box and put it in his pocket.,1,2,,,,0,5,5,5,,,,,0,7,7,7,,,,,,,,,,,,,,,,,,,,,,,,,,,9,2.8363580529985484,,,,,,,,,,,,,,,,,,,,,,,,,031319_p1,001,2019_Mar_13_0952,body_behavioural,3.0.4,59.87191947423961,
5," They entered the security line, weaving through the roped walkways to the front. ",2,2,,,,0,5,5,5,,,,,0,8,8,8,,,,,,,,,,,,,,,,,,,,,,,,,,,1,3.6862954829994123,,,,,,,,,,,,,,,,,,,,,,,,,031319_p1,001,2019_Mar_13_0952,body_behavioural,3.0.4,59.87191947423961,
5,"When they were up, Isabel realized her laptop was buried somewhere in her duffle bag. ",2,2,,,,0,5,5,5,,,,,0,9,9,9,,,,,,,,,,,,,,,,,,,,,,,,,,,1,4.403366679995088,,,,,,,,,,,,,,,,,,,,,,,,,031319_p1,001,2019_Mar_13_0952,body_behavioural,3.0.4,59.87191947423961,
5,Sven had to hold the growing mound of objects she pulled from her bag until she unearthed the laptop.,2,2,,,,0,5,5,5,,,,,0,10,10,10,,,,,,,,,,,,,,,,,,,,,,,,,,,1,4.686547482997412,,,,,,,,,,,,,,,,,,,,,,,,,031319_p1,001,2019_Mar_13_0952,body_behavioural,3.0.4,59.87191947423961,
5,She set it into a bin and then had to unstrap her leather boots and put everything else into the bins.,2,2,,,,0,5,5,5,,,,,0,11,11,11,,,,,,,,,,,,,,,,,,,,,,,,,,,1,1.6506967330060434,,,,,,,,,,,,,,,,,,,,,,,,,031319_p1,001,2019_Mar_13_0952,body_behavioural,3.0.4,59.87191947423961,
5,"Finally, she relieved Sven of his holding duties, and he hurriedly deposited his own backpack on the belt as the people behind them glared without shame. ",2,2,,,,0,5,5,5,,,,,0,12,12,12,,,,,,,,,,,,,,,,,,,,,,,,,,,1,6.6703468070190866,,,,,,,,,,,,,,,,,,,,,,,,,031319_p1,001,2019_Mar_13_0952,body_behavioural,3.0.4,59.87191947423961,
5,"Sven went into the millimeter wave scanner after Isabel, put his hands up, and the metal bars whirled around him.",2,2,,,,0,5,5,5,,,,,0,13,13,13,,,,,,,,,,,,,,,,,,,,,,,,,,,1,2.8027911000244785,,,,,,,,,,,,,,,,,,,,,,,,,031319_p1,001,2019_Mar_13_0952,body_behavioural,3.0.4,59.87191947423961,
5,"“Sir, please step to the side.",2,2,,,,0,5,5,5,,,,,0,14,14,14,,,,,,,,,,,,,,,,,,,,,,,,,,,1,0.7006900050037075,,,,,,,,,,,,,,,,,,,,,,,,,031319_p1,001,2019_Mar_13_0952,body_behavioural,3.0.4,59.87191947423961,
5,"You need to empty your pockets,” the security guard said.",2,2,,,,0,5,5,5,,,,,0,15,15,15,,,,,,,,,,,,,,,,,,,,,,,,,,,1,0.6029612699931022,,,,,,,,,,,,,,,,,,,,,,,,,031319_p1,001,2019_Mar_13_0952,body_behavioural,3.0.4,59.87191947423961,
5,"With a sinking feeling Sven realized the mistake he had made forgetting to put the ring back in his bag, as Isabel and the guard both looked at him expectantly.",2,2,,,,0,5,5,5,,,,,0,16,16,16,,,,,,,,,,,,,,,,,,,,,,,,,,,1,9.570346397988033,,,,,,,,,,,,,,,,,,,,,,,,,031319_p1,001,2019_Mar_13_0952,body_behavioural,3.0.4,59.87191947423961,
5,"Sven,  deciding he would make the best of the situation, grabbed Isabel's hand as he reached into his pocket.",2,2,,,,0,5,5,5,,,,,0,17,17,17,,,,,,,,,,,,,,,,,,,,,,,,,,,9,3.2032208679884207,,,,,,,,,,,,,,,,,,,,,,,,,031319_p1,001,2019_Mar_13_0952,body_behavioural,3.0.4,59.87191947423961,
5,"He got down on one knee and, giggling slightly at her confused look, said, “Isabel, this isn't quite how I'd planned this, but - will you marry me?”",2,3,,,,0,5,5,5,,,,,0,18,18,18,,,,,,,,,,,,,,,,,,,,,,,,,,,1,2.4030278930149507,,,,,,,,,,,,,,,,,,,,,,,,,031319_p1,001,2019_Mar_13_0952,body_behavioural,3.0.4,59.87191947423961,
5,The security guard gasped.,2,3,,,,0,5,5,5,,,,,0,19,19,19,,,,,,,,,,,,,,,,,,,,,,,,,,,1,2.636539105005795,,,,,,,,,,,,,,,,,,,,,,,,,031319_p1,001,2019_Mar_13_0952,body_behavioural,3.0.4,59.87191947423961,
5,All the people who were putting their shoes back on and gathering their belongings stopped what they were doing and walked closer to the couple.,2,3,,,,0,5,5,5,,,,,0,20,20,20,,,,,,,,,,,,,,,,,,,,,,,,,,,1,2.286563297995599,,,,,,,,,,,,,,,,,,,,,,,,,031319_p1,001,2019_Mar_13_0952,body_behavioural,3.0.4,59.87191947423961,
5,"Isabel was astonished, and far too shy to respond in front of the backup of passengers waiting behind them.",2,3,,,,0,5,5,5,,,,,0,21,21,21,,,,,,,,,,,,,,,,,,,,,,,,,,,1,2.8699687749904115,,,,,,,,,,,,,,,,,,,,,,,,,031319_p1,001,2019_Mar_13_0952,body_behavioural,3.0.4,59.87191947423961,
5,"She attempted to stammer a response as she frantically grabbed her and Sven’s shoes, leaving Sven to retrieve their bags.",2,3,,,,0,5,5,5,,,,,0,22,22,22,,,,,,,,,,,,,,,,,,,,,,,,,,,1,4.569627082993975,,,,,,,,,,,,,,,,,,,,,,,,,031319_p1,001,2019_Mar_13_0952,body_behavioural,3.0.4,59.87191947423961,
5,"Both of them slipping in their socked feet, she fled onto the concourse with Sven trying to catch up behind her.",3,3,,,,0,5,5,5,,,,,0,23,23,23,,,,,,,,,,,,,,,,,,,,,,,,,,,1,3.0008720549813006,,,,,,,,,,,,,,,,,,,,,,,,,031319_p1,001,2019_Mar_13_0952,body_behavioural,3.0.4,59.87191947423961,
5,"Everyone in the terminal was looking at them with confusion as Sven, holding the bags in one hand and the open ring box in the other, finally caught up to her.",3,3,,,,0,5,5,5,,,,,0,24,24,24,,,,,,,,,,,,,,,,,,,,,,,,,,,1,6.236628434999147,,,,,,,,,,,,,,,,,,,,,,,,,031319_p1,001,2019_Mar_13_0952,body_behavioural,3.0.4,59.87191947423961,
5,“Isabel?”,3,3,,,,0,5,5,5,,,,,0,25,25,25,,,,,,,,,,,,,,,,,,,,,,,,,,,1,2.5362577899941243,,,,,,,,,,,,,,,,,,,,,,,,,031319_p1,001,2019_Mar_13_0952,body_behavioural,3.0.4,59.87191947423961,
5,"He watched her face as she turned, trying to read her expression.",3,3,,,,0,5,5,5,,,,,0,26,26,26,,,,,,,,,,,,,,,,,,,,,,,,,,,9,5.070042335020844,,,,,,,,,,,,,,,,,,,,,,,,,031319_p1,001,2019_Mar_13_0952,body_behavioural,3.0.4,59.87191947423961,
5,"Her eyes were wide, but she was smiling as she hyperventilated, “Of course yes, Sven, yes!” ",3,4,,,,0,5,5,5,,,,,0,27,27,27,,,,,,,,,,,,,,,,,,,,,,,,,,,1,2.8197232200182043,,,,,,,,,,,,,,,,,,,,,,,,,031319_p1,001,2019_Mar_13_0952,body_behavioural,3.0.4,59.87191947423961,
5,"They dropped their belongings and hugged, and Sven slipped the ring onto Isabel’s finger. ",3,4,,,,0,5,5,5,,,,,0,28,28,28,,,,,,,,,,,,,,,,,,,,,,,,,,,1,1.0030469530029222,,,,,,,,,,,,,,,,,,,,,,,,,031319_p1,001,2019_Mar_13_0952,body_behavioural,3.0.4,59.87191947423961,
5,"After getting their shoes back on, they practically skipped to the gate, filled with joy.",3,4,,,,0,5,5,5,,,,,0,29,29,29,,,,,,,,,,,,,,,,,,,,,,,,,,,1,0.9863039800256956,,,,,,,,,,,,,,,,,,,,,,,,,031319_p1,001,2019_Mar_13_0952,body_behavioural,3.0.4,59.87191947423961,
5,Sven high-fived a confused shoe-shine attendant as they passed.,3,4,,,,0,5,5,5,,,,,0,30,30,30,,,,,,,,,,,,,,,,,,,,,,,,,,,1,1.017383747996064,,,,,,,,,,,,,,,,,,,,,,,,,031319_p1,001,2019_Mar_13_0952,body_behavioural,3.0.4,59.87191947423961,
5,"They sat down outside their gate, having actually made good time, until the attendant called for passengers.",3,4,,,,0,5,5,5,,,,,0,31,31,31,,,,,,,,,,,,,,,,,,,,,,,,,,,1,1.0193448580102995,,,,,,,,,,,,,,,,,,,,,,,,,031319_p1,001,2019_Mar_13_0952,body_behavioural,3.0.4,59.87191947423961,
5,"They boarded, sitting together in first class, and had a glass of champagne to celebrate the departure into their new life together.",4,4,,,,0,5,5,5,,,,,0,32,32,32,,,,,,,,,,,,,,,,,,,,,,,,,,,1,3.969859839999117,,,,,,,,,,,,,,,,,,,,,,,,,031319_p1,001,2019_Mar_13_0952,body_behavioural,3.0.4,59.87191947423961,
5,"Some of their neighboring passengers who had witnessed the proposal congratulated them, and a woman next to them showed them that she had been live-tweeting the whole event and that it was already going viral online.",4,4,,,,0,5,5,5,,,,,0,33,33,33,,,,,,,,,,,,,,,,,,,,,,,,,,,1,6.019714920024853,,,,,,,,,,,,,,,,,,,,,,,,,031319_p1,001,2019_Mar_13_0952,body_behavioural,3.0.4,59.87191947423961,
5,"Isabel slid down in her seat with her hands over her face, both embarrassed and overjoyed at the same time.
",4,4,,,,0,5,5,5,,,,,0,34,34,34,,,,,,,,,,,,,,,,,,,,,,,,,,,1,4.919414094998501,,,,,,,,,,,,,,,,,,,,,,,,,031319_p1,001,2019_Mar_13_0952,body_behavioural,3.0.4,59.87191947423961,
5,,,,,,,0,5,5,5,,,,,,,,,,,,,,,,,,,,,,,,,,,,,,,,,,,,,,,,,,,,,,,,,,,,,,,,,,,,,031319_p1,001,2019_Mar_13_0952,body_behavioural,3.0.4,59.87191947423961,
6,,,,,,,0,6,6,6,0,0,0,0,,,,,,,,,,,,,,,,,,,,,,,,,space,0.9370858689944725,space,3.1675429670140147,space,4.1198378530098125,,,,,,,,,,,,,,,,,,,,,,,,,,,031319_p1,001,2019_Mar_13_0952,body_behavioural,3.0.4,59.87191947423961,
6,"Alvira and Senna walked into the restaurant hand in sweaty hand with quite different expectations: Senna was going to propose tonight, and Alvira had no idea.",1,1,None,None,,0,6,6,6,,,,,0,0,0,0,,,,,,,,,,,,,,,,,,,,,,,,,,,9,10.337103422993096,,,,,,,,,,,,,,,,,,,,,,,,,031319_p1,001,2019_Mar_13_0952,body_behavioural,3.0.4,59.87191947423961,
6,"He took a deep breath, trying to calm his nerves as worst case scenarios ran through his mind. ",1,1,None,None,,0,6,6,6,,,,,0,1,1,1,,,,,,,,,,,,,,,,,,,,,,,,,,,1,2.7865334569942206,,,,,,,,,,,,,,,,,,,,,,,,,031319_p1,001,2019_Mar_13_0952,body_behavioural,3.0.4,59.87191947423961,
6,The entrance of the restaurant was dazzling; chandeliers spread their warm light onto the delicate place settings of all the tables filled with guests dressed to the nines. ,1,1,None,None,,0,6,6,6,,,,,0,2,2,2,,,,,,,,,,,,,,,,,,,,,,,,,,,1,3.5532573029922787,,,,,,,,,,,,,,,,,,,,,,,,,031319_p1,001,2019_Mar_13_0952,body_behavioural,3.0.4,59.87191947423961,
6,"Through the floor-to-ceiling arched windows of the back wall, they saw the sun setting onto the Pacific ocean.",1,1,None,None,,0,6,6,6,,,,,0,3,3,3,,,,,,,,,,,,,,,,,,,,,,,,,,,1,1.9497162769839633,,,,,,,,,,,,,,,,,,,,,,,,,031319_p1,001,2019_Mar_13_0952,body_behavioural,3.0.4,59.87191947423961,
6,"This was surely one of the best restaurants on the west coast, situated right on the beach.",1,1,None,None,,0,6,6,6,,,,,0,4,4,4,,,,,,,,,,,,,,,,,,,,,,,,,,,1,1.3869878529803827,,,,,,,,,,,,,,,,,,,,,,,,,031319_p1,001,2019_Mar_13_0952,body_behavioural,3.0.4,59.87191947423961,
6,"Senna gave his name to the host, who quickly located their reservation with an almost comically wide customer-service smile.",1,1,7.0,None,,0,6,6,6,,,,,0,5,5,5,,,,,,,,,,,,,,,,,,,,,,,,,,,1,3.617516105005052,,,,,,,,,,,,,,,,,,,,,,,,,031319_p1,001,2019_Mar_13_0952,body_behavioural,3.0.4,59.87191947423961,
6,He led them to a table right by the window.,2,1,None,None,,0,6,6,6,,,,,0,6,6,6,,,,,,,,,,,,,,,,,,,,,,,,,,,1,0.9531613249855582,,,,,,,,,,,,,,,,,,,,,,,,,031319_p1,001,2019_Mar_13_0952,body_behavioural,3.0.4,59.87191947423961,
6,"He brought out some very small menus, with a short list of the celebrity chef's carefully selected daily dishes written in a loopy, cursive font unadorned by any mention of prices.",2,1,None,9.0,,0,6,6,6,,,,,0,7,7,7,,,,,,,,,,,,,,,,,,,,,,,,,,,9,19.401884029997746,,,,,,,,,,,,,,,,,,,,,,,,,031319_p1,001,2019_Mar_13_0952,body_behavioural,3.0.4,59.87191947423961,
6,Senna slipped off to the bathroom to check to make sure the ring was in order.,2,2,None,None,,0,6,6,6,,,,,0,8,8,8,,,,,,,,,,,,,,,,,,,,,,,,,,,1,2.853109720017528,,,,,,,,,,,,,,,,,,,,,,,,,031319_p1,001,2019_Mar_13_0952,body_behavioural,3.0.4,59.87191947423961,
6,"The ring contained a canary diamond that had been in his grandmother’s wedding ring, and it was a brilliant stone that was accentuated by the small white diamonds encircling it.",2,2,None,None,,0,6,6,6,,,,,0,9,9,9,,,,,,,,,,,,,,,,,,,,,,,,,,,1,4.82004546499229,,,,,,,,,,,,,,,,,,,,,,,,,031319_p1,001,2019_Mar_13_0952,body_behavioural,3.0.4,59.87191947423961,
6,"He walked back to the table after handing the small, velvet box to a waiter at the front podium.",2,2,6.0,None,,0,6,6,6,,,,,0,10,10,10,,,,,,,,,,,,,,,,,,,,,,,,,,,1,9.451148580003064,,,,,,,,,,,,,,,,,,,,,,,,,031319_p1,001,2019_Mar_13_0952,body_behavioural,3.0.4,59.87191947423961,
6,He came back just as their waiter was approaching the table to get their order.,3,2,None,None,,0,6,6,6,,,,,0,11,11,11,,,,,,,,,,,,,,,,,,,,,,,,,,,1,0.9691494879953098,,,,,,,,,,,,,,,,,,,,,,,,,031319_p1,001,2019_Mar_13_0952,body_behavioural,3.0.4,59.87191947423961,
6,"Senna ordered the oysters with garlic-parmesan sauce, and Alvira ordered the sauteed sea scallops with caramelized apples. ",3,2,None,None,,0,6,6,6,,,,,0,12,12,12,,,,,,,,,,,,,,,,,,,,,,,,,,,1,4.4367151180049405,,,,,,,,,,,,,,,,,,,,,,,,,031319_p1,001,2019_Mar_13_0952,body_behavioural,3.0.4,59.87191947423961,
6,"“Excellent choices,” the waiter said with a subsequent brisk spin away from the table.",3,2,None,None,,0,6,6,6,,,,,0,13,13,13,,,,,,,,,,,,,,,,,,,,,,,,,,,1,7.370159832993522,,,,,,,,,,,,,,,,,,,,,,,,,031319_p1,001,2019_Mar_13_0952,body_behavioural,3.0.4,59.87191947423961,
6,"“What a beautiful place, Senna. ",3,2,None,None,,0,6,6,6,,,,,0,14,14,14,,,,,,,,,,,,,,,,,,,,,,,,,,,1,1.0030151599785313,,,,,,,,,,,,,,,,,,,,,,,,,031319_p1,001,2019_Mar_13_0952,body_behavioural,3.0.4,59.87191947423961,
6,"Really this is too much just to celebrate the first tomatoes I grew in the garden, like, this is absurd,” Alvira said.",3,2,None,None,,0,6,6,6,,,,,0,15,15,15,,,,,,,,,,,,,,,,,,,,,,,,,,,1,11.803566432994558,,,,,,,,,,,,,,,,,,,,,,,,,031319_p1,001,2019_Mar_13_0952,body_behavioural,3.0.4,59.87191947423961,
6,"Senna laughed and said, “No, those were really the best tomatoes I’ve ever had. ",3,2,None,None,,0,6,6,6,,,,,0,16,16,16,,,,,,,,,,,,,,,,,,,,,,,,,,,1,4.352969075000146,,,,,,,,,,,,,,,,,,,,,,,,,031319_p1,001,2019_Mar_13_0952,body_behavioural,3.0.4,59.87191947423961,
6,We had to celebrate.” ,3,2,None,None,,0,6,6,6,,,,,0,17,17,17,,,,,,,,,,,,,,,,,,,,,,,,,,,1,5.1866774469963275,,,,,,,,,,,,,,,,,,,,,,,,,031319_p1,001,2019_Mar_13_0952,body_behavioural,3.0.4,59.87191947423961,
6,"They talked and laughed as the sun sank below the horizon, and the glow from the ocean was replaced by the glow from the chandeliers.",3,2,8.0,None,,0,6,6,6,,,,,0,18,18,18,,,,,,,,,,,,,,,,,,,,,,,,,,,1,6.970534639985999,,,,,,,,,,,,,,,,,,,,,,,,,031319_p1,001,2019_Mar_13_0952,body_behavioural,3.0.4,59.87191947423961,
6,"The waiter eventually returned with their meals, and everything was even more delicious than they had expected, especially the oysters, which Senna said tasted like the ocean. ",4,2,None,None,,0,6,6,6,,,,,0,19,19,19,,,,,,,,,,,,,,,,,,,,,,,,,,,9,4.686646952992305,,,,,,,,,,,,,,,,,,,,,,,,,031319_p1,001,2019_Mar_13_0952,body_behavioural,3.0.4,59.87191947423961,
6,Then he paused and looked at Alvira meaningfully. ,4,2,None,None,,0,6,6,6,,,,,0,20,20,20,,,,,,,,,,,,,,,,,,,,,,,,,,,1,1.2524888200277928,,,,,,,,,,,,,,,,,,,,,,,,,031319_p1,001,2019_Mar_13_0952,body_behavioural,3.0.4,59.87191947423961,
6, “It’s really been the best three years of my life with you.,4,2,None,None,,0,6,6,6,,,,,0,21,21,21,,,,,,,,,,,,,,,,,,,,,,,,,,,1,1.3369103999866638,,,,,,,,,,,,,,,,,,,,,,,,,031319_p1,001,2019_Mar_13_0952,body_behavioural,3.0.4,59.87191947423961,
6,"I couldn’t imagine it any other way, and I don’t want to.",4,2,None,None,,0,6,6,6,,,,,0,22,22,22,,,,,,,,,,,,,,,,,,,,,,,,,,,1,1.0696082829963416,,,,,,,,,,,,,,,,,,,,,,,,,031319_p1,001,2019_Mar_13_0952,body_behavioural,3.0.4,59.87191947423961,
6,"I really want to spend the rest of my years eating garden tomatoes, whatever it is, with you.” ",4,2,None,None,,0,6,6,6,,,,,0,23,23,23,,,,,,,,,,,,,,,,,,,,,,,,,,,1,4.453508018021239,,,,,,,,,,,,,,,,,,,,,,,,,031319_p1,001,2019_Mar_13_0952,body_behavioural,3.0.4,59.87191947423961,
6,"Alvira smiled, “I want the same with you too, Senna.” ",4,2,None,17.0,,0,6,6,6,,,,,0,24,24,24,,,,,,,,,,,,,,,,,,,,,,,,,,,1,1.2359790699847508,,,,,,,,,,,,,,,,,,,,,,,,,031319_p1,001,2019_Mar_13_0952,body_behavioural,3.0.4,59.87191947423961,
6,"Senna nodded at the waiter who had been watching attentively, and he quickly strode over to place a small, elegant cake topped with the ring in front of Alvira. ",4,3,None,None,,0,6,6,6,,,,,0,25,25,25,,,,,,,,,,,,,,,,,,,,,,,,,,,9,9.934582152985968,,,,,,,,,,,,,,,,,,,,,,,,,031319_p1,001,2019_Mar_13_0952,body_behavioural,3.0.4,59.87191947423961,
6,Her eyes widened in shock when she realized what she was looking at.,4,3,None,None,,0,6,6,6,,,,,0,26,26,26,,,,,,,,,,,,,,,,,,,,,,,,,,,1,1.169571865000762,,,,,,,,,,,,,,,,,,,,,,,,,031319_p1,001,2019_Mar_13_0952,body_behavioural,3.0.4,59.87191947423961,
6,"“Alvira, will you marry me? ",4,3,None,None,,0,6,6,6,,,,,0,27,27,27,,,,,,,,,,,,,,,,,,,,,,,,,,,1,0.6000799099856522,,,,,,,,,,,,,,,,,,,,,,,,,031319_p1,001,2019_Mar_13_0952,body_behavioural,3.0.4,59.87191947423961,
6,"I love you, and I will never stop loving you.” ",4,3,None,None,,0,6,6,6,,,,,0,28,28,28,,,,,,,,,,,,,,,,,,,,,,,,,,,1,0.5538983590085991,,,,,,,,,,,,,,,,,,,,,,,,,031319_p1,001,2019_Mar_13_0952,body_behavioural,3.0.4,59.87191947423961,
6,Alvira started to cry.,4,3,None,None,,0,6,6,6,,,,,0,29,29,29,,,,,,,,,,,,,,,,,,,,,,,,,,,1,1.719748255010927,,,,,,,,,,,,,,,,,,,,,,,,,031319_p1,001,2019_Mar_13_0952,body_behavioural,3.0.4,59.87191947423961,
6,"The room became silent, and everyone turned to their table. ",4,3,None,5.0,,0,6,6,6,,,,,0,30,30,30,,,,,,,,,,,,,,,,,,,,,,,,,,,1,0.7696761630068067,,,,,,,,,,,,,,,,,,,,,,,,,031319_p1,001,2019_Mar_13_0952,body_behavioural,3.0.4,59.87191947423961,
6,"“Yes, of course, yes!” she shouted as she wiped away tears.",4,4,None,None,,0,6,6,6,,,,,0,31,31,31,,,,,,,,,,,,,,,,,,,,,,,,,,,1,0.903505159978522,,,,,,,,,,,,,,,,,,,,,,,,,031319_p1,001,2019_Mar_13_0952,body_behavioural,3.0.4,59.87191947423961,
6,The neighboring tables exploded in applause.,4,4,None,None,,0,6,6,6,,,,,0,32,32,32,,,,,,,,,,,,,,,,,,,,,,,,,,,1,1.0197068550041877,,,,,,,,,,,,,,,,,,,,,,,,,031319_p1,001,2019_Mar_13_0952,body_behavioural,3.0.4,59.87191947423961,
6,The waiter returned with a bottle of champagne and popped it. ,4,4,None,None,,0,6,6,6,,,,,0,33,33,33,,,,,,,,,,,,,,,,,,,,,,,,,,,1,3.3199276179948356,,,,,,,,,,,,,,,,,,,,,,,,,031319_p1,001,2019_Mar_13_0952,body_behavioural,3.0.4,59.87191947423961,
6,"All of this went unnoticed by Senna and Alvira as they looked into each others’ eyes, and he slipped the ring onto her finger. ",4,4,None,None,,0,6,6,6,,,,,0,34,34,34,,,,,,,,,,,,,,,,,,,,,,,,,,,1,2.4530864570115227,,,,,,,,,,,,,,,,,,,,,,,,,031319_p1,001,2019_Mar_13_0952,body_behavioural,3.0.4,59.87191947423961,
6,"She held up her hand to admire it, and her glittering tears of joy matched the shine from her ring.   
",4,4,17.0,5.0,,0,6,6,6,,,,,0,35,35,35,,,,,,,,,,,,,,,,,,,,,,,,,,,1,2.1860567050171085,,,,,,,,,,,,,,,,,,,,,,,,,031319_p1,001,2019_Mar_13_0952,body_behavioural,3.0.4,59.87191947423961,
6,,,,,,,0,6,6,6,,,,,,,,,,,,,,,,,,,,,,,,,,,,,,,,,,,,,,,,,,,,,,,,,,,,,,,,,,,,,031319_p1,001,2019_Mar_13_0952,body_behavioural,3.0.4,59.87191947423961,
7,,,,,,,0,7,7,7,0,0,0,0,,,,,,,,,,,,,,,,,,,,,,,,,space,3.3360352580202743,space,0.7194490940019023,space,0.8697339880163781,,,,,,,,,,,,,,,,,,,,,,,,,,,031319_p1,001,2019_Mar_13_0952,body_behavioural,3.0.4,59.87191947423961,
7,"Thomas, dreading the conversation he was about to have, got to Annika’s Finer Diner early.",1,1,None,None,,0,7,7,7,,,,,0,0,0,0,,,,,,,,,,,,,,,,,,,,,,,,,,,9,7.537051122984849,,,,,,,,,,,,,,,,,,,,,,,,,031319_p1,001,2019_Mar_13_0952,body_behavioural,3.0.4,59.87191947423961,
7,The restaurant had a kitschy charm and was reminiscent of a diner from the 70’s. ,1,1,None,None,,0,7,7,7,,,,,0,1,1,1,,,,,,,,,,,,,,,,,,,,,,,,,,,1,1.853094720019726,,,,,,,,,,,,,,,,,,,,,,,,,031319_p1,001,2019_Mar_13_0952,body_behavioural,3.0.4,59.87191947423961,
7,A bell chimed as the door swung open and Sadie entered to find Thomas deep in thought on a bench by the door.,1,1,None,None,,0,7,7,7,,,,,0,2,2,2,,,,,,,,,,,,,,,,,,,,,,,,,,,1,1.3691861779952887,,,,,,,,,,,,,,,,,,,,,,,,,031319_p1,001,2019_Mar_13_0952,body_behavioural,3.0.4,59.87191947423961,
7,He jumped up and gave her a side hug. ,1,1,None,None,,0,7,7,7,,,,,0,3,3,3,,,,,,,,,,,,,,,,,,,,,,,,,,,1,3.670773734978866,,,,,,,,,,,,,,,,,,,,,,,,,031319_p1,001,2019_Mar_13_0952,body_behavioural,3.0.4,59.87191947423961,
7,"“How was your day?”, he asked.",1,1,None,None,,0,7,7,7,,,,,0,4,4,4,,,,,,,,,,,,,,,,,,,,,,,,,,,1,1.453038125007879,,,,,,,,,,,,,,,,,,,,,,,,,031319_p1,001,2019_Mar_13_0952,body_behavioural,3.0.4,59.87191947423961,
7,"She clung onto him, “It was okay.",1,1,None,None,,0,7,7,7,,,,,0,5,5,5,,,,,,,,,,,,,,,,,,,,,,,,,,,1,4.470007187977899,,,,,,,,,,,,,,,,,,,,,,,,,031319_p1,001,2019_Mar_13_0952,body_behavioural,3.0.4,59.87191947423961,
7,I missed you today.”,1,1,None,None,,0,7,7,7,,,,,0,6,6,6,,,,,,,,,,,,,,,,,,,,,,,,,,,1,0.7013056130090263,,,,,,,,,,,,,,,,,,,,,,,,,031319_p1,001,2019_Mar_13_0952,body_behavioural,3.0.4,59.87191947423961,
7,He looked at the hostess coming towards them.,1,1,None,None,,0,7,7,7,,,,,0,7,7,7,,,,,,,,,,,,,,,,,,,,,,,,,,,1,5.903578090015799,,,,,,,,,,,,,,,,,,,,,,,,,031319_p1,001,2019_Mar_13_0952,body_behavioural,3.0.4,59.87191947423961,
7,"“Can we have a table in the back?”, Thomas asked.",1,1,None,None,,0,7,7,7,,,,,0,8,8,8,,,,,,,,,,,,,,,,,,,,,,,,,,,9,5.636594915005844,,,,,,,,,,,,,,,,,,,,,,,,,031319_p1,001,2019_Mar_13_0952,body_behavioural,3.0.4,59.87191947423961,
7,"She shrugged and, as she loudly popped her bubblegum, replied, “Sure, honey, this way.”",1,1,9.0,None,,0,7,7,7,,,,,0,9,9,9,,,,,,,,,,,,,,,,,,,,,,,,,,,1,1.402650524978526,,,,,,,,,,,,,,,,,,,,,,,,,031319_p1,001,2019_Mar_13_0952,body_behavioural,3.0.4,59.87191947423961,
7,She led them to the back of the restaurant where there were dimly lit tables. ,2,1,None,None,,0,7,7,7,,,,,0,10,10,10,,,,,,,,,,,,,,,,,,,,,,,,,,,1,1.2363704599847551,,,,,,,,,,,,,,,,,,,,,,,,,031319_p1,001,2019_Mar_13_0952,body_behavioural,3.0.4,59.87191947423961,
7,"“Is this alright?”, the hostess asked.",2,1,None,None,,0,7,7,7,,,,,0,11,11,11,,,,,,,,,,,,,,,,,,,,,,,,,,,1,0.9840785829874221,,,,,,,,,,,,,,,,,,,,,,,,,031319_p1,001,2019_Mar_13_0952,body_behavioural,3.0.4,59.87191947423961,
7,Thomas cleared his throat and tried not to grimace at the stained fabric that lined the booth.,2,1,None,None,,0,7,7,7,,,,,0,12,12,12,,,,,,,,,,,,,,,,,,,,,,,,,,,1,3.60347302199807,,,,,,,,,,,,,,,,,,,,,,,,,031319_p1,001,2019_Mar_13_0952,body_behavioural,3.0.4,59.87191947423961,
7,“This is great.,2,1,None,None,,0,7,7,7,,,,,0,13,13,13,,,,,,,,,,,,,,,,,,,,,,,,,,,1,0.818464751006104,,,,,,,,,,,,,,,,,,,,,,,,,031319_p1,001,2019_Mar_13_0952,body_behavioural,3.0.4,59.87191947423961,
7,"Thank you,” Thomas said.",2,1,None,None,,0,7,7,7,,,,,0,14,14,14,,,,,,,,,,,,,,,,,,,,,,,,,,,1,0.7205435700016096,,,,,,,,,,,,,,,,,,,,,,,,,031319_p1,001,2019_Mar_13_0952,body_behavioural,3.0.4,59.87191947423961,
7,Sadie slipped into the cushioned seat and grabbed Thomas’ hand.,2,1,None,None,,0,7,7,7,,,,,0,15,15,15,,,,,,,,,,,,,,,,,,,,,,,,,,,1,2.553926930006128,,,,,,,,,,,,,,,,,,,,,,,,,031319_p1,001,2019_Mar_13_0952,body_behavioural,3.0.4,59.87191947423961,
7,"“Tell me about your day!”, Sadie sang as Thomas sat down.",2,1,None,None,,0,7,7,7,,,,,0,16,16,16,,,,,,,,,,,,,,,,,,,,,,,,,,,1,2.8862462249817327,,,,,,,,,,,,,,,,,,,,,,,,,031319_p1,001,2019_Mar_13_0952,body_behavioural,3.0.4,59.87191947423961,
7,He looked at her silently and pulled his hand slowly from hers.,2,1,None,None,,0,7,7,7,,,,,0,17,17,17,,,,,,,,,,,,,,,,,,,,,,,,,,,1,1.4529116829799023,,,,,,,,,,,,,,,,,,,,,,,,,031319_p1,001,2019_Mar_13_0952,body_behavioural,3.0.4,59.87191947423961,
7,Sadie gave him a puzzled look.,2,1,None,None,,0,7,7,7,,,,,0,18,18,18,,,,,,,,,,,,,,,,,,,,,,,,,,,1,6.53642781500821,,,,,,,,,,,,,,,,,,,,,,,,,031319_p1,001,2019_Mar_13_0952,body_behavioural,3.0.4,59.87191947423961,
7,Thomas looked away and took a deep breath. ,2,1,None,None,,0,7,7,7,,,,,0,19,19,19,,,,,,,,,,,,,,,,,,,,,,,,,,,9,1.053043415013235,,,,,,,,,,,,,,,,,,,,,,,,,031319_p1,001,2019_Mar_13_0952,body_behavioural,3.0.4,59.87191947423961,
7,"Sadie asked, “What’s wrong?” ",2,1,None,None,,0,7,7,7,,,,,0,20,20,20,,,,,,,,,,,,,,,,,,,,,,,,,,,1,1.769706609979039,,,,,,,,,,,,,,,,,,,,,,,,,031319_p1,001,2019_Mar_13_0952,body_behavioural,3.0.4,59.87191947423961,
7,Thomas picked at his fingernails.,2,1,None,22.0,,0,7,7,7,,,,,0,21,21,21,,,,,,,,,,,,,,,,,,,,,,,,,,,1,0.5197216079977807,,,,,,,,,,,,,,,,,,,,,,,,,031319_p1,001,2019_Mar_13_0952,body_behavioural,3.0.4,59.87191947423961,
7,"“Sadie, I’ve been thinking, and I need to figure out some stuff… on my own.”",2,2,None,None,,0,7,7,7,,,,,0,22,22,22,,,,,,,,,,,,,,,,,,,,,,,,,,,1,0.8529371250187978,,,,,,,,,,,,,,,,,,,,,,,,,031319_p1,001,2019_Mar_13_0952,body_behavioural,3.0.4,59.87191947423961,
7,Sadie’s mouth popped open for a moment.,2,2,None,None,,0,7,7,7,,,,,0,23,23,23,,,,,,,,,,,,,,,,,,,,,,,,,,,1,1.0030620330071542,,,,,,,,,,,,,,,,,,,,,,,,,031319_p1,001,2019_Mar_13_0952,body_behavioural,3.0.4,59.87191947423961,
7,Then she swallowed and shifted back in her seat.,2,2,None,None,,0,7,7,7,,,,,0,24,24,24,,,,,,,,,,,,,,,,,,,,,,,,,,,1,0.7858323339896742,,,,,,,,,,,,,,,,,,,,,,,,,031319_p1,001,2019_Mar_13_0952,body_behavioural,3.0.4,59.87191947423961,
7,“Things have been really picking up at work.,2,2,None,None,,0,7,7,7,,,,,0,25,25,25,,,,,,,,,,,,,,,,,,,,,,,,,,,1,3.0198637440043967,,,,,,,,,,,,,,,,,,,,,,,,,031319_p1,001,2019_Mar_13_0952,body_behavioural,3.0.4,59.87191947423961,
7,And I’m not sure that this is the job I want to do anymore.,2,2,None,None,,0,7,7,7,,,,,0,26,26,26,,,,,,,,,,,,,,,,,,,,,,,,,,,1,5.703494879999198,,,,,,,,,,,,,,,,,,,,,,,,,031319_p1,001,2019_Mar_13_0952,body_behavioural,3.0.4,59.87191947423961,
7,It’s been really overwhelming between working and figuring out if I should change careers.” ,2,2,17.0,None,,0,7,7,7,,,,,0,27,27,27,,,,,,,,,,,,,,,,,,,,,,,,,,,1,5.736939294991316,,,,,,,,,,,,,,,,,,,,,,,,,031319_p1,001,2019_Mar_13_0952,body_behavioural,3.0.4,59.87191947423961,
7,The waiter appeared and interrupted the speech Thomas had been practicing.,3,2,None,None,,0,7,7,7,,,,,0,28,28,28,,,,,,,,,,,,,,,,,,,,,,,,,,,9,7.184445783001138,,,,,,,,,,,,,,,,,,,,,,,,,031319_p1,001,2019_Mar_13_0952,body_behavioural,3.0.4,59.87191947423961,
7,"“Hello you two!”, the waiter said.",3,2,None,None,,0,7,7,7,,,,,0,29,29,29,,,,,,,,,,,,,,,,,,,,,,,,,,,1,1.0530213300080504,,,,,,,,,,,,,,,,,,,,,,,,,031319_p1,001,2019_Mar_13_0952,body_behavioural,3.0.4,59.87191947423961,
7,“Have you decided what you would like?”,3,2,None,None,,0,7,7,7,,,,,0,30,30,30,,,,,,,,,,,,,,,,,,,,,,,,,,,1,0.6363057950220536,,,,,,,,,,,,,,,,,,,,,,,,,031319_p1,001,2019_Mar_13_0952,body_behavioural,3.0.4,59.87191947423961,
7,"Thomas and Sadie realized there were menus on the table, and they glanced at the lengthy list quickly.",3,2,None,None,,0,7,7,7,,,,,0,31,31,31,,,,,,,,,,,,,,,,,,,,,,,,,,,1,2.3364739500102587,,,,,,,,,,,,,,,,,,,,,,,,,031319_p1,001,2019_Mar_13_0952,body_behavioural,3.0.4,59.87191947423961,
7,"There were so many strange dishes they had never heard of before, so they settled on familiar orders.",3,2,None,None,,0,7,7,7,,,,,0,32,32,32,,,,,,,,,,,,,,,,,,,,,,,,,,,1,2.386534749995917,,,,,,,,,,,,,,,,,,,,,,,,,031319_p1,001,2019_Mar_13_0952,body_behavioural,3.0.4,59.87191947423961,
7,"“I’ll have a burger, no tomatoes,” Thomas said.",3,2,None,None,,0,7,7,7,,,,,0,33,33,33,,,,,,,,,,,,,,,,,,,,,,,,,,,1,6.053897389996564,,,,,,,,,,,,,,,,,,,,,,,,,031319_p1,001,2019_Mar_13_0952,body_behavioural,3.0.4,59.87191947423961,
7,"Sadie asked about the reuben, and the waiter told her it was excellent.",3,2,None,None,,0,7,7,7,,,,,0,34,34,34,,,,,,,,,,,,,,,,,,,,,,,,,,,1,2.2694699649873655,,,,,,,,,,,,,,,,,,,,,,,,,031319_p1,001,2019_Mar_13_0952,body_behavioural,3.0.4,59.87191947423961,
7,"Once she agreed to get that, he walked away. ",3,2,None,None,,0,7,7,7,,,,,0,35,35,35,,,,,,,,,,,,,,,,,,,,,,,,,,,1,1.336476614989806,,,,,,,,,,,,,,,,,,,,,,,,,031319_p1,001,2019_Mar_13_0952,body_behavioural,3.0.4,59.87191947423961,
7,Sadie and Thomas looked at each other. ,3,2,None,None,,0,7,7,7,,,,,0,36,36,36,,,,,,,,,,,,,,,,,,,,,,,,,,,1,1.1864933850010857,,,,,,,,,,,,,,,,,,,,,,,,,031319_p1,001,2019_Mar_13_0952,body_behavioural,3.0.4,59.87191947423961,
7,"“So what are you saying?”, Sadie asked. ",3,2,None,None,,0,7,7,7,,,,,0,37,37,37,,,,,,,,,,,,,,,,,,,,,,,,,,,9,8.553589657996781,,,,,,,,,,,,,,,,,,,,,,,,,031319_p1,001,2019_Mar_13_0952,body_behavioural,3.0.4,59.87191947423961,
7,"Thomas replied, “I want to take a break for awhile.",3,2,None,None,,0,7,7,7,,,,,0,38,38,38,,,,,,,,,,,,,,,,,,,,,,,,,,,1,1.1341002199915238,,,,,,,,,,,,,,,,,,,,,,,,,031319_p1,001,2019_Mar_13_0952,body_behavioural,3.0.4,59.87191947423961,
7,"You know, have space to figure out what I’m supposed to be doing.”",3,2,None,17.0,,0,7,7,7,,,,,0,39,39,39,,,,,,,,,,,,,,,,,,,,,,,,,,,1,0.9363276929943822,,,,,,,,,,,,,,,,,,,,,,,,,031319_p1,001,2019_Mar_13_0952,body_behavioural,3.0.4,59.87191947423961,
7,Sadie quietly burst into tears. ,3,3,None,None,,0,7,7,7,,,,,0,40,40,40,,,,,,,,,,,,,,,,,,,,,,,,,,,1,0.6672026450105477,,,,,,,,,,,,,,,,,,,,,,,,,031319_p1,001,2019_Mar_13_0952,body_behavioural,3.0.4,59.87191947423961,
7,"Nevertheless, people sitting at the adjacent table looked over and quickly averted their gaze as they realized what was happening. ",3,3,None,None,,0,7,7,7,,,,,0,41,41,41,,,,,,,,,,,,,,,,,,,,,,,,,,,1,3.603442344989162,,,,,,,,,,,,,,,,,,,,,,,,,031319_p1,001,2019_Mar_13_0952,body_behavioural,3.0.4,59.87191947423961,
7,“Is this really what you want?,3,3,None,None,,0,7,7,7,,,,,0,42,42,42,,,,,,,,,,,,,,,,,,,,,,,,,,,1,0.9696819279924966,,,,,,,,,,,,,,,,,,,,,,,,,031319_p1,001,2019_Mar_13_0952,body_behavioural,3.0.4,59.87191947423961,
7,I don’t understand.,3,3,None,None,,0,7,7,7,,,,,0,43,43,43,,,,,,,,,,,,,,,,,,,,,,,,,,,1,1.4199130719935056,,,,,,,,,,,,,,,,,,,,,,,,,031319_p1,001,2019_Mar_13_0952,body_behavioural,3.0.4,59.87191947423961,
7,I don’t understand.,3,3,None,None,,0,7,7,7,,,,,0,44,44,44,,,,,,,,,,,,,,,,,,,,,,,,,,,1,0.6836380250169896,,,,,,,,,,,,,,,,,,,,,,,,,031319_p1,001,2019_Mar_13_0952,body_behavioural,3.0.4,59.87191947423961,
7,Things were fine. ,3,3,None,None,,0,7,7,7,,,,,0,45,45,45,,,,,,,,,,,,,,,,,,,,,,,,,,,1,0.7173519200005103,,,,,,,,,,,,,,,,,,,,,,,,,031319_p1,001,2019_Mar_13_0952,body_behavioural,3.0.4,59.87191947423961,
7,"We don’t have to hang out all the time, or as much as we do now.”",3,3,None,None,,0,7,7,7,,,,,0,46,46,46,,,,,,,,,,,,,,,,,,,,,,,,,,,1,4.434075591998408,,,,,,,,,,,,,,,,,,,,,,,,,031319_p1,001,2019_Mar_13_0952,body_behavioural,3.0.4,59.87191947423961,
7,Thomas chewed on his bottom lip and picked at his now bleeding hangnail. ,3,3,20.0,None,,0,7,7,7,,,,,0,47,47,47,,,,,,,,,,,,,,,,,,,,,,,,,,,1,4.03656137001235,,,,,,,,,,,,,,,,,,,,,,,,,031319_p1,001,2019_Mar_13_0952,body_behavioural,3.0.4,59.87191947423961,
7,"At that moment, the waiter arrived with the burger and reuben and set them on the table.",4,3,None,None,,0,7,7,7,,,,,0,48,48,48,,,,,,,,,,,,,,,,,,,,,,,,,,,1,3.6862663950014394,,,,,,,,,,,,,,,,,,,,,,,,,031319_p1,001,2019_Mar_13_0952,body_behavioural,3.0.4,59.87191947423961,
7,“Is there anything else I can get for you two?,4,3,None,None,,0,7,7,7,,,,,0,49,49,49,,,,,,,,,,,,,,,,,,,,,,,,,,,1,0.9696961980080232,,,,,,,,,,,,,,,,,,,,,,,,,031319_p1,001,2019_Mar_13_0952,body_behavioural,3.0.4,59.87191947423961,
7,"Will you be getting dessert tonight?”, he asked.",4,3,None,None,,0,7,7,7,,,,,0,50,50,50,,,,,,,,,,,,,,,,,,,,,,,,,,,1,0.9361921949894167,,,,,,,,,,,,,,,,,,,,,,,,,031319_p1,001,2019_Mar_13_0952,body_behavioural,3.0.4,59.87191947423961,
7,"“Oh no, we’re good, thanks,” Thomas said.",4,3,None,None,,0,7,7,7,,,,,0,51,51,51,,,,,,,,,,,,,,,,,,,,,,,,,,,1,1.7531744129955769,,,,,,,,,,,,,,,,,,,,,,,,,031319_p1,001,2019_Mar_13_0952,body_behavioural,3.0.4,59.87191947423961,
7,"Once the waiter had walked away still oblivious to the situation, Thomas sighed and said, “Sadie, I’m sorry.",4,3,None,None,,0,7,7,7,,,,,0,52,52,52,,,,,,,,,,,,,,,,,,,,,,,,,,,1,7.636548840004252,,,,,,,,,,,,,,,,,,,,,,,,,031319_p1,001,2019_Mar_13_0952,body_behavioural,3.0.4,59.87191947423961,
7,"You are so great, and I love hanging out with you.",4,3,None,None,,0,7,7,7,,,,,0,53,53,53,,,,,,,,,,,,,,,,,,,,,,,,,,,1,1.0863334449823014,,,,,,,,,,,,,,,,,,,,,,,,,031319_p1,001,2019_Mar_13_0952,body_behavioural,3.0.4,59.87191947423961,
7,But I need some time.,4,3,None,None,,0,7,7,7,,,,,0,54,54,54,,,,,,,,,,,,,,,,,,,,,,,,,,,1,0.7364074430079199,,,,,,,,,,,,,,,,,,,,,,,,,031319_p1,001,2019_Mar_13_0952,body_behavioural,3.0.4,59.87191947423961,
7,I’m so sorry.”,4,3,None,None,,0,7,7,7,,,,,0,55,55,55,,,,,,,,,,,,,,,,,,,,,,,,,,,1,0.702653582993662,,,,,,,,,,,,,,,,,,,,,,,,,031319_p1,001,2019_Mar_13_0952,body_behavioural,3.0.4,59.87191947423961,
7,"He grabbed her hand, and she pulled it out of his.",4,3,None,None,,0,7,7,7,,,,,0,56,56,56,,,,,,,,,,,,,,,,,,,,,,,,,,,9,6.885660585016012,,,,,,,,,,,,,,,,,,,,,,,,,031319_p1,001,2019_Mar_13_0952,body_behavioural,3.0.4,59.87191947423961,
7,"“Sadie,” he said.",4,3,None,17.0,,0,7,7,7,,,,,0,57,57,57,,,,,,,,,,,,,,,,,,,,,,,,,,,1,0.8860904229804873,,,,,,,,,,,,,,,,,,,,,,,,,031319_p1,001,2019_Mar_13_0952,body_behavioural,3.0.4,59.87191947423961,
7," She stood up, grabbed half of the reuben and shook it at him as she growled, “Don’t follow me, and don’t talk to me anymore!”",4,4,None,None,,0,7,7,7,,,,,0,58,58,58,,,,,,,,,,,,,,,,,,,,,,,,,,,1,1.0861644099932164,,,,,,,,,,,,,,,,,,,,,,,,,031319_p1,001,2019_Mar_13_0952,body_behavioural,3.0.4,59.87191947423961,
7,"Sadie's heels clacked loudly against the black and white linoleum, and the bell above the door jingled cheerfully as the door closed behind her.",4,4,None,None,,0,7,7,7,,,,,0,59,59,59,,,,,,,,,,,,,,,,,,,,,,,,,,,1,2.3532079579890706,,,,,,,,,,,,,,,,,,,,,,,,,031319_p1,001,2019_Mar_13_0952,body_behavioural,3.0.4,59.87191947423961,
7,Thomas sat there for awhile in shock at how quickly everything transpired. ,4,4,None,None,,0,7,7,7,,,,,0,60,60,60,,,,,,,,,,,,,,,,,,,,,,,,,,,1,1.6866557250032201,,,,,,,,,,,,,,,,,,,,,,,,,031319_p1,001,2019_Mar_13_0952,body_behavioural,3.0.4,59.87191947423961,
7,"He grabbed his burger and took a bite of it, creating a dry and fishy taste in his mouth.",4,4,None,None,,0,7,7,7,,,,,0,61,61,61,,,,,,,,,,,,,,,,,,,,,,,,,,,1,1.9030918950156774,,,,,,,,,,,,,,,,,,,,,,,,,031319_p1,001,2019_Mar_13_0952,body_behavioural,3.0.4,59.87191947423961,
7,He dropped it back on his plate and wondered if the restaurant was responsible for the foul taste. ,4,4,13.0,5.0,,0,7,7,7,,,,,0,62,62,62,,,,,,,,,,,,,,,,,,,,,,,,,,,1,2.7360593329940457,,,,,,,,,,,,,,,,,,,,,,,,,031319_p1,001,2019_Mar_13_0952,body_behavioural,3.0.4,59.87191947423961,
7,,,,,,,0,7,7,7,,,,,,,,,,,,,,,,,,,,,,,,,,,,,,,,,,,,,,,,,,,,,,,,,,,,,,,,,,,,,031319_p1,001,2019_Mar_13_0952,body_behavioural,3.0.4,59.87191947423961,
,,,,,,,,,,,,,,,,,,,,,,,,,,,,,,,,,,,,,,,,,,,,,,,1851.1169830779836,space,4.55330829002196,,,,,,,,,,,,,,,,,,,,,,031319_p1,001,2019_Mar_13_0952,body_behavioural,3.0.4,59.87191947423961,
,,,,,,The next task in the experiment is to recall each story to the best of your ability.,,,,,,,,,,,,,0,0,0,0,,,,,,,,,,,,,,,,,,,,,,,,,,,,space,4.320022079977207,,,,,,,,,,,,,,,,,,,,031319_p1,001,2019_Mar_13_0952,body_behavioural,3.0.4,59.87191947423961,
,,,,,,"You will be presented with the story title, names, the images, and a blank text box for each story.",,,,,,,,,,,,,0,1,1,1,,,,,,,,,,,,,,,,,,,,,,,,,,,,space,0.9863287330081221,,,,,,,,,,,,,,,,,,,,031319_p1,001,2019_Mar_13_0952,body_behavioural,3.0.4,59.87191947423961,
,,,,,,Describe the story with as many details as you can remember in the space provided. ,,,,,,,,,,,,,0,2,2,2,,,,,,,,,,,,,,,,,,,,,,,,,,,,space,1.3341369350091554,,,,,,,,,,,,,,,,,,,,031319_p1,001,2019_Mar_13_0952,body_behavioural,3.0.4,59.87191947423961,
,,,,,,"When you are finished recalling one story, to move onto the next one hit ‘return’. ",,,,,,,,,,,,,0,3,3,3,,,,,,,,,,,,,,,,,,,,,,,,,,,,space,1.4507334000081755,,,,,,,,,,,,,,,,,,,,031319_p1,001,2019_Mar_13_0952,body_behavioural,3.0.4,59.87191947423961,
,,,,,,There is a 5 minute time limit to make your response. ,,,,,,,,,,,,,0,4,4,4,,,,,,,,,,,,,,,,,,,,,,,,,,,,space,1.4197585999791045,,,,,,,,,,,,,,,,,,,,031319_p1,001,2019_Mar_13_0952,body_behavioural,3.0.4,59.87191947423961,
0,,,,,,,,,,,,,,,,,,,,,,,0,0,0,0,,,,,,,,,,,,,,,,,,,,,,,,,,space,5.437089279992506,"They meet at the grocery store. one of them is a big client, a quirky corporate buyer for a supermarket chain. the other one is trying to sell her cheese for $1000 to the store. the buyer is hesitant. they walk to the cheeses and she says they have enough. but these are gourmet cheeses. they walk to teh checkout line and buy some crackers to try samples of the cheese and the buyer relents, saying that they have been looking for something to add a certain european cachet to the store and these cheeses could be it. so they make a deal to buy the cheese, and finish off some of it themselves",,,,,,,,,,,,,,,,,031319_p1,001,2019_Mar_13_0952,body_behavioural,3.0.4,59.87191947423961,
1,,,,,,,,,,,,,,,,,,,,,,,0,1,1,1,,,,,,,,,,,,,,,,,,,,,,,,,,space,1.5198867529979907,"Charlie and alma met at a party where they discussed a business venture. charlie apparently said that his company would invest the whole 30,000 but now they only want to give half. in their class the next day, charlie talks to alma during the recap of the lecture, and alma tells him that they need all the money because the project won't work if it's not fully funded and they can't wait months down the line to get going on it. charlie agrees to give her all the money then.",,,,,,,,,,,,,,,,,031319_p1,001,2019_Mar_13_0952,body_behavioural,3.0.4,59.87191947423961,
2,,,,,,,,,,,,,,,,,,,,,,,0,2,2,2,,,,,,,,,,,,,,,,,,,,,,,,,,space,2.1530380219919607,"They enter the grocery store together, and both of them are single and new to boston. they are both hosting barbecues later. they both want to talk to each other in the meat section, but they're scared. finally, they mae joes about the cornish hen being the younger brother of a chicken and hit it off. simon gives her meat and sauce advice, and carina helps him buy ingredients for a recipe for a vegetable kabob. at the checkout line, they start talking more and simon even pays for her groceries. he invites her to a dinner in harvard square and she agrees and they leave to host their barbecues.",,,,,,,,,,,,,,,,,031319_p1,001,2019_Mar_13_0952,body_behavioural,3.0.4,59.87191947423961,
3,,,,,,,,,,,,,,,,,,,,,,,0,3,3,3,,,,,,,,,,,,,,,,,,,,,,,,,,space,1.2029245150042698,"Calvin and jessie are leaving jamaica to the us. jessie is upset because calvin is boring and has only talked about golf and work stories the whole time. they don't have much time to get through the airport. finally, calvin says something particularly annoying and jessie is at her wit's end with him. while going through security, she tells him that once they get back to the states, they should stop seeing each other and calvin is sad but agrees. they continue to be angry walking to their gate. on the plane, their seats are not next to each other but apart, one in the 1st aisle of first class, and one in the 4th. they are upset but glad that they will have this time apart to mull things over before they get back to the states.",,,,,,,,,,,,,,,,,031319_p1,001,2019_Mar_13_0952,body_behavioural,3.0.4,59.87191947423961,
4,,,,,,,,,,,,,,,,,,,,,,,0,4,4,4,,,,,,,,,,,,,,,,,,,,,,,,,,space,1.6698528299748432,"Leon and ariana walk into history class together and sit down in seats next to each other in the back. leon is a transfer student. he immediately recognizes ariana as familiar but doesn't remember from where. ariana is oblivious and focusing on the lecture, which is about the history of egypt and mummies. leon starts to pass her notes saying she looks familiar, and she responds that it could be her twin separated from birth. they pass each other a few jokes and ariana notes his soft eyes and sharp features. they hit it off passing notes as in high school and leon asks her go out to dinner with him that night. she says yes and to meet him at 6 in front of patton hall. then class ends and ariana has to run off to another class but their note passing has turned into a real conversation.",,,,,,,,,,,,,,,,,031319_p1,001,2019_Mar_13_0952,body_behavioural,3.0.4,59.87191947423961,
5,,,,,,,,,,,,,,,,,,,,,,,0,5,5,5,,,,,,,,,,,,,,,,,,,,,,,,,,space,1.0697549799806438,"Sven and isabel are returning from vacation meeting isabel's family. it went well so sven has no doubts about proposing to her now. he wants to do it at the airport, but they are running late with only an hour or 45 minutes before their flight, but they already have their boarding passes and are not checking luggage. as she fumbles with her stuff at security, sven attempts to propose, but fails when isabel tells him to hurry up. she is trying to get the laptop out of her bag and makes sven hold all the stuff while she is doing so. eventually, she gets it all out and they go through the x ray machine. then sven takes the box and proposes to her like right in the middle of security. she is very flustered and does not respond right away. after they are done at security, and sven catches up to her, she tells him that of course, yes she will marry him. they get on the plane and share a glass of champagne and everyone cheers. someone tells the couple that they had been live tweeting the event and was now going viral. everyone congratulates them..",,,,,,,,,,,,,,,,,031319_p1,001,2019_Mar_13_0952,body_behavioural,3.0.4,59.87191947423961,
6,,,,,,,,,,,,,,,,,,,,,,,0,6,6,6,,,,,,,,,,,,,,,,,,,,,,,,,,space,1.5862796250148676,"Senna and alvira arrive at a very fancy restaurant with senna planning to propose to her there. alvira has no idea, and thinks they are celebrating the fact that her tomatoes turned out so well. senna hands the velvet box off to the waiter and returns to the table. they order some seafood and alivra's like this is too much for tomatoes. and then senna starts telling her how he loves her and always wants to be with her and she agrees and reciprocates. he says her tomatoes were the best he's ever had. he starts to say some pretty romantic things about how he wants to be with her forever, and nods to the waiter, who comes over with the ring implanted in a cake. the restaurant goes silent and senna delivers a proposal speech. she says yes, everyone cheers, and the waiter pops off some champagne. ",,,,,,,,,,,,,,,,,031319_p1,001,2019_Mar_13_0952,body_behavioural,3.0.4,59.87191947423961,
7,,,,,,,,,,,,,,,,,,,,,,,0,7,7,7,,,,,,,,,,,,,,,,,,,,,,,,,,space,1.7367721420014277,"Thomas and sadie enter a diner with thomas not looking forward to telling sadie that he wants to break up. sadie has no clue, thinks their relationship is going great, and tells him about her day at work. she tries to hold his hand and he pushes away, so she knows somsething is up. she asks about his day at work and then the waiter comes over and asks what they want to order. he orders a burger without tomatoes and she orders a reuben because the rest of the menu looked strange. he tells her that he's been having a hard time at work, it's been a lot and he is also trying to figure out whether he should switch careers. because he has to focus so much on himself, he tells her that he wants to take a break from their relationship even though he says he loves hanging out with her and being with her. she is shocked and says that maybe they don't have to spend as much time together or can work on stuff, but he says no and he wants to break up. he tries to grab her hand and she pulls away, upset. she leaves the restaurant after telling him how awful he is, and thomas takes a bite of his burger. it doesn't taste good, and tastes fishy, and wonders whether teh restuarant has something to do with it. everyone else in the restaurant feels uncomfortable and tries not to look at them. ",,,,,,,,,,,,,,,,,031319_p1,001,2019_Mar_13_0952,body_behavioural,3.0.4,59.87191947423961,
,,,,,,,,,,,,,,,,,,,,,,,,,,,,,,,,,,,,,,,,,,,,,,,,,,,,,,,3492.644388649991,space,1.8361110499827191,,,,,,,,,,,,,,031319_p1,001,2019_Mar_13_0952,body_behavioural,3.0.4,59.87191947423961,
,,,,,,The next part of the task is to answer 8 questions about each story.,,,,,,,,,,,,,,,,,,,,,0,0,0,0,,,,,,,,,,,,,,,,,,,,,,,,,,,,space,3.186805170000298,,,,,,,,,,,,031319_p1,001,2019_Mar_13_0952,body_behavioural,3.0.4,59.87191947423961,
,,,,,,Some of the questions are not related to the perspective you were asked to assume.,,,,,,,,,,,,,,,,,,,,,0,1,1,1,,,,,,,,,,,,,,,,,,,,,,,,,,,,space,4.186587630014401,,,,,,,,,,,,031319_p1,001,2019_Mar_13_0952,body_behavioural,3.0.4,59.87191947423961,
,,,,,,"We realize that we did not tell you to think of these questions during the story, but do your best to answer them.",,,,,,,,,,,,,,,,,,,,,0,2,2,2,,,,,,,,,,,,,,,,,,,,,,,,,,,,space,6.786945812986232,,,,,,,,,,,,031319_p1,001,2019_Mar_13_0952,body_behavioural,3.0.4,59.87191947423961,
,,,,,,"When you have finished typing your answer, hit ‘return’ to submit your answer and move onto the next question. ",,,,,,,,,,,,,,,,,,,,,0,3,3,3,,,,,,,,,,,,,,,,,,,,,,,,,,,,space,3.5698283429956064,,,,,,,,,,,,031319_p1,001,2019_Mar_13_0952,body_behavioural,3.0.4,59.87191947423961,
0,,,,,,,,,,,,,,,,,,,,,,,,,,,,,,,0,0,0,0,,,,,,,,,,,,,,,,,,,,"Not much, and the cheese lady uses her card to pay for it",,,,,,space,0.8869795999780763,One is a corporate buyer for the supermarket chain and the other is in the cheese business trying to sell her gourmet cheeses to them.,primed first,"Cheese, $1000","They go through with it. she is hesitant at first, because they already have a lot of cheese. but she realizes that this cheese is fancy and could not only bring more people to store to buy it, but also help sell crackers and jam and stuff. it would add a european cachet",The buyer buys the cheese,"Big, industrial looking","Cheese, particularly italian ones","Not long, the cheese lady buys the crackers for her","Not much, and the cheese lady uses her card to pay for it",031319_p1,001,2019_Mar_13_0952,body_behavioural,3.0.4,59.87191947423961,
1,,,,,,,,,,,,,,,,,,,,,,,,,,,,,,,0,1,1,1,,,,,,,,,,,,,,,,,,,,Thursday midterm exam,,,,,,space,1.6865544749889523,"Investment, venture capitalism",non-primed first,"Whether or not to invest in a new company, 30,000","At first charlie only wants to give her half, and she declines because that would be unfeasible for them so he gives her all of it rather than half now and half later","They agree to give alma 30,000","Normal size, they are talking about augustine and the history of rome and athens",A history class about ancient rome,"Augustine wanted to make rome look more beautiful to take away from the sterotype that is unorganized and disfunctional, as opposed to athens which was beautiful",Thursday midterm exam,031319_p1,001,2019_Mar_13_0952,body_behavioural,3.0.4,59.87191947423961,
2,,,,,,,,,,,,,,,,,,,,,,,,,,,,,,,0,2,2,2,,,,,,,,,,,,,,,,,,,,,,,,,,space,1.3195464629970957,"Industrial lights, big, large packages of food",primed first,"Barbecue meat, bbq sauce, veggies for kabobs","Short, and he is sad because this means less time talking to her, but they spend time talking anyway","Simon pays for both their groceries, $120",They noti,,,,031319_p1,001,2019_Mar_13_0952,body_behavioural,3.0.4,59.87191947423961,
