count,storyText,locationEvent,socialEvent,story,locationEventSize,socialEventSize,instructText,trials.thisRepN,trials.thisTrialN,trials.thisN,trials.thisIndex,trials_7.thisRepN,trials_7.thisTrialN,trials_7.thisN,trials_7.thisIndex,trials_2.thisRepN,trials_2.thisTrialN,trials_2.thisN,trials_2.thisIndex,trials_3.thisRepN,trials_3.thisTrialN,trials_3.thisN,trials_3.thisIndex,trials_4.thisRepN,trials_4.thisTrialN,trials_4.thisN,trials_4.thisIndex,trials_5.thisRepN,trials_5.thisTrialN,trials_5.thisN,trials_5.thisIndex,trials_6.thisRepN,trials_6.thisTrialN,trials_6.thisN,trials_6.thisIndex,trials_8.thisRepN,trials_8.thisTrialN,trials_8.thisN,trials_8.thisIndex,order of stories,order of perspectives,participant 2 order - stories,participant 2 order  - schemas types,key_resp_8.keys,key_resp_8.rt,key_resp_5.keys,key_resp_5.rt,key_resp_7.keys,key_resp_7.rt,story_presses.keys,story_presses.rt,story time,key_resp_6.keys,key_resp_6.rt,key_resp_2.keys,key_resp_2.rt,key_resp_10.keys,key_resp_10.rt,recall,recall time,key_resp_12.keys,key_resp_12.rt,key_resp_3.keys,key_resp_3.rt,key_resp_11.keys,key_resp_11.rt,question1_answer,order of question,question2_answer,question3_answer,question4_answer,question5_answer,question6_answer,question7_answer,question8_answer,questions time,key_resp_13.keys,key_resp_13.rt,participant,session,date,expName,psychopyVersion,frameRate,
0,,,,,,,,0,0,0,0,0,0,0,0,,,,,,,,,,,,,,,,,,,,,,,,,[34 32 14 43 23 41 12 21 22 42 24 44 11 33 13 31],"['Social' 'Location' 'Location' 'Social' 'Location' 'Location' 'Social'
 'Social' 'Social' 'Location' 'Location' 'Social' 'Social' 'Social'
 'Location' 'Location']",[22 42 24 44 11 33 13 31],"['Social' 'Location' 'Location' 'Social' 'Social' 'Social' 'Location'
 'Location']",space,16.83875277999323,space,1.7203483970079105,space,1.6359647400095128,,,,,,,,,,,,,,,,,,,,,,,,,,,,,,031519_p1,001,2019_Mar_15_1230,body_behavioural,3.0.4,60.22172845633561,
0,,,,,,,,0,0,0,0,1,0,1,0,,,,,,,,,,,,,,,,,,,,,,,,,,,,,,,,,space,0.5529815070040058,,,,,,,,,,,,,,,,,,,,,,,,,,,,,,031519_p1,001,2019_Mar_15_1230,body_behavioural,3.0.4,60.22172845633561,
0,Charlie saw Alma as they walked into class and he motioned for her to come sit in the back next to him: they had business to discuss.,1,1,34.0,,,,0,0,0,0,,,,,0,0,0,0,,,,,,,,,,,,,,,,,,,,,,,,,,,,,,,9,15.688287011987995,,,,,,,,,,,,,,,,,,,,,,,,,,,,031519_p1,001,2019_Mar_15_1230,body_behavioural,3.0.4,60.22172845633561,
0,Charlie and Alma were both economics students with entrepreneurial bents.,1,1,None,,,,0,0,0,0,,,,,0,1,1,1,,,,,,,,,,,,,,,,,,,,,,,,,,,,,,,1,5.387136065022787,,,,,,,,,,,,,,,,,,,,,,,,,,,,031519_p1,001,2019_Mar_15_1230,body_behavioural,3.0.4,60.22172845633561,
0,They were also both very busy and in the same class.,1,1,None,,,,0,0,0,0,,,,,0,2,2,2,,,,,,,,,,,,,,,,,,,,,,,,,,,,,,,1,3.3029551100044046,,,,,,,,,,,,,,,,,,,,,,,,,,,,031519_p1,001,2019_Mar_15_1230,body_behavioural,3.0.4,60.22172845633561,
0,"After talking at a party, Charlie had discovered that Alma was looking for financing for her web development company.",1,1,None,,,,0,0,0,0,,,,,0,3,3,3,,,,,,,,,,,,,,,,,,,,,,,,,,,,,,,9,8.220137239986798,,,,,,,,,,,,,,,,,,,,,,,,,,,,031519_p1,001,2019_Mar_15_1230,body_behavioural,3.0.4,60.22172845633561,
0,It was serendipitous because he had been talking with other members of his venture capital group about making an investment. ,1,1,None,,,,0,0,0,0,,,,,0,4,4,4,,,,,,,,,,,,,,,,,,,,,,,,,,,,,,,9,7.070109659980517,,,,,,,,,,,,,,,,,,,,,,,,,,,,031519_p1,001,2019_Mar_15_1230,body_behavioural,3.0.4,60.22172845633561,
0,"His financial group had come to a decision that morning about Alma’s idea, and he didn't want to wait until after class to discuss the proposal with her. ",1,1,None,,,,0,0,0,0,,,,,0,5,5,5,,,,,,,,,,,,,,,,,,,,,,,,,,,,,,,1,8.220300491986563,,,,,,,,,,,,,,,,,,,,,,,,,,,,031519_p1,001,2019_Mar_15_1230,body_behavioural,3.0.4,60.22172845633561,
0,"The class was in a large auditorium with small, foldable desks on the side of each cushioned chair. ",1,1,None,,,,0,0,0,0,,,,,0,6,6,6,,,,,,,,,,,,,,,,,,,,,,,,,,,,,,,9,6.1200253699789755,,,,,,,,,,,,,,,,,,,,,,,,,,,,031519_p1,001,2019_Mar_15_1230,body_behavioural,3.0.4,60.22172845633561,
0,"There were large windows on both sides of the hall, and they could see the first flurries of a winter storm starting outside. ",1,1,None,,,,0,0,0,0,,,,,0,7,7,7,,,,,,,,,,,,,,,,,,,,,,,,,,,,,,,1,7.08639070999925,,,,,,,,,,,,,,,,,,,,,,,,,,,,031519_p1,001,2019_Mar_15_1230,body_behavioural,3.0.4,60.22172845633561,
0,"“Here we are at Lecture Seven already in History of the Eternal City,” said the professor. ",2,1,None,,,,0,0,0,0,,,,,0,8,8,8,,,,,,,,,,,,,,,,,,,,,,,,,,,,,,,1,4.85330461000558,,,,,,,,,,,,,,,,,,,,,,,,,,,,031519_p1,001,2019_Mar_15_1230,body_behavioural,3.0.4,60.22172845633561,
0,“We're going to talk today about the age of the first Roman emperor: Augustus.” ,2,1,None,,,,0,0,0,0,,,,,0,9,9,9,,,,,,,,,,,,,,,,,,,,,,,,,,,,,,,1,1.9176260049862321,,,,,,,,,,,,,,,,,,,,,,,,,,,,031519_p1,001,2019_Mar_15_1230,body_behavioural,3.0.4,60.22172845633561,
0,"She went into some recap of the last lecture, and Charlie took this as an opportunity to start talking to Alma.",2,1,None,,,,0,0,0,0,,,,,0,10,10,10,,,,,,,,,,,,,,,,,,,,,,,,,,,,,,,9,5.736075877008261,,,,,,,,,,,,,,,,,,,,,,,,,,,,031519_p1,001,2019_Mar_15_1230,body_behavioural,3.0.4,60.22172845633561,
0,"“Okay so I’ve been thinking about your startup idea, and I have talked about it with my fellow investors.",2,2,None,,,,0,0,0,0,,,,,0,11,11,11,,,,,,,,,,,,,,,,,,,,,,,,,,,,,,,1,11.687178661988582,,,,,,,,,,,,,,,,,,,,,,,,,,,,031519_p1,001,2019_Mar_15_1230,body_behavioural,3.0.4,60.22172845633561,
0,We’d like to invest half of what you originally suggested.,2,2,None,,,,0,0,0,0,,,,,0,12,12,12,,,,,,,,,,,,,,,,,,,,,,,,,,,,,,,1,3.103181950020371,,,,,,,,,,,,,,,,,,,,,,,,,,,,031519_p1,001,2019_Mar_15_1230,body_behavioural,3.0.4,60.22172845633561,
0,"Rather than $30,000, we start with $15,000.",2,2,None,,,,0,0,0,0,,,,,0,13,13,13,,,,,,,,,,,,,,,,,,,,,,,,,,,,,,,1,2.3694829599990044,,,,,,,,,,,,,,,,,,,,,,,,,,,,031519_p1,001,2019_Mar_15_1230,body_behavioural,3.0.4,60.22172845633561,
0,We would see how the company does and then invest the other half later.” ,2,2,None,,,,0,0,0,0,,,,,0,14,14,14,,,,,,,,,,,,,,,,,,,,,,,,,,,,,,,1,3.0031865049968474,,,,,,,,,,,,,,,,,,,,,,,,,,,,031519_p1,001,2019_Mar_15_1230,body_behavioural,3.0.4,60.22172845633561,
0,"Alma, tapping her pen on her notebook, narrowed her eyes and pursed her lips.",2,2,None,,,,0,0,0,0,,,,,0,15,15,15,,,,,,,,,,,,,,,,,,,,,,,,,,,,,,,9,3.5532016000070143,,,,,,,,,,,,,,,,,,,,,,,,,,,,031519_p1,001,2019_Mar_15_1230,body_behavioural,3.0.4,60.22172845633561,
0,She turned back to the lecture as she considered this.,2,2,None,,,,0,0,0,0,,,,,0,16,16,16,,,,,,,,,,,,,,,,,,,,,,,,,,,,,,,9,4.3342743949906435,,,,,,,,,,,,,,,,,,,,,,,,,,,,031519_p1,001,2019_Mar_15_1230,body_behavioural,3.0.4,60.22172845633561,
0,"The professor was going on: “The senate had conferred upon him the title of Augustus the sacred and revered one, the restorer of traditional values, the city’s new religious leader, the restorer of temples. ",3,2,None,,,,0,0,0,0,,,,,0,17,17,17,,,,,,,,,,,,,,,,,,,,,,,,,,,,,,,1,5.00374116198509,,,,,,,,,,,,,,,,,,,,,,,,,,,,031519_p1,001,2019_Mar_15_1230,body_behavioural,3.0.4,60.22172845633561,
0,"Augustus also sought to beautify Rome, make it into a new Athens, and dispel the criticisms of Rome as disorganized and ugly.”",3,2,None,,,,0,0,0,0,,,,,0,18,18,18,,,,,,,,,,,,,,,,,,,,,,,,,,,,,,,1,2.0365600849909242,,,,,,,,,,,,,,,,,,,,,,,,,,,,031519_p1,001,2019_Mar_15_1230,body_behavioural,3.0.4,60.22172845633561,
0,"Alma turned back to Charlie and offered her rebuttal, “I don’t know about that: it’s not going to be possible to implement our ideas effectively unless the project is fully funded. ",3,3,None,,,,0,0,0,0,,,,,0,19,19,19,,,,,,,,,,,,,,,,,,,,,,,,,,,,,,,9,3.9198733570228796,,,,,,,,,,,,,,,,,,,,,,,,,,,,031519_p1,001,2019_Mar_15_1230,body_behavioural,3.0.4,60.22172845633561,
0,We would have to find other investors and that would set us back in our timeline. ,3,3,None,,,,0,0,0,0,,,,,0,20,20,20,,,,,,,,,,,,,,,,,,,,,,,,,,,,,,,9,2.8666653120017145,,,,,,,,,,,,,,,,,,,,,,,,,,,,031519_p1,001,2019_Mar_15_1230,body_behavioural,3.0.4,60.22172845633561,
0,"Our profit projections assumed we'd be starting relatively soon, not months down the line.” ",3,3,None,,,,0,0,0,0,,,,,0,21,21,21,,,,,,,,,,,,,,,,,,,,,,,,,,,,,,,9,4.370102849992691,,,,,,,,,,,,,,,,,,,,,,,,,,,,031519_p1,001,2019_Mar_15_1230,body_behavioural,3.0.4,60.22172845633561,
0,They whispered back and forth during the whole class in order to work out a compromise. ,3,3,None,,,,0,0,0,0,,,,,0,22,22,22,,,,,,,,,,,,,,,,,,,,,,,,,,,,,,,9,3.969786755013047,,,,,,,,,,,,,,,,,,,,,,,,,,,,031519_p1,001,2019_Mar_15_1230,body_behavioural,3.0.4,60.22172845633561,
0,"Finally, the class ended, and the professor dismissed the students with a reminder that the midterm paper was due on Thursday and that they should email their papers to the TA.",4,3,None,,,,0,0,0,0,,,,,0,23,23,23,,,,,,,,,,,,,,,,,,,,,,,,,,,,,,,1,3.6342696450010408,,,,,,,,,,,,,,,,,,,,,,,,,,,,031519_p1,001,2019_Mar_15_1230,body_behavioural,3.0.4,60.22172845633561,
0,"Everyone, except Charlie and Alma, packed up their things and headed out of the lecture hall to get to their next class. ",4,3,None,,,,0,0,0,0,,,,,0,24,24,24,,,,,,,,,,,,,,,,,,,,,,,,,,,,,,,1,5.186466914979974,,,,,,,,,,,,,,,,,,,,,,,,,,,,031519_p1,001,2019_Mar_15_1230,body_behavioural,3.0.4,60.22172845633561,
0,"“Alright, so we’ll have the $30,000 wired to you by tomorrow,” Charlie said. ",4,4,None,,,,0,0,0,0,,,,,0,25,25,25,,,,,,,,,,,,,,,,,,,,,,,,,,,,,,,9,6.284692985005677,,,,,,,,,,,,,,,,,,,,,,,,,,,,031519_p1,001,2019_Mar_15_1230,body_behavioural,3.0.4,60.22172845633561,
0,"This wasn't ideal for Charlie, but Alma had refused to budge, and his investment group had told him they were willing to pay the full amount if necessary. ",4,4,None,,,,0,0,0,0,,,,,0,26,26,26,,,,,,,,,,,,,,,,,,,,,,,,,,,,,,,9,7.486916235007811,,,,,,,,,,,,,,,,,,,,,,,,,,,,031519_p1,001,2019_Mar_15_1230,body_behavioural,3.0.4,60.22172845633561,
0,"They shook hands, walked out of the now-empty lecture hall, and made plans to sign the official paperwork the next day.",4,4,None,,,,0,0,0,0,,,,,0,27,27,27,,,,,,,,,,,,,,,,,,,,,,,,,,,,,,,9,2.367506239999784,,,,,,,,,,,,,,,,,,,,,,,,,,,,031519_p1,001,2019_Mar_15_1230,body_behavioural,3.0.4,60.22172845633561,
0,,,,,,,,0,0,0,0,,,,,,,,,,,,,,,,,,,,,,,,,,,,,,,,,,,,,,,,,,,,,,,,,,,,,,,,,,,,,,,,,,,,031519_p1,001,2019_Mar_15_1230,body_behavioural,3.0.4,60.22172845633561,
1,,,,,,,,0,1,1,1,0,0,0,0,,,,,,,,,,,,,,,,,,,,,,,,,,,,,space,1.9174152369960211,space,0.6694853070075624,space,0.6031254850095138,,,,,,,,,,,,,,,,,,,,,,,,,,,,,,031519_p1,001,2019_Mar_15_1230,body_behavioural,3.0.4,60.22172845633561,
1,,,,,,,,0,1,1,1,1,0,1,0,,,,,,,,,,,,,,,,,,,,,,,,,,,,,,,,,space,0.4863618749950547,,,,,,,,,,,,,,,,,,,,,,,,,,,,,,031519_p1,001,2019_Mar_15_1230,body_behavioural,3.0.4,60.22172845633561,
1,"Jeff, hoping that today would be a pivotal day for his new business, had only been waiting inside the doors of the airport for a few minutes when he saw William and eagerly waved him over. ",1,1,32.0,,,,0,1,1,1,,,,,0,0,0,0,,,,,,,,,,,,,,,,,,,,,,,,,,,,,,,9,23.93802863699966,,,,,,,,,,,,,,,,,,,,,,,,,,,,031519_p1,001,2019_Mar_15_1230,body_behavioural,3.0.4,60.22172845633561,
1,"Jeff, checking his watch, was pleased to see that the two of them had two hours to discuss business before their flights left Boston.",1,1,None,,,,0,1,1,1,,,,,0,1,1,1,,,,,,,,,,,,,,,,,,,,,,,,,,,,,,,9,8.936868215008872,,,,,,,,,,,,,,,,,,,,,,,,,,,,031519_p1,001,2019_Mar_15_1230,body_behavioural,3.0.4,60.22172845633561,
1,The two had met the night before in line for the bathroom at a local bar. ,1,1,None,,,,0,1,1,1,,,,,0,2,2,2,,,,,,,,,,,,,,,,,,,,,,,,,,,,,,,9,3.8193800500012003,,,,,,,,,,,,,,,,,,,,,,,,,,,,031519_p1,001,2019_Mar_15_1230,body_behavioural,3.0.4,60.22172845633561,
1,Jeff had delivered some surprisingly-detailed complaints to William about the wine selection.,1,1,None,,,,0,1,1,1,,,,,0,3,3,3,,,,,,,,,,,,,,,,,,,,,,,,,,,,,,,1,2.0528362400073092,,,,,,,,,,,,,,,,,,,,,,,,,,,,031519_p1,001,2019_Mar_15_1230,body_behavioural,3.0.4,60.22172845633561,
1,They quickly learned about each other that Jeff was a representative for wine vineyards in the Northeast and William was a wine buyer for corporate events.,1,1,None,,,,0,1,1,1,,,,,0,4,4,4,,,,,,,,,,,,,,,,,,,,,,,,,,,,,,,1,2.7030618919816334,,,,,,,,,,,,,,,,,,,,,,,,,,,,031519_p1,001,2019_Mar_15_1230,body_behavioural,3.0.4,60.22172845633561,
1,"Since they both had flights out of Boston at the same time, they had agreed to meet at the airport and talk about potentially doing business. ",1,1,None,,,,0,1,1,1,,,,,0,5,5,5,,,,,,,,,,,,,,,,,,,,,,,,,,,,,,,9,3.0694092699850444,,,,,,,,,,,,,,,,,,,,,,,,,,,,031519_p1,001,2019_Mar_15_1230,body_behavioural,3.0.4,60.22172845633561,
1,"They headed to security together, pleased to find that the line was not so long, and they chatted a little as they were waiting. ",2,1,None,,,,0,1,1,1,,,,,0,6,6,6,,,,,,,,,,,,,,,,,,,,,,,,,,,,,,,9,4.30399641499389,,,,,,,,,,,,,,,,,,,,,,,,,,,,031519_p1,001,2019_Mar_15_1230,body_behavioural,3.0.4,60.22172845633561,
1,"“It’s crazy that we met last night,” William said, “I am flying out right now to meet my boss, and was worried that I was going to show up empty handed without any local retailer prepared.” ",2,1,None,,,,0,1,1,1,,,,,0,7,7,7,,,,,,,,,,,,,,,,,,,,,,,,,,,,,,,9,4.586628812015988,,,,,,,,,,,,,,,,,,,,,,,,,,,,031519_p1,001,2019_Mar_15_1230,body_behavioural,3.0.4,60.22172845633561,
1,"“I know, what are the chances, right?” Jeff said.",2,1,None,,,,0,1,1,1,,,,,0,8,8,8,,,,,,,,,,,,,,,,,,,,,,,,,,,,,,,9,2.7362997769960202,,,,,,,,,,,,,,,,,,,,,,,,,,,,031519_p1,001,2019_Mar_15_1230,body_behavioural,3.0.4,60.22172845633561,
1,"William laughed and said, “I’m glad our shared complaining can come in handy.",2,1,None,,,,0,1,1,1,,,,,0,9,9,9,,,,,,,,,,,,,,,,,,,,,,,,,,,,,,,9,3.8197600849962328,,,,,,,,,,,,,,,,,,,,,,,,,,,,031519_p1,001,2019_Mar_15_1230,body_behavioural,3.0.4,60.22172845633561,
1,"I know this is fast, but I'd like to get right down to specifics.",2,2,None,,,,0,1,1,1,,,,,0,10,10,10,,,,,,,,,,,,,,,,,,,,,,,,,,,,,,,9,1.869724980002502,,,,,,,,,,,,,,,,,,,,,,,,,,,,031519_p1,001,2019_Mar_15_1230,body_behavioural,3.0.4,60.22172845633561,
1,I'd like to order a couple of sample shipments from you and present them to our corporate buyers.,2,2,None,,,,0,1,1,1,,,,,0,11,11,11,,,,,,,,,,,,,,,,,,,,,,,,,,,,,,,9,5.119589989975793,,,,,,,,,,,,,,,,,,,,,,,,,,,,031519_p1,001,2019_Mar_15_1230,body_behavioural,3.0.4,60.22172845633561,
1,"Typically we expect to get these kinds of samples at a deep discount, at least half-off the label price.",2,2,None,,,,0,1,1,1,,,,,0,12,12,12,,,,,,,,,,,,,,,,,,,,,,,,,,,,,,,9,2.1030905569787137,,,,,,,,,,,,,,,,,,,,,,,,,,,,031519_p1,001,2019_Mar_15_1230,body_behavioural,3.0.4,60.22172845633561,
1,"This is nothing, okay, compared to what you will be making if one of these buyers makes a contract.",2,2,None,,,,0,1,1,1,,,,,0,13,13,13,,,,,,,,,,,,,,,,,,,,,,,,,,,,,,,9,5.6034908370056655,,,,,,,,,,,,,,,,,,,,,,,,,,,,031519_p1,001,2019_Mar_15_1230,body_behavioural,3.0.4,60.22172845633561,
1,So I propose that you send us $600 worth of wine shipments for a price of $300.”,2,2,None,,,,0,1,1,1,,,,,0,14,14,14,,,,,,,,,,,,,,,,,,,,,,,,,,,,,,,9,3.8864872619742528,,,,,,,,,,,,,,,,,,,,,,,,,,,,031519_p1,001,2019_Mar_15_1230,body_behavioural,3.0.4,60.22172845633561,
1,"When it was their turn to go through the metal detector, they took off their shoes and pulled out their laptops.",2,2,None,,,,0,1,1,1,,,,,0,15,15,15,,,,,,,,,,,,,,,,,,,,,,,,,,,,,,,1,3.3028006099921186,,,,,,,,,,,,,,,,,,,,,,,,,,,,031519_p1,001,2019_Mar_15_1230,body_behavioural,3.0.4,60.22172845633561,
1,"Jeff mulled over the offer, nodding noncommittally to William's pitch as they proceeded through the metal detector and retrieved their belongings.",2,2,None,,,,0,1,1,1,,,,,0,16,16,16,,,,,,,,,,,,,,,,,,,,,,,,,,,,,,,1,3.119868520007003,,,,,,,,,,,,,,,,,,,,,,,,,,,,031519_p1,001,2019_Mar_15_1230,body_behavioural,3.0.4,60.22172845633561,
1,"They began to walk through the concourse, and William handed some printed spreadsheets to Jeff as they navigated toward their gates at the end of the terminal.",3,2,None,,,,0,1,1,1,,,,,0,17,17,17,,,,,,,,,,,,,,,,,,,,,,,,,,,,,,,1,5.700974127015797,,,,,,,,,,,,,,,,,,,,,,,,,,,,031519_p1,001,2019_Mar_15_1230,body_behavioural,3.0.4,60.22172845633561,
1,"Jeff, weaving through the crowds of travelers, squinted at William's rosy projections of the number of bottles he could be able to purchase in the future.",3,2,None,,,,0,1,1,1,,,,,0,18,18,18,,,,,,,,,,,,,,,,,,,,,,,,,,,,,,,1,3.1359911049949005,,,,,,,,,,,,,,,,,,,,,,,,,,,,031519_p1,001,2019_Mar_15_1230,body_behavioural,3.0.4,60.22172845633561,
1,"Finally Jeff said, “I don’t know, we’re not coming from corporate vineyards, so gambling with sample shipments is the kind of risk we can’t necessarily make. ",3,3,None,,,,0,1,1,1,,,,,0,19,19,19,,,,,,,,,,,,,,,,,,,,,,,,,,,,,,,9,4.569830915017519,,,,,,,,,,,,,,,,,,,,,,,,,,,,031519_p1,001,2019_Mar_15_1230,body_behavioural,3.0.4,60.22172845633561,
1,"These corporate purchases would have to be huge and practically guaranteed, to offset the loss from selling sample shipments at this price.”",3,3,None,,,,0,1,1,1,,,,,0,20,20,20,,,,,,,,,,,,,,,,,,,,,,,,,,,,,,,1,4.036497180000879,,,,,,,,,,,,,,,,,,,,,,,,,,,,031519_p1,001,2019_Mar_15_1230,body_behavioural,3.0.4,60.22172845633561,
1,"They walked to the gates very slowly, barely registering the hubbub of the airport since they were so caught up in figuring out this deal before their flights left.",3,3,None,,,,0,1,1,1,,,,,0,21,21,21,,,,,,,,,,,,,,,,,,,,,,,,,,,,,,,1,15.887485760002164,,,,,,,,,,,,,,,,,,,,,,,,,,,,031519_p1,001,2019_Mar_15_1230,body_behavioural,3.0.4,60.22172845633561,
1,"At the end of their long walk, they got to Jeff’s gate first, which had begun boarding passengers.",3,3,None,,,,0,1,1,1,,,,,0,22,22,22,,,,,,,,,,,,,,,,,,,,,,,,,,,,,,,9,2.5694577249814756,,,,,,,,,,,,,,,,,,,,,,,,,,,,031519_p1,001,2019_Mar_15_1230,body_behavioural,3.0.4,60.22172845633561,
1,"In these last minutes, William and Jeff agreed on a compromise rate on the sample shipment, paying $400 for a $600 shipment, and they finalized the deal with a handshake. ",3,4,None,,,,0,1,1,1,,,,,0,23,23,23,,,,,,,,,,,,,,,,,,,,,,,,,,,,,,,9,4.436267882003449,,,,,,,,,,,,,,,,,,,,,,,,,,,,031519_p1,001,2019_Mar_15_1230,body_behavioural,3.0.4,60.22172845633561,
1,"“Well, what a tremendous pleasure to do business with you and to have all this work out,” William said.",3,4,None,,,,0,1,1,1,,,,,0,24,24,24,,,,,,,,,,,,,,,,,,,,,,,,,,,,,,,9,2.169654925004579,,,,,,,,,,,,,,,,,,,,,,,,,,,,031519_p1,001,2019_Mar_15_1230,body_behavioural,3.0.4,60.22172845633561,
1,"Jeff nodded enthusiastically, and responded, “Likewise, this has been great.  ",3,4,None,,,,0,1,1,1,,,,,0,25,25,25,,,,,,,,,,,,,,,,,,,,,,,,,,,,,,,9,1.486162270011846,,,,,,,,,,,,,,,,,,,,,,,,,,,,031519_p1,001,2019_Mar_15_1230,body_behavioural,3.0.4,60.22172845633561,
1,I'll let you get to your gate.,3,4,None,,,,0,1,1,1,,,,,0,26,26,26,,,,,,,,,,,,,,,,,,,,,,,,,,,,,,,9,4.217541515012272,,,,,,,,,,,,,,,,,,,,,,,,,,,,031519_p1,001,2019_Mar_15_1230,body_behavioural,3.0.4,60.22172845633561,
1,"Once we’re both back on the ground, we can get all the shipments in the books.”",3,4,None,,,,0,1,1,1,,,,,0,27,27,27,,,,,,,,,,,,,,,,,,,,,,,,,,,,,,,1,4.369599660014501,,,,,,,,,,,,,,,,,,,,,,,,,,,,031519_p1,001,2019_Mar_15_1230,body_behavioural,3.0.4,60.22172845633561,
1,They parted with a wave as Jeff scanned his boarding pass at the gate. ,3,4,None,,,,0,1,1,1,,,,,0,28,28,28,,,,,,,,,,,,,,,,,,,,,,,,,,,,,,,1,1.3193976120091975,,,,,,,,,,,,,,,,,,,,,,,,,,,,031519_p1,001,2019_Mar_15_1230,body_behavioural,3.0.4,60.22172845633561,
1,He walked onto the plane and sat down in his aisle seat in the business class section.,4,4,None,,,,0,1,1,1,,,,,0,29,29,29,,,,,,,,,,,,,,,,,,,,,,,,,,,,,,,9,2.6862474599911366,,,,,,,,,,,,,,,,,,,,,,,,,,,,031519_p1,001,2019_Mar_15_1230,body_behavioural,3.0.4,60.22172845633561,
1,He typed out a quick email on his phone letting the rest of his team know the good news. ,4,4,None,,,,0,1,1,1,,,,,0,30,30,30,,,,,,,,,,,,,,,,,,,,,,,,,,,,,,,9,2.6037856900074985,,,,,,,,,,,,,,,,,,,,,,,,,,,,031519_p1,001,2019_Mar_15_1230,body_behavioural,3.0.4,60.22172845633561,
1,"When the flight attendant came by, he ordered a glass of champagne to celebrate.",4,4,None,,,,0,1,1,1,,,,,0,31,31,31,,,,,,,,,,,,,,,,,,,,,,,,,,,,,,,9,3.2704130799975246,,,,,,,,,,,,,,,,,,,,,,,,,,,,031519_p1,001,2019_Mar_15_1230,body_behavioural,3.0.4,60.22172845633561,
1,,,,,,,,0,1,1,1,,,,,,,,,,,,,,,,,,,,,,,,,,,,,,,,,,,,,,,,,,,,,,,,,,,,,,,,,,,,,,,,,,,,031519_p1,001,2019_Mar_15_1230,body_behavioural,3.0.4,60.22172845633561,
2,,,,,,,,0,2,2,2,0,0,0,0,,,,,,,,,,,,,,,,,,,,,,,,,,,,,space,1.4196942879934795,space,0.5029830720159225,space,1.1691897000127938,,,,,,,,,,,,,,,,,,,,,,,,,,,,,,031519_p1,001,2019_Mar_15_1230,body_behavioural,3.0.4,60.22172845633561,
2,"Maria walked into lecture beside Henry, and she was mentally rehearsing what she should say to break up with him.",1,1,14.0,,,,0,2,2,2,,,,,0,0,0,0,,,,,,,,,,,,,,,,,,,,,,,,,,,,,,,9,6.619338391989004,,,,,,,,,,,,,,,,,,,,,,,,,,,,031519_p1,001,2019_Mar_15_1230,body_behavioural,3.0.4,60.22172845633561,
2,"She had been putting it off with a growing sense of dread, and now this lecture was the last chance before she had to leave campus. ",1,1,None,,,,0,2,2,2,,,,,0,1,1,1,,,,,,,,,,,,,,,,,,,,,,,,,,,,,,,1,2.6364865399955306,,,,,,,,,,,,,,,,,,,,,,,,,,,,031519_p1,001,2019_Mar_15_1230,body_behavioural,3.0.4,60.22172845633561,
2,"The lecture hall was large, with a stage for the lecturer in the front of the room, and tiered seats that stretched up in 15 stacked rows. ",1,1,None,,,,0,2,2,2,,,,,0,2,2,2,,,,,,,,,,,,,,,,,,,,,,,,,,,,,,,9,9.520237115008058,,,,,,,,,,,,,,,,,,,,,,,,,,,,031519_p1,001,2019_Mar_15_1230,body_behavioural,3.0.4,60.22172845633561,
2,"The clock struck 3 pm, and Maria and Henry slid into neighboring seats near the back of the room.",1,1,None,,,,0,2,2,2,,,,,0,3,3,3,,,,,,,,,,,,,,,,,,,,,,,,,,,,,,,1,3.7188419319863897,,,,,,,,,,,,,,,,,,,,,,,,,,,,031519_p1,001,2019_Mar_15_1230,body_behavioural,3.0.4,60.22172845633561,
2,"“Good afternoon, everybody,” said the professor, fiddling to connect his laptop with the projector.",2,1,None,,,,0,2,2,2,,,,,0,4,4,4,,,,,,,,,,,,,,,,,,,,,,,,,,,,,,,9,2.5193896499986295,,,,,,,,,,,,,,,,,,,,,,,,,,,,031519_p1,001,2019_Mar_15_1230,body_behavioural,3.0.4,60.22172845633561,
2,“Welcome to week 4 of Intro to Ancient Philosophy. ,2,1,None,,,,0,2,2,2,,,,,0,5,5,5,,,,,,,,,,,,,,,,,,,,,,,,,,,,,,,1,1.5029983749845996,,,,,,,,,,,,,,,,,,,,,,,,,,,,031519_p1,001,2019_Mar_15_1230,body_behavioural,3.0.4,60.22172845633561,
2,Today we are going to continue our lecture on Aristotelian Philosophy.”,2,1,None,,,,0,2,2,2,,,,,0,6,6,6,,,,,,,,,,,,,,,,,,,,,,,,,,,,,,,1,3.4364326969953254,,,,,,,,,,,,,,,,,,,,,,,,,,,,031519_p1,001,2019_Mar_15_1230,body_behavioural,3.0.4,60.22172845633561,
2,Everyone in class pulled out their notebooks and settled in their seats as the slides appeared on the large front screens.,2,1,None,,,,0,2,2,2,,,,,0,7,7,7,,,,,,,,,,,,,,,,,,,,,,,,,,,,,,,1,2.9175941800058354,,,,,,,,,,,,,,,,,,,,,,,,,,,,031519_p1,001,2019_Mar_15_1230,body_behavioural,3.0.4,60.22172845633561,
2,"“Henry,” Maria whispered.",2,1,None,,,,0,2,2,2,,,,,0,8,8,8,,,,,,,,,,,,,,,,,,,,,,,,,,,,,,,9,1.7693427199847065,,,,,,,,,,,,,,,,,,,,,,,,,,,,031519_p1,001,2019_Mar_15_1230,body_behavioural,3.0.4,60.22172845633561,
2,"“Hmm?” he replied, distracted.",2,1,None,,,,0,2,2,2,,,,,0,9,9,9,,,,,,,,,,,,,,,,,,,,,,,,,,,,,,,1,1.2030288800015114,,,,,,,,,,,,,,,,,,,,,,,,,,,,031519_p1,001,2019_Mar_15_1230,body_behavioural,3.0.4,60.22172845633561,
2,"“Henry, I need to tell you something really important, and I don’t know when else I’ll have a chance to do it,” she said.",2,1,None,,,,0,2,2,2,,,,,0,10,10,10,,,,,,,,,,,,,,,,,,,,,,,,,,,,,,,1,2.6508547899720725,,,,,,,,,,,,,,,,,,,,,,,,,,,,031519_p1,001,2019_Mar_15_1230,body_behavioural,3.0.4,60.22172845633561,
2,"“Okay, what's up?”, he said, tilting his head close to her. ",2,1,None,,,,0,2,2,2,,,,,0,11,11,11,,,,,,,,,,,,,,,,,,,,,,,,,,,,,,,1,1.4007720800000243,,,,,,,,,,,,,,,,,,,,,,,,,,,,031519_p1,001,2019_Mar_15_1230,body_behavioural,3.0.4,60.22172845633561,
2," “Henry, I don’t think I can do long distance.",2,2,None,,,,0,2,2,2,,,,,0,12,12,12,,,,,,,,,,,,,,,,,,,,,,,,,,,,,,,1,0.9526269450143445,,,,,,,,,,,,,,,,,,,,,,,,,,,,031519_p1,001,2019_Mar_15_1230,body_behavioural,3.0.4,60.22172845633561,
2,"I think what we have here is great, but I think it will be really hard when we are so far apart for such an extended period.",2,2,None,,,,0,2,2,2,,,,,0,13,13,13,,,,,,,,,,,,,,,,,,,,,,,,,,,,,,,1,3.984274465008639,,,,,,,,,,,,,,,,,,,,,,,,,,,,031519_p1,001,2019_Mar_15_1230,body_behavioural,3.0.4,60.22172845633561,
2,"I’m sorry I’m telling you now in lecture, but I'm out of time, and it’s taken me awhile to come to this decision.",2,2,None,,,,0,2,2,2,,,,,0,14,14,14,,,,,,,,,,,,,,,,,,,,,,,,,,,,,,,1,2.51940951202414,,,,,,,,,,,,,,,,,,,,,,,,,,,,031519_p1,001,2019_Mar_15_1230,body_behavioural,3.0.4,60.22172845633561,
2,"I really think this is best, and who knows what will happen when I get back from my study abroad.” ",2,2,None,,,,0,2,2,2,,,,,0,15,15,15,,,,,,,,,,,,,,,,,,,,,,,,,,,,,,,1,2.552719020022778,,,,,,,,,,,,,,,,,,,,,,,,,,,,031519_p1,001,2019_Mar_15_1230,body_behavioural,3.0.4,60.22172845633561,
2,"While Henry tried to think of what to say, he and Maria stared unlistening at the professor as he started the lecture, “First we will talk about Aristotle’s work, The Categories.",3,2,None,,,,0,2,2,2,,,,,0,16,16,16,,,,,,,,,,,,,,,,,,,,,,,,,,,,,,,9,8.003474551980617,,,,,,,,,,,,,,,,,,,,,,,,,,,,031519_p1,001,2019_Mar_15_1230,body_behavioural,3.0.4,60.22172845633561,
2,"This text, as you might have been able to guess, is about the kinds, or categories, of things that there are.",3,2,None,,,,0,2,2,2,,,,,0,17,17,17,,,,,,,,,,,,,,,,,,,,,,,,,,,,,,,1,2.936350242001936,,,,,,,,,,,,,,,,,,,,,,,,,,,,031519_p1,001,2019_Mar_15_1230,body_behavioural,3.0.4,60.22172845633561,
2,"In fact, our term category comes from this Aristotelian context.” ",3,2,None,,,,0,2,2,2,,,,,0,18,18,18,,,,,,,,,,,,,,,,,,,,,,,,,,,,,,,1,1.616857365006581,,,,,,,,,,,,,,,,,,,,,,,,,,,,031519_p1,001,2019_Mar_15_1230,body_behavioural,3.0.4,60.22172845633561,
2,"Henry felt horrible, like the wind had just been knocked out of him.",3,2,None,,,,0,2,2,2,,,,,0,19,19,19,,,,,,,,,,,,,,,,,,,,,,,,,,,,,,,9,2.319816829985939,,,,,,,,,,,,,,,,,,,,,,,,,,,,031519_p1,001,2019_Mar_15_1230,body_behavioural,3.0.4,60.22172845633561,
2,"A few tears started to fall down his cheeks as he whispered back, “Maria, I think we can make it work.",3,3,None,,,,0,2,2,2,,,,,0,20,20,20,,,,,,,,,,,,,,,,,,,,,,,,,,,,,,,1,2.5029070019954816,,,,,,,,,,,,,,,,,,,,,,,,,,,,031519_p1,001,2019_Mar_15_1230,body_behavioural,3.0.4,60.22172845633561,
2,I’ll come visit you.,3,3,None,,,,0,2,2,2,,,,,0,21,21,21,,,,,,,,,,,,,,,,,,,,,,,,,,,,,,,1,0.9365082870062906,,,,,,,,,,,,,,,,,,,,,,,,,,,,031519_p1,001,2019_Mar_15_1230,body_behavioural,3.0.4,60.22172845633561,
2,It will be fine.,3,3,None,,,,0,2,2,2,,,,,0,22,22,22,,,,,,,,,,,,,,,,,,,,,,,,,,,,,,,1,0.5529933520010673,,,,,,,,,,,,,,,,,,,,,,,,,,,,031519_p1,001,2019_Mar_15_1230,body_behavioural,3.0.4,60.22172845633561,
2,I don’t want to break up.”,3,3,None,,,,0,2,2,2,,,,,0,23,23,23,,,,,,,,,,,,,,,,,,,,,,,,,,,,,,,1,0.5863309369888157,,,,,,,,,,,,,,,,,,,,,,,,,,,,031519_p1,001,2019_Mar_15_1230,body_behavioural,3.0.4,60.22172845633561,
2,"Maria felt so guilty that she nearly gave in, but forced herself to hold her ground, knowing that this would make things much easier for both of them in the future.",3,3,None,,,,0,2,2,2,,,,,0,24,24,24,,,,,,,,,,,,,,,,,,,,,,,,,,,,,,,1,5.119654139998602,,,,,,,,,,,,,,,,,,,,,,,,,,,,031519_p1,001,2019_Mar_15_1230,body_behavioural,3.0.4,60.22172845633561,
2,"She gave his hand a squeeze but shook her head sadly, before turning back to her laptop and half-heartedly taking notes on the lecture which they sat through in painful silence.",3,3,None,,,,0,2,2,2,,,,,0,25,25,25,,,,,,,,,,,,,,,,,,,,,,,,,,,,,,,1,4.870107290014857,,,,,,,,,,,,,,,,,,,,,,,,,,,,031519_p1,001,2019_Mar_15_1230,body_behavioural,3.0.4,60.22172845633561,
2,"Finally, the professor was wrapping up, “This is what Aristotle means when he says that an animal’s or plant’s form rather than its matter is its nature. ",4,3,None,,,,0,2,2,2,,,,,0,26,26,26,,,,,,,,,,,,,,,,,,,,,,,,,,,,,,,9,16.220776340021985,,,,,,,,,,,,,,,,,,,,,,,,,,,,031519_p1,001,2019_Mar_15_1230,body_behavioural,3.0.4,60.22172845633561,
2,"Alright class, that’s all for today. ",4,3,None,,,,0,2,2,2,,,,,0,27,27,27,,,,,,,,,,,,,,,,,,,,,,,,,,,,,,,1,1.2361906720034312,,,,,,,,,,,,,,,,,,,,,,,,,,,,031519_p1,001,2019_Mar_15_1230,body_behavioural,3.0.4,60.22172845633561,
2,"Remember the final exam is coming up next week on Tuesday on the Pre-Socratics, Plato, and Aristotle, so feel free to come by office hours to discuss if you have the inspiration.",4,3,None,,,,0,2,2,2,,,,,0,28,28,28,,,,,,,,,,,,,,,,,,,,,,,,,,,,,,,1,5.203305334987817,,,,,,,,,,,,,,,,,,,,,,,,,,,,031519_p1,001,2019_Mar_15_1230,body_behavioural,3.0.4,60.22172845633561,
2,"And if anyone is doing the 20 page paper in lieu of the final, that’s due next Tuesday as well.",4,3,None,,,,0,2,2,2,,,,,0,29,29,29,,,,,,,,,,,,,,,,,,,,,,,,,,,,,,,1,4.153215225000167,,,,,,,,,,,,,,,,,,,,,,,,,,,,031519_p1,001,2019_Mar_15_1230,body_behavioural,3.0.4,60.22172845633561,
2,"Have a good day, folks.” ",4,3,None,,,,0,2,2,2,,,,,0,30,30,30,,,,,,,,,,,,,,,,,,,,,,,,,,,,,,,1,0.7339919949881732,,,,,,,,,,,,,,,,,,,,,,,,,,,,031519_p1,001,2019_Mar_15_1230,body_behavioural,3.0.4,60.22172845633561,
2,"Maria and Henry packed up hurriedly, and slipped quickly out of the class before the rest of the crowd. ",4,3,None,,,,0,2,2,2,,,,,0,31,31,31,,,,,,,,,,,,,,,,,,,,,,,,,,,,,,,9,2.4199672149843536,,,,,,,,,,,,,,,,,,,,,,,,,,,,031519_p1,001,2019_Mar_15_1230,body_behavioural,3.0.4,60.22172845633561,
2,"They hugged outside, and both of them were crying. ",4,4,None,,,,0,2,2,2,,,,,0,32,32,32,,,,,,,,,,,,,,,,,,,,,,,,,,,,,,,9,1.3031821549811866,,,,,,,,,,,,,,,,,,,,,,,,,,,,031519_p1,001,2019_Mar_15_1230,body_behavioural,3.0.4,60.22172845633561,
2,"“Maria, I don’t want you to leave.",4,4,None,,,,0,2,2,2,,,,,0,33,33,33,,,,,,,,,,,,,,,,,,,,,,,,,,,,,,,1,2.6531681199849118,,,,,,,,,,,,,,,,,,,,,,,,,,,,031519_p1,001,2019_Mar_15_1230,body_behavioural,3.0.4,60.22172845633561,
2,I don’t want this to end. ,4,4,None,,,,0,2,2,2,,,,,0,34,34,34,,,,,,,,,,,,,,,,,,,,,,,,,,,,,,,1,0.8696460429928266,,,,,,,,,,,,,,,,,,,,,,,,,,,,031519_p1,001,2019_Mar_15_1230,body_behavioural,3.0.4,60.22172845633561,
2,"But if this is what you think is best, I can’t make it otherwise.” ",4,4,None,,,,0,2,2,2,,,,,0,35,35,35,,,,,,,,,,,,,,,,,,,,,,,,,,,,,,,1,1.353031414997531,,,,,,,,,,,,,,,,,,,,,,,,,,,,031519_p1,001,2019_Mar_15_1230,body_behavioural,3.0.4,60.22172845633561,
2,"They hugged one last time, and Maria ran off to get her things from her dorm.",4,4,None,,,,0,2,2,2,,,,,0,36,36,36,,,,,,,,,,,,,,,,,,,,,,,,,,,,,,,1,1.686336647020653,,,,,,,,,,,,,,,,,,,,,,,,,,,,031519_p1,001,2019_Mar_15_1230,body_behavioural,3.0.4,60.22172845633561,
2,Henry sadly watched her go. ,4,4,None,,,,0,2,2,2,,,,,0,37,37,37,,,,,,,,,,,,,,,,,,,,,,,,,,,,,,,1,0.9363011849927716,,,,,,,,,,,,,,,,,,,,,,,,,,,,031519_p1,001,2019_Mar_15_1230,body_behavioural,3.0.4,60.22172845633561,
2,,,,,,,,0,2,2,2,,,,,,,,,,,,,,,,,,,,,,,,,,,,,,,,,,,,,,,,,,,,,,,,,,,,,,,,,,,,,,,,,,,,031519_p1,001,2019_Mar_15_1230,body_behavioural,3.0.4,60.22172845633561,
3,,,,,,,,0,3,3,3,0,0,0,0,,,,,,,,,,,,,,,,,,,,,,,,,,,,,space,0.9025831000180915,space,0.4696474600059446,space,1.4694737099925987,,,,,,,,,,,,,,,,,,,,,,,,,,,,,,031519_p1,001,2019_Mar_15_1230,body_behavioural,3.0.4,60.22172845633561,
3,"Simon and Carina noticed each other as they walked into the grocery store at the same time, their carts nearly colliding as they squeezed into the entrance.",1,1,43.0,,,,0,3,3,3,,,,,0,0,0,0,,,,,,,,,,,,,,,,,,,,,,,,,,,,,,,9,6.886969961982686,,,,,,,,,,,,,,,,,,,,,,,,,,,,031519_p1,001,2019_Mar_15_1230,body_behavioural,3.0.4,60.22172845633561,
3,"They were both new to the Boston area, and this was their first time in this store. ",1,1,None,,,,0,3,3,3,,,,,0,1,1,1,,,,,,,,,,,,,,,,,,,,,,,,,,,,,,,1,6.603456456999993,,,,,,,,,,,,,,,,,,,,,,,,,,,,031519_p1,001,2019_Mar_15_1230,body_behavioural,3.0.4,60.22172845633561,
3,"It kind of looked like a large warehouse, with high unfurnished ceilings, industrial lights, and large packages of food. ",1,1,None,,,,0,3,3,3,,,,,0,2,2,2,,,,,,,,,,,,,,,,,,,,,,,,,,,,,,,9,4.602197853004327,,,,,,,,,,,,,,,,,,,,,,,,,,,,031519_p1,001,2019_Mar_15_1230,body_behavioural,3.0.4,60.22172845633561,
3,"They went off along separate routes, but soon ended up back together in the meat section. ",2,1,None,,,,0,3,3,3,,,,,0,3,3,3,,,,,,,,,,,,,,,,,,,,,,,,,,,,,,,1,1.969260400015628,,,,,,,,,,,,,,,,,,,,,,,,,,,,031519_p1,001,2019_Mar_15_1230,body_behavioural,3.0.4,60.22172845633561,
3,"They were both preparing for barbecues, so they were looking over the same cuts of meat. ",2,1,None,,,,0,3,3,3,,,,,0,4,4,4,,,,,,,,,,,,,,,,,,,,,,,,,,,,,,,1,2.9531298050133046,,,,,,,,,,,,,,,,,,,,,,,,,,,,031519_p1,001,2019_Mar_15_1230,body_behavioural,3.0.4,60.22172845633561,
3,"Simon really wanted to talk to Carina, and Carina really wanted to say something to Simon, but they felt embarrassed striking up a conversation with a stranger.",2,1,None,,,,0,3,3,3,,,,,0,5,5,5,,,,,,,,,,,,,,,,,,,,,,,,,,,,,,,9,2.819932152022375,,,,,,,,,,,,,,,,,,,,,,,,,,,,031519_p1,001,2019_Mar_15_1230,body_behavioural,3.0.4,60.22172845633561,
3,"Carina suddenly turned to Simon and, pointing at a Cornish hen, asked, “Isn’t this meat cute?”",2,2,None,,,,0,3,3,3,,,,,0,6,6,6,,,,,,,,,,,,,,,,,,,,,,,,,,,,,,,1,1.8525958549871575,,,,,,,,,,,,,,,,,,,,,,,,,,,,031519_p1,001,2019_Mar_15_1230,body_behavioural,3.0.4,60.22172845633561,
3,"He laughed, and said, “It is very cute.",2,2,None,,,,0,3,3,3,,,,,0,7,7,7,,,,,,,,,,,,,,,,,,,,,,,,,,,,,,,1,1.0035400970082264,,,,,,,,,,,,,,,,,,,,,,,,,,,,031519_p1,001,2019_Mar_15_1230,body_behavioural,3.0.4,60.22172845633561,
3,"Probably the younger brother of this guy,” and he picked up a regular-sized chicken.",2,2,None,,,,0,3,3,3,,,,,0,8,8,8,,,,,,,,,,,,,,,,,,,,,,,,,,,,,,,1,3.0014619620051235,,,,,,,,,,,,,,,,,,,,,,,,,,,,031519_p1,001,2019_Mar_15_1230,body_behavioural,3.0.4,60.22172845633561,
3,"“Unlucky family,” she responded. ",2,2,None,,,,0,3,3,3,,,,,0,9,9,9,,,,,,,,,,,,,,,,,,,,,,,,,,,,,,,1,1.0363720199966338,,,,,,,,,,,,,,,,,,,,,,,,,,,,031519_p1,001,2019_Mar_15_1230,body_behavioural,3.0.4,60.22172845633561,
3,They continued to chat as they picked out their groceries.,2,2,None,,,,0,3,3,3,,,,,0,10,10,10,,,,,,,,,,,,,,,,,,,,,,,,,,,,,,,1,2.203757669980405,,,,,,,,,,,,,,,,,,,,,,,,,,,,031519_p1,001,2019_Mar_15_1230,body_behavioural,3.0.4,60.22172845633561,
3,"Simon helped Carina pick out the best ribs and his personal favorite barbeque sauce, and she helped him gather the  peppers, onions, and spices for a vegetable kabob she recommended.",2,2,None,,,,0,3,3,3,,,,,0,11,11,11,,,,,,,,,,,,,,,,,,,,,,,,,,,,,,,1,4.4695054220210295,,,,,,,,,,,,,,,,,,,,,,,,,,,,031519_p1,001,2019_Mar_15_1230,body_behavioural,3.0.4,60.22172845633561,
3,"When they were both finished shopping, they went to the checkout area.",3,2,None,,,,0,3,3,3,,,,,0,12,12,12,,,,,,,,,,,,,,,,,,,,,,,,,,,,,,,1,2.3367394219967537,,,,,,,,,,,,,,,,,,,,,,,,,,,,031519_p1,001,2019_Mar_15_1230,body_behavioural,3.0.4,60.22172845633561,
3,"Simon was disappointed to see that the lines were short, since he had been hoping for an excuse to spend more time with Carina.",3,2,None,,,,0,3,3,3,,,,,0,13,13,13,,,,,,,,,,,,,,,,,,,,,,,,,,,,,,,1,3.63669850199949,,,,,,,,,,,,,,,,,,,,,,,,,,,,031519_p1,001,2019_Mar_15_1230,body_behavioural,3.0.4,60.22172845633561,
3,"They had real chemistry, and both of them could definitely see a future together despite having just met.",3,2,None,,,,0,3,3,3,,,,,0,14,14,14,,,,,,,,,,,,,,,,,,,,,,,,,,,,,,,1,2.9526578270015307,,,,,,,,,,,,,,,,,,,,,,,,,,,,031519_p1,001,2019_Mar_15_1230,body_behavioural,3.0.4,60.22172845633561,
3,"“So you haven’t been around the city much?”, Simon asked. ",3,2,None,,,,0,3,3,3,,,,,0,15,15,15,,,,,,,,,,,,,,,,,,,,,,,,,,,,,,,1,2.53628246000153,,,,,,,,,,,,,,,,,,,,,,,,,,,,031519_p1,001,2019_Mar_15_1230,body_behavioural,3.0.4,60.22172845633561,
3,"“No, not really.",3,2,None,,,,0,3,3,3,,,,,0,16,16,16,,,,,,,,,,,,,,,,,,,,,,,,,,,,,,,1,0.552868316997774,,,,,,,,,,,,,,,,,,,,,,,,,,,,031519_p1,001,2019_Mar_15_1230,body_behavioural,3.0.4,60.22172845633561,
3,I’ve mainly been working and setting up my apartment.”,3,2,None,,,,0,3,3,3,,,,,0,17,17,17,,,,,,,,,,,,,,,,,,,,,,,,,,,,,,,1,1.4699311049771495,,,,,,,,,,,,,,,,,,,,,,,,,,,,031519_p1,001,2019_Mar_15_1230,body_behavioural,3.0.4,60.22172845633561,
3,"Simon asked her, “Ok well, if you’d like I could pick you up next weekend, and we could go around Harvard Square and get dinner.",3,3,None,,,,0,3,3,3,,,,,0,18,18,18,,,,,,,,,,,,,,,,,,,,,,,,,,,,,,,1,3.719909696985269,,,,,,,,,,,,,,,,,,,,,,,,,,,,031519_p1,001,2019_Mar_15_1230,body_behavioural,3.0.4,60.22172845633561,
3,"There are a lot of great places around there, and it’s really nice during the summer.",3,3,None,,,,0,3,3,3,,,,,0,19,19,19,,,,,,,,,,,,,,,,,,,,,,,,,,,,,,,1,2.0174245850066654,,,,,,,,,,,,,,,,,,,,,,,,,,,,031519_p1,001,2019_Mar_15_1230,body_behavioural,3.0.4,60.22172845633561,
3,The Harvard campus is also beautiful.” ,3,3,None,,,,0,3,3,3,,,,,0,20,20,20,,,,,,,,,,,,,,,,,,,,,,,,,,,,,,,1,1.1194742869993206,,,,,,,,,,,,,,,,,,,,,,,,,,,,031519_p1,001,2019_Mar_15_1230,body_behavioural,3.0.4,60.22172845633561,
3,"Carina smiled, “I’d love to: that sounds great!”",3,3,None,,,,0,3,3,3,,,,,0,21,21,21,,,,,,,,,,,,,,,,,,,,,,,,,,,,,,,1,1.0839779099915177,,,,,,,,,,,,,,,,,,,,,,,,,,,,031519_p1,001,2019_Mar_15_1230,body_behavioural,3.0.4,60.22172845633561,
3,"She quickly entered her number in his phone, since they only had to wait a couple minutes in line.",3,3,None,,,,0,3,3,3,,,,,0,22,22,22,,,,,,,,,,,,,,,,,,,,,,,,,,,,,,,9,3.236113799997838,,,,,,,,,,,,,,,,,,,,,,,,,,,,031519_p1,001,2019_Mar_15_1230,body_behavioural,3.0.4,60.22172845633561,
3,Then it was her turn to check out with the cashier. ,4,3,None,,,,0,3,3,3,,,,,0,23,23,23,,,,,,,,,,,,,,,,,,,,,,,,,,,,,,,1,1.5030644650105387,,,,,,,,,,,,,,,,,,,,,,,,,,,,031519_p1,001,2019_Mar_15_1230,body_behavioural,3.0.4,60.22172845633561,
3,"Simon, wanting to make a gesture of his affection, lifted up the divider on the conveyor belt and said to the cashier, “Actually these are together.",4,3,None,,,,0,3,3,3,,,,,0,24,24,24,,,,,,,,,,,,,,,,,,,,,,,,,,,,,,,1,5.051086418010527,,,,,,,,,,,,,,,,,,,,,,,,,,,,031519_p1,001,2019_Mar_15_1230,body_behavioural,3.0.4,60.22172845633561,
3,"Carina, I’ve got it.",4,3,None,,,,0,3,3,3,,,,,0,25,25,25,,,,,,,,,,,,,,,,,,,,,,,,,,,,,,,1,1.3007555399963167,,,,,,,,,,,,,,,,,,,,,,,,,,,,031519_p1,001,2019_Mar_15_1230,body_behavioural,3.0.4,60.22172845633561,
3,This was kind-of a date today.”,4,3,None,,,,0,3,3,3,,,,,0,26,26,26,,,,,,,,,,,,,,,,,,,,,,,,,,,,,,,1,3.269524397008354,,,,,,,,,,,,,,,,,,,,,,,,,,,,031519_p1,001,2019_Mar_15_1230,body_behavioural,3.0.4,60.22172845633561,
3,Carina blushed and laughed; she thought this was ridiculous but also very sweet. ,4,3,None,,,,0,3,3,3,,,,,0,27,27,27,,,,,,,,,,,,,,,,,,,,,,,,,,,,,,,1,2.4197491300001275,,,,,,,,,,,,,,,,,,,,,,,,,,,,031519_p1,001,2019_Mar_15_1230,body_behavioural,3.0.4,60.22172845633561,
3,"The cashier rolled her eyes when they weren’t looking, and she scanned the rest of his items. ",4,3,None,,,,0,3,3,3,,,,,0,28,28,28,,,,,,,,,,,,,,,,,,,,,,,,,,,,,,,9,3.103207250009291,,,,,,,,,,,,,,,,,,,,,,,,,,,,031519_p1,001,2019_Mar_15_1230,body_behavioural,3.0.4,60.22172845633561,
3,"The total came to $120, and he paid with his credit card.",4,3,None,,,,0,3,3,3,,,,,0,29,29,29,,,,,,,,,,,,,,,,,,,,,,,,,,,,,,,1,2.0361393920029514,,,,,,,,,,,,,,,,,,,,,,,,,,,,031519_p1,001,2019_Mar_15_1230,body_behavioural,3.0.4,60.22172845633561,
3,"Carina thanked him, and they took the groceries and walked out.",4,3,None,,,,0,3,3,3,,,,,0,30,30,30,,,,,,,,,,,,,,,,,,,,,,,,,,,,,,,1,3.10311840500799,,,,,,,,,,,,,,,,,,,,,,,,,,,,031519_p1,001,2019_Mar_15_1230,body_behavioural,3.0.4,60.22172845633561,
3,"As they were walking towards the exit, Carina reluctantly said goodbye since she was running late for the barbeque she was hosting that afternoon.",4,4,None,,,,0,3,3,3,,,,,0,31,31,31,,,,,,,,,,,,,,,,,,,,,,,,,,,,,,,9,4.119476129999384,,,,,,,,,,,,,,,,,,,,,,,,,,,,031519_p1,001,2019_Mar_15_1230,body_behavioural,3.0.4,60.22172845633561,
3,"They hugged and parted ways, stealing glances at each other as they both walked back to their cars.",4,4,None,,,,0,3,3,3,,,,,0,32,32,32,,,,,,,,,,,,,,,,,,,,,,,,,,,,,,,1,1.9363683800038416,,,,,,,,,,,,,,,,,,,,,,,,,,,,031519_p1,001,2019_Mar_15_1230,body_behavioural,3.0.4,60.22172845633561,
3,,,,,,,,0,3,3,3,,,,,,,,,,,,,,,,,,,,,,,,,,,,,,,,,,,,,,,,,,,,,,,,,,,,,,,,,,,,,,,,,,,,031519_p1,001,2019_Mar_15_1230,body_behavioural,3.0.4,60.22172845633561,
4,,,,,,,,0,4,4,4,0,0,0,0,,,,,,,,,,,,,,,,,,,,,,,,,,,,,space,0.8364126129890792,space,0.4193944970029406,space,0.7363412769918796,,,,,,,,,,,,,,,,,,,,,,,,,,,,,,031519_p1,001,2019_Mar_15_1230,body_behavioural,3.0.4,60.22172845633561,
4,"Alex was a distracted, sweaty mess as he walked into the grocery store with Chloe; he was hoping that she wouldn't suspect that he was about to propose.",1,1,23.0,,,,0,4,4,4,,,,,0,0,0,0,,,,,,,,,,,,,,,,,,,,,,,,,,,,,,,9,12.753971625003032,,,,,,,,,,,,,,,,,,,,,,,,,,,,031519_p1,001,2019_Mar_15_1230,body_behavioural,3.0.4,60.22172845633561,
4,"The grocery store was brightly lit; this was one of the nicest grocery stores in Atlanta, and sunlight poured in through the glass walls.",1,1,None,,,,0,4,4,4,,,,,0,1,1,1,,,,,,,,,,,,,,,,,,,,,,,,,,,,,,,1,16.03449907997856,,,,,,,,,,,,,,,,,,,,,,,,,,,,031519_p1,001,2019_Mar_15_1230,body_behavioural,3.0.4,60.22172845633561,
4,"The atmosphere was also bright because tomorrow was Thanksgiving, and most shoppers had carts piled high with turkey, stuffing, and pies.",1,1,None,,,,0,4,4,4,,,,,0,2,2,2,,,,,,,,,,,,,,,,,,,,,,,,,,,,,,,1,1.5198165170149878,,,,,,,,,,,,,,,,,,,,,,,,,,,,031519_p1,001,2019_Mar_15_1230,body_behavioural,3.0.4,60.22172845633561,
4,Alex wanted to propose to Chloe here because he knew she would not suspect it at all. ,1,1,None,,,,0,4,4,4,,,,,0,3,3,3,,,,,,,,,,,,,,,,,,,,,,,,,,,,,,,9,3.5199931300012395,,,,,,,,,,,,,,,,,,,,,,,,,,,,031519_p1,001,2019_Mar_15_1230,body_behavioural,3.0.4,60.22172845633561,
4,"Chloe loved surprises, and Alex loved the look on Chloe’s face when she was surprised. ",1,1,None,,,,0,4,4,4,,,,,0,4,4,4,,,,,,,,,,,,,,,,,,,,,,,,,,,,,,,1,2.086138862010557,,,,,,,,,,,,,,,,,,,,,,,,,,,,031519_p1,001,2019_Mar_15_1230,body_behavioural,3.0.4,60.22172845633561,
4,"“Alex, we need to get some cranberry sauce, so let’s go there first.” ",2,1,None,,,,0,4,4,4,,,,,0,5,5,5,,,,,,,,,,,,,,,,,,,,,,,,,,,,,,,1,2.7365509750088677,,,,,,,,,,,,,,,,,,,,,,,,,,,,031519_p1,001,2019_Mar_15_1230,body_behavioural,3.0.4,60.22172845633561,
4,She led the way to the section of the store that held the canned foods. ,2,1,None,,,,0,4,4,4,,,,,0,6,6,6,,,,,,,,,,,,,,,,,,,,,,,,,,,,,,,1,1.1193262450105976,,,,,,,,,,,,,,,,,,,,,,,,,,,,031519_p1,001,2019_Mar_15_1230,body_behavioural,3.0.4,60.22172845633561,
4,Alex looked like he was going to throw up. ,2,1,None,,,,0,4,4,4,,,,,0,7,7,7,,,,,,,,,,,,,,,,,,,,,,,,,,,,,,,1,0.8863346099969931,,,,,,,,,,,,,,,,,,,,,,,,,,,,031519_p1,001,2019_Mar_15_1230,body_behavioural,3.0.4,60.22172845633561,
4,"As they were walking there, Chloe asked him, “Is everything okay, dear?”",2,1,None,,,,0,4,4,4,,,,,0,8,8,8,,,,,,,,,,,,,,,,,,,,,,,,,,,,,,,1,1.4028599300072528,,,,,,,,,,,,,,,,,,,,,,,,,,,,031519_p1,001,2019_Mar_15_1230,body_behavioural,3.0.4,60.22172845633561,
4,"“Oh yeah, for sure,” he said, unconvincingly. ",2,1,None,,,,0,4,4,4,,,,,0,9,9,9,,,,,,,,,,,,,,,,,,,,,,,,,,,,,,,1,0.6198327470046934,,,,,,,,,,,,,,,,,,,,,,,,,,,,031519_p1,001,2019_Mar_15_1230,body_behavioural,3.0.4,60.22172845633561,
4,"She chuckled, “Alright, whatever you say.” ",2,1,None,,,,0,4,4,4,,,,,0,10,10,10,,,,,,,,,,,,,,,,,,,,,,,,,,,,,,,1,0.8363643499906175,,,,,,,,,,,,,,,,,,,,,,,,,,,,031519_p1,001,2019_Mar_15_1230,body_behavioural,3.0.4,60.22172845633561,
4,"She was mulling over the different cans of cranberry sauce, and Alex knew she would be a while.",2,1,None,,,,0,4,4,4,,,,,0,11,11,11,,,,,,,,,,,,,,,,,,,,,,,,,,,,,,,1,2.769769426988205,,,,,,,,,,,,,,,,,,,,,,,,,,,,031519_p1,001,2019_Mar_15_1230,body_behavioural,3.0.4,60.22172845633561,
4,He turned his back to her and pulled out the ring.,2,2,None,,,,0,4,4,4,,,,,0,12,12,12,,,,,,,,,,,,,,,,,,,,,,,,,,,,,,,1,1.1364752849913202,,,,,,,,,,,,,,,,,,,,,,,,,,,,031519_p1,001,2019_Mar_15_1230,body_behavioural,3.0.4,60.22172845633561,
4,He had been saving up for this for a while. ,2,2,None,,,,0,4,4,4,,,,,0,13,13,13,,,,,,,,,,,,,,,,,,,,,,,,,,,,,,,1,1.9193397269991692,,,,,,,,,,,,,,,,,,,,,,,,,,,,031519_p1,001,2019_Mar_15_1230,body_behavioural,3.0.4,60.22172845633561,
4,The ring had three large diamonds with smaller ones encircling each one: all of them sparkled in the light streaming in from the windows. ,2,2,None,,,,0,4,4,4,,,,,0,14,14,14,,,,,,,,,,,,,,,,,,,,,,,,,,,,,,,1,4.86966365200351,,,,,,,,,,,,,,,,,,,,,,,,,,,,031519_p1,001,2019_Mar_15_1230,body_behavioural,3.0.4,60.22172845633561,
4,"“Alex?”, Chloe said suspiciously. ",2,2,None,,,,0,4,4,4,,,,,0,15,15,15,,,,,,,,,,,,,,,,,,,,,,,,,,,,,,,1,1.336363620008342,,,,,,,,,,,,,,,,,,,,,,,,,,,,031519_p1,001,2019_Mar_15_1230,body_behavioural,3.0.4,60.22172845633561,
4,He closed the box and whipped around. “Yes?”,2,2,None,,,,0,4,4,4,,,,,0,16,16,16,,,,,,,,,,,,,,,,,,,,,,,,,,,,,,,1,3.0203993180184625,,,,,,,,,,,,,,,,,,,,,,,,,,,,031519_p1,001,2019_Mar_15_1230,body_behavioural,3.0.4,60.22172845633561,
4,“Do we need anything else?”,2,2,None,,,,0,4,4,4,,,,,0,17,17,17,,,,,,,,,,,,,,,,,,,,,,,,,,,,,,,1,1.2699561180197634,,,,,,,,,,,,,,,,,,,,,,,,,,,,031519_p1,001,2019_Mar_15_1230,body_behavioural,3.0.4,60.22172845633561,
4,"“Yeah I don’t know, honey.” ",2,2,None,,,,0,4,4,4,,,,,0,18,18,18,,,,,,,,,,,,,,,,,,,,,,,,,,,,,,,1,1.4507687270233873,,,,,,,,,,,,,,,,,,,,,,,,,,,,031519_p1,001,2019_Mar_15_1230,body_behavioural,3.0.4,60.22172845633561,
4,They went to the checkout and waited in a long line.,3,2,None,,,,0,4,4,4,,,,,0,19,19,19,,,,,,,,,,,,,,,,,,,,,,,,,,,,,,,1,2.0529563520103693,,,,,,,,,,,,,,,,,,,,,,,,,,,,031519_p1,001,2019_Mar_15_1230,body_behavioural,3.0.4,60.22172845633561,
4,Alex was staring intensely off into the distance. ,3,2,None,,,,0,4,4,4,,,,,0,20,20,20,,,,,,,,,,,,,,,,,,,,,,,,,,,,,,,1,1.3864681330160238,,,,,,,,,,,,,,,,,,,,,,,,,,,,031519_p1,001,2019_Mar_15_1230,body_behavioural,3.0.4,60.22172845633561,
4,Chloe was watching him trying to decide whether he looked scared or confused. ,3,2,None,,,,0,4,4,4,,,,,0,21,21,21,,,,,,,,,,,,,,,,,,,,,,,,,,,,,,,9,9.253690229990752,,,,,,,,,,,,,,,,,,,,,,,,,,,,031519_p1,001,2019_Mar_15_1230,body_behavioural,3.0.4,60.22172845633561,
4,Alex looked over at their friends who were waiting by the entrance of the grocery store.,3,2,None,,,,0,4,4,4,,,,,0,22,22,22,,,,,,,,,,,,,,,,,,,,,,,,,,,,,,,1,2.4698950500169303,,,,,,,,,,,,,,,,,,,,,,,,,,,,031519_p1,001,2019_Mar_15_1230,body_behavioural,3.0.4,60.22172845633561,
4,They got the message and walked over slowly. ,3,2,None,,,,0,4,4,4,,,,,0,23,23,23,,,,,,,,,,,,,,,,,,,,,,,,,,,,,,,1,1.2673907949938439,,,,,,,,,,,,,,,,,,,,,,,,,,,,031519_p1,001,2019_Mar_15_1230,body_behavioural,3.0.4,60.22172845633561,
4,"“Honey,” he said to get her attention, “Look, Chloe, I love you so much and I want to be with you forever, I can’t imagine a day without you.”",3,2,None,,,,0,4,4,4,,,,,0,24,24,24,,,,,,,,,,,,,,,,,,,,,,,,,,,,,,,1,3.153091280022636,,,,,,,,,,,,,,,,,,,,,,,,,,,,031519_p1,001,2019_Mar_15_1230,body_behavioural,3.0.4,60.22172845633561,
4,"“Awww, Alex, me too.”",3,2,None,,,,0,4,4,4,,,,,0,25,25,25,,,,,,,,,,,,,,,,,,,,,,,,,,,,,,,1,1.0194580649840645,,,,,,,,,,,,,,,,,,,,,,,,,,,,031519_p1,001,2019_Mar_15_1230,body_behavioural,3.0.4,60.22172845633561,
4,"Alex got down on one knee, and Chloe gasped. ",3,3,None,,,,0,4,4,4,,,,,0,26,26,26,,,,,,,,,,,,,,,,,,,,,,,,,,,,,,,1,1.5530201270012185,,,,,,,,,,,,,,,,,,,,,,,,,,,,031519_p1,001,2019_Mar_15_1230,body_behavioural,3.0.4,60.22172845633561,
4,"“I am serious, Chloe. Will you marry me?”",3,3,None,,,,0,4,4,4,,,,,0,27,27,27,,,,,,,,,,,,,,,,,,,,,,,,,,,,,,,1,1.7863930199819151,,,,,,,,,,,,,,,,,,,,,,,,,,,,031519_p1,001,2019_Mar_15_1230,body_behavioural,3.0.4,60.22172845633561,
4,"The people in line around them realized what was happening, stepped back, and started taking pictures.",3,3,None,,,,0,4,4,4,,,,,0,28,28,28,,,,,,,,,,,,,,,,,,,,,,,,,,,,,,,1,2.7192807119863573,,,,,,,,,,,,,,,,,,,,,,,,,,,,031519_p1,001,2019_Mar_15_1230,body_behavioural,3.0.4,60.22172845633561,
4,Their friends were no longer trying to hide and were videotaping and taking pictures too. ,3,3,None,,,,0,4,4,4,,,,,0,29,29,29,,,,,,,,,,,,,,,,,,,,,,,,,,,,,,,1,3.0197821600013413,,,,,,,,,,,,,,,,,,,,,,,,,,,,031519_p1,001,2019_Mar_15_1230,body_behavioural,3.0.4,60.22172845633561,
4,Chloe looked around and laughed. ,3,3,None,,,,0,4,4,4,,,,,0,30,30,30,,,,,,,,,,,,,,,,,,,,,,,,,,,,,,,1,1.1502723050070927,,,,,,,,,,,,,,,,,,,,,,,,,,,,031519_p1,001,2019_Mar_15_1230,body_behavioural,3.0.4,60.22172845633561,
4,"“Yes!” she shouted, and jumped to embrace Alex in a hug. ",3,4,None,,,,0,4,4,4,,,,,0,31,31,31,,,,,,,,,,,,,,,,,,,,,,,,,,,,,,,1,1.3366599179862533,,,,,,,,,,,,,,,,,,,,,,,,,,,,031519_p1,001,2019_Mar_15_1230,body_behavioural,3.0.4,60.22172845633561,
4,Everyone in line clapped and cheered. ,3,4,None,,,,0,4,4,4,,,,,0,32,32,32,,,,,,,,,,,,,,,,,,,,,,,,,,,,,,,1,0.9861592449888121,,,,,,,,,,,,,,,,,,,,,,,,,,,,031519_p1,001,2019_Mar_15_1230,body_behavioural,3.0.4,60.22172845633561,
4,"Alex put the ring on Chloe’s finger, who was nearly spinning in excitement.",3,4,None,,,,0,4,4,4,,,,,0,33,33,33,,,,,,,,,,,,,,,,,,,,,,,,,,,,,,,1,2.1694364569848403,,,,,,,,,,,,,,,,,,,,,,,,,,,,031519_p1,001,2019_Mar_15_1230,body_behavioural,3.0.4,60.22172845633561,
4,"“I love it, oh my gosh, it’s so glittery!",3,4,None,,,,0,4,4,4,,,,,0,34,34,34,,,,,,,,,,,,,,,,,,,,,,,,,,,,,,,1,1.7866191569773946,,,,,,,,,,,,,,,,,,,,,,,,,,,,031519_p1,001,2019_Mar_15_1230,body_behavioural,3.0.4,60.22172845633561,
4,Look at this!” she said as she shoved her hand in a stranger’s face.,3,4,None,,,,0,4,4,4,,,,,0,35,35,35,,,,,,,,,,,,,,,,,,,,,,,,,,,,,,,1,2.3193872700212523,,,,,,,,,,,,,,,,,,,,,,,,,,,,031519_p1,001,2019_Mar_15_1230,body_behavioural,3.0.4,60.22172845633561,
4,Her friends came over and hugged them.,3,4,None,,,,0,4,4,4,,,,,0,36,36,36,,,,,,,,,,,,,,,,,,,,,,,,,,,,,,,1,1.3529677749902476,,,,,,,,,,,,,,,,,,,,,,,,,,,,031519_p1,001,2019_Mar_15_1230,body_behavioural,3.0.4,60.22172845633561,
4,The other people let them move up to the front of the checkout line. ,3,4,None,,,,0,4,4,4,,,,,0,37,37,37,,,,,,,,,,,,,,,,,,,,,,,,,,,,,,,1,7.303356165008154,,,,,,,,,,,,,,,,,,,,,,,,,,,,031519_p1,001,2019_Mar_15_1230,body_behavioural,3.0.4,60.22172845633561,
4,The cashier congratulated them and scanned their cranberry sauce. ,4,4,None,,,,0,4,4,4,,,,,0,38,38,38,,,,,,,,,,,,,,,,,,,,,,,,,,,,,,,1,1.4193117450049613,,,,,,,,,,,,,,,,,,,,,,,,,,,,031519_p1,001,2019_Mar_15_1230,body_behavioural,3.0.4,60.22172845633561,
4,The total came to $4 and Chloe paid in cash while getting distracted and staring at the ring as she pulled out the bills.,4,4,None,,,,0,4,4,4,,,,,0,39,39,39,,,,,,,,,,,,,,,,,,,,,,,,,,,,,,,1,3.953196971997386,,,,,,,,,,,,,,,,,,,,,,,,,,,,031519_p1,001,2019_Mar_15_1230,body_behavioural,3.0.4,60.22172845633561,
4,"Alex grabbed the cans, and they walked out with their friends bunched around them. ",4,4,None,,,,0,4,4,4,,,,,0,40,40,40,,,,,,,,,,,,,,,,,,,,,,,,,,,,,,,1,3.237153602007311,,,,,,,,,,,,,,,,,,,,,,,,,,,,031519_p1,001,2019_Mar_15_1230,body_behavioural,3.0.4,60.22172845633561,
4,,,,,,,,0,4,4,4,,,,,,,,,,,,,,,,,,,,,,,,,,,,,,,,,,,,,,,,,,,,,,,,,,,,,,,,,,,,,,,,,,,,031519_p1,001,2019_Mar_15_1230,body_behavioural,3.0.4,60.22172845633561,
5,,,,,,,,0,5,5,5,0,0,0,0,,,,,,,,,,,,,,,,,,,,,,,,,,,,,space,0.7863082620024215,space,0.4527812100131996,space,0.6530578399833757,,,,,,,,,,,,,,,,,,,,,,,,,,,,,,031519_p1,001,2019_Mar_15_1230,body_behavioural,3.0.4,60.22172845633561,
5,,,,,,,,0,5,5,5,1,0,1,0,,,,,,,,,,,,,,,,,,,,,,,,,,,,,,,,,space,0.4696554450201802,,,,,,,,,,,,,,,,,,,,,,,,,,,,,,031519_p1,001,2019_Mar_15_1230,body_behavioural,3.0.4,60.22172845633561,
5,"James noticed Teresa immediately as she walked into the restaurant - or, more accurately as she attempted to walk into the restaurant. ",1,1,41.0,,,,0,5,5,5,,,,,0,0,0,0,,,,,,,,,,,,,,,,,,,,,,,,,,,,,,,9,5.653255978017114,,,,,,,,,,,,,,,,,,,,,,,,,,,,031519_p1,001,2019_Mar_15_1230,body_behavioural,3.0.4,60.22172845633561,
5,"She was typing intently on her phone and ran straight into the diner's clear, glass door with an echoing thud. ",1,1,None,,,,0,5,5,5,,,,,0,1,1,1,,,,,,,,,,,,,,,,,,,,,,,,,,,,,,,1,3.4533433270116802,,,,,,,,,,,,,,,,,,,,,,,,,,,,031519_p1,001,2019_Mar_15_1230,body_behavioural,3.0.4,60.22172845633561,
5,Everyone waiting around the cash register turned to see if she was okay.,1,1,None,,,,0,5,5,5,,,,,0,2,2,2,,,,,,,,,,,,,,,,,,,,,,,,,,,,,,,1,2.1175540270050988,,,,,,,,,,,,,,,,,,,,,,,,,,,,031519_p1,001,2019_Mar_15_1230,body_behavioural,3.0.4,60.22172845633561,
5,Teresa rubbed her head.,1,1,None,,,,0,5,5,5,,,,,0,3,3,3,,,,,,,,,,,,,,,,,,,,,,,,,,,,,,,1,0.886425001983298,,,,,,,,,,,,,,,,,,,,,,,,,,,,031519_p1,001,2019_Mar_15_1230,body_behavioural,3.0.4,60.22172845633561,
5,"While being both confused and unembarrassed, she looked mostly indignant that the door had been in her way. ",1,1,None,,,,0,5,5,5,,,,,0,4,4,4,,,,,,,,,,,,,,,,,,,,,,,,,,,,,,,1,4.869457947002957,,,,,,,,,,,,,,,,,,,,,,,,,,,,031519_p1,001,2019_Mar_15_1230,body_behavioural,3.0.4,60.22172845633561,
5,James found this quite charming and stole a couple glances at her until she noticed and wrinkled her eyebrows at him in suspicion. ,1,1,None,,,,0,5,5,5,,,,,0,5,5,5,,,,,,,,,,,,,,,,,,,,,,,,,,,,,,,1,4.553301774983993,,,,,,,,,,,,,,,,,,,,,,,,,,,,031519_p1,001,2019_Mar_15_1230,body_behavioural,3.0.4,60.22172845633561,
5,"The restaurant they were in was a cabin-themed diner with wooden booths and bar, walls covered in plaid blankets, and antler decorations. ",1,1,None,,,,0,5,5,5,,,,,0,6,6,6,,,,,,,,,,,,,,,,,,,,,,,,,,,,,,,9,3.9200662320072297,,,,,,,,,,,,,,,,,,,,,,,,,,,,031519_p1,001,2019_Mar_15_1230,body_behavioural,3.0.4,60.22172845633561,
5,The waiter saw that James and Teresa were both alone and motioned to both of them. ,1,1,None,,,,0,5,5,5,,,,,0,7,7,7,,,,,,,,,,,,,,,,,,,,,,,,,,,,,,,9,2.550524382008007,,,,,,,,,,,,,,,,,,,,,,,,,,,,031519_p1,001,2019_Mar_15_1230,body_behavioural,3.0.4,60.22172845633561,
5,“Right this way.,2,1,None,,,,0,5,5,5,,,,,0,8,8,8,,,,,,,,,,,,,,,,,,,,,,,,,,,,,,,1,0.8699903499800712,,,,,,,,,,,,,,,,,,,,,,,,,,,,031519_p1,001,2019_Mar_15_1230,body_behavioural,3.0.4,60.22172845633561,
5,You two don't mind sitting at the counter?” ,2,1,None,,,,0,5,5,5,,,,,0,9,9,9,,,,,,,,,,,,,,,,,,,,,,,,,,,,,,,1,0.9365922370052431,,,,,,,,,,,,,,,,,,,,,,,,,,,,031519_p1,001,2019_Mar_15_1230,body_behavioural,3.0.4,60.22172845633561,
5,They sat a seat apart from each other on the split tree trunk that served as a bench.,2,1,None,,,,0,5,5,5,,,,,0,10,10,10,,,,,,,,,,,,,,,,,,,,,,,,,,,,,,,1,2.467667288001394,,,,,,,,,,,,,,,,,,,,,,,,,,,,031519_p1,001,2019_Mar_15_1230,body_behavioural,3.0.4,60.22172845633561,
5, The waitress behind the counter gave them bright neon menus that were filled with breakfast items.,2,1,None,,,,0,5,5,5,,,,,0,11,11,11,,,,,,,,,,,,,,,,,,,,,,,,,,,,,,,1,3.1197829119919334,,,,,,,,,,,,,,,,,,,,,,,,,,,,031519_p1,001,2019_Mar_15_1230,body_behavioural,3.0.4,60.22172845633561,
5,"Teresa quickly glanced through it, then pulled out a book and started reading it while James played with the salt and pepper shakers as he tried to think of an excuse to talk to Teresa.",2,1,None,,,,0,5,5,5,,,,,0,12,12,12,,,,,,,,,,,,,,,,,,,,,,,,,,,,,,,1,6.269947589986259,,,,,,,,,,,,,,,,,,,,,,,,,,,,031519_p1,001,2019_Mar_15_1230,body_behavioural,3.0.4,60.22172845633561,
5,"James eventually turned to her and asked, “Your forehead alright?”",2,2,None,,,,0,5,5,5,,,,,0,13,13,13,,,,,,,,,,,,,,,,,,,,,,,,,,,,,,,1,3.686186284990981,,,,,,,,,,,,,,,,,,,,,,,,,,,,031519_p1,001,2019_Mar_15_1230,body_behavioural,3.0.4,60.22172845633561,
5,She put down her book and gave him a smirk.,2,2,None,,,,0,5,5,5,,,,,0,14,14,14,,,,,,,,,,,,,,,,,,,,,,,,,,,,,,,1,1.0862081800005399,,,,,,,,,,,,,,,,,,,,,,,,,,,,031519_p1,001,2019_Mar_15_1230,body_behavioural,3.0.4,60.22172845633561,
5,"“Have you ever been stung by a scorpion?”, she asked him, tilting her head.",2,2,None,,,,0,5,5,5,,,,,0,15,15,15,,,,,,,,,,,,,,,,,,,,,,,,,,,,,,,1,2.5365318619878963,,,,,,,,,,,,,,,,,,,,,,,,,,,,031519_p1,001,2019_Mar_15_1230,body_behavioural,3.0.4,60.22172845633561,
5,"“What?”, he asked confusedly.",2,2,None,,,,0,5,5,5,,,,,0,16,16,16,,,,,,,,,,,,,,,,,,,,,,,,,,,,,,,1,1.2862901049957145,,,,,,,,,,,,,,,,,,,,,,,,,,,,031519_p1,001,2019_Mar_15_1230,body_behavioural,3.0.4,60.22172845633561,
5, “A scorpion.”,2,2,None,,,,0,5,5,5,,,,,0,17,17,17,,,,,,,,,,,,,,,,,,,,,,,,,,,,,,,1,0.7530575749988202,,,,,,,,,,,,,,,,,,,,,,,,,,,,031519_p1,001,2019_Mar_15_1230,body_behavioural,3.0.4,60.22172845633561,
5,James began to worry that Teresa had possibly suffered a concussion in the door crash.,2,2,None,,,,0,5,5,5,,,,,0,18,18,18,,,,,,,,,,,,,,,,,,,,,,,,,,,,,,,1,2.8199194569897372,,,,,,,,,,,,,,,,,,,,,,,,,,,,031519_p1,001,2019_Mar_15_1230,body_behavioural,3.0.4,60.22172845633561,
5,"“Uh no, why?” ",2,2,None,,,,0,5,5,5,,,,,0,19,19,19,,,,,,,,,,,,,,,,,,,,,,,,,,,,,,,1,0.7703015870065428,,,,,,,,,,,,,,,,,,,,,,,,,,,,031519_p1,001,2019_Mar_15_1230,body_behavioural,3.0.4,60.22172845633561,
5,"“Because I’ve been stung by one, and since then, things like bumping into doors seem like pretty small potatoes.” ",2,2,None,,,,0,5,5,5,,,,,0,20,20,20,,,,,,,,,,,,,,,,,,,,,,,,,,,,,,,1,4.836163059982937,,,,,,,,,,,,,,,,,,,,,,,,,,,,031519_p1,001,2019_Mar_15_1230,body_behavioural,3.0.4,60.22172845633561,
5,"They carried on talking, and Teresa told him all about her encounter with a Deathstalker scorpion while she was studying abroad in Egypt.",2,2,None,,,,0,5,5,5,,,,,0,21,21,21,,,,,,,,,,,,,,,,,,,,,,,,,,,,,,,1,4.86965962999966,,,,,,,,,,,,,,,,,,,,,,,,,,,,031519_p1,001,2019_Mar_15_1230,body_behavioural,3.0.4,60.22172845633561,
5,"After a few minutes, the waitress behind the counter came up to them, “Alrighty, can I take you order?” ",3,3,None,,,,0,5,5,5,,,,,0,22,22,22,,,,,,,,,,,,,,,,,,,,,,,,,,,,,,,1,4.903240676998394,,,,,,,,,,,,,,,,,,,,,,,,,,,,031519_p1,001,2019_Mar_15_1230,body_behavioural,3.0.4,60.22172845633561,
5,"She first looked at Teresa who answered, “I’ll have a Western Omelette and a glass of milk.”",3,3,None,,,,0,5,5,5,,,,,0,23,23,23,,,,,,,,,,,,,,,,,,,,,,,,,,,,,,,1,2.31742117201793,,,,,,,,,,,,,,,,,,,,,,,,,,,,031519_p1,001,2019_Mar_15_1230,body_behavioural,3.0.4,60.22172845633561,
5,Then the waitress turned to James.,3,3,None,,,,0,5,5,5,,,,,0,24,24,24,,,,,,,,,,,,,,,,,,,,,,,,,,,,,,,1,2.019740667019505,,,,,,,,,,,,,,,,,,,,,,,,,,,,031519_p1,001,2019_Mar_15_1230,body_behavioural,3.0.4,60.22172845633561,
5,"James said, “I’ll have the chocolate chip pancakes and a coffee.” ",3,3,None,,,,0,5,5,5,,,,,0,25,25,25,,,,,,,,,,,,,,,,,,,,,,,,,,,,,,,1,1.635993834992405,,,,,,,,,,,,,,,,,,,,,,,,,,,,031519_p1,001,2019_Mar_15_1230,body_behavioural,3.0.4,60.22172845633561,
5,"“Alrighty, comin’ right up!”",3,3,None,,,,0,5,5,5,,,,,0,26,26,26,,,,,,,,,,,,,,,,,,,,,,,,,,,,,,,1,0.9530625200131908,,,,,,,,,,,,,,,,,,,,,,,,,,,,031519_p1,001,2019_Mar_15_1230,body_behavioural,3.0.4,60.22172845633561,
5,"They picked up their conversation, and James ended up telling Teresa about a concert he was going to later. ",3,3,None,,,,0,5,5,5,,,,,0,27,27,27,,,,,,,,,,,,,,,,,,,,,,,,,,,,,,,1,2.4174265619949438,,,,,,,,,,,,,,,,,,,,,,,,,,,,031519_p1,001,2019_Mar_15_1230,body_behavioural,3.0.4,60.22172845633561,
5,"He invited her to come along, promising her that the concert would be indoors and absolutely free of venomous insects.",3,3,None,,,,0,5,5,5,,,,,0,28,28,28,,,,,,,,,,,,,,,,,,,,,,,,,,,,,,,1,3.1360065470216796,,,,,,,,,,,,,,,,,,,,,,,,,,,,031519_p1,001,2019_Mar_15_1230,body_behavioural,3.0.4,60.22172845633561,
5,"Teresa agreed, gave him her number, and they worked out that James would pick her up before the concert and drive them there.",3,3,None,,,,0,5,5,5,,,,,0,29,29,29,,,,,,,,,,,,,,,,,,,,,,,,,,,,,,,1,4.819986632006476,,,,,,,,,,,,,,,,,,,,,,,,,,,,031519_p1,001,2019_Mar_15_1230,body_behavioural,3.0.4,60.22172845633561,
5,"This was not what they had expected from their solitary lunch plans and were both excited, even though Teresa was doing a much better job of hiding it than James. ",3,3,None,,,,0,5,5,5,,,,,0,30,30,30,,,,,,,,,,,,,,,,,,,,,,,,,,,,,,,1,6.7366698770201765,,,,,,,,,,,,,,,,,,,,,,,,,,,,031519_p1,001,2019_Mar_15_1230,body_behavioural,3.0.4,60.22172845633561,
5," After awhile,  the waitress brought out their food, and James took this opportunity to scoot closer to her on the log bench. ",4,4,None,,,,0,5,5,5,,,,,0,31,31,31,,,,,,,,,,,,,,,,,,,,,,,,,,,,,,,1,2.9196645969932433,,,,,,,,,,,,,,,,,,,,,,,,,,,,031519_p1,001,2019_Mar_15_1230,body_behavioural,3.0.4,60.22172845633561,
5,"Teresa was happy to share the meal with James, despite their food tasting pretty bad. ",4,4,None,,,,0,5,5,5,,,,,0,32,32,32,,,,,,,,,,,,,,,,,,,,,,,,,,,,,,,1,2.750884720007889,,,,,,,,,,,,,,,,,,,,,,,,,,,,031519_p1,001,2019_Mar_15_1230,body_behavioural,3.0.4,60.22172845633561,
5,"Judging by how salty the pancakes tasted, they suspected that the chef had confused the salt and sugar.",4,4,None,,,,0,5,5,5,,,,,0,33,33,33,,,,,,,,,,,,,,,,,,,,,,,,,,,,,,,1,2.93659746699268,,,,,,,,,,,,,,,,,,,,,,,,,,,,031519_p1,001,2019_Mar_15_1230,body_behavioural,3.0.4,60.22172845633561,
5,"When the meal was over, they got up, hugged, and parted ways. ",4,4,None,,,,0,5,5,5,,,,,0,34,34,34,,,,,,,,,,,,,,,,,,,,,,,,,,,,,,,1,1.853152655006852,,,,,,,,,,,,,,,,,,,,,,,,,,,,031519_p1,001,2019_Mar_15_1230,body_behavioural,3.0.4,60.22172845633561,
5,"James said,“I have to run, got to get to work.",4,4,None,,,,0,5,5,5,,,,,0,35,35,35,,,,,,,,,,,,,,,,,,,,,,,,,,,,,,,1,1.6363275320036337,,,,,,,,,,,,,,,,,,,,,,,,,,,,031519_p1,001,2019_Mar_15_1230,body_behavioural,3.0.4,60.22172845633561,
5,See you tonight!”,4,4,None,,,,0,5,5,5,,,,,0,36,36,36,,,,,,,,,,,,,,,,,,,,,,,,,,,,,,,1,0.6859971749945544,,,,,,,,,,,,,,,,,,,,,,,,,,,,031519_p1,001,2019_Mar_15_1230,body_behavioural,3.0.4,60.22172845633561,
5,"Teresa smiled and walked towards the door without looking, and almost ran into the door again. ",4,4,None,,,,0,5,5,5,,,,,0,37,37,37,,,,,,,,,,,,,,,,,,,,,,,,,,,,,,,1,3.317089662014041,,,,,,,,,,,,,,,,,,,,,,,,,,,,031519_p1,001,2019_Mar_15_1230,body_behavioural,3.0.4,60.22172845633561,
5,They both laughed and smiled once more goodbye. ,4,4,None,,,,0,5,5,5,,,,,0,38,38,38,,,,,,,,,,,,,,,,,,,,,,,,,,,,,,,1,1.1179656230087858,,,,,,,,,,,,,,,,,,,,,,,,,,,,031519_p1,001,2019_Mar_15_1230,body_behavioural,3.0.4,60.22172845633561,
5,,,,,,,,0,5,5,5,,,,,,,,,,,,,,,,,,,,,,,,,,,,,,,,,,,,,,,,,,,,,,,,,,,,,,,,,,,,,,,,,,,,031519_p1,001,2019_Mar_15_1230,body_behavioural,3.0.4,60.22172845633561,
6,,,,,,,,0,6,6,6,0,0,0,0,,,,,,,,,,,,,,,,,,,,,,,,,,,,,space,0.6364226769946981,space,0.43632653198437765,space,0.9507323699945118,,,,,,,,,,,,,,,,,,,,,,,,,,,,,,031519_p1,001,2019_Mar_15_1230,body_behavioural,3.0.4,60.22172845633561,
6,,,,,,,,0,6,6,6,1,0,1,0,,,,,,,,,,,,,,,,,,,,,,,,,,,,,,,,,space,0.4373888919944875,,,,,,,,,,,,,,,,,,,,,,,,,,,,,,031519_p1,001,2019_Mar_15_1230,body_behavioural,3.0.4,60.22172845633561,
6,"It didn’t help the situation that Calvin and Jessie were running late to the airport, since Jessie had already been fuming at Calvin and preparing to end things with him.",1,1,12.0,,,,0,6,6,6,,,,,0,0,0,0,,,,,,,,,,,,,,,,,,,,,,,,,,,,,,,9,7.787028399994597,,,,,,,,,,,,,,,,,,,,,,,,,,,,031519_p1,001,2019_Mar_15_1230,body_behavioural,3.0.4,60.22172845633561,
6,"Upon arriving, they had only 45 minutes until their international flight would depart from Jamaica for the US.",1,1,None,,,,0,6,6,6,,,,,0,1,1,1,,,,,,,,,,,,,,,,,,,,,,,,,,,,,,,9,3.7197158100025263,,,,,,,,,,,,,,,,,,,,,,,,,,,,031519_p1,001,2019_Mar_15_1230,body_behavioural,3.0.4,60.22172845633561,
6,It had been a tough vacation for them.,1,1,None,,,,0,6,6,6,,,,,0,2,2,2,,,,,,,,,,,,,,,,,,,,,,,,,,,,,,,1,1.2695719600014854,,,,,,,,,,,,,,,,,,,,,,,,,,,,031519_p1,001,2019_Mar_15_1230,body_behavioural,3.0.4,60.22172845633561,
6,"Jessie had really had it with Calvin’s constant ramblings about the same excruciatingly boring golfing and work stories, which he insisted on repeating to her regardless of how little interest she showed.",1,1,None,,,,0,6,6,6,,,,,0,3,3,3,,,,,,,,,,,,,,,,,,,,,,,,,,,,,,,1,4.353321114991559,,,,,,,,,,,,,,,,,,,,,,,,,,,,031519_p1,001,2019_Mar_15_1230,body_behavioural,3.0.4,60.22172845633561,
6,"Calvin knew that Jessie was upset, but wasn't sure what to do besides attempting to carry on as normal and tell stories that took up the silence. ",1,1,None,,,,0,6,6,6,,,,,0,4,4,4,,,,,,,,,,,,,,,,,,,,,,,,,,,,,,,1,3.353826709993882,,,,,,,,,,,,,,,,,,,,,,,,,,,,031519_p1,001,2019_Mar_15_1230,body_behavioural,3.0.4,60.22172845633561,
6,"The security line was luckily very short, and once the online boarding passes were scanned they were ushered quickly through the metal detector, not having to take off their shoes or remove the liquids from their bags.",2,1,None,,,,0,6,6,6,,,,,0,5,5,5,,,,,,,,,,,,,,,,,,,,,,,,,,,,,,,9,6.4198684800066985,,,,,,,,,,,,,,,,,,,,,,,,,,,,031519_p1,001,2019_Mar_15_1230,body_behavioural,3.0.4,60.22172845633561,
6,"“The infrastructure of this airport is really quite poor," said Calvin as they waited for their bags to emerge from the x-ray machine.",2,1,None,,,,0,6,6,6,,,,,0,6,6,6,,,,,,,,,,,,,,,,,,,,,,,,,,,,,,,1,3.0029854199965484,,,,,,,,,,,,,,,,,,,,,,,,,,,,031519_p1,001,2019_Mar_15_1230,body_behavioural,3.0.4,60.22172845633561,
6,“I really could've hidden something in my shoes quite easily.” ,2,1,None,,,,0,6,6,6,,,,,0,7,7,7,,,,,,,,,,,,,,,,,,,,,,,,,,,,,,,1,2.169851076992927,,,,,,,,,,,,,,,,,,,,,,,,,,,,031519_p1,001,2019_Mar_15_1230,body_behavioural,3.0.4,60.22172845633561,
6,"Jessie, exasperated at his need to broadcast his every inner thought, scowled at the conveyor belt.",2,1,None,,,,0,6,6,6,,,,,0,8,8,8,,,,,,,,,,,,,,,,,,,,,,,,,,,,,,,9,3.303214437008137,,,,,,,,,,,,,,,,,,,,,,,,,,,,031519_p1,001,2019_Mar_15_1230,body_behavioural,3.0.4,60.22172845633561,
6,"“What?”, he asked.",2,1,None,,,,0,6,6,6,,,,,0,9,9,9,,,,,,,,,,,,,,,,,,,,,,,,,,,,,,,1,0.9362493320077192,,,,,,,,,,,,,,,,,,,,,,,,,,,,031519_p1,001,2019_Mar_15_1230,body_behavioural,3.0.4,60.22172845633561,
6,She balled up her fists and turned to face him.,2,1,None,,,,0,6,6,6,,,,,0,10,10,10,,,,,,,,,,,,,,,,,,,,,,,,,,,,,,,1,1.1863180799991824,,,,,,,,,,,,,,,,,,,,,,,,,,,,031519_p1,001,2019_Mar_15_1230,body_behavioural,3.0.4,60.22172845633561,
6,"“Calvin, I really don’t think I can do this anymore.",2,2,None,,,,0,6,6,6,,,,,0,11,11,11,,,,,,,,,,,,,,,,,,,,,,,,,,,,,,,1,1.2363822000043,,,,,,,,,,,,,,,,,,,,,,,,,,,,031519_p1,001,2019_Mar_15_1230,body_behavioural,3.0.4,60.22172845633561,
6,I think it’s best that once we get to the States we part ways for good.” ,2,2,None,,,,0,6,6,6,,,,,0,12,12,12,,,,,,,,,,,,,,,,,,,,,,,,,,,,,,,1,1.869577526987996,,,,,,,,,,,,,,,,,,,,,,,,,,,,031519_p1,001,2019_Mar_15_1230,body_behavioural,3.0.4,60.22172845633561,
6,Calvin said nothing as he grabbed his bag and quickly walked away.,2,2,None,,,,0,6,6,6,,,,,0,13,13,13,,,,,,,,,,,,,,,,,,,,,,,,,,,,,,,1,5.386239656974794,,,,,,,,,,,,,,,,,,,,,,,,,,,,031519_p1,001,2019_Mar_15_1230,body_behavioural,3.0.4,60.22172845633561,
6,"Jessie trailed behind him as they made their way quickly toward their gate, shouting at his back in hopes of getting a response.",3,2,None,,,,0,6,6,6,,,,,0,14,14,14,,,,,,,,,,,,,,,,,,,,,,,,,,,,,,,1,5.834491562010953,,,,,,,,,,,,,,,,,,,,,,,,,,,,031519_p1,001,2019_Mar_15_1230,body_behavioural,3.0.4,60.22172845633561,
6,“So now you have nothing to say?,3,2,None,,,,0,6,6,6,,,,,0,15,15,15,,,,,,,,,,,,,,,,,,,,,,,,,,,,,,,1,0.8531767399981618,,,,,,,,,,,,,,,,,,,,,,,,,,,,031519_p1,001,2019_Mar_15_1230,body_behavioural,3.0.4,60.22172845633561,
6,"Every time we talk, you are just looking for a way to steer the conversation back into your stories.”",3,2,None,,,,0,6,6,6,,,,,0,16,16,16,,,,,,,,,,,,,,,,,,,,,,,,,,,,,,,1,2.286485796998022,,,,,,,,,,,,,,,,,,,,,,,,,,,,031519_p1,001,2019_Mar_15_1230,body_behavioural,3.0.4,60.22172845633561,
6,"Calvin didn't slow his pace, gritting his teeth and staring straight ahead. ",3,2,None,,,,0,6,6,6,,,,,0,17,17,17,,,,,,,,,,,,,,,,,,,,,,,,,,,,,,,1,1.8353513779875357,,,,,,,,,,,,,,,,,,,,,,,,,,,,031519_p1,001,2019_Mar_15_1230,body_behavioural,3.0.4,60.22172845633561,
6,He was very frustrated that he had been trying to appease Jessie this whole time and this was how she responded. ,3,2,None,,,,0,6,6,6,,,,,0,18,18,18,,,,,,,,,,,,,,,,,,,,,,,,,,,,,,,1,3.1368974929791875,,,,,,,,,,,,,,,,,,,,,,,,,,,,031519_p1,001,2019_Mar_15_1230,body_behavioural,3.0.4,60.22172845633561,
6,The silence was punctuated only by the rapid rhythmic clacking of their suitcase wheels over the tile floor as they continued power-walking through the terminal. ,3,2,None,,,,0,6,6,6,,,,,0,19,19,19,,,,,,,,,,,,,,,,,,,,,,,,,,,,,,,9,4.586200368998107,,,,,,,,,,,,,,,,,,,,,,,,,,,,031519_p1,001,2019_Mar_15_1230,body_behavioural,3.0.4,60.22172845633561,
6,"“Well?” Jessie said, and Calvin finally turned to her.",3,2,None,,,,0,6,6,6,,,,,0,20,20,20,,,,,,,,,,,,,,,,,,,,,,,,,,,,,,,9,3.5865252000221517,,,,,,,,,,,,,,,,,,,,,,,,,,,,031519_p1,001,2019_Mar_15_1230,body_behavioural,3.0.4,60.22172845633561,
6,"“Well, Jessie, this makes perfect sense. ",3,3,None,,,,0,6,6,6,,,,,0,21,21,21,,,,,,,,,,,,,,,,,,,,,,,,,,,,,,,1,0.9007270549773239,,,,,,,,,,,,,,,,,,,,,,,,,,,,031519_p1,001,2019_Mar_15_1230,body_behavioural,3.0.4,60.22172845633561,
6,"If you feel this way, then I don’t want to keep boring you, and I agree, let’s part ways once we make it back.",3,3,None,,,,0,6,6,6,,,,,0,22,22,22,,,,,,,,,,,,,,,,,,,,,,,,,,,,,,,1,2.369818117003888,,,,,,,,,,,,,,,,,,,,,,,,,,,,031519_p1,001,2019_Mar_15_1230,body_behavioural,3.0.4,60.22172845633561,
6,You should’ve spoken up about my apparent intolerability before you decided to plan this vacation.”,3,3,None,,,,0,6,6,6,,,,,0,23,23,23,,,,,,,,,,,,,,,,,,,,,,,,,,,,,,,1,2.603079330001492,,,,,,,,,,,,,,,,,,,,,,,,,,,,031519_p1,001,2019_Mar_15_1230,body_behavioural,3.0.4,60.22172845633561,
6,"He was clearly hurt, but thought it was pointless to argue. ",3,3,None,,,,0,6,6,6,,,,,0,24,24,24,,,,,,,,,,,,,,,,,,,,,,,,,,,,,,,1,1.3527464449871331,,,,,,,,,,,,,,,,,,,,,,,,,,,,031519_p1,001,2019_Mar_15_1230,body_behavioural,3.0.4,60.22172845633561,
6,"They finally made it to the gate, just as they heard the final call for passengers boarding their flight.",3,3,None,,,,0,6,6,6,,,,,0,25,25,25,,,,,,,,,,,,,,,,,,,,,,,,,,,,,,,1,2.586276815010933,,,,,,,,,,,,,,,,,,,,,,,,,,,,031519_p1,001,2019_Mar_15_1230,body_behavioural,3.0.4,60.22172845633561,
6,"They scanned their tickets, and the annoyed flight attendant shooed them onto the jet bridge and then closed the door behind them.",4,3,None,,,,0,6,6,6,,,,,0,26,26,26,,,,,,,,,,,,,,,,,,,,,,,,,,,,,,,1,3.5195038150122855,,,,,,,,,,,,,,,,,,,,,,,,,,,,031519_p1,001,2019_Mar_15_1230,body_behavioural,3.0.4,60.22172845633561,
6,"Luckily, they had forgotten to arrange seats next to each other on the flight back.",4,3,None,,,,0,6,6,6,,,,,0,27,27,27,,,,,,,,,,,,,,,,,,,,,,,,,,,,,,,1,3.8366019100067206,,,,,,,,,,,,,,,,,,,,,,,,,,,,031519_p1,001,2019_Mar_15_1230,body_behavioural,3.0.4,60.22172845633561,
6,"They both had first-class tickets, but Jessie was headed for seat 1B while Calvin's seat was 4F. ",4,3,None,,,,0,6,6,6,,,,,0,28,28,28,,,,,,,,,,,,,,,,,,,,,,,,,,,,,,,1,3.2532404719968326,,,,,,,,,,,,,,,,,,,,,,,,,,,,031519_p1,001,2019_Mar_15_1230,body_behavioural,3.0.4,60.22172845633561,
6,"Before Jessie sat down, she took a deep breath and then awkwardly shook Calvin’s hand, mumbling, “Well, have a nice flight.” ",4,4,None,,,,0,6,6,6,,,,,0,29,29,29,,,,,,,,,,,,,,,,,,,,,,,,,,,,,,,1,8.020183530024951,,,,,,,,,,,,,,,,,,,,,,,,,,,,031519_p1,001,2019_Mar_15_1230,body_behavioural,3.0.4,60.22172845633561,
6,He laughed in disbelief and walked to his window seat three rows back to get ready for takeoff.,4,4,None,,,,0,6,6,6,,,,,0,30,30,30,,,,,,,,,,,,,,,,,,,,,,,,,,,,,,,1,2.169800080009736,,,,,,,,,,,,,,,,,,,,,,,,,,,,031519_p1,001,2019_Mar_15_1230,body_behavioural,3.0.4,60.22172845633561,
6,Both were upset but glad that they would have this flight to mull things over and recenter. ,4,4,None,,,,0,6,6,6,,,,,0,31,31,31,,,,,,,,,,,,,,,,,,,,,,,,,,,,,,,1,2.1198024969780818,,,,,,,,,,,,,,,,,,,,,,,,,,,,031519_p1,001,2019_Mar_15_1230,body_behavioural,3.0.4,60.22172845633561,
6,,,,,,,,0,6,6,6,,,,,,,,,,,,,,,,,,,,,,,,,,,,,,,,,,,,,,,,,,,,,,,,,,,,,,,,,,,,,,,,,,,,031519_p1,001,2019_Mar_15_1230,body_behavioural,3.0.4,60.22172845633561,
7,,,,,,,,0,7,7,7,0,0,0,0,,,,,,,,,,,,,,,,,,,,,,,,,,,,,space,1.5009416549874004,space,0.9030582619889174,space,0.636264505010331,,,,,,,,,,,,,,,,,,,,,,,,,,,,,,031519_p1,001,2019_Mar_15_1230,body_behavioural,3.0.4,60.22172845633561,
7,"Alvira and Senna walked into the restaurant hand in sweaty hand with quite different expectations: Senna was going to propose tonight, and Alvira had no idea.",1,1,21.0,None,None,,0,7,7,7,,,,,0,0,0,0,,,,,,,,,,,,,,,,,,,,,,,,,,,,,,,1,11.137140484992415,,,,,,,,,,,,,,,,,,,,,,,,,,,,031519_p1,001,2019_Mar_15_1230,body_behavioural,3.0.4,60.22172845633561,
7,"He took a deep breath, trying to calm his nerves as worst case scenarios ran through his mind. ",1,1,None,None,None,,0,7,7,7,,,,,0,1,1,1,,,,,,,,,,,,,,,,,,,,,,,,,,,,,,,1,5.003383901988855,,,,,,,,,,,,,,,,,,,,,,,,,,,,031519_p1,001,2019_Mar_15_1230,body_behavioural,3.0.4,60.22172845633561,
7,The entrance of the restaurant was dazzling; chandeliers spread their warm light onto the delicate place settings of all the tables filled with guests dressed to the nines. ,1,1,None,None,None,,0,7,7,7,,,,,0,2,2,2,,,,,,,,,,,,,,,,,,,,,,,,,,,,,,,9,8.203237370005809,,,,,,,,,,,,,,,,,,,,,,,,,,,,031519_p1,001,2019_Mar_15_1230,body_behavioural,3.0.4,60.22172845633561,
7,"Through the floor-to-ceiling arched windows of the back wall, they saw the sun setting onto the Pacific ocean.",1,1,None,None,None,,0,7,7,7,,,,,0,3,3,3,,,,,,,,,,,,,,,,,,,,,,,,,,,,,,,1,2.253147874987917,,,,,,,,,,,,,,,,,,,,,,,,,,,,031519_p1,001,2019_Mar_15_1230,body_behavioural,3.0.4,60.22172845633561,
7,"This was surely one of the best restaurants on the west coast, situated right on the beach.",1,1,None,None,None,,0,7,7,7,,,,,0,4,4,4,,,,,,,,,,,,,,,,,,,,,,,,,,,,,,,1,1.5366835849999916,,,,,,,,,,,,,,,,,,,,,,,,,,,,031519_p1,001,2019_Mar_15_1230,body_behavioural,3.0.4,60.22172845633561,
7,"Senna gave his name to the host, who quickly located their reservation with an almost comically wide customer-service smile.",1,1,None,7.0,None,,0,7,7,7,,,,,0,5,5,5,,,,,,,,,,,,,,,,,,,,,,,,,,,,,,,9,2.28663785502431,,,,,,,,,,,,,,,,,,,,,,,,,,,,031519_p1,001,2019_Mar_15_1230,body_behavioural,3.0.4,60.22172845633561,
7,He led them to a table right by the window.,2,1,None,None,None,,0,7,7,7,,,,,0,6,6,6,,,,,,,,,,,,,,,,,,,,,,,,,,,,,,,1,0.8035893700143788,,,,,,,,,,,,,,,,,,,,,,,,,,,,031519_p1,001,2019_Mar_15_1230,body_behavioural,3.0.4,60.22172845633561,
7,"He brought out some very small menus, with a short list of the celebrity chef's carefully selected daily dishes written in a loopy, cursive font unadorned by any mention of prices.",2,1,None,None,9.0,,0,7,7,7,,,,,0,7,7,7,,,,,,,,,,,,,,,,,,,,,,,,,,,,,,,9,5.253349406993948,,,,,,,,,,,,,,,,,,,,,,,,,,,,031519_p1,001,2019_Mar_15_1230,body_behavioural,3.0.4,60.22172845633561,
7,Senna slipped off to the bathroom to check to make sure the ring was in order.,2,2,None,None,None,,0,7,7,7,,,,,0,8,8,8,,,,,,,,,,,,,,,,,,,,,,,,,,,,,,,9,1.7361807719862554,,,,,,,,,,,,,,,,,,,,,,,,,,,,031519_p1,001,2019_Mar_15_1230,body_behavioural,3.0.4,60.22172845633561,
7,"The ring contained a canary diamond that had been in his grandmother’s wedding ring, and it was a brilliant stone that was accentuated by the small white diamonds encircling it.",2,2,None,None,None,,0,7,7,7,,,,,0,9,9,9,,,,,,,,,,,,,,,,,,,,,,,,,,,,,,,1,2.236391921993345,,,,,,,,,,,,,,,,,,,,,,,,,,,,031519_p1,001,2019_Mar_15_1230,body_behavioural,3.0.4,60.22172845633561,
7,"He walked back to the table after handing the small, velvet box to a waiter at the front podium.",2,2,None,6.0,None,,0,7,7,7,,,,,0,10,10,10,,,,,,,,,,,,,,,,,,,,,,,,,,,,,,,1,2.5198013850022107,,,,,,,,,,,,,,,,,,,,,,,,,,,,031519_p1,001,2019_Mar_15_1230,body_behavioural,3.0.4,60.22172845633561,
7,He came back just as their waiter was approaching the table to get their order.,3,2,None,None,None,,0,7,7,7,,,,,0,11,11,11,,,,,,,,,,,,,,,,,,,,,,,,,,,,,,,1,1.7363163080008235,,,,,,,,,,,,,,,,,,,,,,,,,,,,031519_p1,001,2019_Mar_15_1230,body_behavioural,3.0.4,60.22172845633561,
7,"Senna ordered the oysters with garlic-parmesan sauce, and Alvira ordered the sauteed sea scallops with caramelized apples. ",3,2,None,None,None,,0,7,7,7,,,,,0,12,12,12,,,,,,,,,,,,,,,,,,,,,,,,,,,,,,,1,3.9029925049981102,,,,,,,,,,,,,,,,,,,,,,,,,,,,031519_p1,001,2019_Mar_15_1230,body_behavioural,3.0.4,60.22172845633561,
7,"“Excellent choices,” the waiter said with a subsequent brisk spin away from the table.",3,2,None,None,None,,0,7,7,7,,,,,0,13,13,13,,,,,,,,,,,,,,,,,,,,,,,,,,,,,,,1,2.436523840005975,,,,,,,,,,,,,,,,,,,,,,,,,,,,031519_p1,001,2019_Mar_15_1230,body_behavioural,3.0.4,60.22172845633561,
7,"“What a beautiful place, Senna. ",3,2,None,None,None,,0,7,7,7,,,,,0,14,14,14,,,,,,,,,,,,,,,,,,,,,,,,,,,,,,,1,0.9531031250080559,,,,,,,,,,,,,,,,,,,,,,,,,,,,031519_p1,001,2019_Mar_15_1230,body_behavioural,3.0.4,60.22172845633561,
7,"Really this is too much just to celebrate the first tomatoes I grew in the garden, like, this is absurd,” Alvira said.",3,2,None,None,None,,0,7,7,7,,,,,0,15,15,15,,,,,,,,,,,,,,,,,,,,,,,,,,,,,,,1,4.967636372020934,,,,,,,,,,,,,,,,,,,,,,,,,,,,031519_p1,001,2019_Mar_15_1230,body_behavioural,3.0.4,60.22172845633561,
7,"Senna laughed and said, “No, those were really the best tomatoes I’ve ever had. ",3,2,None,None,None,,0,7,7,7,,,,,0,16,16,16,,,,,,,,,,,,,,,,,,,,,,,,,,,,,,,1,2.4842439799977,,,,,,,,,,,,,,,,,,,,,,,,,,,,031519_p1,001,2019_Mar_15_1230,body_behavioural,3.0.4,60.22172845633561,
7,We had to celebrate.” ,3,2,None,None,None,,0,7,7,7,,,,,0,17,17,17,,,,,,,,,,,,,,,,,,,,,,,,,,,,,,,1,0.6359730699914508,,,,,,,,,,,,,,,,,,,,,,,,,,,,031519_p1,001,2019_Mar_15_1230,body_behavioural,3.0.4,60.22172845633561,
7,"They talked and laughed as the sun sank below the horizon, and the glow from the ocean was replaced by the glow from the chandeliers.",3,2,None,8.0,None,,0,7,7,7,,,,,0,18,18,18,,,,,,,,,,,,,,,,,,,,,,,,,,,,,,,1,3.4194560600153636,,,,,,,,,,,,,,,,,,,,,,,,,,,,031519_p1,001,2019_Mar_15_1230,body_behavioural,3.0.4,60.22172845633561,
7,"The waiter eventually returned with their meals, and everything was even more delicious than they had expected, especially the oysters, which Senna said tasted like the ocean. ",4,2,None,None,None,,0,7,7,7,,,,,0,19,19,19,,,,,,,,,,,,,,,,,,,,,,,,,,,,,,,1,3.8694995770056266,,,,,,,,,,,,,,,,,,,,,,,,,,,,031519_p1,001,2019_Mar_15_1230,body_behavioural,3.0.4,60.22172845633561,
7,Then he paused and looked at Alvira meaningfully. ,4,2,None,None,None,,0,7,7,7,,,,,0,20,20,20,,,,,,,,,,,,,,,,,,,,,,,,,,,,,,,1,1.33624660197529,,,,,,,,,,,,,,,,,,,,,,,,,,,,031519_p1,001,2019_Mar_15_1230,body_behavioural,3.0.4,60.22172845633561,
7, “It’s really been the best three years of my life with you.,4,2,None,None,None,,0,7,7,7,,,,,0,21,21,21,,,,,,,,,,,,,,,,,,,,,,,,,,,,,,,1,1.769886383000994,,,,,,,,,,,,,,,,,,,,,,,,,,,,031519_p1,001,2019_Mar_15_1230,body_behavioural,3.0.4,60.22172845633561,
7,"I couldn’t imagine it any other way, and I don’t want to.",4,2,None,None,None,,0,7,7,7,,,,,0,22,22,22,,,,,,,,,,,,,,,,,,,,,,,,,,,,,,,1,1.5197012849966995,,,,,,,,,,,,,,,,,,,,,,,,,,,,031519_p1,001,2019_Mar_15_1230,body_behavioural,3.0.4,60.22172845633561,
7,"I really want to spend the rest of my years eating garden tomatoes, whatever it is, with you.” ",4,2,None,None,None,,0,7,7,7,,,,,0,23,23,23,,,,,,,,,,,,,,,,,,,,,,,,,,,,,,,1,3.553348339977674,,,,,,,,,,,,,,,,,,,,,,,,,,,,031519_p1,001,2019_Mar_15_1230,body_behavioural,3.0.4,60.22172845633561,
7,"Alvira smiled, “I want the same with you too, Senna.” ",4,2,None,None,17.0,,0,7,7,7,,,,,0,24,24,24,,,,,,,,,,,,,,,,,,,,,,,,,,,,,,,1,1.3698993700090796,,,,,,,,,,,,,,,,,,,,,,,,,,,,031519_p1,001,2019_Mar_15_1230,body_behavioural,3.0.4,60.22172845633561,
7,"Senna nodded at the waiter who had been watching attentively, and he quickly strode over to place a small, elegant cake topped with the ring in front of Alvira. ",4,3,None,None,None,,0,7,7,7,,,,,0,25,25,25,,,,,,,,,,,,,,,,,,,,,,,,,,,,,,,1,6.570126496982994,,,,,,,,,,,,,,,,,,,,,,,,,,,,031519_p1,001,2019_Mar_15_1230,body_behavioural,3.0.4,60.22172845633561,
7,Her eyes widened in shock when she realized what she was looking at.,4,3,None,None,None,,0,7,7,7,,,,,0,26,26,26,,,,,,,,,,,,,,,,,,,,,,,,,,,,,,,1,2.0865527070127428,,,,,,,,,,,,,,,,,,,,,,,,,,,,031519_p1,001,2019_Mar_15_1230,body_behavioural,3.0.4,60.22172845633561,
7,"“Alvira, will you marry me? ",4,3,None,None,None,,0,7,7,7,,,,,0,27,27,27,,,,,,,,,,,,,,,,,,,,,,,,,,,,,,,1,0.7673189179913606,,,,,,,,,,,,,,,,,,,,,,,,,,,,031519_p1,001,2019_Mar_15_1230,body_behavioural,3.0.4,60.22172845633561,
7,"I love you, and I will never stop loving you.” ",4,3,None,None,None,,0,7,7,7,,,,,0,28,28,28,,,,,,,,,,,,,,,,,,,,,,,,,,,,,,,1,1.0363685849879403,,,,,,,,,,,,,,,,,,,,,,,,,,,,031519_p1,001,2019_Mar_15_1230,body_behavioural,3.0.4,60.22172845633561,
7,Alvira started to cry.,4,3,None,None,None,,0,7,7,7,,,,,0,29,29,29,,,,,,,,,,,,,,,,,,,,,,,,,,,,,,,1,0.7362735370115843,,,,,,,,,,,,,,,,,,,,,,,,,,,,031519_p1,001,2019_Mar_15_1230,body_behavioural,3.0.4,60.22172845633561,
7,"The room became silent, and everyone turned to their table. ",4,3,None,None,5.0,,0,7,7,7,,,,,0,30,30,30,,,,,,,,,,,,,,,,,,,,,,,,,,,,,,,1,1.603114811994601,,,,,,,,,,,,,,,,,,,,,,,,,,,,031519_p1,001,2019_Mar_15_1230,body_behavioural,3.0.4,60.22172845633561,
7,"“Yes, of course, yes!” she shouted as she wiped away tears.",4,4,None,None,None,,0,7,7,7,,,,,0,31,31,31,,,,,,,,,,,,,,,,,,,,,,,,,,,,,,,1,1.5340454970137216,,,,,,,,,,,,,,,,,,,,,,,,,,,,031519_p1,001,2019_Mar_15_1230,body_behavioural,3.0.4,60.22172845633561,
7,The neighboring tables exploded in applause.,4,4,None,None,None,,0,7,7,7,,,,,0,32,32,32,,,,,,,,,,,,,,,,,,,,,,,,,,,,,,,1,1.0363079569942784,,,,,,,,,,,,,,,,,,,,,,,,,,,,031519_p1,001,2019_Mar_15_1230,body_behavioural,3.0.4,60.22172845633561,
7,The waiter returned with a bottle of champagne and popped it. ,4,4,None,None,None,,0,7,7,7,,,,,0,33,33,33,,,,,,,,,,,,,,,,,,,,,,,,,,,,,,,1,1.620216823008377,,,,,,,,,,,,,,,,,,,,,,,,,,,,031519_p1,001,2019_Mar_15_1230,body_behavioural,3.0.4,60.22172845633561,
7,"All of this went unnoticed by Senna and Alvira as they looked into each others’ eyes, and he slipped the ring onto her finger. ",4,4,None,None,None,,0,7,7,7,,,,,0,34,34,34,,,,,,,,,,,,,,,,,,,,,,,,,,,,,,,1,4.53674136500922,,,,,,,,,,,,,,,,,,,,,,,,,,,,031519_p1,001,2019_Mar_15_1230,body_behavioural,3.0.4,60.22172845633561,
7,"She held up her hand to admire it, and her glittering tears of joy matched the shine from her ring.   
",4,4,None,17.0,5.0,,0,7,7,7,,,,,0,35,35,35,,,,,,,,,,,,,,,,,,,,,,,,,,,,,,,1,2.436018195003271,,,,,,,,,,,,,,,,,,,,,,,,,,,,031519_p1,001,2019_Mar_15_1230,body_behavioural,3.0.4,60.22172845633561,
7,,,,,,,,0,7,7,7,,,,,,,,,,,,,,,,,,,,,,,,,,,,,,,,,,,,,,,,,,,,,,,,,,,,,,,,,,,,,,,,,,,,031519_p1,001,2019_Mar_15_1230,body_behavioural,3.0.4,60.22172845633561,
,,,,,,,,,,,,,,,,,,,,,,,,,,,,,,,,,,,,,,,,,,,,,,,,,,,,1222.2730918249872,space,0.9863719950080849,,,,,,,,,,,,,,,,,,,,,,,,,031519_p1,001,2019_Mar_15_1230,body_behavioural,3.0.4,60.22172845633561,
,,,,,,,The next task in the experiment is to recall each story to the best of your ability.,,,,,,,,,,,,,0,0,0,0,,,,,,,,,,,,,,,,,,,,,,,,,,,,,,,,space,1.9864521920098923,,,,,,,,,,,,,,,,,,,,,,,031519_p1,001,2019_Mar_15_1230,body_behavioural,3.0.4,60.22172845633561,
,,,,,,,"You will be presented with the story title, names, the images, and a blank text box for each story.",,,,,,,,,,,,,0,1,1,1,,,,,,,,,,,,,,,,,,,,,,,,,,,,,,,,space,5.186637487000553,,,,,,,,,,,,,,,,,,,,,,,031519_p1,001,2019_Mar_15_1230,body_behavioural,3.0.4,60.22172845633561,
,,,,,,,Describe the story with as many details as you can remember in the space provided. ,,,,,,,,,,,,,0,2,2,2,,,,,,,,,,,,,,,,,,,,,,,,,,,,,,,,space,3.1364952200092375,,,,,,,,,,,,,,,,,,,,,,,031519_p1,001,2019_Mar_15_1230,body_behavioural,3.0.4,60.22172845633561,
,,,,,,,"When you are finished recalling one story, to move onto the next one hit ‘return’. ",,,,,,,,,,,,,0,3,3,3,,,,,,,,,,,,,,,,,,,,,,,,,,,,,,,,space,3.6860500650072936,,,,,,,,,,,,,,,,,,,,,,,031519_p1,001,2019_Mar_15_1230,body_behavioural,3.0.4,60.22172845633561,
,,,,,,,There is a 5 minute time limit to make your response. ,,,,,,,,,,,,,0,4,4,4,,,,,,,,,,,,,,,,,,,,,,,,,,,,,,,,space,4.386644336977042,,,,,,,,,,,,,,,,,,,,,,,031519_p1,001,2019_Mar_15_1230,body_behavioural,3.0.4,60.22172845633561,
0,,,,,,,,,,,,,,,,,,,,,,,,0,0,0,0,,,,,,,,,,,,,,,,,,,,,,,,,,,,,,space,0.7363864750077482,"Charlie entreprise is looking to invest in alma's project. while sitting in class, he announces their decision to her but saying that instead of investing 30 000$ they will only only invest 15 000$. alma stands her ground defending the fact that cutting the budget by half will not sutsain the project fully. charlie gives in and they agree to meet the day after to sign the papers. ",,,,,,,,,,,,,,,,,,,,031519_p1,001,2019_Mar_15_1230,body_behavioural,3.0.4,60.22172845633561,
1,,,,,,,,,,,,,,,,,,,,,,,,0,1,1,1,,,,,,,,,,,,,,,,,,,,,,,,,,,,,,space,1.2198415800230578,"Jeff and william are together at the airport. they met at a bar the night before and discussed the possibility of making a business deal as both of them work in wine dustribution, then agreed to meet at the airport since they were both coincidentally flying the same day. after negotation they agree on a sending a sample to see if they want to actually establish a partnership, then each gets on his respective flight.",,,,,,,,,,,,,,,,,,,,031519_p1,001,2019_Mar_15_1230,body_behavioural,3.0.4,60.22172845633561,
2,,,,,,,,,,,,,,,,,,,,,,,,0,2,2,2,,,,,,,,,,,,,,,,,,,,,,,,,,,,,,space,1.353124579996802,"Maria and henry are a couple. maria is going to study abroad and has decided to break up with henry in lecture as she believes long distance won't work and that breaking up now is better for both of them on the long term. in ancient philosophy class, as the professor is discussing aristotlean conceptions, maria announces her decision to henry who tears up and tries to convince her that they could make it work, and that he doesn't want to break. maria wants to give in but stands by her original decision. they both get out of class early and hug before parting ways as maria goes to grab her stuff from her dorm.",,,,,,,,,,,,,,,,,,,,031519_p1,001,2019_Mar_15_1230,body_behavioural,3.0.4,60.22172845633561,
3,,,,,,,,,,,,,,,,,,,,,,,,0,3,3,3,,,,,,,,,,,,,,,,,,,,,,,,,,,,,,space,2.303169238002738,"Simon and carina are at the grocery store to prepare for barbecues they are each hosting. they engage in conversation after carina makes a comment about the meat being cute to which simon jokingly responds. as they are at the check out, simon wants to make a romantic to gesture and offers to pay for carina's groceries. she thinks it is a bit ridiculous but laughs nonetheless and thanks him, he says that this supermarket encounter was kind of a date.  ",,,,,,,,,,,,,,,,,,,,031519_p1,001,2019_Mar_15_1230,body_behavioural,3.0.4,60.22172845633561,
4,,,,,,,,,,,,,,,,,,,,,,,,0,4,4,4,,,,,,,,,,,,,,,,,,,,,,,,,,,,,,space,1.0364040679996833,"Alex and chloe are at the grocery store. alex is plannibg on proposing. as they are buying jam he pulls out the ring but quickly retracts when she turns around suddenly. he sees his friend waiting outside and finally proposes at the check out line, she says yes and can't help but admire the glittery ring on her finger, and even goes as far as to present it to another customer's face. the other customer spart and let them go through check out, as chloe distratctedly pays 4$ in bill for the jam,  ",,,,,,,,,,,,,,,,,,,,031519_p1,001,2019_Mar_15_1230,body_behavioural,3.0.4,60.22172845633561,
5,,,,,,,,,,,,,,,,,,,,,,,,0,5,5,5,,,,,,,,,,,,,,,,,,,,,,,,,,,,,,space,0.9194797000091057,"James sees theresa walking through the doors of the restaurant, bumping into the glass door in the process. as they are both seated in the corner of the restaurant, james tries to make conversation with theresa who had pulled out her book. he asks if her forehead is okay, to which she responds by asking if he had ever been stung by a scorpion. james is confused and thinks theresa suffered a concussion and is talking nonsense but she quickly continues by telling him that she had been stung by a scorpion when studying abroad in egypt and that in comparison to that, walking into the class door is nothing. they engage more in conversation, he invites her to a concert and she agrees. they order food and james takes advantage of the opportunity to get closer to theresa. their food is bad but they are both excited to have met each other. as they get up to leave, therea almost walks into the glass door again. they laugh and part ways as james has to go to work, but agree to meet later at night to go to the concert together.  ",,,,,,,,,,,,,,,,,,,,031519_p1,001,2019_Mar_15_1230,body_behavioural,3.0.4,60.22172845633561,
6,,,,,,,,,,,,,,,,,,,,,,,,0,6,6,6,,,,,,,,,,,,,,,,,,,,,,,,,,,,,,space,1.0031512170098722,"Calvin and jessie are a couple at the aiport coming back from their vacation. jessie is annoyed with calvin's attitude and has decided to break up with him as she cannot stand his way of engaging in conversation just to direct it back to him anymore. at the airport, when he attempts once again to make conversation about how ineffective the security check of the airport is, she lashes out on him and proceeds to break with him. he walks away silently and she provocatively aks him why he doesn't have anything to say now. they get into an argument but hear the flight attendant calling their names for final boarding. fortunately they aren't seated next to each other, so shake hands and part ways on the plane. ",,,,,,,,,,,,,,,,,,,,031519_p1,001,2019_Mar_15_1230,body_behavioural,3.0.4,60.22172845633561,
7,,,,,,,,,,,,,,,,,,,,,,,,0,7,7,7,,,,,,,,,,,,,,,,,,,,,,,,,,,,,,space,2.486419830005616,"Senna and alvira are going to a high-end restaurant to supposedlycelebrate alvira growing her first tomatoes. senna is planning to propose. after being seated and ordering, senna makes his declaration and signals to the waiter to come forward with the cake and the ring. alvira tears up and says yes. everyone in the restaurant has realized what is going on and is watching the couple fondly, but they are focused on each other and on the perspective of their future together.",,,,,,,,,,,,,,,,,,,,031519_p1,001,2019_Mar_15_1230,body_behavioural,3.0.4,60.22172845633561,
,,,,,,,,,,,,,,,,,,,,,,,,,,,,,,,,,,,,,,,,,,,,,,,,,,,,,,,,,,,,2851.482660120004,space,0.9530967049940955,,,,,,,,,,,,,,,,,031519_p1,001,2019_Mar_15_1230,body_behavioural,3.0.4,60.22172845633561,
,,,,,,,The next part of the task is to answer 8 questions about each story.,,,,,,,,,,,,,,,,,,,,,0,0,0,0,,,,,,,,,,,,,,,,,,,,,,,,,,,,,,,,space,2.1866761400015093,,,,,,,,,,,,,,,031519_p1,001,2019_Mar_15_1230,body_behavioural,3.0.4,60.22172845633561,
,,,,,,,Some of the questions are not related to the perspective you were asked to assume.,,,,,,,,,,,,,,,,,,,,,0,1,1,1,,,,,,,,,,,,,,,,,,,,,,,,,,,,,,,,space,3.3363309480191674,,,,,,,,,,,,,,,031519_p1,001,2019_Mar_15_1230,body_behavioural,3.0.4,60.22172845633561,
,,,,,,,"We realize that we did not tell you to think of these questions during the story, but do your best to answer them.",,,,,,,,,,,,,,,,,,,,,0,2,2,2,,,,,,,,,,,,,,,,,,,,,,,,,,,,,,,,space,3.436661201994866,,,,,,,,,,,,,,,031519_p1,001,2019_Mar_15_1230,body_behavioural,3.0.4,60.22172845633561,
,,,,,,,"When you have finished typing your answer, hit ‘return’ to submit your answer and move onto the next question. ",,,,,,,,,,,,,,,,,,,,,0,3,3,3,,,,,,,,,,,,,,,,,,,,,,,,,,,,,,,,space,3.4365651150001213,,,,,,,,,,,,,,,031519_p1,001,2019_Mar_15_1230,body_behavioural,3.0.4,60.22172845633561,
0,,,,,,,,,,,,,,,,,,,,,,,,,,,,,,,,0,0,0,0,,,,,,,,,,,,,,,,,,,,,,,,They will go forward with alma's project and sign the papers,,,,,,space,0.5028439330053516,"Large, lots of students.",non-primed first,Economics.,I don't know,Next tuesday,I don't know,30 000$ ,Alma agrees ,They will go forward with alma's project and sign the papers,,,,031519_p1,001,2019_Mar_15_1230,body_behavioural,3.0.4,60.22172845633561,
1,,,,,,,,,,,,,,,,,,,,,,,,,,,,,,,,0,1,1,1,,,,,,,,,,,,,,,,,,,,,,,,I dont know,,,,,,space,0.8692908000084572,Wine,non-primed first,"Sample, 300$",Agreement,Futher discussion to see if they want to collaborate,I dont know,Check luggage,Content,I dont know,,,,031519_p1,001,2019_Mar_15_1230,body_behavioural,3.0.4,60.22172845633561,
2,,,,,,,,,,,,,,,,,,,,,,,,,,,,,,,,0,2,2,2,,,,,,,,,,,,,,,,,,,,,,,,Yes,,,,,,space,0.9527822529780678,"Big, wooden",primed first,"Ancient philosophy, aristotle","The form of animal and plants, categories",Tuesday,Anxious,She is going to study abroad,"Cries, tries to convince the other person not to break up",Yes,,,,031519_p1,001,2019_Mar_15_1230,body_behavioural,3.0.4,60.22172845633561,
3,,,,,,,,,,,,,,,,,,,,,,,,,,,,,,,,0,3,3,3,,,,,,,,,,,,,,,,,,,,,,,,I don't know,,,,,,space,0.8529581949987914,Simon ,primed first,Discussing meat choice for theirbarbecue,Simon,I don't know,"Large, lots of choice","Meat, chicken","Small check out line, do not wait long",I don't know,,,,031519_p1,001,2019_Mar_15_1230,body_behavioural,3.0.4,60.22172845633561,
4,,,,,,,,,,,,,,,,,,,,,,,,,,,,,,,,0,4,4,4,,,,,,,,,,,,,,,,,,,,,,,,"People at the grocery store, friends, cashier",,,,,,space,0.8537859150092117,"Large, lots of choice",primed first,Jam,"Long check out line, do not wait because other clients part to let them pass","4$, bills",Nervous,"Glittery, larg diamond",No,"People at the grocery store, friends, cashier",,,,031519_p1,001,2019_Mar_15_1230,body_behavioural,3.0.4,60.22172845633561,
5,,,,,,,,,,,,,,,,,,,,,,,,,,,,,,,,0,5,5,5,,,,,,,,,,,,,,,,,,,,,,,,"James, has to go to work",,,,,,space,1.0030648420215584,I don't know,primed first,Large choice,"Omelette, milk, chocolate chip pancake","Don't like the food, thinkthe chef mixed up salt and  sugar",James because theresa walks into glass door,James asks if there's forehead is okay,"James, going to a concert","James, has to go to work",,,,031519_p1,001,2019_Mar_15_1230,body_behavioural,3.0.4,60.22172845633561,
6,,,,,,,,,,,,,,,,,,,,,,,,,,,,,,,,0,6,6,6,,,,,,,,,,,,,,,,,,,,,,,,No,,,,,,space,0.7529634069942404,2 hours,non-primed first,"Check in luggage, remove shoes","Angry, arguing","First class, jessie sits three rows in front of calvin",Ready and eager,Annoyed but calvin's attitude,"Angry, answers back",No,,,,031519_p1,001,2019_Mar_15_1230,body_behavioural,3.0.4,60.22172845633561,
7,,,,,,,,,,,,,,,,,,,,,,,,,,,,,,,,0,7,7,7,,,,,,,,,,,,,,,,,,,,,,,,"Waiter, people at the restaurant",,,,,,space,0.5531320350128226,"Beautiful decor, view on ocean",non-primed first,A lot choices,Oysters,Good food,Eager and nervous,I don't know,Waiter,"Waiter, people at the restaurant",,,,031519_p1,001,2019_Mar_15_1230,body_behavioural,3.0.4,60.22172845633561,
,,,,,,,,,,,,,,,,,,,,,,,,,,,,,,,,,,,,,,,,,,,,,,,,,,,,,,,,,,,,,,,,,,,,,,,,,,,,3491.5766484320047,space,0.7867024279839825,031519_p1,001,2019_Mar_15_1230,body_behavioural,3.0.4,60.22172845633561,
,,,,,,,,,,,,,,,,,,,,,,,,,,,,,,,,,,,,0,0,0,0,,,,,,,,,,,,,,,,,,,,,,,,,,,,,,,,,,,,,,,,031519_p1,001,2019_Mar_15_1230,body_behavioural,3.0.4,60.22172845633561,
,,,,,,,,,,,,,,,,,,,,,,,,,,,,,,,,,,,,1,0,1,0,,,,,,,,,,,,,,,,,,,,,,,,,,,,,,,,,,,,,,,,031519_p1,001,2019_Mar_15_1230,body_behavioural,3.0.4,60.22172845633561,
,,,,,,,,,,,,,,,,,,,,,,,,,,,,,,,,,,,,2,0,2,0,,,,,,,,,,,,,,,,,,,,,,,,,,,,,,,,,,,,,,,,031519_p1,001,2019_Mar_15_1230,body_behavioural,3.0.4,60.22172845633561,
,,,,,,,,,,,,,,,,,,,,,,,,,,,,,,,,,,,,3,0,3,0,,,,,,,,,,,,,,,,,,,,,,,,,,,,,,,,,,,,,,,,031519_p1,001,2019_Mar_15_1230,body_behavioural,3.0.4,60.22172845633561,
,,,,,,,,,,,,,,,,,,,,,,,,,,,,,,,,,,,,4,0,4,0,,,,,,,,,,,,,,,,,,,,,,,,,,,,,,,,,,,,,,,,031519_p1,001,2019_Mar_15_1230,body_behavioural,3.0.4,60.22172845633561,
