count,storyText,locationEvent,socialEvent,story,locationEventSize,socialEventSize,instructText,trials.thisRepN,trials.thisTrialN,trials.thisN,trials.thisIndex,trials_7.thisRepN,trials_7.thisTrialN,trials_7.thisN,trials_7.thisIndex,trials_2.thisRepN,trials_2.thisTrialN,trials_2.thisN,trials_2.thisIndex,trials_3.thisRepN,trials_3.thisTrialN,trials_3.thisN,trials_3.thisIndex,trials_4.thisRepN,trials_4.thisTrialN,trials_4.thisN,trials_4.thisIndex,trials_5.thisRepN,trials_5.thisTrialN,trials_5.thisN,trials_5.thisIndex,trials_6.thisRepN,trials_6.thisTrialN,trials_6.thisN,trials_6.thisIndex,trials_8.thisRepN,trials_8.thisTrialN,trials_8.thisN,trials_8.thisIndex,order of stories,order of perspectives,key_resp_8.keys,key_resp_8.rt,key_resp_5.keys,key_resp_5.rt,key_resp_7.keys,key_resp_7.rt,story_presses.keys,story_presses.rt,story time,key_resp_6.keys,key_resp_6.rt,key_resp_2.keys,key_resp_2.rt,key_resp_10.keys,key_resp_10.rt,recall,recall time,key_resp_12.keys,key_resp_12.rt,key_resp_3.keys,key_resp_3.rt,key_resp_11.keys,key_resp_11.rt,question1_answer,order of question,question2_answer,question3_answer,question4_answer,question5_answer,question6_answer,question7_answer,question8_answer,questions time,key_resp_13.keys,key_resp_13.rt,participant,session,date,expName,psychopyVersion,frameRate,
0,,,,,,,,0,0,0,0,0,0,0,0,,,,,,,,,,,,,,,,,,,,,,,,,[22 42 24 44 11 33 13 31],"['Social' 'Location' 'Location' 'Social' 'Social' 'Social' 'Location'
 'Location']",space,13.95590652199462,space,3.0195264450157993,space,2.3367259119986556,,,,,,,,,,,,,,,,,,,,,,,,,,,,,,031519_p3,001,2019_Mar_15_1513,body_behavioural,3.0.4,60.012032406309714,
0,"Sven and Isabel walked hurriedly from the cab into the Barcelona Airport after an incredible weekend with Isabel’s family, which had wiped away any doubts Sven had had about his decision to propose. ",1,1,22.0,,,,0,0,0,0,,,,,0,0,0,0,,,,,,,,,,,,,,,,,,,,,,,,,,,,,9,13.053773486986756,,,,,,,,,,,,,,,,,,,,,,,,,,,,031519_p3,001,2019_Mar_15_1513,body_behavioural,3.0.4,60.012032406309714,
0,"They were a little pressed for time, with only a little over an hour until their flight would take off to go back to the US, but they already had their online boarding passes and no checked luggage. ",1,1,None,,,,0,0,0,0,,,,,0,1,1,1,,,,,,,,,,,,,,,,,,,,,,,,,,,,,9,10.037124524998944,,,,,,,,,,,,,,,,,,,,,,,,,,,,031519_p3,001,2019_Mar_15_1513,body_behavioural,3.0.4,60.012032406309714,
0,"When Isabel stopped to rummage through her purse looking for her phone, Sven turned his back to her and took the velvet box out of his backpack, opening it to look at the ring he bought her.",1,2,None,,,,0,0,0,0,,,,,0,2,2,2,,,,,,,,,,,,,,,,,,,,,,,,,,,,,1,10.137024786963593,,,,,,,,,,,,,,,,,,,,,,,,,,,,031519_p3,001,2019_Mar_15_1513,body_behavioural,3.0.4,60.012032406309714,
0,"He had received her parents’ blessing during the trip, and he was almost giddy with excitement. ",1,2,None,,,,0,0,0,0,,,,,0,3,3,3,,,,,,,,,,,,,,,,,,,,,,,,,,,,,1,3.8865718449815176,,,,,,,,,,,,,,,,,,,,,,,,,,,,031519_p3,001,2019_Mar_15_1513,body_behavioural,3.0.4,60.012032406309714,
0,"He tilted the ring backward and forward, despite having already studied it daily since he had purchased it a few weeks ago. ",1,2,None,,,,0,0,0,0,,,,,0,4,4,4,,,,,,,,,,,,,,,,,,,,,,,,,,,,,1,6.7033869349979796,,,,,,,,,,,,,,,,,,,,,,,,,,,,031519_p3,001,2019_Mar_15_1513,body_behavioural,3.0.4,60.012032406309714,
0,"It was a simple design, with a clear, white diamond on a thin silver band.",1,2,None,,,,0,0,0,0,,,,,0,5,5,5,,,,,,,,,,,,,,,,,,,,,,,,,,,,,9,2.9867172800004482,,,,,,,,,,,,,,,,,,,,,,,,,,,,031519_p3,001,2019_Mar_15_1513,body_behavioural,3.0.4,60.012032406309714,
0,"“Sven, let’s go! ” Isabel said. ",1,2,None,,,,0,0,0,0,,,,,0,6,6,6,,,,,,,,,,,,,,,,,,,,,,,,,,,,,9,7.017944923019968,,,,,,,,,,,,,,,,,,,,,,,,,,,,031519_p3,001,2019_Mar_15_1513,body_behavioural,3.0.4,60.012032406309714,
0,Sven discretely closed the box and put it in his pocket.,1,2,None,,,,0,0,0,0,,,,,0,7,7,7,,,,,,,,,,,,,,,,,,,,,,,,,,,,,9,3.5198539900011383,,,,,,,,,,,,,,,,,,,,,,,,,,,,031519_p3,001,2019_Mar_15_1513,body_behavioural,3.0.4,60.012032406309714,
0," They entered the security line, weaving through the roped walkways to the front. ",2,2,None,,,,0,0,0,0,,,,,0,8,8,8,,,,,,,,,,,,,,,,,,,,,,,,,,,,,1,13.28742896701442,,,,,,,,,,,,,,,,,,,,,,,,,,,,031519_p3,001,2019_Mar_15_1513,body_behavioural,3.0.4,60.012032406309714,
0,"When they were up, Isabel realized her laptop was buried somewhere in her duffle bag. ",2,2,None,,,,0,0,0,0,,,,,0,9,9,9,,,,,,,,,,,,,,,,,,,,,,,,,,,,,1,5.686843006988056,,,,,,,,,,,,,,,,,,,,,,,,,,,,031519_p3,001,2019_Mar_15_1513,body_behavioural,3.0.4,60.012032406309714,
0,Sven had to hold the growing mound of objects she pulled from her bag until she unearthed the laptop.,2,2,None,,,,0,0,0,0,,,,,0,10,10,10,,,,,,,,,,,,,,,,,,,,,,,,,,,,,1,10.637032934988383,,,,,,,,,,,,,,,,,,,,,,,,,,,,031519_p3,001,2019_Mar_15_1513,body_behavioural,3.0.4,60.012032406309714,
0,She set it into a bin and then had to unstrap her leather boots and put everything else into the bins.,2,2,None,,,,0,0,0,0,,,,,0,11,11,11,,,,,,,,,,,,,,,,,,,,,,,,,,,,,1,2.73432311299257,,,,,,,,,,,,,,,,,,,,,,,,,,,,031519_p3,001,2019_Mar_15_1513,body_behavioural,3.0.4,60.012032406309714,
0,"Finally, she relieved Sven of his holding duties, and he hurriedly deposited his own backpack on the belt as the people behind them glared without shame. ",2,2,None,,,,0,0,0,0,,,,,0,12,12,12,,,,,,,,,,,,,,,,,,,,,,,,,,,,,1,6.652567291981541,,,,,,,,,,,,,,,,,,,,,,,,,,,,031519_p3,001,2019_Mar_15_1513,body_behavioural,3.0.4,60.012032406309714,
0,"Sven went into the millimeter wave scanner after Isabel, put his hands up, and the metal bars whirled around him.",2,2,None,,,,0,0,0,0,,,,,0,13,13,13,,,,,,,,,,,,,,,,,,,,,,,,,,,,,1,8.436440530000255,,,,,,,,,,,,,,,,,,,,,,,,,,,,031519_p3,001,2019_Mar_15_1513,body_behavioural,3.0.4,60.012032406309714,
0,"“Sir, please step to the side.",2,2,None,,,,0,0,0,0,,,,,0,14,14,14,,,,,,,,,,,,,,,,,,,,,,,,,,,,,1,2.1531974149984308,,,,,,,,,,,,,,,,,,,,,,,,,,,,031519_p3,001,2019_Mar_15_1513,body_behavioural,3.0.4,60.012032406309714,
0,"You need to empty your pockets,” the security guard said.",2,2,None,,,,0,0,0,0,,,,,0,15,15,15,,,,,,,,,,,,,,,,,,,,,,,,,,,,,1,1.9365296720061451,,,,,,,,,,,,,,,,,,,,,,,,,,,,031519_p3,001,2019_Mar_15_1513,body_behavioural,3.0.4,60.012032406309714,
0,"With a sinking feeling Sven realized the mistake he had made forgetting to put the ring back in his bag, as Isabel and the guard both looked at him expectantly.",2,2,None,,,,0,0,0,0,,,,,0,16,16,16,,,,,,,,,,,,,,,,,,,,,,,,,,,,,9,7.934616479964461,,,,,,,,,,,,,,,,,,,,,,,,,,,,031519_p3,001,2019_Mar_15_1513,body_behavioural,3.0.4,60.012032406309714,
0,"Sven,  deciding he would make the best of the situation, grabbed Isabel's hand as he reached into his pocket.",2,2,None,,,,0,0,0,0,,,,,0,17,17,17,,,,,,,,,,,,,,,,,,,,,,,,,,,,,1,6.287470125011168,,,,,,,,,,,,,,,,,,,,,,,,,,,,031519_p3,001,2019_Mar_15_1513,body_behavioural,3.0.4,60.012032406309714,
0,"He got down on one knee and, giggling slightly at her confused look, said, “Isabel, this isn't quite how I'd planned this, but - will you marry me?”",2,3,None,,,,0,0,0,0,,,,,0,18,18,18,,,,,,,,,,,,,,,,,,,,,,,,,,,,,9,3.7361837250064127,,,,,,,,,,,,,,,,,,,,,,,,,,,,031519_p3,001,2019_Mar_15_1513,body_behavioural,3.0.4,60.012032406309714,
0,The security guard gasped.,2,3,None,,,,0,0,0,0,,,,,0,19,19,19,,,,,,,,,,,,,,,,,,,,,,,,,,,,,9,2.670421461982187,,,,,,,,,,,,,,,,,,,,,,,,,,,,031519_p3,001,2019_Mar_15_1513,body_behavioural,3.0.4,60.012032406309714,
0,All the people who were putting their shoes back on and gathering their belongings stopped what they were doing and walked closer to the couple.,2,3,None,,,,0,0,0,0,,,,,0,20,20,20,,,,,,,,,,,,,,,,,,,,,,,,,,,,,1,4.136585414991714,,,,,,,,,,,,,,,,,,,,,,,,,,,,031519_p3,001,2019_Mar_15_1513,body_behavioural,3.0.4,60.012032406309714,
0,"Isabel was astonished, and far too shy to respond in front of the backup of passengers waiting behind them.",2,3,None,,,,0,0,0,0,,,,,0,21,21,21,,,,,,,,,,,,,,,,,,,,,,,,,,,,,1,2.6843539419933222,,,,,,,,,,,,,,,,,,,,,,,,,,,,031519_p3,001,2019_Mar_15_1513,body_behavioural,3.0.4,60.012032406309714,
0,"She attempted to stammer a response as she frantically grabbed her and Sven’s shoes, leaving Sven to retrieve their bags.",2,3,None,,,,0,0,0,0,,,,,0,22,22,22,,,,,,,,,,,,,,,,,,,,,,,,,,,,,9,7.503599710005801,,,,,,,,,,,,,,,,,,,,,,,,,,,,031519_p3,001,2019_Mar_15_1513,body_behavioural,3.0.4,60.012032406309714,
0,"Both of them slipping in their socked feet, she fled onto the concourse with Sven trying to catch up behind her.",3,3,None,,,,0,0,0,0,,,,,0,23,23,23,,,,,,,,,,,,,,,,,,,,,,,,,,,,,1,3.6198442580061965,,,,,,,,,,,,,,,,,,,,,,,,,,,,031519_p3,001,2019_Mar_15_1513,body_behavioural,3.0.4,60.012032406309714,
0,"Everyone in the terminal was looking at them with confusion as Sven, holding the bags in one hand and the open ring box in the other, finally caught up to her.",3,3,None,,,,0,0,0,0,,,,,0,24,24,24,,,,,,,,,,,,,,,,,,,,,,,,,,,,,1,5.486629111983348,,,,,,,,,,,,,,,,,,,,,,,,,,,,031519_p3,001,2019_Mar_15_1513,body_behavioural,3.0.4,60.012032406309714,
0,“Isabel?”,3,3,None,,,,0,0,0,0,,,,,0,25,25,25,,,,,,,,,,,,,,,,,,,,,,,,,,,,,9,1.8030440600123256,,,,,,,,,,,,,,,,,,,,,,,,,,,,031519_p3,001,2019_Mar_15_1513,body_behavioural,3.0.4,60.012032406309714,
0,"He watched her face as she turned, trying to read her expression.",3,3,None,,,,0,0,0,0,,,,,0,26,26,26,,,,,,,,,,,,,,,,,,,,,,,,,,,,,1,4.403379964991473,,,,,,,,,,,,,,,,,,,,,,,,,,,,031519_p3,001,2019_Mar_15_1513,body_behavioural,3.0.4,60.012032406309714,
0,"Her eyes were wide, but she was smiling as she hyperventilated, “Of course yes, Sven, yes!” ",3,4,None,,,,0,0,0,0,,,,,0,27,27,27,,,,,,,,,,,,,,,,,,,,,,,,,,,,,1,2.6364995749900118,,,,,,,,,,,,,,,,,,,,,,,,,,,,031519_p3,001,2019_Mar_15_1513,body_behavioural,3.0.4,60.012032406309714,
0,"They dropped their belongings and hugged, and Sven slipped the ring onto Isabel’s finger. ",3,4,None,,,,0,0,0,0,,,,,0,28,28,28,,,,,,,,,,,,,,,,,,,,,,,,,,,,,9,4.519872851960827,,,,,,,,,,,,,,,,,,,,,,,,,,,,031519_p3,001,2019_Mar_15_1513,body_behavioural,3.0.4,60.012032406309714,
0,"After getting their shoes back on, they practically skipped to the gate, filled with joy.",3,4,None,,,,0,0,0,0,,,,,0,29,29,29,,,,,,,,,,,,,,,,,,,,,,,,,,,,,1,4.403364160039928,,,,,,,,,,,,,,,,,,,,,,,,,,,,031519_p3,001,2019_Mar_15_1513,body_behavioural,3.0.4,60.012032406309714,
0,Sven high-fived a confused shoe-shine attendant as they passed.,3,4,None,,,,0,0,0,0,,,,,0,30,30,30,,,,,,,,,,,,,,,,,,,,,,,,,,,,,1,3.119860052014701,,,,,,,,,,,,,,,,,,,,,,,,,,,,031519_p3,001,2019_Mar_15_1513,body_behavioural,3.0.4,60.012032406309714,
0,"They sat down outside their gate, having actually made good time, until the attendant called for passengers.",3,4,None,,,,0,0,0,0,,,,,0,31,31,31,,,,,,,,,,,,,,,,,,,,,,,,,,,,,9,19.337814250029624,,,,,,,,,,,,,,,,,,,,,,,,,,,,031519_p3,001,2019_Mar_15_1513,body_behavioural,3.0.4,60.012032406309714,
0,"They boarded, sitting together in first class, and had a glass of champagne to celebrate the departure into their new life together.",4,4,None,,,,0,0,0,0,,,,,0,32,32,32,,,,,,,,,,,,,,,,,,,,,,,,,,,,,9,3.5198515899828635,,,,,,,,,,,,,,,,,,,,,,,,,,,,031519_p3,001,2019_Mar_15_1513,body_behavioural,3.0.4,60.012032406309714,
0,"Some of their neighboring passengers who had witnessed the proposal congratulated them, and a woman next to them showed them that she had been live-tweeting the whole event and that it was already going viral online.",4,4,None,,,,0,0,0,0,,,,,0,33,33,33,,,,,,,,,,,,,,,,,,,,,,,,,,,,,9,6.536873457022011,,,,,,,,,,,,,,,,,,,,,,,,,,,,031519_p3,001,2019_Mar_15_1513,body_behavioural,3.0.4,60.012032406309714,
0,"Isabel slid down in her seat with her hands over her face, both embarrassed and overjoyed at the same time.
",4,4,None,,,,0,0,0,0,,,,,0,34,34,34,,,,,,,,,,,,,,,,,,,,,,,,,,,,,1,5.1034439749782905,,,,,,,,,,,,,,,,,,,,,,,,,,,,031519_p3,001,2019_Mar_15_1513,body_behavioural,3.0.4,60.012032406309714,
0,,,,,,,,0,0,0,0,,,,,,,,,,,,,,,,,,,,,,,,,,,,,,,,,,,,,,,,,,,,,,,,,,,,,,,,,,,,,,,,,,031519_p3,001,2019_Mar_15_1513,body_behavioural,3.0.4,60.012032406309714,
1,,,,,,,,0,1,1,1,0,0,0,0,,,,,,,,,,,,,,,,,,,,,,,,,,,space,1.486382503004279,space,1.1863181220251136,space,1.6534965600003488,,,,,,,,,,,,,,,,,,,,,,,,,,,,,,031519_p3,001,2019_Mar_15_1513,body_behavioural,3.0.4,60.012032406309714,
1,David saw Anna for the first time when she burst into the airport with her bag skidding behind her half-zipped. ,1,1,42.0,,,,0,1,1,1,,,,,0,0,0,0,,,,,,,,,,,,,,,,,,,,,,,,,,,,,9,5.620056740008295,,,,,,,,,,,,,,,,,,,,,,,,,,,,031519_p3,001,2019_Mar_15_1513,body_behavioural,3.0.4,60.012032406309714,
1,"He had three hours until his flight, but she clearly had less than one.",1,1,None,,,,0,1,1,1,,,,,0,1,1,1,,,,,,,,,,,,,,,,,,,,,,,,,,,,,1,3.650981482001953,,,,,,,,,,,,,,,,,,,,,,,,,,,,031519_p3,001,2019_Mar_15_1513,body_behavioural,3.0.4,60.012032406309714,
1,"Anna’s yoga class had ran over, and afterwards, she, forgetting the time, had lingered to talk with friends. ",1,1,None,,,,0,1,1,1,,,,,0,2,2,2,,,,,,,,,,,,,,,,,,,,,,,,,,,,,1,4.034235402010381,,,,,,,,,,,,,,,,,,,,,,,,,,,,031519_p3,001,2019_Mar_15_1513,body_behavioural,3.0.4,60.012032406309714,
1,"Despite Anna's frazzled state, David was instantly intrigued by her.",1,1,None,,,,0,1,1,1,,,,,0,3,3,3,,,,,,,,,,,,,,,,,,,,,,,,,,,,,1,2.4696826200233772,,,,,,,,,,,,,,,,,,,,,,,,,,,,031519_p3,001,2019_Mar_15_1513,body_behavioural,3.0.4,60.012032406309714,
1,"He thought she was beautiful, and she reminded him of one of his favorite paintings.",1,1,None,,,,0,1,1,1,,,,,0,4,4,4,,,,,,,,,,,,,,,,,,,,,,,,,,,,,1,2.0702846269705333,,,,,,,,,,,,,,,,,,,,,,,,,,,,031519_p3,001,2019_Mar_15_1513,body_behavioural,3.0.4,60.012032406309714,
1,"Anna, a few strides into the airport, suddenly realized her shoes were untied, so she hunched over to tie them.",1,1,None,,,,0,1,1,1,,,,,0,5,5,5,,,,,,,,,,,,,,,,,,,,,,,,,,,,,9,2.6508711769711226,,,,,,,,,,,,,,,,,,,,,,,,,,,,031519_p3,001,2019_Mar_15_1513,body_behavioural,3.0.4,60.012032406309714,
1,David observed that someone with a tall cart of luggage was heading straight for where Anna was kneeling. ,1,1,None,,,,0,1,1,1,,,,,0,6,6,6,,,,,,,,,,,,,,,,,,,,,,,,,,,,,1,5.701090208021924,,,,,,,,,,,,,,,,,,,,,,,,,,,,031519_p3,001,2019_Mar_15_1513,body_behavioural,3.0.4,60.012032406309714,
1,Both Anna and the person driving the cart were oblivious to the impending collision. ,1,1,None,,,,0,1,1,1,,,,,0,7,7,7,,,,,,,,,,,,,,,,,,,,,,,,,,,,,1,2.3169628639589064,,,,,,,,,,,,,,,,,,,,,,,,,,,,031519_p3,001,2019_Mar_15_1513,body_behavioural,3.0.4,60.012032406309714,
1,"David had to intervene, and he ran in front of the cart pushing her out of the way just in the nick of time, and they tumbled on the airport floor. ",1,2,None,,,,0,1,1,1,,,,,0,8,8,8,,,,,,,,,,,,,,,,,,,,,,,,,,,,,1,4.570678360003512,,,,,,,,,,,,,,,,,,,,,,,,,,,,031519_p3,001,2019_Mar_15_1513,body_behavioural,3.0.4,60.012032406309714,
1,"Anna, bewildered, looked up and saw the cart pass by and then looked over at David. ",1,2,None,,,,0,1,1,1,,,,,0,9,9,9,,,,,,,,,,,,,,,,,,,,,,,,,,,,,9,3.653646007995121,,,,,,,,,,,,,,,,,,,,,,,,,,,,031519_p3,001,2019_Mar_15_1513,body_behavioural,3.0.4,60.012032406309714,
1,He gave a smile back.,1,2,None,,,,0,1,1,1,,,,,0,10,10,10,,,,,,,,,,,,,,,,,,,,,,,,,,,,,1,1.1194966880138963,,,,,,,,,,,,,,,,,,,,,,,,,,,,031519_p3,001,2019_Mar_15_1513,body_behavioural,3.0.4,60.012032406309714,
1,"“You alright?”, he said.",1,2,None,,,,0,1,1,1,,,,,0,11,11,11,,,,,,,,,,,,,,,,,,,,,,,,,,,,,1,0.7859566999832168,,,,,,,,,,,,,,,,,,,,,,,,,,,,031519_p3,001,2019_Mar_15_1513,body_behavioural,3.0.4,60.012032406309714,
1,"She whispered, “Uh yeah.",1,2,None,,,,0,1,1,1,,,,,0,12,12,12,,,,,,,,,,,,,,,,,,,,,,,,,,,,,1,0.6700202819774859,,,,,,,,,,,,,,,,,,,,,,,,,,,,031519_p3,001,2019_Mar_15_1513,body_behavioural,3.0.4,60.012032406309714,
1,I almost got smooshed by that cart.”,1,2,None,,,,0,1,1,1,,,,,0,13,13,13,,,,,,,,,,,,,,,,,,,,,,,,,,,,,1,1.4698754050186835,,,,,,,,,,,,,,,,,,,,,,,,,,,,031519_p3,001,2019_Mar_15_1513,body_behavioural,3.0.4,60.012032406309714,
1,Her head was still spinning as she stared at the handsome stranger who had saved her. ,1,2,None,,,,0,1,1,1,,,,,0,14,14,14,,,,,,,,,,,,,,,,,,,,,,,,,,,,,1,2.8843244899762794,,,,,,,,,,,,,,,,,,,,,,,,,,,,031519_p3,001,2019_Mar_15_1513,body_behavioural,3.0.4,60.012032406309714,
1,David helped her up and had to keep holding on to her arms to steady her even once they were standing.,1,2,None,,,,0,1,1,1,,,,,0,15,15,15,,,,,,,,,,,,,,,,,,,,,,,,,,,,,1,7.353772467002273,,,,,,,,,,,,,,,,,,,,,,,,,,,,031519_p3,001,2019_Mar_15_1513,body_behavioural,3.0.4,60.012032406309714,
1,"“I’m really late for my flight,” she said. ",1,2,None,,,,0,1,1,1,,,,,0,16,16,16,,,,,,,,,,,,,,,,,,,,,,,,,,,,,1,9.020178657025099,,,,,,,,,,,,,,,,,,,,,,,,,,,,031519_p3,001,2019_Mar_15_1513,body_behavioural,3.0.4,60.012032406309714,
1,"“Don't worry,” said David, "let me help you get to your gate." ",1,2,None,,,,0,1,1,1,,,,,0,17,17,17,,,,,,,,,,,,,,,,,,,,,,,,,,,,,1,2.019890765019227,,,,,,,,,,,,,,,,,,,,,,,,,,,,031519_p3,001,2019_Mar_15_1513,body_behavioural,3.0.4,60.012032406309714,
1,He waved off her half-hearted protests. ,1,2,None,,,,0,1,1,1,,,,,0,18,18,18,,,,,,,,,,,,,,,,,,,,,,,,,,,,,1,4.3695502250338905,,,,,,,,,,,,,,,,,,,,,,,,,,,,031519_p3,001,2019_Mar_15_1513,body_behavioural,3.0.4,60.012032406309714,
1,"“Really , I have plenty of time and nothing better to do.”",1,2,None,,,,0,1,1,1,,,,,0,19,19,19,,,,,,,,,,,,,,,,,,,,,,,,,,,,,1,1.8509918469935656,,,,,,,,,,,,,,,,,,,,,,,,,,,,031519_p3,001,2019_Mar_15_1513,body_behavioural,3.0.4,60.012032406309714,
1,They headed to the security line. ,2,2,None,,,,0,1,1,1,,,,,0,20,20,20,,,,,,,,,,,,,,,,,,,,,,,,,,,,,1,2.719316271948628,,,,,,,,,,,,,,,,,,,,,,,,,,,,031519_p3,001,2019_Mar_15_1513,body_behavioural,3.0.4,60.012032406309714,
1,"The line was not long, and they spent the time chatting and getting to know each other.",2,2,None,,,,0,1,1,1,,,,,0,21,21,21,,,,,,,,,,,,,,,,,,,,,,,,,,,,,9,1.9860138570074923,,,,,,,,,,,,,,,,,,,,,,,,,,,,031519_p3,001,2019_Mar_15_1513,body_behavioural,3.0.4,60.012032406309714,
1,It turned out that Anna and David went to the same high school but Anna had been 3 years older.,2,2,None,,,,0,1,1,1,,,,,0,22,22,22,,,,,,,,,,,,,,,,,,,,,,,,,,,,,1,3.5526998799759895,,,,,,,,,,,,,,,,,,,,,,,,,,,,031519_p3,001,2019_Mar_15_1513,body_behavioural,3.0.4,60.012032406309714,
1,When they got to the front of the line they took off their shoes and pulled off their coats.,2,3,None,,,,0,1,1,1,,,,,0,23,23,23,,,,,,,,,,,,,,,,,,,,,,,,,,,,,1,2.8367067020153627,,,,,,,,,,,,,,,,,,,,,,,,,,,,031519_p3,001,2019_Mar_15_1513,body_behavioural,3.0.4,60.012032406309714,
1,Both of them went through the metal detector without any problems. ,2,3,None,,,,0,1,1,1,,,,,0,24,24,24,,,,,,,,,,,,,,,,,,,,,,,,,,,,,1,4.103507407009602,,,,,,,,,,,,,,,,,,,,,,,,,,,,031519_p3,001,2019_Mar_15_1513,body_behavioural,3.0.4,60.012032406309714,
1,"Anna’s flight was in 20 minutes, and as she was rushing to put her shoes and coat back on, David asked her, “So when are you coming back?”",2,3,None,,,,0,1,1,1,,,,,0,25,25,25,,,,,,,,,,,,,,,,,,,,,,,,,,,,,9,6.153632600035053,,,,,,,,,,,,,,,,,,,,,,,,,,,,031519_p3,001,2019_Mar_15_1513,body_behavioural,3.0.4,60.012032406309714,
1,"“In a week, it’s a short trip,” Anna replied. ",2,3,None,,,,0,1,1,1,,,,,0,26,26,26,,,,,,,,,,,,,,,,,,,,,,,,,,,,,1,1.3200178550323471,,,,,,,,,,,,,,,,,,,,,,,,,,,,031519_p3,001,2019_Mar_15_1513,body_behavioural,3.0.4,60.012032406309714,
1,"“Me too,” David said.",2,3,None,,,,0,1,1,1,,,,,0,27,27,27,,,,,,,,,,,,,,,,,,,,,,,,,,,,,1,1.1694484719773754,,,,,,,,,,,,,,,,,,,,,,,,,,,,031519_p3,001,2019_Mar_15_1513,body_behavioural,3.0.4,60.012032406309714,
1,"He continued, “When we're back in town, is there any chance you'd want to get dinner?",2,3,None,,,,0,1,1,1,,,,,0,28,28,28,,,,,,,,,,,,,,,,,,,,,,,,,,,,,1,2.120114801975433,,,,,,,,,,,,,,,,,,,,,,,,,,,,031519_p3,001,2019_Mar_15_1513,body_behavioural,3.0.4,60.012032406309714,
1,"I know we just met, but when life throws a luggage cart at you it seems like we should listen. “",2,3,None,,,,0,1,1,1,,,,,0,29,29,29,,,,,,,,,,,,,,,,,,,,,,,,,,,,,1,4.019730365020223,,,,,,,,,,,,,,,,,,,,,,,,,,,,031519_p3,001,2019_Mar_15_1513,body_behavioural,3.0.4,60.012032406309714,
1,"She stopped packing, and said with a smile, “Yes I would love that.”",2,3,None,,,,0,1,1,1,,,,,0,30,30,30,,,,,,,,,,,,,,,,,,,,,,,,,,,,,1,1.2860214349930175,,,,,,,,,,,,,,,,,,,,,,,,,,,,031519_p3,001,2019_Mar_15_1513,body_behavioural,3.0.4,60.012032406309714,
1,Then they ran off to Anna’s gate which was at the end of the terminal. ,3,3,None,,,,0,1,1,1,,,,,0,31,31,31,,,,,,,,,,,,,,,,,,,,,,,,,,,,,9,2.319871379993856,,,,,,,,,,,,,,,,,,,,,,,,,,,,031519_p3,001,2019_Mar_15_1513,body_behavioural,3.0.4,60.012032406309714,
1,"David took put on her backpack, grabbed her hand, and navigated quickly through the crowds of people.",3,3,None,,,,0,1,1,1,,,,,0,32,32,32,,,,,,,,,,,,,,,,,,,,,,,,,,,,,1,6.934485264995601,,,,,,,,,,,,,,,,,,,,,,,,,,,,031519_p3,001,2019_Mar_15_1513,body_behavioural,3.0.4,60.012032406309714,
1,Anna was amazed at everything that was happening; she had arrived at the airport doubtful that she would make it and was now confident that she would due to this handsome and kind man she just met.,3,3,None,,,,0,1,1,1,,,,,0,33,33,33,,,,,,,,,,,,,,,,,,,,,,,,,,,,,1,5.736761079984717,,,,,,,,,,,,,,,,,,,,,,,,,,,,031519_p3,001,2019_Mar_15_1513,body_behavioural,3.0.4,60.012032406309714,
1,"As they approached her gate, Anna fished out a crumbled business card from her pocket and handed it to David, who handed her the backpack, and he promised to call her next week.",3,4,None,,,,0,1,1,1,,,,,0,34,34,34,,,,,,,,,,,,,,,,,,,,,,,,,,,,,1,6.420195491984487,,,,,,,,,,,,,,,,,,,,,,,,,,,,031519_p3,001,2019_Mar_15_1513,body_behavioural,3.0.4,60.012032406309714,
1,She gave him one last embarrassed smile and approached the flight attendant who scanned her ticket. ,3,4,None,,,,0,1,1,1,,,,,0,35,35,35,,,,,,,,,,,,,,,,,,,,,,,,,,,,,1,2.203065472014714,,,,,,,,,,,,,,,,,,,,,,,,,,,,031519_p3,001,2019_Mar_15_1513,body_behavioural,3.0.4,60.012032406309714,
1,"Finally, she boarded the plane, sliding into her window seat located all the way in the back of the plane.",4,4,None,,,,0,1,1,1,,,,,0,36,36,36,,,,,,,,,,,,,,,,,,,,,,,,,,,,,9,2.4874613800202496,,,,,,,,,,,,,,,,,,,,,,,,,,,,031519_p3,001,2019_Mar_15_1513,body_behavioural,3.0.4,60.012032406309714,
1,"Barely containing her glee, she ignored the grumbles of complaint as she squeezed past the other passengers in her row and settled back in her seat. ",4,4,None,,,,0,1,1,1,,,,,0,37,37,37,,,,,,,,,,,,,,,,,,,,,,,,,,,,,1,3.317607919976581,,,,,,,,,,,,,,,,,,,,,,,,,,,,031519_p3,001,2019_Mar_15_1513,body_behavioural,3.0.4,60.012032406309714,
1,"She was thankful that she had not only made it onto the plane in time, but also that she had been clumsy enough to forget to tie her shoes.",4,4,None,,,,0,1,1,1,,,,,0,38,38,38,,,,,,,,,,,,,,,,,,,,,,,,,,,,,1,6.103513124980964,,,,,,,,,,,,,,,,,,,,,,,,,,,,031519_p3,001,2019_Mar_15_1513,body_behavioural,3.0.4,60.012032406309714,
1,,,,,,,,0,1,1,1,,,,,,,,,,,,,,,,,,,,,,,,,,,,,,,,,,,,,,,,,,,,,,,,,,,,,,,,,,,,,,,,,,031519_p3,001,2019_Mar_15_1513,body_behavioural,3.0.4,60.012032406309714,
2,,,,,,,,0,2,2,2,0,0,0,0,,,,,,,,,,,,,,,,,,,,,,,,,,,space,1.069639572990127,space,0.48638646001927555,space,0.6862244100193493,,,,,,,,,,,,,,,,,,,,,,,,,,,,,,031519_p3,001,2019_Mar_15_1513,body_behavioural,3.0.4,60.012032406309714,
2,"Lana walked into lecture holding hands with her boyfriend, Aaron, who was trying to contain his excitement and anticipation for proposing to Lana in this class. ",1,1,24.0,,,,0,2,2,2,,,,,0,0,0,0,,,,,,,,,,,,,,,,,,,,,,,,,,,,,9,12.854272525000852,,,,,,,,,,,,,,,,,,,,,,,,,,,,031519_p3,001,2019_Mar_15_1513,body_behavioural,3.0.4,60.012032406309714,
2,"Lana was lost in thought, still puzzling over a calculus problem on her problem set due that night.",1,1,None,,,,0,2,2,2,,,,,0,1,1,1,,,,,,,,,,,,,,,,,,,,,,,,,,,,,1,2.969487661961466,,,,,,,,,,,,,,,,,,,,,,,,,,,,031519_p3,001,2019_Mar_15_1513,body_behavioural,3.0.4,60.012032406309714,
2,"The lecture hall was the fanciest one at Princeton, with chandeliers, high ceilings, wood floors and double-decker chalkboards.",1,1,None,,,,0,2,2,2,,,,,0,2,2,2,,,,,,,,,,,,,,,,,,,,,,,,,,,,,9,5.686615905025974,,,,,,,,,,,,,,,,,,,,,,,,,,,,031519_p3,001,2019_Mar_15_1513,body_behavioural,3.0.4,60.012032406309714,
2,"This is where Aaron and Lana had met two years ago during an economics class, and now they were back together in the same lecture hall for their Chemistry class. ",1,1,None,,,,0,2,2,2,,,,,0,3,3,3,,,,,,,,,,,,,,,,,,,,,,,,,,,,,1,4.4032679999945685,,,,,,,,,,,,,,,,,,,,,,,,,,,,031519_p3,001,2019_Mar_15_1513,body_behavioural,3.0.4,60.012032406309714,
2,The professor caught Aaron's eye as he walked up to the front of the classroom and gave him a wink before the lecture began. ,1,1,None,,,,0,2,2,2,,,,,0,4,4,4,,,,,,,,,,,,,,,,,,,,,,,,,,,,,1,6.43673472997034,,,,,,,,,,,,,,,,,,,,,,,,,,,,031519_p3,001,2019_Mar_15_1513,body_behavioural,3.0.4,60.012032406309714,
2,Aaron responded with a huge grin. ,1,1,None,,,,0,2,2,2,,,,,0,5,5,5,,,,,,,,,,,,,,,,,,,,,,,,,,,,,1,4.169987564964686,,,,,,,,,,,,,,,,,,,,,,,,,,,,031519_p3,001,2019_Mar_15_1513,body_behavioural,3.0.4,60.012032406309714,
2,"The professor cleared his throat and said,“Alright, good afternoon, everyone!",2,1,None,,,,0,2,2,2,,,,,0,6,6,6,,,,,,,,,,,,,,,,,,,,,,,,,,,,,9,1.7839712899876758,,,,,,,,,,,,,,,,,,,,,,,,,,,,031519_p3,001,2019_Mar_15_1513,body_behavioural,3.0.4,60.012032406309714,
2,"Last week we talked about the structure of the periodic table, and this week the topic is ions.",2,1,None,,,,0,2,2,2,,,,,0,7,7,7,,,,,,,,,,,,,,,,,,,,,,,,,,,,,1,1.1507375849760137,,,,,,,,,,,,,,,,,,,,,,,,,,,,031519_p3,001,2019_Mar_15_1513,body_behavioural,3.0.4,60.012032406309714,
2,These are atoms or molecules in which the number of electrons does not equal the number of protons.,2,1,None,,,,0,2,2,2,,,,,0,8,8,8,,,,,,,,,,,,,,,,,,,,,,,,,,,,,1,2.967457424965687,,,,,,,,,,,,,,,,,,,,,,,,,,,,031519_p3,001,2019_Mar_15_1513,body_behavioural,3.0.4,60.012032406309714,
2,"Now, let me get my computer set up, one moment, class.”",2,1,None,,,,0,2,2,2,,,,,0,9,9,9,,,,,,,,,,,,,,,,,,,,,,,,,,,,,1,2.0364582650363445,,,,,,,,,,,,,,,,,,,,,,,,,,,,031519_p3,001,2019_Mar_15_1513,body_behavioural,3.0.4,60.012032406309714,
2,Lana pulled out her Calculus problem set and puzzled over it.,2,1,None,,,,0,2,2,2,,,,,0,10,10,10,,,,,,,,,,,,,,,,,,,,,,,,,,,,,9,3.920109137019608,,,,,,,,,,,,,,,,,,,,,,,,,,,,031519_p3,001,2019_Mar_15_1513,body_behavioural,3.0.4,60.012032406309714,
2,"While she was distracted, Aaron unzipped the small pocket in his backpack and pulled out the ring box.",2,2,None,,,,0,2,2,2,,,,,0,11,11,11,,,,,,,,,,,,,,,,,,,,,,,,,,,,,1,2.4696952549857087,,,,,,,,,,,,,,,,,,,,,,,,,,,,031519_p3,001,2019_Mar_15_1513,body_behavioural,3.0.4,60.012032406309714,
2,He opened it up and looked at the ring.,2,2,None,,,,0,2,2,2,,,,,0,12,12,12,,,,,,,,,,,,,,,,,,,,,,,,,,,,,1,1.652460968005471,,,,,,,,,,,,,,,,,,,,,,,,,,,,031519_p3,001,2019_Mar_15_1513,body_behavioural,3.0.4,60.012032406309714,
2,"Instead of one large diamond, there were 5 diamonds embedded in a thick band. ",2,2,None,,,,0,2,2,2,,,,,0,13,13,13,,,,,,,,,,,,,,,,,,,,,,,,,,,,,1,2.2199444549623877,,,,,,,,,,,,,,,,,,,,,,,,,,,,031519_p3,001,2019_Mar_15_1513,body_behavioural,3.0.4,60.012032406309714,
2,He knew Lana would like this because her style was not flashy but more about simple elegance.,2,2,None,,,,0,2,2,2,,,,,0,14,14,14,,,,,,,,,,,,,,,,,,,,,,,,,,,,,1,3.319878417009022,,,,,,,,,,,,,,,,,,,,,,,,,,,,031519_p3,001,2019_Mar_15_1513,body_behavioural,3.0.4,60.012032406309714,
2,Aaron put the ring back into the bag as the professor began the lecture. ,3,2,None,,,,0,2,2,2,,,,,0,15,15,15,,,,,,,,,,,,,,,,,,,,,,,,,,,,,1,1.8865604199818335,,,,,,,,,,,,,,,,,,,,,,,,,,,,031519_p3,001,2019_Mar_15_1513,body_behavioural,3.0.4,60.012032406309714,
2,“Recall from previous lectures that the number of protons determines the identity of the element. ,3,2,None,,,,0,2,2,2,,,,,0,16,16,16,,,,,,,,,,,,,,,,,,,,,,,,,,,,,9,3.253144774993416,,,,,,,,,,,,,,,,,,,,,,,,,,,,031519_p3,001,2019_Mar_15_1513,body_behavioural,3.0.4,60.012032406309714,
2,"So for example, all atoms of sodium have 11 protons in the nucleus. ",3,2,None,,,,0,2,2,2,,,,,0,17,17,17,,,,,,,,,,,,,,,,,,,,,,,,,,,,,1,2.7028209869749844,,,,,,,,,,,,,,,,,,,,,,,,,,,,031519_p3,001,2019_Mar_15_1513,body_behavioural,3.0.4,60.012032406309714,
2,"And if you look on the periodic table, the atomic number for sodium, the symbol is Na, is eleven.”",3,2,None,,,,0,2,2,2,,,,,0,18,18,18,,,,,,,,,,,,,,,,,,,,,,,,,,,,,1,4.169973860029131,,,,,,,,,,,,,,,,,,,,,,,,,,,,031519_p3,001,2019_Mar_15_1513,body_behavioural,3.0.4,60.012032406309714,
2,Lana was taking notes while Aaron was texting all of his friends in the class to get ready for the proposal. ,3,2,None,,,,0,2,2,2,,,,,0,19,19,19,,,,,,,,,,,,,,,,,,,,,,,,,,,,,9,2.4844690300524235,,,,,,,,,,,,,,,,,,,,,,,,,,,,031519_p3,001,2019_Mar_15_1513,body_behavioural,3.0.4,60.012032406309714,
2,"Right after talking about how two ions bond into one stable molecule by covalent bonds, the professor stopped the lecture and asked Lana to come to the front of the class to do a demonstration. ",3,2,None,,,,0,2,2,2,,,,,0,20,20,20,,,,,,,,,,,,,,,,,,,,,,,,,,,,,1,4.136531577038113,,,,,,,,,,,,,,,,,,,,,,,,,,,,031519_p3,001,2019_Mar_15_1513,body_behavioural,3.0.4,60.012032406309714,
2,"She walked to the front of the class confused, and the professor asked her to stand in the middle of the stage.",3,2,None,,,,0,2,2,2,,,,,0,21,21,21,,,,,,,,,,,,,,,,,,,,,,,,,,,,,1,2.9365314400056377,,,,,,,,,,,,,,,,,,,,,,,,,,,,031519_p3,001,2019_Mar_15_1513,body_behavioural,3.0.4,60.012032406309714,
2,"Then Aaron walked up and, taking Lana’s hand, got down on one knee. ",3,3,None,,,,0,2,2,2,,,,,0,22,22,22,,,,,,,,,,,,,,,,,,,,,,,,,,,,,9,4.41958839999279,,,,,,,,,,,,,,,,,,,,,,,,,,,,031519_p3,001,2019_Mar_15_1513,body_behavioural,3.0.4,60.012032406309714,
2,"“It's time for us to make a bond of our own, Lana.",3,3,None,,,,0,2,2,2,,,,,0,23,23,23,,,,,,,,,,,,,,,,,,,,,,,,,,,,,1,1.236739581974689,,,,,,,,,,,,,,,,,,,,,,,,,,,,031519_p3,001,2019_Mar_15_1513,body_behavioural,3.0.4,60.012032406309714,
2,Will you marry me?” ,3,3,None,,,,0,2,2,2,,,,,0,24,24,24,,,,,,,,,,,,,,,,,,,,,,,,,,,,,1,1.3529967499780469,,,,,,,,,,,,,,,,,,,,,,,,,,,,031519_p3,001,2019_Mar_15_1513,body_behavioural,3.0.4,60.012032406309714,
2,Lana gasped and put her other hand to her mouth and started looking around the room as if trying to convince herself that this was really happening.,3,3,None,,,,0,2,2,2,,,,,0,25,25,25,,,,,,,,,,,,,,,,,,,,,,,,,,,,,1,3.2008670999784954,,,,,,,,,,,,,,,,,,,,,,,,,,,,031519_p3,001,2019_Mar_15_1513,body_behavioural,3.0.4,60.012032406309714,
2,For a few moments everyone was in suspense waiting for the Lana’s shock to wear off and for her to answer. ,3,3,None,,,,0,2,2,2,,,,,0,26,26,26,,,,,,,,,,,,,,,,,,,,,,,,,,,,,1,1.8862294750288129,,,,,,,,,,,,,,,,,,,,,,,,,,,,031519_p3,001,2019_Mar_15_1513,body_behavioural,3.0.4,60.012032406309714,
2,"Finally, she said, “Yes!”",3,4,None,,,,0,2,2,2,,,,,0,27,27,27,,,,,,,,,,,,,,,,,,,,,,,,,,,,,1,1.752733316970989,,,,,,,,,,,,,,,,,,,,,,,,,,,,031519_p3,001,2019_Mar_15_1513,body_behavioural,3.0.4,60.012032406309714,
2,"Aaron put the ring on her finger, and they hugged while the whole class clapped. ",3,4,None,,,,0,2,2,2,,,,,0,28,28,28,,,,,,,,,,,,,,,,,,,,,,,,,,,,,1,2.719844978011679,,,,,,,,,,,,,,,,,,,,,,,,,,,,031519_p3,001,2019_Mar_15_1513,body_behavioural,3.0.4,60.012032406309714,
2,"Their friends came up and hugged both of them, and the professor gave Aaron a celebratory handshake.",3,4,None,,,,0,2,2,2,,,,,0,29,29,29,,,,,,,,,,,,,,,,,,,,,,,,,,,,,9,1.9031596700078808,,,,,,,,,,,,,,,,,,,,,,,,,,,,031519_p3,001,2019_Mar_15_1513,body_behavioural,3.0.4,60.012032406309714,
2,"They made their way back to their seats, Lana and Aaron hand-in-hand and beaming. ",3,4,None,,,,0,2,2,2,,,,,0,30,30,30,,,,,,,,,,,,,,,,,,,,,,,,,,,,,1,1.7194317569956183,,,,,,,,,,,,,,,,,,,,,,,,,,,,031519_p3,001,2019_Mar_15_1513,body_behavioural,3.0.4,60.012032406309714,
2,"The professor then dismissed the class, saying, “That was enough excitement for today!",4,4,None,,,,0,2,2,2,,,,,0,31,31,31,,,,,,,,,,,,,,,,,,,,,,,,,,,,,1,2.4029871149687096,,,,,,,,,,,,,,,,,,,,,,,,,,,,031519_p3,001,2019_Mar_15_1513,body_behavioural,3.0.4,60.012032406309714,
2,Don’t forget there’s an exam next week on the first two chapters of the textbook.”,4,4,None,,,,0,2,2,2,,,,,0,32,32,32,,,,,,,,,,,,,,,,,,,,,,,,,,,,,1,3.4842722800094634,,,,,,,,,,,,,,,,,,,,,,,,,,,,031519_p3,001,2019_Mar_15_1513,body_behavioural,3.0.4,60.012032406309714,
2,"As everyone was packing up their notebooks and leaving, Lana was already on her phone calling her family members to tell them the exciting news.",4,4,None,,,,0,2,2,2,,,,,0,33,33,33,,,,,,,,,,,,,,,,,,,,,,,,,,,,,9,3.9532071700086817,,,,,,,,,,,,,,,,,,,,,,,,,,,,031519_p3,001,2019_Mar_15_1513,body_behavioural,3.0.4,60.012032406309714,
2,,,,,,,,0,2,2,2,,,,,,,,,,,,,,,,,,,,,,,,,,,,,,,,,,,,,,,,,,,,,,,,,,,,,,,,,,,,,,,,,,031519_p3,001,2019_Mar_15_1513,body_behavioural,3.0.4,60.012032406309714,
3,,,,,,,,0,3,3,3,0,0,0,0,,,,,,,,,,,,,,,,,,,,,,,,,,,space,1.5698106250492856,space,0.60351864004042,space,1.0195968300104141,,,,,,,,,,,,,,,,,,,,,,,,,,,,,,031519_p3,001,2019_Mar_15_1513,body_behavioural,3.0.4,60.012032406309714,
3,"Leon and  Ariana hurried into the classroom at the same time, and Leon did a double-take when he saw her. ",1,1,44.0,,,,0,3,3,3,,,,,0,0,0,0,,,,,,,,,,,,,,,,,,,,,,,,,,,,,9,8.35126062296331,,,,,,,,,,,,,,,,,,,,,,,,,,,,031519_p3,001,2019_Mar_15_1513,body_behavioural,3.0.4,60.012032406309714,
3,"This was his first day after transferring to this university, and he had assumed that he wouldn’t know anyone on campus, but he couldn't shake the nagging feeling  that he had seen her somewhere before. ",1,1,None,,,,0,3,3,3,,,,,0,1,1,1,,,,,,,,,,,,,,,,,,,,,,,,,,,,,1,3.7202153250109404,,,,,,,,,,,,,,,,,,,,,,,,,,,,031519_p3,001,2019_Mar_15_1513,body_behavioural,3.0.4,60.012032406309714,
3,"They were both a bit late, so they quickly slid into seats next to each other in the back of the small classroom.",1,1,None,,,,0,3,3,3,,,,,0,2,2,2,,,,,,,,,,,,,,,,,,,,,,,,,,,,,1,3.836524015001487,,,,,,,,,,,,,,,,,,,,,,,,,,,,031519_p3,001,2019_Mar_15_1513,body_behavioural,3.0.4,60.012032406309714,
3,"This room was usually used for small meetings, but had been rearranged with the table pushed to the side and chairs set up in rows to face the projector screen. ",1,1,None,,,,0,3,3,3,,,,,0,3,3,3,,,,,,,,,,,,,,,,,,,,,,,,,,,,,1,5.653376160014886,,,,,,,,,,,,,,,,,,,,,,,,,,,,031519_p3,001,2019_Mar_15_1513,body_behavioural,3.0.4,60.012032406309714,
3,"There were no windows in the room, since they were down in the sub-basement of the history department.",1,1,None,,,,0,3,3,3,,,,,0,4,4,4,,,,,,,,,,,,,,,,,,,,,,,,,,,,,1,3.536708082014229,,,,,,,,,,,,,,,,,,,,,,,,,,,,031519_p3,001,2019_Mar_15_1513,body_behavioural,3.0.4,60.012032406309714,
3,"Leon, trying to figure out where he had seen her before, could not stop looking over at Ariana.",1,1,None,,,,0,3,3,3,,,,,0,5,5,5,,,,,,,,,,,,,,,,,,,,,,,,,,,,,1,3.486006652005017,,,,,,,,,,,,,,,,,,,,,,,,,,,,031519_p3,001,2019_Mar_15_1513,body_behavioural,3.0.4,60.012032406309714,
3,Ariana was oblivious to Leon’s gaze and was only focused on getting ready for class. ,1,1,None,,,,0,3,3,3,,,,,0,6,6,6,,,,,,,,,,,,,,,,,,,,,,,,,,,,,1,2.419650099996943,,,,,,,,,,,,,,,,,,,,,,,,,,,,031519_p3,001,2019_Mar_15_1513,body_behavioural,3.0.4,60.012032406309714,
3,"“Good afternoon class,” the professor began.",2,1,None,,,,0,3,3,3,,,,,0,7,7,7,,,,,,,,,,,,,,,,,,,,,,,,,,,,,9,1.5693375270348042,,,,,,,,,,,,,,,,,,,,,,,,,,,,031519_p3,001,2019_Mar_15_1513,body_behavioural,3.0.4,60.012032406309714,
3,“Welcome to Egyptian Cultural Studies. ,2,1,None,,,,0,3,3,3,,,,,0,8,8,8,,,,,,,,,,,,,,,,,,,,,,,,,,,,,1,1.1197517000255175,,,,,,,,,,,,,,,,,,,,,,,,,,,,031519_p3,001,2019_Mar_15_1513,body_behavioural,3.0.4,60.012032406309714,
3,"Today we will be talking about mummification, one of the most famous and often misunderstood customs in ancient Egyptian society.”",2,1,None,,,,0,3,3,3,,,,,0,9,9,9,,,,,,,,,,,,,,,,,,,,,,,,,,,,,1,1.3864756830153055,,,,,,,,,,,,,,,,,,,,,,,,,,,,031519_p3,001,2019_Mar_15_1513,body_behavioural,3.0.4,60.012032406309714,
3,Leon pulled out his notebook and tried to concentrate on the class.,2,1,None,,,,0,3,3,3,,,,,0,10,10,10,,,,,,,,,,,,,,,,,,,,,,,,,,,,,9,5.736654377018567,,,,,,,,,,,,,,,,,,,,,,,,,,,,031519_p3,001,2019_Mar_15_1513,body_behavioural,3.0.4,60.012032406309714,
3,Within a few minutes though he found his attention wandering back to Ariana.,2,1,None,,,,0,3,3,3,,,,,0,11,11,11,,,,,,,,,,,,,,,,,,,,,,,,,,,,,1,1.9365799499792047,,,,,,,,,,,,,,,,,,,,,,,,,,,,031519_p3,001,2019_Mar_15_1513,body_behavioural,3.0.4,60.012032406309714,
3,"He decided to do something about his hunch so he ripped off a corner of a page in his notebook, wrote a note, and set it on her desk.",2,1,None,,,,0,3,3,3,,,,,0,12,12,12,,,,,,,,,,,,,,,,,,,,,,,,,,,,,1,2.8865695350104943,,,,,,,,,,,,,,,,,,,,,,,,,,,,031519_p3,001,2019_Mar_15_1513,body_behavioural,3.0.4,60.012032406309714,
3,"“Hi, sorry to distract you from mummies, but you look really familiar," it read.",2,2,None,,,,0,3,3,3,,,,,0,13,13,13,,,,,,,,,,,,,,,,,,,,,,,,,,,,,1,3.9510648720315658,,,,,,,,,,,,,,,,,,,,,,,,,,,,031519_p3,001,2019_Mar_15_1513,body_behavioural,3.0.4,60.012032406309714,
3,It continued: “Do I know you from somewhere?”,2,2,None,,,,0,3,3,3,,,,,0,14,14,14,,,,,,,,,,,,,,,,,,,,,,,,,,,,,1,2.469815672026016,,,,,,,,,,,,,,,,,,,,,,,,,,,,031519_p3,001,2019_Mar_15_1513,body_behavioural,3.0.4,60.012032406309714,
3,"She looked at the note with surprise, and then turned to notice Leon for the first time. ",2,2,None,,,,0,3,3,3,,,,,0,15,15,15,,,,,,,,,,,,,,,,,,,,,,,,,,,,,9,1.819743455038406,,,,,,,,,,,,,,,,,,,,,,,,,,,,031519_p3,001,2019_Mar_15_1513,body_behavioural,3.0.4,60.012032406309714,
3,"She instantly liked him when she saw him; he had very soft eyes and sharp features, a combination that made him seem  trustworthy and genuine.",2,2,None,,,,0,3,3,3,,,,,0,16,16,16,,,,,,,,,,,,,,,,,,,,,,,,,,,,,1,4.05321638303576,,,,,,,,,,,,,,,,,,,,,,,,,,,,031519_p3,001,2019_Mar_15_1513,body_behavioural,3.0.4,60.012032406309714,
3,He smiled at her and she flashed him a smile back.,2,2,None,,,,0,3,3,3,,,,,0,17,17,17,,,,,,,,,,,,,,,,,,,,,,,,,,,,,1,1.3531871319864877,,,,,,,,,,,,,,,,,,,,,,,,,,,,031519_p3,001,2019_Mar_15_1513,body_behavioural,3.0.4,60.012032406309714,
3,Then she turned the note over to the back and started to write a reply.,2,2,None,,,,0,3,3,3,,,,,0,18,18,18,,,,,,,,,,,,,,,,,,,,,,,,,,,,,9,4.286624486965593,,,,,,,,,,,,,,,,,,,,,,,,,,,,031519_p3,001,2019_Mar_15_1513,body_behavioural,3.0.4,60.012032406309714,
3,"Meanwhile the professor continued, “One may well question why the ancient Egyptians spent so much time and effort on their funerary practices.",3,2,None,,,,0,3,3,3,,,,,0,19,19,19,,,,,,,,,,,,,,,,,,,,,,,,,,,,,1,4.450993796985131,,,,,,,,,,,,,,,,,,,,,,,,,,,,031519_p3,001,2019_Mar_15_1513,body_behavioural,3.0.4,60.012032406309714,
3,"Not only was the mummification process itself a complicated affair, but there were also elaborate rituals before, during, and after death.",3,2,None,,,,0,3,3,3,,,,,0,20,20,20,,,,,,,,,,,,,,,,,,,,,,,,,,,,,1,3.236767622001935,,,,,,,,,,,,,,,,,,,,,,,,,,,,031519_p3,001,2019_Mar_15_1513,body_behavioural,3.0.4,60.012032406309714,
3,The practice required teams of experts with years of training and took a total of 70 days to complete.” ,3,2,None,,,,0,3,3,3,,,,,0,21,21,21,,,,,,,,,,,,,,,,,,,,,,,,,,,,,1,1.2863472800236195,,,,,,,,,,,,,,,,,,,,,,,,,,,,031519_p3,001,2019_Mar_15_1513,body_behavioural,3.0.4,60.012032406309714,
3,"Ariana passed the note back to Leon, and she had replied, “No, but maybe my twin and I were separated at birth.”",3,2,None,,,,0,3,3,3,,,,,0,22,22,22,,,,,,,,,,,,,,,,,,,,,,,,,,,,,9,2.917395397031214,,,,,,,,,,,,,,,,,,,,,,,,,,,,031519_p3,001,2019_Mar_15_1513,body_behavioural,3.0.4,60.012032406309714,
3,They passed notes back and forth the whole class like they were back in high school.,3,2,None,,,,0,3,3,3,,,,,0,23,23,23,,,,,,,,,,,,,,,,,,,,,,,,,,,,,1,1.8528292719856836,,,,,,,,,,,,,,,,,,,,,,,,,,,,031519_p3,001,2019_Mar_15_1513,body_behavioural,3.0.4,60.012032406309714,
3,"Near the end of the lecture, Leon wrote, “Would you like to go to dinner tonight?” ",3,3,None,,,,0,3,3,3,,,,,0,24,24,24,,,,,,,,,,,,,,,,,,,,,,,,,,,,,1,2.634827519999817,,,,,,,,,,,,,,,,,,,,,,,,,,,,031519_p3,001,2019_Mar_15_1513,body_behavioural,3.0.4,60.012032406309714,
3,"Ariana read the note, and looked at him and nodded her head",3,3,None,,,,0,3,3,3,,,,,0,25,25,25,,,,,,,,,,,,,,,,,,,,,,,,,,,,,1,3.384226160007529,,,,,,,,,,,,,,,,,,,,,,,,,,,,031519_p3,001,2019_Mar_15_1513,body_behavioural,3.0.4,60.012032406309714,
3,"She wrote back on the slip of paper, “Pick me up at 6 in front of Patton Hall.”",3,3,None,,,,0,3,3,3,,,,,0,26,26,26,,,,,,,,,,,,,,,,,,,,,,,,,,,,,1,2.8864211220061406,,,,,,,,,,,,,,,,,,,,,,,,,,,,031519_p3,001,2019_Mar_15_1513,body_behavioural,3.0.4,60.012032406309714,
3,Then the professor ended the lecture and announced to the class that they would have their first quiz next class on Friday on mummification. ,4,3,None,,,,0,3,3,3,,,,,0,27,27,27,,,,,,,,,,,,,,,,,,,,,,,,,,,,,9,2.7509589270339347,,,,,,,,,,,,,,,,,,,,,,,,,,,,031519_p3,001,2019_Mar_15_1513,body_behavioural,3.0.4,60.012032406309714,
3,"Everyone packed up and started heading out, as well as Sophie and Leon.",4,3,None,,,,0,3,3,3,,,,,0,28,28,28,,,,,,,,,,,,,,,,,,,,,,,,,,,,,1,1.8196288549806923,,,,,,,,,,,,,,,,,,,,,,,,,,,,031519_p3,001,2019_Mar_15_1513,body_behavioural,3.0.4,60.012032406309714,
3,"They approached each other smiling, and Leon said, “Well it was great to meet you, again, or maybe not again, but regardless it was great to meet you.” ",4,3,None,,,,0,3,3,3,,,,,0,29,29,29,,,,,,,,,,,,,,,,,,,,,,,,,,,,,1,3.9699455099762417,,,,,,,,,,,,,,,,,,,,,,,,,,,,031519_p3,001,2019_Mar_15_1513,body_behavioural,3.0.4,60.012032406309714,
3,"She replied, “Yes, it was.",4,4,None,,,,0,3,3,3,,,,,0,30,30,30,,,,,,,,,,,,,,,,,,,,,,,,,,,,,1,1.4859544369974174,,,,,,,,,,,,,,,,,,,,,,,,,,,,031519_p3,001,2019_Mar_15_1513,body_behavioural,3.0.4,60.012032406309714,
3,"I have to run to my next class, but I’ll see you later tonight.” ",4,4,None,,,,0,3,3,3,,,,,0,31,31,31,,,,,,,,,,,,,,,,,,,,,,,,,,,,,9,1.4680251849931665,,,,,,,,,,,,,,,,,,,,,,,,,,,,031519_p3,001,2019_Mar_15_1513,body_behavioural,3.0.4,60.012032406309714,
3,"She waved as they parted ways outside of the door of the classroom, and Leon was still trying to figure out where he had seen her before as he watched her go. ",4,4,None,,,,0,3,3,3,,,,,0,32,32,32,,,,,,,,,,,,,,,,,,,,,,,,,,,,,1,1.28682071500225,,,,,,,,,,,,,,,,,,,,,,,,,,,,031519_p3,001,2019_Mar_15_1513,body_behavioural,3.0.4,60.012032406309714,
3,,,,,,,,0,3,3,3,,,,,,,,,,,,,,,,,,,,,,,,,,,,,,,,,,,,,,,,,,,,,,,,,,,,,,,,,,,,,,,,,,031519_p3,001,2019_Mar_15_1513,body_behavioural,3.0.4,60.012032406309714,
4,,,,,,,,0,4,4,4,0,0,0,0,,,,,,,,,,,,,,,,,,,,,,,,,,,space,0.8362118620425463,space,0.48641171702183783,space,1.3198393000056967,,,,,,,,,,,,,,,,,,,,,,,,,,,,,,031519_p3,001,2019_Mar_15_1513,body_behavioural,3.0.4,60.012032406309714,
4,"Thomas, dreading the conversation he was about to have, got to Annika’s Finer Diner early.",1,1,11.0,None,None,,0,4,4,4,,,,,0,0,0,0,,,,,,,,,,,,,,,,,,,,,,,,,,,,,9,4.386797984945588,,,,,,,,,,,,,,,,,,,,,,,,,,,,031519_p3,001,2019_Mar_15_1513,body_behavioural,3.0.4,60.012032406309714,
4,The restaurant had a kitschy charm and was reminiscent of a diner from the 70’s. ,1,1,None,None,None,,0,4,4,4,,,,,0,1,1,1,,,,,,,,,,,,,,,,,,,,,,,,,,,,,1,2.6180941920029,,,,,,,,,,,,,,,,,,,,,,,,,,,,031519_p3,001,2019_Mar_15_1513,body_behavioural,3.0.4,60.012032406309714,
4,A bell chimed as the door swung open and Sadie entered to find Thomas deep in thought on a bench by the door.,1,1,None,None,None,,0,4,4,4,,,,,0,2,2,2,,,,,,,,,,,,,,,,,,,,,,,,,,,,,1,7.137325802992564,,,,,,,,,,,,,,,,,,,,,,,,,,,,031519_p3,001,2019_Mar_15_1513,body_behavioural,3.0.4,60.012032406309714,
4,He jumped up and gave her a side hug. ,1,1,None,None,None,,0,4,4,4,,,,,0,3,3,3,,,,,,,,,,,,,,,,,,,,,,,,,,,,,1,1.2366054200101644,,,,,,,,,,,,,,,,,,,,,,,,,,,,031519_p3,001,2019_Mar_15_1513,body_behavioural,3.0.4,60.012032406309714,
4,"“How was your day?”, he asked.",1,1,None,None,None,,0,4,4,4,,,,,0,4,4,4,,,,,,,,,,,,,,,,,,,,,,,,,,,,,9,1.2702235379838385,,,,,,,,,,,,,,,,,,,,,,,,,,,,031519_p3,001,2019_Mar_15_1513,body_behavioural,3.0.4,60.012032406309714,
4,"She clung onto him, “It was okay.",1,1,None,None,None,,0,4,4,4,,,,,0,5,5,5,,,,,,,,,,,,,,,,,,,,,,,,,,,,,1,1.6864154549548402,,,,,,,,,,,,,,,,,,,,,,,,,,,,031519_p3,001,2019_Mar_15_1513,body_behavioural,3.0.4,60.012032406309714,
4,I missed you today.”,1,1,None,None,None,,0,4,4,4,,,,,0,6,6,6,,,,,,,,,,,,,,,,,,,,,,,,,,,,,1,0.5361062320298515,,,,,,,,,,,,,,,,,,,,,,,,,,,,031519_p3,001,2019_Mar_15_1513,body_behavioural,3.0.4,60.012032406309714,
4,He looked at the hostess coming towards them.,1,1,None,None,None,,0,4,4,4,,,,,0,7,7,7,,,,,,,,,,,,,,,,,,,,,,,,,,,,,1,1.8699376449803822,,,,,,,,,,,,,,,,,,,,,,,,,,,,031519_p3,001,2019_Mar_15_1513,body_behavioural,3.0.4,60.012032406309714,
4,"“Can we have a table in the back?”, Thomas asked.",1,1,None,None,None,,0,4,4,4,,,,,0,8,8,8,,,,,,,,,,,,,,,,,,,,,,,,,,,,,1,1.2197465950157493,,,,,,,,,,,,,,,,,,,,,,,,,,,,031519_p3,001,2019_Mar_15_1513,body_behavioural,3.0.4,60.012032406309714,
4,"She shrugged and, as she loudly popped her bubblegum, replied, “Sure, honey, this way.”",1,1,None,9.0,None,,0,4,4,4,,,,,0,9,9,9,,,,,,,,,,,,,,,,,,,,,,,,,,,,,1,4.4351443949854,,,,,,,,,,,,,,,,,,,,,,,,,,,,031519_p3,001,2019_Mar_15_1513,body_behavioural,3.0.4,60.012032406309714,
4,She led them to the back of the restaurant where there were dimly lit tables. ,2,1,None,None,None,,0,4,4,4,,,,,0,10,10,10,,,,,,,,,,,,,,,,,,,,,,,,,,,,,9,2.836987998976838,,,,,,,,,,,,,,,,,,,,,,,,,,,,031519_p3,001,2019_Mar_15_1513,body_behavioural,3.0.4,60.012032406309714,
4,"“Is this alright?”, the hostess asked.",2,1,None,None,None,,0,4,4,4,,,,,0,11,11,11,,,,,,,,,,,,,,,,,,,,,,,,,,,,,1,1.1530632550129667,,,,,,,,,,,,,,,,,,,,,,,,,,,,031519_p3,001,2019_Mar_15_1513,body_behavioural,3.0.4,60.012032406309714,
4,Thomas cleared his throat and tried not to grimace at the stained fabric that lined the booth.,2,1,None,None,None,,0,4,4,4,,,,,0,12,12,12,,,,,,,,,,,,,,,,,,,,,,,,,,,,,1,2.5032811900018714,,,,,,,,,,,,,,,,,,,,,,,,,,,,031519_p3,001,2019_Mar_15_1513,body_behavioural,3.0.4,60.012032406309714,
4,“This is great.,2,1,None,None,None,,0,4,4,4,,,,,0,13,13,13,,,,,,,,,,,,,,,,,,,,,,,,,,,,,1,0.9866779169533402,,,,,,,,,,,,,,,,,,,,,,,,,,,,031519_p3,001,2019_Mar_15_1513,body_behavioural,3.0.4,60.012032406309714,
4,"Thank you,” Thomas said.",2,1,None,None,None,,0,4,4,4,,,,,0,14,14,14,,,,,,,,,,,,,,,,,,,,,,,,,,,,,1,0.6864480059593916,,,,,,,,,,,,,,,,,,,,,,,,,,,,031519_p3,001,2019_Mar_15_1513,body_behavioural,3.0.4,60.012032406309714,
4,Sadie slipped into the cushioned seat and grabbed Thomas’ hand.,2,1,None,None,None,,0,4,4,4,,,,,0,15,15,15,,,,,,,,,,,,,,,,,,,,,,,,,,,,,9,2.4182403220329434,,,,,,,,,,,,,,,,,,,,,,,,,,,,031519_p3,001,2019_Mar_15_1513,body_behavioural,3.0.4,60.012032406309714,
4,"“Tell me about your day!”, Sadie sang as Thomas sat down.",2,1,None,None,None,,0,4,4,4,,,,,0,16,16,16,,,,,,,,,,,,,,,,,,,,,,,,,,,,,1,1.6363492269883864,,,,,,,,,,,,,,,,,,,,,,,,,,,,031519_p3,001,2019_Mar_15_1513,body_behavioural,3.0.4,60.012032406309714,
4,He looked at her silently and pulled his hand slowly from hers.,2,1,None,None,None,,0,4,4,4,,,,,0,17,17,17,,,,,,,,,,,,,,,,,,,,,,,,,,,,,1,1.803060584992636,,,,,,,,,,,,,,,,,,,,,,,,,,,,031519_p3,001,2019_Mar_15_1513,body_behavioural,3.0.4,60.012032406309714,
4,Sadie gave him a puzzled look.,2,1,None,None,None,,0,4,4,4,,,,,0,18,18,18,,,,,,,,,,,,,,,,,,,,,,,,,,,,,1,1.0346351279877126,,,,,,,,,,,,,,,,,,,,,,,,,,,,031519_p3,001,2019_Mar_15_1513,body_behavioural,3.0.4,60.012032406309714,
4,Thomas looked away and took a deep breath. ,2,1,None,None,None,,0,4,4,4,,,,,0,19,19,19,,,,,,,,,,,,,,,,,,,,,,,,,,,,,1,0.9862556530279107,,,,,,,,,,,,,,,,,,,,,,,,,,,,031519_p3,001,2019_Mar_15_1513,body_behavioural,3.0.4,60.012032406309714,
4,"Sadie asked, “What’s wrong?” ",2,1,None,None,None,,0,4,4,4,,,,,0,20,20,20,,,,,,,,,,,,,,,,,,,,,,,,,,,,,9,2.420372986991424,,,,,,,,,,,,,,,,,,,,,,,,,,,,031519_p3,001,2019_Mar_15_1513,body_behavioural,3.0.4,60.012032406309714,
4,Thomas picked at his fingernails.,2,1,None,None,22.0,,0,4,4,4,,,,,0,21,21,21,,,,,,,,,,,,,,,,,,,,,,,,,,,,,1,1.036467680009082,,,,,,,,,,,,,,,,,,,,,,,,,,,,031519_p3,001,2019_Mar_15_1513,body_behavioural,3.0.4,60.012032406309714,
4,"“Sadie, I’ve been thinking, and I need to figure out some stuff… on my own.”",2,2,None,None,None,,0,4,4,4,,,,,0,22,22,22,,,,,,,,,,,,,,,,,,,,,,,,,,,,,1,1.6030869819805957,,,,,,,,,,,,,,,,,,,,,,,,,,,,031519_p3,001,2019_Mar_15_1513,body_behavioural,3.0.4,60.012032406309714,
4,Sadie’s mouth popped open for a moment.,2,2,None,None,None,,0,4,4,4,,,,,0,23,23,23,,,,,,,,,,,,,,,,,,,,,,,,,,,,,1,1.6198825270403177,,,,,,,,,,,,,,,,,,,,,,,,,,,,031519_p3,001,2019_Mar_15_1513,body_behavioural,3.0.4,60.012032406309714,
4,Then she swallowed and shifted back in her seat.,2,2,None,None,None,,0,4,4,4,,,,,0,24,24,24,,,,,,,,,,,,,,,,,,,,,,,,,,,,,1,1.1531359200016595,,,,,,,,,,,,,,,,,,,,,,,,,,,,031519_p3,001,2019_Mar_15_1513,body_behavioural,3.0.4,60.012032406309714,
4,“Things have been really picking up at work.,2,2,None,None,None,,0,4,4,4,,,,,0,25,25,25,,,,,,,,,,,,,,,,,,,,,,,,,,,,,1,1.6696890069870278,,,,,,,,,,,,,,,,,,,,,,,,,,,,031519_p3,001,2019_Mar_15_1513,body_behavioural,3.0.4,60.012032406309714,
4,And I’m not sure that this is the job I want to do anymore.,2,2,None,None,None,,0,4,4,4,,,,,0,26,26,26,,,,,,,,,,,,,,,,,,,,,,,,,,,,,1,1.3535562480101362,,,,,,,,,,,,,,,,,,,,,,,,,,,,031519_p3,001,2019_Mar_15_1513,body_behavioural,3.0.4,60.012032406309714,
4,It’s been really overwhelming between working and figuring out if I should change careers.” ,2,2,None,17.0,None,,0,4,4,4,,,,,0,27,27,27,,,,,,,,,,,,,,,,,,,,,,,,,,,,,1,2.5027172220288776,,,,,,,,,,,,,,,,,,,,,,,,,,,,031519_p3,001,2019_Mar_15_1513,body_behavioural,3.0.4,60.012032406309714,
4,The waiter appeared and interrupted the speech Thomas had been practicing.,3,2,None,None,None,,0,4,4,4,,,,,0,28,28,28,,,,,,,,,,,,,,,,,,,,,,,,,,,,,9,2.919623314985074,,,,,,,,,,,,,,,,,,,,,,,,,,,,031519_p3,001,2019_Mar_15_1513,body_behavioural,3.0.4,60.012032406309714,
4,"“Hello you two!”, the waiter said.",3,2,None,None,None,,0,4,4,4,,,,,0,29,29,29,,,,,,,,,,,,,,,,,,,,,,,,,,,,,1,1.083932316978462,,,,,,,,,,,,,,,,,,,,,,,,,,,,031519_p3,001,2019_Mar_15_1513,body_behavioural,3.0.4,60.012032406309714,
4,“Have you decided what you would like?”,3,2,None,None,None,,0,4,4,4,,,,,0,30,30,30,,,,,,,,,,,,,,,,,,,,,,,,,,,,,1,0.867908118001651,,,,,,,,,,,,,,,,,,,,,,,,,,,,031519_p3,001,2019_Mar_15_1513,body_behavioural,3.0.4,60.012032406309714,
4,"Thomas and Sadie realized there were menus on the table, and they glanced at the lengthy list quickly.",3,2,None,None,None,,0,4,4,4,,,,,0,31,31,31,,,,,,,,,,,,,,,,,,,,,,,,,,,,,1,2.967423713009339,,,,,,,,,,,,,,,,,,,,,,,,,,,,031519_p3,001,2019_Mar_15_1513,body_behavioural,3.0.4,60.012032406309714,
4,"There were so many strange dishes they had never heard of before, so they settled on familiar orders.",3,2,None,None,None,,0,4,4,4,,,,,0,32,32,32,,,,,,,,,,,,,,,,,,,,,,,,,,,,,9,4.537384951952845,,,,,,,,,,,,,,,,,,,,,,,,,,,,031519_p3,001,2019_Mar_15_1513,body_behavioural,3.0.4,60.012032406309714,
4,"“I’ll have a burger, no tomatoes,” Thomas said.",3,2,None,None,None,,0,4,4,4,,,,,0,33,33,33,,,,,,,,,,,,,,,,,,,,,,,,,,,,,1,0.7536046500317752,,,,,,,,,,,,,,,,,,,,,,,,,,,,031519_p3,001,2019_Mar_15_1513,body_behavioural,3.0.4,60.012032406309714,
4,"Sadie asked about the reuben, and the waiter told her it was excellent.",3,2,None,None,None,,0,4,4,4,,,,,0,34,34,34,,,,,,,,,,,,,,,,,,,,,,,,,,,,,1,1.5869880530517548,,,,,,,,,,,,,,,,,,,,,,,,,,,,031519_p3,001,2019_Mar_15_1513,body_behavioural,3.0.4,60.012032406309714,
4,"Once she agreed to get that, he walked away. ",3,2,None,None,None,,0,4,4,4,,,,,0,35,35,35,,,,,,,,,,,,,,,,,,,,,,,,,,,,,1,1.586952991958242,,,,,,,,,,,,,,,,,,,,,,,,,,,,031519_p3,001,2019_Mar_15_1513,body_behavioural,3.0.4,60.012032406309714,
4,Sadie and Thomas looked at each other. ,3,2,None,None,None,,0,4,4,4,,,,,0,36,36,36,,,,,,,,,,,,,,,,,,,,,,,,,,,,,9,1.450770770024974,,,,,,,,,,,,,,,,,,,,,,,,,,,,031519_p3,001,2019_Mar_15_1513,body_behavioural,3.0.4,60.012032406309714,
4,"“So what are you saying?”, Sadie asked. ",3,2,None,None,None,,0,4,4,4,,,,,0,37,37,37,,,,,,,,,,,,,,,,,,,,,,,,,,,,,1,1.1701318499981426,,,,,,,,,,,,,,,,,,,,,,,,,,,,031519_p3,001,2019_Mar_15_1513,body_behavioural,3.0.4,60.012032406309714,
4,"Thomas replied, “I want to take a break for awhile.",3,2,None,None,None,,0,4,4,4,,,,,0,38,38,38,,,,,,,,,,,,,,,,,,,,,,,,,,,,,1,1.9195917849428952,,,,,,,,,,,,,,,,,,,,,,,,,,,,031519_p3,001,2019_Mar_15_1513,body_behavioural,3.0.4,60.012032406309714,
4,"You know, have space to figure out what I’m supposed to be doing.”",3,2,None,None,17.0,,0,4,4,4,,,,,0,39,39,39,,,,,,,,,,,,,,,,,,,,,,,,,,,,,1,3.1339084950159304,,,,,,,,,,,,,,,,,,,,,,,,,,,,031519_p3,001,2019_Mar_15_1513,body_behavioural,3.0.4,60.012032406309714,
4,Sadie quietly burst into tears. ,3,3,None,None,None,,0,4,4,4,,,,,0,40,40,40,,,,,,,,,,,,,,,,,,,,,,,,,,,,,9,1.8522520329570398,,,,,,,,,,,,,,,,,,,,,,,,,,,,031519_p3,001,2019_Mar_15_1513,body_behavioural,3.0.4,60.012032406309714,
4,"Nevertheless, people sitting at the adjacent table looked over and quickly averted their gaze as they realized what was happening. ",3,3,None,None,None,,0,4,4,4,,,,,0,41,41,41,,,,,,,,,,,,,,,,,,,,,,,,,,,,,1,1.1026270169531927,,,,,,,,,,,,,,,,,,,,,,,,,,,,031519_p3,001,2019_Mar_15_1513,body_behavioural,3.0.4,60.012032406309714,
4,“Is this really what you want?,3,3,None,None,None,,0,4,4,4,,,,,0,42,42,42,,,,,,,,,,,,,,,,,,,,,,,,,,,,,1,0.9529300919966772,,,,,,,,,,,,,,,,,,,,,,,,,,,,031519_p3,001,2019_Mar_15_1513,body_behavioural,3.0.4,60.012032406309714,
4,I don’t understand.,3,3,None,None,None,,0,4,4,4,,,,,0,43,43,43,,,,,,,,,,,,,,,,,,,,,,,,,,,,,1,0.9530295300064608,,,,,,,,,,,,,,,,,,,,,,,,,,,,031519_p3,001,2019_Mar_15_1513,body_behavioural,3.0.4,60.012032406309714,
4,I don’t understand.,3,3,None,None,None,,0,4,4,4,,,,,0,44,44,44,,,,,,,,,,,,,,,,,,,,,,,,,,,,,1,0.4363330099731684,,,,,,,,,,,,,,,,,,,,,,,,,,,,031519_p3,001,2019_Mar_15_1513,body_behavioural,3.0.4,60.012032406309714,
4,Things were fine. ,3,3,None,None,None,,0,4,4,4,,,,,0,45,45,45,,,,,,,,,,,,,,,,,,,,,,,,,,,,,1,0.5362925850204192,,,,,,,,,,,,,,,,,,,,,,,,,,,,031519_p3,001,2019_Mar_15_1513,body_behavioural,3.0.4,60.012032406309714,
4,"We don’t have to hang out all the time, or as much as we do now.”",3,3,None,None,None,,0,4,4,4,,,,,0,46,46,46,,,,,,,,,,,,,,,,,,,,,,,,,,,,,1,3.319949650031049,,,,,,,,,,,,,,,,,,,,,,,,,,,,031519_p3,001,2019_Mar_15_1513,body_behavioural,3.0.4,60.012032406309714,
4,Thomas chewed on his bottom lip and picked at his now bleeding hangnail. ,3,3,None,20.0,None,,0,4,4,4,,,,,0,47,47,47,,,,,,,,,,,,,,,,,,,,,,,,,,,,,9,2.3538005049922504,,,,,,,,,,,,,,,,,,,,,,,,,,,,031519_p3,001,2019_Mar_15_1513,body_behavioural,3.0.4,60.012032406309714,
4,"At that moment, the waiter arrived with the burger and reuben and set them on the table.",4,3,None,None,None,,0,4,4,4,,,,,0,48,48,48,,,,,,,,,,,,,,,,,,,,,,,,,,,,,1,1.8030255369958468,,,,,,,,,,,,,,,,,,,,,,,,,,,,031519_p3,001,2019_Mar_15_1513,body_behavioural,3.0.4,60.012032406309714,
4,“Is there anything else I can get for you two?,4,3,None,None,None,,0,4,4,4,,,,,0,49,49,49,,,,,,,,,,,,,,,,,,,,,,,,,,,,,1,1.2698053820058703,,,,,,,,,,,,,,,,,,,,,,,,,,,,031519_p3,001,2019_Mar_15_1513,body_behavioural,3.0.4,60.012032406309714,
4,"Will you be getting dessert tonight?”, he asked.",4,3,None,None,None,,0,4,4,4,,,,,0,50,50,50,,,,,,,,,,,,,,,,,,,,,,,,,,,,,1,2.0841750469990075,,,,,,,,,,,,,,,,,,,,,,,,,,,,031519_p3,001,2019_Mar_15_1513,body_behavioural,3.0.4,60.012032406309714,
4,"“Oh no, we’re good, thanks,” Thomas said.",4,3,None,None,None,,0,4,4,4,,,,,0,51,51,51,,,,,,,,,,,,,,,,,,,,,,,,,,,,,1,1.619799599982798,,,,,,,,,,,,,,,,,,,,,,,,,,,,031519_p3,001,2019_Mar_15_1513,body_behavioural,3.0.4,60.012032406309714,
4,"Once the waiter had walked away still oblivious to the situation, Thomas sighed and said, “Sadie, I’m sorry.",4,3,None,None,None,,0,4,4,4,,,,,0,52,52,52,,,,,,,,,,,,,,,,,,,,,,,,,,,,,9,3.1864650049828924,,,,,,,,,,,,,,,,,,,,,,,,,,,,031519_p3,001,2019_Mar_15_1513,body_behavioural,3.0.4,60.012032406309714,
4,"You are so great, and I love hanging out with you.",4,3,None,None,None,,0,4,4,4,,,,,0,53,53,53,,,,,,,,,,,,,,,,,,,,,,,,,,,,,1,3.553462176991161,,,,,,,,,,,,,,,,,,,,,,,,,,,,031519_p3,001,2019_Mar_15_1513,body_behavioural,3.0.4,60.012032406309714,
4,But I need some time.,4,3,None,None,None,,0,4,4,4,,,,,0,54,54,54,,,,,,,,,,,,,,,,,,,,,,,,,,,,,1,4.436673892021645,,,,,,,,,,,,,,,,,,,,,,,,,,,,031519_p3,001,2019_Mar_15_1513,body_behavioural,3.0.4,60.012032406309714,
4,I’m so sorry.”,4,3,None,None,None,,0,4,4,4,,,,,0,55,55,55,,,,,,,,,,,,,,,,,,,,,,,,,,,,,1,0.7024915749789216,,,,,,,,,,,,,,,,,,,,,,,,,,,,031519_p3,001,2019_Mar_15_1513,body_behavioural,3.0.4,60.012032406309714,
4,"He grabbed her hand, and she pulled it out of his.",4,3,None,None,None,,0,4,4,4,,,,,0,56,56,56,,,,,,,,,,,,,,,,,,,,,,,,,,,,,9,2.4870066299918108,,,,,,,,,,,,,,,,,,,,,,,,,,,,031519_p3,001,2019_Mar_15_1513,body_behavioural,3.0.4,60.012032406309714,
4,"“Sadie,” he said.",4,3,None,None,17.0,,0,4,4,4,,,,,0,57,57,57,,,,,,,,,,,,,,,,,,,,,,,,,,,,,1,0.8027859629946761,,,,,,,,,,,,,,,,,,,,,,,,,,,,031519_p3,001,2019_Mar_15_1513,body_behavioural,3.0.4,60.012032406309714,
4," She stood up, grabbed half of the reuben and shook it at him as she growled, “Don’t follow me, and don’t talk to me anymore!”",4,4,None,None,None,,0,4,4,4,,,,,0,58,58,58,,,,,,,,,,,,,,,,,,,,,,,,,,,,,1,2.486426926974673,,,,,,,,,,,,,,,,,,,,,,,,,,,,031519_p3,001,2019_Mar_15_1513,body_behavioural,3.0.4,60.012032406309714,
4,"Sadie's heels clacked loudly against the black and white linoleum, and the bell above the door jingled cheerfully as the door closed behind her.",4,4,None,None,None,,0,4,4,4,,,,,0,59,59,59,,,,,,,,,,,,,,,,,,,,,,,,,,,,,1,3.2524383279960603,,,,,,,,,,,,,,,,,,,,,,,,,,,,031519_p3,001,2019_Mar_15_1513,body_behavioural,3.0.4,60.012032406309714,
4,Thomas sat there for awhile in shock at how quickly everything transpired. ,4,4,None,None,None,,0,4,4,4,,,,,0,60,60,60,,,,,,,,,,,,,,,,,,,,,,,,,,,,,9,3.5865058969939128,,,,,,,,,,,,,,,,,,,,,,,,,,,,031519_p3,001,2019_Mar_15_1513,body_behavioural,3.0.4,60.012032406309714,
4,"He grabbed his burger and took a bite of it, creating a dry and fishy taste in his mouth.",4,4,None,None,None,,0,4,4,4,,,,,0,61,61,61,,,,,,,,,,,,,,,,,,,,,,,,,,,,,1,1.8028991449973546,,,,,,,,,,,,,,,,,,,,,,,,,,,,031519_p3,001,2019_Mar_15_1513,body_behavioural,3.0.4,60.012032406309714,
4,He dropped it back on his plate and wondered if the restaurant was responsible for the foul taste. ,4,4,None,13.0,5.0,,0,4,4,4,,,,,0,62,62,62,,,,,,,,,,,,,,,,,,,,,,,,,,,,,1,2.0176313720294274,,,,,,,,,,,,,,,,,,,,,,,,,,,,031519_p3,001,2019_Mar_15_1513,body_behavioural,3.0.4,60.012032406309714,
4,,,,,,,,0,4,4,4,,,,,,,,,,,,,,,,,,,,,,,,,,,,,,,,,,,,,,,,,,,,,,,,,,,,,,,,,,,,,,,,,,031519_p3,001,2019_Mar_15_1513,body_behavioural,3.0.4,60.012032406309714,
5,,,,,,,,0,5,5,5,0,0,0,0,,,,,,,,,,,,,,,,,,,,,,,,,,,space,0.8347189420019276,space,0.6695924100349657,space,0.9364068400464021,,,,,,,,,,,,,,,,,,,,,,,,,,,,,,031519_p3,001,2019_Mar_15_1513,body_behavioural,3.0.4,60.012032406309714,
5,"Ms. Bianchi and Ms. Morrison walked into the grocery store at the same time, and, after a moment of mutual recognition, greeted each other and shook hands.",1,1,33.0,,,,0,5,5,5,,,,,0,0,0,0,,,,,,,,,,,,,,,,,,,,,,,,,,,,,9,16.818418576964177,,,,,,,,,,,,,,,,,,,,,,,,,,,,031519_p3,001,2019_Mar_15_1513,body_behavioural,3.0.4,60.012032406309714,
5,"“Thank you again for inviting me here to discuss my business proposal,” said Ms. Bianchi, “And it’s a pleasure to be out of the office.” ",1,1,None,,,,0,5,5,5,,,,,0,1,1,1,,,,,,,,,,,,,,,,,,,,,,,,,,,,,1,2.2694995169877075,,,,,,,,,,,,,,,,,,,,,,,,,,,,031519_p3,001,2019_Mar_15_1513,body_behavioural,3.0.4,60.012032406309714,
5,"As a salesperson for an Italian cheese company that was trying to expand its outreach to more mainstream grocery stores, this meeting could be a big break for her.",1,1,None,,,,0,5,5,5,,,,,0,2,2,2,,,,,,,,,,,,,,,,,,,,,,,,,,,,,1,6.2368399550323375,,,,,,,,,,,,,,,,,,,,,,,,,,,,031519_p3,001,2019_Mar_15_1513,body_behavioural,3.0.4,60.012032406309714,
5,"Her sales target, Ms. Morrison,  who had a reputation for being a bit quirky, was a corporate buyer for a large chain grocery store. ",1,1,None,,,,0,5,5,5,,,,,0,3,3,3,,,,,,,,,,,,,,,,,,,,,,,,,,,,,1,1.5531246699974872,,,,,,,,,,,,,,,,,,,,,,,,,,,,031519_p3,001,2019_Mar_15_1513,body_behavioural,3.0.4,60.012032406309714,
5,"She was known for doing things unconventionally: for example, she said that she liked to make deals with suppliers in the place where the products were sold- “to keep their minds focused on what’s important.” ",1,1,None,,,,0,5,5,5,,,,,0,4,4,4,,,,,,,,,,,,,,,,,,,,,,,,,,,,,1,6.301190124999266,,,,,,,,,,,,,,,,,,,,,,,,,,,,031519_p3,001,2019_Mar_15_1513,body_behavioural,3.0.4,60.012032406309714,
5,"They chatted a little in the front of the grocery store, which was surrounded by pumpkins and halloween decorations set up in special displays for the holiday season.",1,1,None,,,,0,5,5,5,,,,,0,5,5,5,,,,,,,,,,,,,,,,,,,,,,,,,,,,,1,3.3533175800112076,,,,,,,,,,,,,,,,,,,,,,,,,,,,031519_p3,001,2019_Mar_15_1513,body_behavioural,3.0.4,60.012032406309714,
5,"Ms. Bianchi and Ms. Morrison walked to the cheese section, and Ms. Morrison picked up a block of parmesan.",2,1,None,,,,0,5,5,5,,,,,0,6,6,6,,,,,,,,,,,,,,,,,,,,,,,,,,,,,9,2.517826220020652,,,,,,,,,,,,,,,,,,,,,,,,,,,,031519_p3,001,2019_Mar_15_1513,body_behavioural,3.0.4,60.012032406309714,
5,“We have quite a selection here.,2,1,None,,,,0,5,5,5,,,,,0,7,7,7,,,,,,,,,,,,,,,,,,,,,,,,,,,,,1,1.1026078200084157,,,,,,,,,,,,,,,,,,,,,,,,,,,,031519_p3,001,2019_Mar_15_1513,body_behavioural,3.0.4,60.012032406309714,
5,I don’t know that it needs an additional section for more gourmet cheeses.” ,2,1,None,,,,0,5,5,5,,,,,0,8,8,8,,,,,,,,,,,,,,,,,,,,,,,,,,,,,1,1.66958856000565,,,,,,,,,,,,,,,,,,,,,,,,,,,,031519_p3,001,2019_Mar_15_1513,body_behavioural,3.0.4,60.012032406309714,
5,"Ms. Bianchi's confidence faltered for a minute at this remark, but then she launched into her prepared pitch.",2,1,None,,,,0,5,5,5,,,,,0,9,9,9,,,,,,,,,,,,,,,,,,,,,,,,,,,,,1,4.252849802025594,,,,,,,,,,,,,,,,,,,,,,,,,,,,031519_p3,001,2019_Mar_15_1513,body_behavioural,3.0.4,60.012032406309714,
5," “Ms. Morrison, I think you would agree that selling food is more than just providing variety, but also about providing the highest quality.",2,2,None,,,,0,5,5,5,,,,,0,10,10,10,,,,,,,,,,,,,,,,,,,,,,,,,,,,,1,3.267631577036809,,,,,,,,,,,,,,,,,,,,,,,,,,,,031519_p3,001,2019_Mar_15_1513,body_behavioural,3.0.4,60.012032406309714,
5,"You don’t have cheeses made in America that are like ours, it is true.",2,2,None,,,,0,5,5,5,,,,,0,11,11,11,,,,,,,,,,,,,,,,,,,,,,,,,,,,,1,3.583514775033109,,,,,,,,,,,,,,,,,,,,,,,,,,,,031519_p3,001,2019_Mar_15_1513,body_behavioural,3.0.4,60.012032406309714,
5,Your store could be providing American consumers with a dimension in taste that they've never known before with our product.,2,2,None,,,,0,5,5,5,,,,,0,12,12,12,,,,,,,,,,,,,,,,,,,,,,,,,,,,,1,1.0701443550060503,,,,,,,,,,,,,,,,,,,,,,,,,,,,031519_p3,001,2019_Mar_15_1513,body_behavioural,3.0.4,60.012032406309714,
5,"I propose that you give it a shot, buy $1000 worth of cheese products for a few stores, and see how the sales increase not only in our cheeses but also in products related to cheeses: crackers, jams, olives. ",2,2,None,,,,0,5,5,5,,,,,0,13,13,13,,,,,,,,,,,,,,,,,,,,,,,,,,,,,9,2.8373505049967207,,,,,,,,,,,,,,,,,,,,,,,,,,,,031519_p3,001,2019_Mar_15_1513,body_behavioural,3.0.4,60.012032406309714,
5,"The availability of a finer product leads to the appreciation of the product, and your consumers will start to consume in a new, more profitable way.”",2,2,None,,,,0,5,5,5,,,,,0,14,14,14,,,,,,,,,,,,,,,,,,,,,,,,,,,,,1,1.2699994599679485,,,,,,,,,,,,,,,,,,,,,,,,,,,,031519_p3,001,2019_Mar_15_1513,body_behavioural,3.0.4,60.012032406309714,
5,"Ms. Bianchi picked up a box of crackers by the cheese section, and said, “Here, I will buy these, and we can try some of our cheeses that I've brought with me.”",2,2,None,,,,0,5,5,5,,,,,0,15,15,15,,,,,,,,,,,,,,,,,,,,,,,,,,,,,9,3.386369786981959,,,,,,,,,,,,,,,,,,,,,,,,,,,,031519_p3,001,2019_Mar_15_1513,body_behavioural,3.0.4,60.012032406309714,
5,"Ms. Morrison, who was thinking, nodded in agreement and said, “That sounds like a great idea.",2,2,None,,,,0,5,5,5,,,,,0,16,16,16,,,,,,,,,,,,,,,,,,,,,,,,,,,,,9,3.1370454800198786,,,,,,,,,,,,,,,,,,,,,,,,,,,,031519_p3,001,2019_Mar_15_1513,body_behavioural,3.0.4,60.012032406309714,
5,"Let’s head to check out, and those crackers are on me.” ",2,2,None,,,,0,5,5,5,,,,,0,17,17,17,,,,,,,,,,,,,,,,,,,,,,,,,,,,,1,1.4360480250325054,,,,,,,,,,,,,,,,,,,,,,,,,,,,031519_p3,001,2019_Mar_15_1513,body_behavioural,3.0.4,60.012032406309714,
5,They walked over to the checkout area.,3,2,None,,,,0,5,5,5,,,,,0,18,18,18,,,,,,,,,,,,,,,,,,,,,,,,,,,,,1,0.9031699770130217,,,,,,,,,,,,,,,,,,,,,,,,,,,,031519_p3,001,2019_Mar_15_1513,body_behavioural,3.0.4,60.012032406309714,
5,"There was a very long line, and it was very busy in the checkout area as people were stocking up for Halloween parties and trick-or-treating. ",3,2,None,,,,0,5,5,5,,,,,0,19,19,19,,,,,,,,,,,,,,,,,,,,,,,,,,,,,9,1.4839775679865852,,,,,,,,,,,,,,,,,,,,,,,,,,,,031519_p3,001,2019_Mar_15_1513,body_behavioural,3.0.4,60.012032406309714,
5,"Since they had almost a 10 minute wait in line, Ms. Bianchi handed a sheet with printed graphs to Ms. Morrison the increase in profits that several other stores had seen after starting to carry their products.",3,2,None,,,,0,5,5,5,,,,,0,20,20,20,,,,,,,,,,,,,,,,,,,,,,,,,,,,,1,1.0702615209738724,,,,,,,,,,,,,,,,,,,,,,,,,,,,031519_p3,001,2019_Mar_15_1513,body_behavioural,3.0.4,60.012032406309714,
5,"Eventually, Ms. Morrison replied, “You know what, I think you've convinced me that this could work. ",3,3,None,,,,0,5,5,5,,,,,0,21,21,21,,,,,,,,,,,,,,,,,,,,,,,,,,,,,1,1.7034732199972495,,,,,,,,,,,,,,,,,,,,,,,,,,,,031519_p3,001,2019_Mar_15_1513,body_behavioural,3.0.4,60.012032406309714,
5,We've been trying to find a way to add a little European cachet to our stores.,3,3,None,,,,0,5,5,5,,,,,0,22,22,22,,,,,,,,,,,,,,,,,,,,,,,,,,,,,1,1.2694394669961184,,,,,,,,,,,,,,,,,,,,,,,,,,,,031519_p3,001,2019_Mar_15_1513,body_behavioural,3.0.4,60.012032406309714,
5,There's still a problem though - I'm worried we'll be paying out the nose for the import taxes.,3,3,None,,,,0,5,5,5,,,,,0,23,23,23,,,,,,,,,,,,,,,,,,,,,,,,,,,,,1,2.2031693820026703,,,,,,,,,,,,,,,,,,,,,,,,,,,,031519_p3,001,2019_Mar_15_1513,body_behavioural,3.0.4,60.012032406309714,
5,Is that the case?",3,3,None,,,,0,5,5,5,,,,,0,24,24,24,,,,,,,,,,,,,,,,,,,,,,,,,,,,,9,1.4174249549978413,,,,,,,,,,,,,,,,,,,,,,,,,,,,031519_p3,001,2019_Mar_15_1513,body_behavioural,3.0.4,60.012032406309714,
5,"It was Ms. Morrison’s turn to checkout, and the two businesswomen continued to talk back and forth as she did so. ",4,3,None,,,,0,5,5,5,,,,,0,25,25,25,,,,,,,,,,,,,,,,,,,,,,,,,,,,,1,2.8530944250524044,,,,,,,,,,,,,,,,,,,,,,,,,,,,031519_p3,001,2019_Mar_15_1513,body_behavioural,3.0.4,60.012032406309714,
5,"The cashier scanned the crackers, and Ms. Bianchi watched in amusement as Ms. Morrison paid the $6 price entirely in quarters from a wallet bulging with change.",4,3,None,,,,0,5,5,5,,,,,0,26,26,26,,,,,,,,,,,,,,,,,,,,,,,,,,,,,1,2.019295156991575,,,,,,,,,,,,,,,,,,,,,,,,,,,,031519_p3,001,2019_Mar_15_1513,body_behavioural,3.0.4,60.012032406309714,
5,"They shortly came to an agreement and would have enough cheese shipments, $5000 worth, to different stores to qualify for a subsidized import tax. ",4,4,None,,,,0,5,5,5,,,,,0,27,27,27,,,,,,,,,,,,,,,,,,,,,,,,,,,,,1,2.603167921944987,,,,,,,,,,,,,,,,,,,,,,,,,,,,031519_p3,001,2019_Mar_15_1513,body_behavioural,3.0.4,60.012032406309714,
5,"Ms. Bianchi retrieved some of her samples from her car, and they toasted their new deal with crackers topped with fresh mozzarella. ",4,4,None,,,,0,5,5,5,,,,,0,28,28,28,,,,,,,,,,,,,,,,,,,,,,,,,,,,,1,3.9866627869778313,,,,,,,,,,,,,,,,,,,,,,,,,,,,031519_p3,001,2019_Mar_15_1513,body_behavioural,3.0.4,60.012032406309714,
5,,,,,,,,0,5,5,5,,,,,,,,,,,,,,,,,,,,,,,,,,,,,,,,,,,,,,,,,,,,,,,,,,,,,,,,,,,,,,,,,,031519_p3,001,2019_Mar_15_1513,body_behavioural,3.0.4,60.012032406309714,
6,,,,,,,,0,6,6,6,0,0,0,0,,,,,,,,,,,,,,,,,,,,,,,,,,,space,0.8674908449756913,space,0.9693607619847171,space,0.7175883909803815,,,,,,,,,,,,,,,,,,,,,,,,,,,,,,031519_p3,001,2019_Mar_15_1513,body_behavioural,3.0.4,60.012032406309714,
6,The grocery store was not the place Emmanuella and Liam wanted to be at the moment considering they had been fighting beforehand to the point where Emmanuella was thinking of breaking up with Liam.,1,1,13.0,,,,0,6,6,6,,,,,0,0,0,0,,,,,,,,,,,,,,,,,,,,,,,,,,,,,9,8.337197665008716,,,,,,,,,,,,,,,,,,,,,,,,,,,,031519_p3,001,2019_Mar_15_1513,body_behavioural,3.0.4,60.012032406309714,
6,"However, they had to go grocery shopping because they were hosting a dinner party for friends that evening and had no groceries. ",1,1,None,,,,0,6,6,6,,,,,0,1,1,1,,,,,,,,,,,,,,,,,,,,,,,,,,,,,1,4.519447164959274,,,,,,,,,,,,,,,,,,,,,,,,,,,,031519_p3,001,2019_Mar_15_1513,body_behavioural,3.0.4,60.012032406309714,
6,The grocery store was dimly lit and had dark wood paneling for all the shelves.,1,1,None,,,,0,6,6,6,,,,,0,2,2,2,,,,,,,,,,,,,,,,,,,,,,,,,,,,,9,2.203045430011116,,,,,,,,,,,,,,,,,,,,,,,,,,,,031519_p3,001,2019_Mar_15_1513,body_behavioural,3.0.4,60.012032406309714,
6,"The store specialized in organic produce and products catering to desires for high-end products, such as imported cheeses and sauces. ",1,1,None,,,,0,6,6,6,,,,,0,3,3,3,,,,,,,,,,,,,,,,,,,,,,,,,,,,,1,2.4530501770204864,,,,,,,,,,,,,,,,,,,,,,,,,,,,031519_p3,001,2019_Mar_15_1513,body_behavioural,3.0.4,60.012032406309714,
6,"Emmanuella felt angry as she headed immediately for the pasta section, and Liam trailed behind her. ",2,1,None,,,,0,6,6,6,,,,,0,4,4,4,,,,,,,,,,,,,,,,,,,,,,,,,,,,,9,2.2696836620452814,,,,,,,,,,,,,,,,,,,,,,,,,,,,031519_p3,001,2019_Mar_15_1513,body_behavioural,3.0.4,60.012032406309714,
6,Emmanuella selected a few boxes of linguine.,2,1,None,,,,0,6,6,6,,,,,0,5,5,5,,,,,,,,,,,,,,,,,,,,,,,,,,,,,1,1.0861059380113147,,,,,,,,,,,,,,,,,,,,,,,,,,,,031519_p3,001,2019_Mar_15_1513,body_behavioural,3.0.4,60.012032406309714,
6,"“I guess we are having pasta tonight,” Liam said.",2,1,None,,,,0,6,6,6,,,,,0,6,6,6,,,,,,,,,,,,,,,,,,,,,,,,,,,,,1,1.4507744520087726,,,,,,,,,,,,,,,,,,,,,,,,,,,,031519_p3,001,2019_Mar_15_1513,body_behavioural,3.0.4,60.012032406309714,
6,"Emmanuella looked back at him and said, “Well if you were going to actually help cook, I would be fine with something else.”",2,1,None,,,,0,6,6,6,,,,,0,7,7,7,,,,,,,,,,,,,,,,,,,,,,,,,,,,,1,1.9530879199737683,,,,,,,,,,,,,,,,,,,,,,,,,,,,031519_p3,001,2019_Mar_15_1513,body_behavioural,3.0.4,60.012032406309714,
6,"Liam sighed, and finally said, “You don’t want me to help.",2,1,None,,,,0,6,6,6,,,,,0,8,8,8,,,,,,,,,,,,,,,,,,,,,,,,,,,,,1,1.4530051670153625,,,,,,,,,,,,,,,,,,,,,,,,,,,,031519_p3,001,2019_Mar_15_1513,body_behavioural,3.0.4,60.012032406309714,
6,"I try to, but it seems like I always get in the way!” ",2,1,None,,,,0,6,6,6,,,,,0,9,9,9,,,,,,,,,,,,,,,,,,,,,,,,,,,,,1,1.3863880569697358,,,,,,,,,,,,,,,,,,,,,,,,,,,,031519_p3,001,2019_Mar_15_1513,body_behavioural,3.0.4,60.012032406309714,
6,"Emmanuella angrily threw the pasta into the cart, losing her temper.",2,1,None,,,,0,6,6,6,,,,,0,10,10,10,,,,,,,,,,,,,,,,,,,,,,,,,,,,,9,2.936112427036278,,,,,,,,,,,,,,,,,,,,,,,,,,,,031519_p3,001,2019_Mar_15_1513,body_behavioural,3.0.4,60.012032406309714,
6," “Liam, you don’t even try!",2,1,None,,,,0,6,6,6,,,,,0,11,11,11,,,,,,,,,,,,,,,,,,,,,,,,,,,,,1,0.919852077960968,,,,,,,,,,,,,,,,,,,,,,,,,,,,031519_p3,001,2019_Mar_15_1513,body_behavioural,3.0.4,60.012032406309714,
6,You know what?,2,1,None,,,,0,6,6,6,,,,,0,12,12,12,,,,,,,,,,,,,,,,,,,,,,,,,,,,,1,0.5030196199659258,,,,,,,,,,,,,,,,,,,,,,,,,,,,031519_p3,001,2019_Mar_15_1513,body_behavioural,3.0.4,60.012032406309714,
6,I don’t think I can do this anymore. ,2,2,None,,,,0,6,6,6,,,,,0,13,13,13,,,,,,,,,,,,,,,,,,,,,,,,,,,,,1,0.6024258370161988,,,,,,,,,,,,,,,,,,,,,,,,,,,,031519_p3,001,2019_Mar_15_1513,body_behavioural,3.0.4,60.012032406309714,
6,"I was going to wait until after this unfortunately-timed dinner party tonight to talk about this, but I might as well say it now: I don’t want to be in a relationship with you anymore.",2,2,None,,,,0,6,6,6,,,,,0,14,14,14,,,,,,,,,,,,,,,,,,,,,,,,,,,,,1,6.603675004967954,,,,,,,,,,,,,,,,,,,,,,,,,,,,031519_p3,001,2019_Mar_15_1513,body_behavioural,3.0.4,60.012032406309714,
6," I’m tired of the constant fighting, and I feel like when we try to do anything fun anymore it ends up unpleasant for the stupidest reasons, and I am just past  trying to work things out.”",2,2,None,,,,0,6,6,6,,,,,0,15,15,15,,,,,,,,,,,,,,,,,,,,,,,,,,,,,1,1.0000127219827846,,,,,,,,,,,,,,,,,,,,,,,,,,,,031519_p3,001,2019_Mar_15_1513,body_behavioural,3.0.4,60.012032406309714,
6,"Liam refused to look at her as she picked out sauces for the pasta, and then she threw up her hands, saying, “You know what, if this party is still happening we are going to just eat pasta.”",2,2,None,,,,0,6,6,6,,,,,0,16,16,16,,,,,,,,,,,,,,,,,,,,,,,,,,,,,9,8.719851002970245,,,,,,,,,,,,,,,,,,,,,,,,,,,,031519_p3,001,2019_Mar_15_1513,body_behavioural,3.0.4,60.012032406309714,
6,They headed to the checkout area where there was only one station open but it was not crowded at all.,3,2,None,,,,0,6,6,6,,,,,0,17,17,17,,,,,,,,,,,,,,,,,,,,,,,,,,,,,1,1.853109365038108,,,,,,,,,,,,,,,,,,,,,,,,,,,,031519_p3,001,2019_Mar_15_1513,body_behavioural,3.0.4,60.012032406309714,
6,Emmanuella sighed and got in line while Liam pretended to be interested in the magazine racks as he thought. ,3,2,None,,,,0,6,6,6,,,,,0,18,18,18,,,,,,,,,,,,,,,,,,,,,,,,,,,,,1,3.38636460195994,,,,,,,,,,,,,,,,,,,,,,,,,,,,031519_p3,001,2019_Mar_15_1513,body_behavioural,3.0.4,60.012032406309714,
6,"Finally he turned to her and sighed, “Yes, I was thinking the same thing - I think we could definitely be happier with other people.” ",3,3,None,,,,0,6,6,6,,,,,0,19,19,19,,,,,,,,,,,,,,,,,,,,,,,,,,,,,9,3.2364827700075693,,,,,,,,,,,,,,,,,,,,,,,,,,,,031519_p3,001,2019_Mar_15_1513,body_behavioural,3.0.4,60.012032406309714,
6,"As if she hadn't heard him, Emmanuella looked at their cart and said, “I'm not sure this will be enough, could you grab another box of pasta?”",3,3,None,,,,0,6,6,6,,,,,0,20,20,20,,,,,,,,,,,,,,,,,,,,,,,,,,,,,9,7.4035887669888325,,,,,,,,,,,,,,,,,,,,,,,,,,,,031519_p3,001,2019_Mar_15_1513,body_behavioural,3.0.4,60.012032406309714,
6, Liam scoffed and walked off to quickly get it.,3,3,None,,,,0,6,6,6,,,,,0,21,21,21,,,,,,,,,,,,,,,,,,,,,,,,,,,,,1,1.1534543369780295,,,,,,,,,,,,,,,,,,,,,,,,,,,,031519_p3,001,2019_Mar_15_1513,body_behavioural,3.0.4,60.012032406309714,
6,"As Emmanuella waited in line, she took a moment to compose herself, deciding that there was no reason to continue making a scene in the store. ",3,3,None,,,,0,6,6,6,,,,,0,22,22,22,,,,,,,,,,,,,,,,,,,,,,,,,,,,,9,2.702999245026149,,,,,,,,,,,,,,,,,,,,,,,,,,,,031519_p3,001,2019_Mar_15_1513,body_behavioural,3.0.4,60.012032406309714,
6," Right when Liam came back with the pasta, the cashier started scanning their groceries.",4,3,None,,,,0,6,6,6,,,,,0,23,23,23,,,,,,,,,,,,,,,,,,,,,,,,,,,,,1,2.119929382984992,,,,,,,,,,,,,,,,,,,,,,,,,,,,031519_p3,001,2019_Mar_15_1513,body_behavioural,3.0.4,60.012032406309714,
6,"The cost came to $30, and Emmanuella paid with her credit card.",4,3,None,,,,0,6,6,6,,,,,0,24,24,24,,,,,,,,,,,,,,,,,,,,,,,,,,,,,1,1.0038243970484473,,,,,,,,,,,,,,,,,,,,,,,,,,,,031519_p3,001,2019_Mar_15_1513,body_behavioural,3.0.4,60.012032406309714,
6,"She asked Liam politely to take the bags, and he obliged, following her to toward the exit. ",4,3,None,,,,0,6,6,6,,,,,0,25,25,25,,,,,,,,,,,,,,,,,,,,,,,,,,,,,1,7.3865951569750905,,,,,,,,,,,,,,,,,,,,,,,,,,,,031519_p3,001,2019_Mar_15_1513,body_behavioural,3.0.4,60.012032406309714,
6,"“Liam, I think we are making the right decision.",4,4,None,,,,0,6,6,6,,,,,0,26,26,26,,,,,,,,,,,,,,,,,,,,,,,,,,,,,1,1.6530257519916631,,,,,,,,,,,,,,,,,,,,,,,,,,,,031519_p3,001,2019_Mar_15_1513,body_behavioural,3.0.4,60.012032406309714,
6,This is good.” ,4,4,None,,,,0,6,6,6,,,,,0,27,27,27,,,,,,,,,,,,,,,,,,,,,,,,,,,,,1,0.7031036270200275,,,,,,,,,,,,,,,,,,,,,,,,,,,,031519_p3,001,2019_Mar_15_1513,body_behavioural,3.0.4,60.012032406309714,
6,"“I agree,” he said, visibly relieved at the thought that they had gotten through the last fight they would ever need to have.",4,4,None,,,,0,6,6,6,,,,,0,28,28,28,,,,,,,,,,,,,,,,,,,,,,,,,,,,,9,3.1866920570028014,,,,,,,,,,,,,,,,,,,,,,,,,,,,031519_p3,001,2019_Mar_15_1513,body_behavioural,3.0.4,60.012032406309714,
6,"“I think we can still host this dinner tonight, as long as you're still on board,” Emmanuella said.",4,4,None,,,,0,6,6,6,,,,,0,29,29,29,,,,,,,,,,,,,,,,,,,,,,,,,,,,,1,3.1341670349938795,,,,,,,,,,,,,,,,,,,,,,,,,,,,031519_p3,001,2019_Mar_15_1513,body_behavioural,3.0.4,60.012032406309714,
6,"Liam nodded, “Yes, let’s just not tell anyone yet.” ",4,4,None,,,,0,6,6,6,,,,,0,30,30,30,,,,,,,,,,,,,,,,,,,,,,,,,,,,,9,2.2004018499865197,,,,,,,,,,,,,,,,,,,,,,,,,,,,031519_p3,001,2019_Mar_15_1513,body_behavioural,3.0.4,60.012032406309714,
6,"Emmanuella laughed, “Whoever leaks it loses their rights to the cat.”",4,4,None,,,,0,6,6,6,,,,,0,31,31,31,,,,,,,,,,,,,,,,,,,,,,,,,,,,,1,1.7696858270210214,,,,,,,,,,,,,,,,,,,,,,,,,,,,031519_p3,001,2019_Mar_15_1513,body_behavioural,3.0.4,60.012032406309714,
6,"Liam rolled his eyes and managed a weak chuckle, knowing the cat would be a whole other issue to sort out later.
",4,4,None,,,,0,6,6,6,,,,,0,32,32,32,,,,,,,,,,,,,,,,,,,,,,,,,,,,,1,1.8691519850399345,,,,,,,,,,,,,,,,,,,,,,,,,,,,031519_p3,001,2019_Mar_15_1513,body_behavioural,3.0.4,60.012032406309714,
6,,,,,,,,0,6,6,6,,,,,,,,,,,,,,,,,,,,,,,,,,,,,,,,,,,,,,,,,,,,,,,,,,,,,,,,,,,,,,,,,,031519_p3,001,2019_Mar_15_1513,body_behavioural,3.0.4,60.012032406309714,
7,,,,,,,,0,7,7,7,0,0,0,0,,,,,,,,,,,,,,,,,,,,,,,,,,,space,0.6531559819704853,space,0.36936916498234496,space,1.2361051149782725,,,,,,,,,,,,,,,,,,,,,,,,,,,,,,031519_p3,001,2019_Mar_15_1513,body_behavioural,3.0.4,60.012032406309714,
7,Mr. Shelton and Mr. Gordon shook hands inside the foyer of the restaurant: lunch today was about big business. ,1,1,31.0,,,,0,7,7,7,,,,,0,0,0,0,,,,,,,,,,,,,,,,,,,,,,,,,,,,,9,4.486532051989343,,,,,,,,,,,,,,,,,,,,,,,,,,,,031519_p3,001,2019_Mar_15_1513,body_behavioural,3.0.4,60.012032406309714,
7,Mr. Shelton and Mr. Gordon both were CEOs of airplane manufacturing companies.,1,1,None,,,,0,7,7,7,,,,,0,1,1,1,,,,,,,,,,,,,,,,,,,,,,,,,,,,,9,5.753314340021461,,,,,,,,,,,,,,,,,,,,,,,,,,,,031519_p3,001,2019_Mar_15_1513,body_behavioural,3.0.4,60.012032406309714,
7,"Mr. Shelton was in charge of a larger, well-established company and had been in the aviation business for decades.",1,1,None,,,,0,7,7,7,,,,,0,2,2,2,,,,,,,,,,,,,,,,,,,,,,,,,,,,,1,1.9860337899881415,,,,,,,,,,,,,,,,,,,,,,,,,,,,031519_p3,001,2019_Mar_15_1513,body_behavioural,3.0.4,60.012032406309714,
7,"On the other hand, Mr. Gordon led a smaller but technologically-advanced company that was projected to disrupt the airplane manufacturing market. ",1,1,None,,,,0,7,7,7,,,,,0,3,3,3,,,,,,,,,,,,,,,,,,,,,,,,,,,,,1,2.0364609319949523,,,,,,,,,,,,,,,,,,,,,,,,,,,,031519_p3,001,2019_Mar_15_1513,body_behavioural,3.0.4,60.012032406309714,
7,"The restaurant they chose to meet at was old and fancy with high ceilings, dark wood paneling, and crystal chandeliers.",1,1,None,,,,0,7,7,7,,,,,0,4,4,4,,,,,,,,,,,,,,,,,,,,,,,,,,,,,9,1.8364391680224799,,,,,,,,,,,,,,,,,,,,,,,,,,,,031519_p3,001,2019_Mar_15_1513,body_behavioural,3.0.4,60.012032406309714,
7,"The waitress led them to their table in the back, and they settled into a private table in the corner by the fireplace. ",2,1,None,,,,0,7,7,7,,,,,0,5,5,5,,,,,,,,,,,,,,,,,,,,,,,,,,,,,1,2.253015165042598,,,,,,,,,,,,,,,,,,,,,,,,,,,,031519_p3,001,2019_Mar_15_1513,body_behavioural,3.0.4,60.012032406309714,
7,The waitress brought out the menus and they broke the ice with some small talk.,2,1,None,,,,0,7,7,7,,,,,0,6,6,6,,,,,,,,,,,,,,,,,,,,,,,,,,,,,9,3.0364601649926044,,,,,,,,,,,,,,,,,,,,,,,,,,,,031519_p3,001,2019_Mar_15_1513,body_behavioural,3.0.4,60.012032406309714,
7,"Mr. Gordon took out a picture of his daughter and talked about her recent engagement, and Mr. Gordon boasted about his purchase of a Tesla. ",2,1,None,,,,0,7,7,7,,,,,0,7,7,7,,,,,,,,,,,,,,,,,,,,,,,,,,,,,1,3.503107295022346,,,,,,,,,,,,,,,,,,,,,,,,,,,,031519_p3,001,2019_Mar_15_1513,body_behavioural,3.0.4,60.012032406309714,
7,"They looked at the menus as well, which were full of Italian classics like Carbonara and Tiramisu, and in the back section of the menu was a lengthy drink selection.",2,1,None,,,,0,7,7,7,,,,,0,8,8,8,,,,,,,,,,,,,,,,,,,,,,,,,,,,,1,2.2865427769720554,,,,,,,,,,,,,,,,,,,,,,,,,,,,031519_p3,001,2019_Mar_15_1513,body_behavioural,3.0.4,60.012032406309714,
7,"After awhile, Mr. Shelton brought the conversation around to business.",2,2,None,,,,0,7,7,7,,,,,0,9,9,9,,,,,,,,,,,,,,,,,,,,,,,,,,,,,1,3.2508927269955166,,,,,,,,,,,,,,,,,,,,,,,,,,,,031519_p3,001,2019_Mar_15_1513,body_behavioural,3.0.4,60.012032406309714,
7,"“Mr. Gordon, we really admire what you’re doing at your company.",2,2,None,,,,0,7,7,7,,,,,0,10,10,10,,,,,,,,,,,,,,,,,,,,,,,,,,,,,9,2.25247628998477,,,,,,,,,,,,,,,,,,,,,,,,,,,,031519_p3,001,2019_Mar_15_1513,body_behavioural,3.0.4,60.012032406309714,
7,We think it’s genius; we want to support your vision and make this tiny company of yours internationally known.,2,2,None,,,,0,7,7,7,,,,,0,11,11,11,,,,,,,,,,,,,,,,,,,,,,,,,,,,,1,0.6368725029751658,,,,,,,,,,,,,,,,,,,,,,,,,,,,031519_p3,001,2019_Mar_15_1513,body_behavioural,3.0.4,60.012032406309714,
7,"But honestly, your company doesn’t have the resources to reach international markets right now.",2,2,None,,,,0,7,7,7,,,,,0,12,12,12,,,,,,,,,,,,,,,,,,,,,,,,,,,,,1,1.469623738026712,,,,,,,,,,,,,,,,,,,,,,,,,,,,031519_p3,001,2019_Mar_15_1513,body_behavioural,3.0.4,60.012032406309714,
7,"Maybe in a few years you could, but by that time, other companies may have already filled your niche.",2,2,None,,,,0,7,7,7,,,,,0,13,13,13,,,,,,,,,,,,,,,,,,,,,,,,,,,,,1,3.8346613500034437,,,,,,,,,,,,,,,,,,,,,,,,,,,,031519_p3,001,2019_Mar_15_1513,body_behavioural,3.0.4,60.012032406309714,
7,I think we should join forces.”,2,2,None,,,,0,7,7,7,,,,,0,14,14,14,,,,,,,,,,,,,,,,,,,,,,,,,,,,,1,0.4029286199947819,,,,,,,,,,,,,,,,,,,,,,,,,,,,031519_p3,001,2019_Mar_15_1513,body_behavioural,3.0.4,60.012032406309714,
7,The waitress came up to them and asked if they were ready to order.,3,2,None,,,,0,7,7,7,,,,,0,15,15,15,,,,,,,,,,,,,,,,,,,,,,,,,,,,,9,1.2696754150092602,,,,,,,,,,,,,,,,,,,,,,,,,,,,031519_p3,001,2019_Mar_15_1513,body_behavioural,3.0.4,60.012032406309714,
7,"Mr. Gordon ordered a medium-rare steak and martini, and Mr. Shelton ordered veal and a manhattan. ",3,2,None,,,,0,7,7,7,,,,,0,16,16,16,,,,,,,,,,,,,,,,,,,,,,,,,,,,,1,1.6525286869728006,,,,,,,,,,,,,,,,,,,,,,,,,,,,031519_p3,001,2019_Mar_15_1513,body_behavioural,3.0.4,60.012032406309714,
7,"Then Mr. Shelton continued, “Look, I’ve talked to other members of the board, and we are prepared to offer $600 million to buy your company. ",3,2,None,,,,0,7,7,7,,,,,0,17,17,17,,,,,,,,,,,,,,,,,,,,,,,,,,,,,1,0.6530819820472971,,,,,,,,,,,,,,,,,,,,,,,,,,,,031519_p3,001,2019_Mar_15_1513,body_behavioural,3.0.4,60.012032406309714,
7,"We'd keep on all of your current employees, and you would join as the director of your company branch.” ",3,2,None,,,,0,7,7,7,,,,,0,18,18,18,,,,,,,,,,,,,,,,,,,,,,,,,,,,,1,3.2528954020235687,,,,,,,,,,,,,,,,,,,,,,,,,,,,031519_p3,001,2019_Mar_15_1513,body_behavioural,3.0.4,60.012032406309714,
7,Mr. Gordon sat looking at Mr. Shelton for a few moments considering his response. ,3,2,None,,,,0,7,7,7,,,,,0,19,19,19,,,,,,,,,,,,,,,,,,,,,,,,,,,,,9,1.8198082169983536,,,,,,,,,,,,,,,,,,,,,,,,,,,,031519_p3,001,2019_Mar_15_1513,body_behavioural,3.0.4,60.012032406309714,
7,He looked at Mr. Shelton skeptically.,3,2,None,,,,0,7,7,7,,,,,0,20,20,20,,,,,,,,,,,,,,,,,,,,,,,,,,,,,1,0.8365663849981502,,,,,,,,,,,,,,,,,,,,,,,,,,,,031519_p3,001,2019_Mar_15_1513,body_behavioural,3.0.4,60.012032406309714,
7,"He said, “Mr. Shelton, I think that you make a compelling offer, but there are definitely some disadvantages to attaching our small, streamlined productions to a large company like yours.",3,3,None,,,,0,7,7,7,,,,,0,21,21,21,,,,,,,,,,,,,,,,,,,,,,,,,,,,,1,2.936915321974084,,,,,,,,,,,,,,,,,,,,,,,,,,,,031519_p3,001,2019_Mar_15_1513,body_behavioural,3.0.4,60.012032406309714,
7,"We operate in a very different way than a large company, and the kind of administrative complexity that makes the scale of your productions possible would suffocate our business.",3,3,None,,,,0,7,7,7,,,,,0,22,22,22,,,,,,,,,,,,,,,,,,,,,,,,,,,,,1,1.2035727319889702,,,,,,,,,,,,,,,,,,,,,,,,,,,,031519_p3,001,2019_Mar_15_1513,body_behavioural,3.0.4,60.012032406309714,
7,"With our product, scaling-up doesn’t necessarily make sense.” ",3,3,None,,,,0,7,7,7,,,,,0,23,23,23,,,,,,,,,,,,,,,,,,,,,,,,,,,,,1,2.486497867037542,,,,,,,,,,,,,,,,,,,,,,,,,,,,031519_p3,001,2019_Mar_15_1513,body_behavioural,3.0.4,60.012032406309714,
7,Mr. Shelton had expected this response and had come prepared.,3,3,None,,,,0,7,7,7,,,,,0,24,24,24,,,,,,,,,,,,,,,,,,,,,,,,,,,,,9,2.2693195350002497,,,,,,,,,,,,,,,,,,,,,,,,,,,,031519_p3,001,2019_Mar_15_1513,body_behavioural,3.0.4,60.012032406309714,
7,He began laying out the details of how he had handled similar acquisitions successfully in the past.,3,3,None,,,,0,7,7,7,,,,,0,25,25,25,,,,,,,,,,,,,,,,,,,,,,,,,,,,,1,1.3361894950503483,,,,,,,,,,,,,,,,,,,,,,,,,,,,031519_p3,001,2019_Mar_15_1513,body_behavioural,3.0.4,60.012032406309714,
7,"Mr. Gordon was impressed, and they went back and forth hashing out what the company configuration would look like post-merger. ",3,3,None,,,,0,7,7,7,,,,,0,26,26,26,,,,,,,,,,,,,,,,,,,,,,,,,,,,,1,1.5359881699550897,,,,,,,,,,,,,,,,,,,,,,,,,,,,031519_p3,001,2019_Mar_15_1513,body_behavioural,3.0.4,60.012032406309714,
7,"The waitress brought the food out, interrupting their animated conversation.",4,3,None,,,,0,7,7,7,,,,,0,27,27,27,,,,,,,,,,,,,,,,,,,,,,,,,,,,,9,1.8027217700146139,,,,,,,,,,,,,,,,,,,,,,,,,,,,031519_p3,001,2019_Mar_15_1513,body_behavioural,3.0.4,60.012032406309714,
7,“Oh this looks so good!” Mr. Gordon said. ,4,3,None,,,,0,7,7,7,,,,,0,28,28,28,,,,,,,,,,,,,,,,,,,,,,,,,,,,,1,0.7172791119664907,,,,,,,,,,,,,,,,,,,,,,,,,,,,031519_p3,001,2019_Mar_15_1513,body_behavioural,3.0.4,60.012032406309714,
7, “Can I get you anything else?” the waitress asked.,4,3,None,,,,0,7,7,7,,,,,0,29,29,29,,,,,,,,,,,,,,,,,,,,,,,,,,,,,1,0.8860708670108579,,,,,,,,,,,,,,,,,,,,,,,,,,,,031519_p3,001,2019_Mar_15_1513,body_behavioural,3.0.4,60.012032406309714,
7,They declined and continued to talk.,4,3,None,,,,0,7,7,7,,,,,0,30,30,30,,,,,,,,,,,,,,,,,,,,,,,,,,,,,1,1.2363924069795758,,,,,,,,,,,,,,,,,,,,,,,,,,,,031519_p3,001,2019_Mar_15_1513,body_behavioural,3.0.4,60.012032406309714,
7,"The meal lived up to the reputation of the restaurant, which was known for having the best cuts of meat in the area.",4,3,None,,,,0,7,7,7,,,,,0,31,31,31,,,,,,,,,,,,,,,,,,,,,,,,,,,,,9,2.4530690500396304,,,,,,,,,,,,,,,,,,,,,,,,,,,,031519_p3,001,2019_Mar_15_1513,body_behavioural,3.0.4,60.012032406309714,
7,"Mr. Gordon, after taking a contemplative bite of his food, said, “Mr. Shelton, I think we have a deal. ",4,4,None,,,,0,7,7,7,,,,,0,32,32,32,,,,,,,,,,,,,,,,,,,,,,,,,,,,,1,1.2032340519945137,,,,,,,,,,,,,,,,,,,,,,,,,,,,031519_p3,001,2019_Mar_15_1513,body_behavioural,3.0.4,60.012032406309714,
7,"If you can guarantee that I can still have the final say in the all the work done by my team, I think this could be beneficial for both of us.",4,4,None,,,,0,7,7,7,,,,,0,33,33,33,,,,,,,,,,,,,,,,,,,,,,,,,,,,,1,1.4533159750280902,,,,,,,,,,,,,,,,,,,,,,,,,,,,031519_p3,001,2019_Mar_15_1513,body_behavioural,3.0.4,60.012032406309714,
7,I propose a toast to the merging of our companies.”,4,4,None,,,,0,7,7,7,,,,,0,34,34,34,,,,,,,,,,,,,,,,,,,,,,,,,,,,,1,0.986688234959729,,,,,,,,,,,,,,,,,,,,,,,,,,,,031519_p3,001,2019_Mar_15_1513,body_behavioural,3.0.4,60.012032406309714,
7,Mr. Shelton grinned and lifted his martini to clink glasses.,4,4,None,,,,0,7,7,7,,,,,0,35,35,35,,,,,,,,,,,,,,,,,,,,,,,,,,,,,9,1.9363097950117663,,,,,,,,,,,,,,,,,,,,,,,,,,,,031519_p3,001,2019_Mar_15_1513,body_behavioural,3.0.4,60.012032406309714,
7,"He said, “Cheers to a lifelong partnership and to the growth of your company.” ",4,4,None,,,,0,7,7,7,,,,,0,36,36,36,,,,,,,,,,,,,,,,,,,,,,,,,,,,,1,1.0364687330438755,,,,,,,,,,,,,,,,,,,,,,,,,,,,031519_p3,001,2019_Mar_15_1513,body_behavioural,3.0.4,60.012032406309714,
7,,,,,,,,0,7,7,7,,,,,,,,,,,,,,,,,,,,,,,,,,,,,,,,,,,,,,,,,,,,,,,,,,,,,,,,,,,,,,,,,,031519_p3,001,2019_Mar_15_1513,body_behavioural,3.0.4,60.012032406309714,
,,,,,,,,,,,,,,,,,,,,,,,,,,,,,,,,,,,,,,,,,,,,,,,,,,1140.8720762340236,space,2.869727424986195,,,,,,,,,,,,,,,,,,,,,,,,,031519_p3,001,2019_Mar_15_1513,body_behavioural,3.0.4,60.012032406309714,
,,,,,,,The next task in the experiment is to recall each story to the best of your ability.,,,,,,,,,,,,,0,0,0,0,,,,,,,,,,,,,,,,,,,,,,,,,,,,,,space,8.719848554988857,,,,,,,,,,,,,,,,,,,,,,,031519_p3,001,2019_Mar_15_1513,body_behavioural,3.0.4,60.012032406309714,
,,,,,,,"You will be presented with the story title, names, the images, and a blank text box for each story.",,,,,,,,,,,,,0,1,1,1,,,,,,,,,,,,,,,,,,,,,,,,,,,,,,space,10.102788969001267,,,,,,,,,,,,,,,,,,,,,,,031519_p3,001,2019_Mar_15_1513,body_behavioural,3.0.4,60.012032406309714,
,,,,,,,Describe the story with as many details as you can remember in the space provided. ,,,,,,,,,,,,,0,2,2,2,,,,,,,,,,,,,,,,,,,,,,,,,,,,,,space,6.003524378000293,,,,,,,,,,,,,,,,,,,,,,,031519_p3,001,2019_Mar_15_1513,body_behavioural,3.0.4,60.012032406309714,
,,,,,,,"When you are finished recalling one story, to move onto the next one hit ‘return’. ",,,,,,,,,,,,,0,3,3,3,,,,,,,,,,,,,,,,,,,,,,,,,,,,,,space,6.03661682998063,,,,,,,,,,,,,,,,,,,,,,,031519_p3,001,2019_Mar_15_1513,body_behavioural,3.0.4,60.012032406309714,
,,,,,,,There is a 5 minute time limit to make your response. ,,,,,,,,,,,,,0,4,4,4,,,,,,,,,,,,,,,,,,,,,,,,,,,,,,space,2.619830862036906,,,,,,,,,,,,,,,,,,,,,,,031519_p3,001,2019_Mar_15_1513,body_behavioural,3.0.4,60.012032406309714,
0,,,,,,,,,,,,,,,,,,,,,,,,0,0,0,0,,,,,,,,,,,,,,,,,,,,,,,,,,,,space,0.8697506649768911,"Sven and isabel are leaving isabel's parents house and are at the airport. isabel forgets that her laptop is at the bottom of her bag so she asks sven to hold something for her. because of that sven forgets about the ring in his pocket so when he goes through security he is forced to take it out. he propses to isabel in the middle of security and she runs of but eventually says yes. they skip through the airport, sven high-fives a shoe shiner and when they get on the plane they order champagne and people congratulate them. this story was from the perspective of a matchmaker.",,,,,,,,,,,,,,,,,,,,031519_p3,001,2019_Mar_15_1513,body_behavioural,3.0.4,60.012032406309714,
1,,,,,,,,,,,,,,,,,,,,,,,,0,1,1,1,,,,,,,,,,,,,,,,,,,,,,,,,,,,space,2.2358575830003247,David walks into the airport and sees anna and thinks she is so beautiful. anna is about to get hit with a luggage cart when david pushes her away. they begin talking and find out that they went to high school togther. david helps anna get to her gait and asks how long she will be away and they plan to meet after their trips. this is from the perspective of an airport customer service manager.,,,,,,,,,,,,,,,,,,,,031519_p3,001,2019_Mar_15_1513,body_behavioural,3.0.4,60.012032406309714,
2,,,,,,,,,,,,,,,,,,,,,,,,0,2,2,2,,,,,,,,,,,,,,,,,,,,,,,,,,,,space,1.0698362949769944,Aaron and lana walk to class at princeton where they first met. aaron wants to propse and as he walks in the profesor winks at him. lana is stressing about calculus and is called to the front of the class. aaron follows her and propses. she says yes and as they are leaving the profesor says they will have a quiz next class. this is from the perspective of an academic dean. ,,,,,,,,,,,,,,,,,,,,031519_p3,001,2019_Mar_15_1513,body_behavioural,3.0.4,60.012032406309714,
3,,,,,,,,,,,,,,,,,,,,,,,,0,3,3,3,,,,,,,,,,,,,,,,,,,,,,,,,,,,space,0.7363068970153108,"Leon and ariana walk into class late and sit next to each other. leon is attracted to ariana and passes her a note. ariana reads it and thinks leon is cute. leon asks if they should hang out sometime and arianna says she would. this is from the perspective of a matchmake, the first one is from the perspective of a wedding planner.",,,,,,,,,,,,,,,,,,,,031519_p3,001,2019_Mar_15_1513,body_behavioural,3.0.4,60.012032406309714,
4,,,,,,,,,,,,,,,,,,,,,,,,0,4,4,4,,,,,,,,,,,,,,,,,,,,,,,,,,,,space,0.9862805079901591,Thomas meets sadie at a restarunt and he wants to break up with her. they get seated at a table in the back and thomas initiates the break up. the waiter interrupts their convo a few times and sadie eventually gets up and leaves. this is from the perspective of a couple's counselor,,,,,,,,,,,,,,,,,,,,031519_p3,001,2019_Mar_15_1513,body_behavioural,3.0.4,60.012032406309714,
5,,,,,,,,,,,,,,,,,,,,,,,,0,5,5,5,,,,,,,,,,,,,,,,,,,,,,,,,,,,space,1.1529345500166528,Ms. bianchi and ms. morrison meet at a grocery store to discuss and business deal about cheese. they discuss the price of cheese and how its not only about the variety of the cheese but also the quality. they put cheese in the cart and check out and meet back at one of their cars to further discuss the deal. this is from the perspective of a business reporter..,,,,,,,,,,,,,,,,,,,,031519_p3,001,2019_Mar_15_1513,body_behavioural,3.0.4,60.012032406309714,
6,,,,,,,,,,,,,,,,,,,,,,,,0,6,6,6,,,,,,,,,,,,,,,,,,,,,,,,,,,,space,0.6857937670429237,"Emmanuella and liam are at the grocery store prepping for a dinner pary. emmanuella loses her temper with liam and says she wants to break up. they cause a scene in the store over what they want to eat for dinner or if they should even have the dinner at all. eventually, at the check out line, they agree that the break up is for the best and agree to have the dinner party but not tell anyone about their break up. this is from the perspective of  a grocery story manager",,,,,,,,,,,,,,,,,,,,031519_p3,001,2019_Mar_15_1513,body_behavioural,3.0.4,60.012032406309714,
7,,,,,,,,,,,,,,,,,,,,,,,,0,7,7,7,,,,,,,,,,,,,,,,,,,,,,,,,,,,space,0.8669408679706976,"Mr. shelton and mr. gordon meet at a grocery store to discuss a business deal about airplanes. one is the head of a huge airplane company while the other is the owner of a smaller technology company. they argue over if they should go in on a business deal together or not. eventually they come to a deal and make a toast. while they were discussing the deal, they ordered food. this is from the perspective of a food critic. they met at a restaurant not a grocery store. ",,,,,,,,,,,,,,,,,,,,031519_p3,001,2019_Mar_15_1513,body_behavioural,3.0.4,60.012032406309714,
,,,,,,,,,,,,,,,,,,,,,,,,,,,,,,,,,,,,,,,,,,,,,,,,,,,,,,,,,,2354.302445765992,space,1.4024015350150876,,,,,,,,,,,,,,,,,031519_p3,001,2019_Mar_15_1513,body_behavioural,3.0.4,60.012032406309714,
,,,,,,,The next part of the task is to answer 8 questions about each story.,,,,,,,,,,,,,,,,,,,,,0,0,0,0,,,,,,,,,,,,,,,,,,,,,,,,,,,,,,space,2.934701282007154,,,,,,,,,,,,,,,031519_p3,001,2019_Mar_15_1513,body_behavioural,3.0.4,60.012032406309714,
,,,,,,,Some of the questions are not related to the perspective you were asked to assume.,,,,,,,,,,,,,,,,,,,,,0,1,1,1,,,,,,,,,,,,,,,,,,,,,,,,,,,,,,space,3.5509520550258458,,,,,,,,,,,,,,,031519_p3,001,2019_Mar_15_1513,body_behavioural,3.0.4,60.012032406309714,
,,,,,,,"We realize that we did not tell you to think of these questions during the story, but do your best to answer them.",,,,,,,,,,,,,,,,,,,,,0,2,2,2,,,,,,,,,,,,,,,,,,,,,,,,,,,,,,space,4.303190337028354,,,,,,,,,,,,,,,031519_p3,001,2019_Mar_15_1513,body_behavioural,3.0.4,60.012032406309714,
,,,,,,,"When you have finished typing your answer, hit ‘return’ to submit your answer and move onto the next question. ",,,,,,,,,,,,,,,,,,,,,0,3,3,3,,,,,,,,,,,,,,,,,,,,,,,,,,,,,,space,4.270139631989878,,,,,,,,,,,,,,,031519_p3,001,2019_Mar_15_1513,body_behavioural,3.0.4,60.012032406309714,
0,,,,,,,,,,,,,,,,,,,,,,,,,,,,,,,,0,0,0,0,,,,,,,,,,,,,,,,,,,,,,Next to each other,,,,,,space,1.153216081962455,Nervous,primed first,Flashy,"Not technically, but the security gaurd makes him pull out the ring",Everyone at the security check point,Not a lot,Take out their laptops and remove the ring,Happy,Next to each other,,,,031519_p3,001,2019_Mar_15_1513,body_behavioural,3.0.4,60.012032406309714,
1,,,,,,,,,,,,,,,,,,,,,,,,,,,,,,,,0,1,1,1,,,,,,,,,,,,,,,,,,,,,,Anna has to catch her flight,,,,,,space,1.11964613199234,"Anna has an hour, david has 3 hours",primed first,Take off their shoes,Excited,Anna sits towards the back,David notices that anna is really pretty,David pushes anna out of the way of a luggage cart,David proposes they meet after their trips,Anna has to catch her flight,,,,031519_p3,001,2019_Mar_15_1513,body_behavioural,3.0.4,60.012032406309714,
2,,,,,,,,,,,,,,,,,,,,,,,,,,,,,,,,0,2,2,2,,,,,,,,,,,,,,,,,,,,,,The whole class,,,,,,space,0.9508121670223773,The most beautiful at princeton with chandeliers,primed first,Chemistry,Chemical bonds,Next clas,Excited,Five diamonds not one bigd one,Yes the profesor,The whole class,,,,031519_p3,001,2019_Mar_15_1513,body_behavioural,3.0.4,60.012032406309714,
3,,,,,,,,,,,,,,,,,,,,,,,,,,,,,,,,0,3,3,3,,,,,,,,,,,,,,,,,,,,,,Ariana leaves,,,,,,space,1.069024802010972,Crowded,non-primed first,Cant remember,Not sure,In a few classes,Leon noticed ariana,Leon passes a note,Leon propses they go somewhere after class,Ariana leaves,,,,031519_p3,001,2019_Mar_15_1513,body_behavioural,3.0.4,60.012032406309714,
4,,,,,,,,,,,,,,,,,,,,,,,,,,,,,,,,0,4,4,4,,,,,,,,,,,,,,,,,,,,,,No,,,,,,space,0.9192103950190358,Dimly lit,non-primed first,Can't remeber,A burger and a rueben,They don't really like it,Ready to break up,His work has been picking up,She is upset,No,,,,031519_p3,001,2019_Mar_15_1513,body_behavioural,3.0.4,60.012032406309714,
5,,,,,,,,,,,,,,,,,,,,,,,,,,,,,,,,0,5,5,5,,,,,,,,,,,,,,,,,,,,,,"Cant remember the amount, but cash",,,,,,space,0.9527832770254463,Cheese,primed first,What cheese to sell and i think about 5000 dollars,They agree,Cant remember,Big,Cheese,"Pretty long, about ten minutes","Cant remember the amount, but cash",,,,031519_p3,001,2019_Mar_15_1513,body_behavioural,3.0.4,60.012032406309714,
6,,,,,,,,,,,,,,,,,,,,,,,,,,,,,,,,0,6,6,6,,,,,,,,,,,,,,,,,,,,,,Credit card,,,,,,space,0.9864273049752228,Fed up,non-primed first,She can't deal with liam anymore,Petty at first,Yes,Big,Pasta,Not too long,Credit card,,,,031519_p3,001,2019_Mar_15_1513,body_behavioural,3.0.4,60.012032406309714,
7,,,,,,,,,,,,,,,,,,,,,,,,,,,,,,,,0,7,7,7,,,,,,,,,,,,,,,,,,,,,,They enjoy it,,,,,,space,0.8358084030332975,Airplane,non-primed first,Wether or not a large company should partner with a small company and a lot of money is at stake,First arguing,A partnership,"Low lights, exposed wood",Extensive,Pasta,They enjoy it,,,,031519_p3,001,2019_Mar_15_1513,body_behavioural,3.0.4,60.012032406309714,
,,,,,,,,,,,,,,,,,,,,,,,,,,,,,,,,,,,,,,,,,,,,,,,,,,,,,,,,,,,,,,,,,,,,,,,,,,3025.8987639209954,space,1.3966860969667323,031519_p3,001,2019_Mar_15_1513,body_behavioural,3.0.4,60.012032406309714,
