count,audio,instructText,trials.thisRepN,trials.thisTrialN,trials.thisN,trials.thisIndex,trials_7.thisRepN,trials_7.thisTrialN,trials_7.thisN,trials_7.thisIndex,trials_2.thisRepN,trials_2.thisTrialN,trials_2.thisN,trials_2.thisIndex,trials_3.thisRepN,trials_3.thisTrialN,trials_3.thisN,trials_3.thisIndex,trials_4.thisRepN,trials_4.thisTrialN,trials_4.thisN,trials_4.thisIndex,trials_5.thisRepN,trials_5.thisTrialN,trials_5.thisN,trials_5.thisIndex,trials_6.thisRepN,trials_6.thisTrialN,trials_6.thisN,trials_6.thisIndex,trials_8.thisRepN,trials_8.thisTrialN,trials_8.thisN,trials_8.thisIndex,order of stories,order of perspectives,participant 2 order - stories,participant 2 order  - schemas types,key_resp_8.keys,key_resp_8.rt,key_resp_5.keys,key_resp_5.rt,key_resp_7.keys,key_resp_7.rt,key_resp_15.keys,key_resp_15.rt,key_resp_14.keys,key_resp_14.rt,story_presses.keys,story_presses.rt,key_resp_16.keys,key_resp_16.rt,story time,key_resp_6.keys,key_resp_6.rt,key_resp_2.keys,key_resp_2.rt,key_resp_10.keys,key_resp_10.rt,recall,recall time,key_resp_12.keys,key_resp_12.rt,key_resp_3.keys,key_resp_3.rt,key_resp_11.keys,key_resp_11.rt,question1_answer,order of question,question2_answer,question3_answer,question4_answer,question5_answer,question6_answer,question7_answer,question8_answer,questions time,key_resp_13.keys,key_resp_13.rt,participant,session,date,expName,psychopyVersion,frameRate,
0,,,0,0,0,0,0,0,0,0,,,,,,,,,,,,,,,,,,,,,,,,,[24 34 43 42 13 31 12 21 23 41 14 11 32 44 33 22],"['Social' 'Location' 'Social' 'Location' 'Location' 'Social' 'Social'
 'Location' 'Location' 'Social' 'Social' 'Location' 'Location' 'Location'
 'Social' 'Social']",[23 41 14 11 32 44 33 22],"['Location' 'Social' 'Social' 'Location' 'Location' 'Location' 'Social'
 'Social']",space,17.007166761999542,space,3.4197003950012004,space,2.8205282199996873,,,,,,,,,,,,,,,,,,,,,,,,,,,,,,,,,,,,082719_P1,001,2019_Aug_27_0924,body_behavioural,3.0.4,59.94371201518639,
0,,,0,0,0,0,1,0,1,0,,,,,,,,,,,,,,,,,,,,,,,,,,,,,,,,,space,4.953262095999889,,,,,,,,,,,,,,,,,,,,,,,,,,,,,,,,,,,,082719_P1,001,2019_Aug_27_0924,body_behavioural,3.0.4,59.94371201518639,
0,,,0,0,0,0,2,0,2,0,,,,,,,,,,,,,,,,,,,,,,,,,,,,,,,,,space,0.7862809039997956,,,,,,,,,,,,,,,,,,,,,,,,,,,,,,,,,,,,082719_P1,001,2019_Aug_27_0924,body_behavioural,3.0.4,59.94371201518639,
0,,,0,0,0,0,3,0,3,0,,,,,,,,,,,,,,,,,,,,,,,,,,,,,,,,,space,2.4195537750001677,,,,,,,,,,,,,,,,,,,,,,,,,,,,,,,,,,,,082719_P1,001,2019_Aug_27_0924,body_behavioural,3.0.4,59.94371201518639,
0,,,0,0,0,0,4,0,4,0,,,,,,,,,,,,,,,,,,,,,,,,,,,,,,,,,space,2.053259457999957,,,,,,,,,,,,,,,,,,,,,,,,,,,,,,,,,,,,082719_P1,001,2019_Aug_27_0924,body_behavioural,3.0.4,59.94371201518639,
0,,,0,0,0,0,5,0,5,0,,,,,,,,,,,,,,,,,,,,,,,,,,,,,,,,,space,2.5866955900000903,,,,,,,,,,,,,,,,,,,,,,,,,,,,,,,,,,,,082719_P1,001,2019_Aug_27_0924,body_behavioural,3.0.4,59.94371201518639,
0,,,0,0,0,0,6,0,6,0,,,,,,,,,,,,,,,,,,,,,,,,,,,,,,,,,space,0.7532298170008289,,,,,,,,,,,,,,,,,,,,,,,,,,,,,,,,,,,,082719_P1,001,2019_Aug_27_0924,body_behavioural,3.0.4,59.94371201518639,
0,parcelated_audio/24/24_1.aiff,,0,0,0,0,,,,,0,0,0,0,,,,,,,,,,,,,,,,,,,,,,,,,,,,,,,space,2.5364638970004307,space,1.0532722670013754,9,15.637429101001544,,,,,,,,,,,,,,,,,,,,,,,,,,,,,,082719_P1,001,2019_Aug_27_0924,body_behavioural,3.0.4,59.94371201518639,
0,parcelated_audio/24/24_2.aiff,,0,0,0,0,,,,,0,1,1,1,,,,,,,,,,,,,,,,,,,,,,,,,,,,,,,,,,,9,3.53695660700032,,,,,,,,,,,,,,,,,,,,,,,,,,,,,,082719_P1,001,2019_Aug_27_0924,body_behavioural,3.0.4,59.94371201518639,
0,parcelated_audio/24/24_3.aiff,,0,0,0,0,,,,,0,2,2,2,,,,,,,,,,,,,,,,,,,,,,,,,,,,,,,,,,,9,2.419920447999175,,,,,,,,,,,,,,,,,,,,,,,,,,,,,,082719_P1,001,2019_Aug_27_0924,body_behavioural,3.0.4,59.94371201518639,
0,parcelated_audio/24/24_4.aiff,,0,0,0,0,,,,,0,3,3,3,,,,,,,,,,,,,,,,,,,,,,,,,,,,,,,,,,,9,1.5700173120003456,,,,,,,,,,,,,,,,,,,,,,,,,,,,,,082719_P1,001,2019_Aug_27_0924,body_behavioural,3.0.4,59.94371201518639,
0,parcelated_audio/24/24_5.aiff,,0,0,0,0,,,,,0,4,4,4,,,,,,,,,,,,,,,,,,,,,,,,,,,,,,,,,,,9,0.43679691800025466,,,,,,,,,,,,,,,,,,,,,,,,,,,,,,082719_P1,001,2019_Aug_27_0924,body_behavioural,3.0.4,59.94371201518639,
0,parcelated_audio/24/24_6.aiff,,0,0,0,0,,,,,0,5,5,5,,,,,,,,,,,,,,,,,,,,,,,,,,,,,,,,,,,9,0.4032010849987273,,,,,,,,,,,,,,,,,,,,,,,,,,,,,,082719_P1,001,2019_Aug_27_0924,body_behavioural,3.0.4,59.94371201518639,
0,parcelated_audio/24/24_7.aiff,,0,0,0,0,,,,,0,6,6,6,,,,,,,,,,,,,,,,,,,,,,,,,,,,,,,,,,,9,1.769775335000304,,,,,,,,,,,,,,,,,,,,,,,,,,,,,,082719_P1,001,2019_Aug_27_0924,body_behavioural,3.0.4,59.94371201518639,
0,parcelated_audio/24/24_8.aiff,,0,0,0,0,,,,,0,7,7,7,,,,,,,,,,,,,,,,,,,,,,,,,,,,,,,,,,,9,2.1530808879997494,,,,,,,,,,,,,,,,,,,,,,,,,,,,,,082719_P1,001,2019_Aug_27_0924,body_behavioural,3.0.4,59.94371201518639,
0,parcelated_audio/24/24_9.aiff,,0,0,0,0,,,,,0,8,8,8,,,,,,,,,,,,,,,,,,,,,,,,,,,,,,,,,,,9,0.3693690459986101,,,,,,,,,,,,,,,,,,,,,,,,,,,,,,082719_P1,001,2019_Aug_27_0924,body_behavioural,3.0.4,59.94371201518639,
0,parcelated_audio/24/24_10.aiff,,0,0,0,0,,,,,0,9,9,9,,,,,,,,,,,,,,,,,,,,,,,,,,,,,,,,,,,9,0.5697818429998733,,,,,,,,,,,,,,,,,,,,,,,,,,,,,,082719_P1,001,2019_Aug_27_0924,body_behavioural,3.0.4,59.94371201518639,
0,parcelated_audio/24/24_11.aiff,,0,0,0,0,,,,,0,10,10,10,,,,,,,,,,,,,,,,,,,,,,,,,,,,,,,,,,,9,0.3525553060007951,,,,,,,,,,,,,,,,,,,,,,,,,,,,,,082719_P1,001,2019_Aug_27_0924,body_behavioural,3.0.4,59.94371201518639,
0,parcelated_audio/24/24_12.aiff,,0,0,0,0,,,,,0,11,11,11,,,,,,,,,,,,,,,,,,,,,,,,,,,,,,,,,,,9,0.8031972419994418,,,,,,,,,,,,,,,,,,,,,,,,,,,,,,082719_P1,001,2019_Aug_27_0924,body_behavioural,3.0.4,59.94371201518639,
0,parcelated_audio/24/24_13.aiff,,0,0,0,0,,,,,0,12,12,12,,,,,,,,,,,,,,,,,,,,,,,,,,,,,,,,,,,9,0.33665901299900725,,,,,,,,,,,,,,,,,,,,,,,,,,,,,,082719_P1,001,2019_Aug_27_0924,body_behavioural,3.0.4,59.94371201518639,
0,parcelated_audio/24/24_14.aiff,,0,0,0,0,,,,,0,13,13,13,,,,,,,,,,,,,,,,,,,,,,,,,,,,,,,,,,,9,0.5196677730000374,,,,,,,,,,,,,,,,,,,,,,,,,,,,,,082719_P1,001,2019_Aug_27_0924,body_behavioural,3.0.4,59.94371201518639,
0,parcelated_audio/24/24_15.aiff,,0,0,0,0,,,,,0,14,14,14,,,,,,,,,,,,,,,,,,,,,,,,,,,,,,,,,,,9,2.3532448999994813,,,,,,,,,,,,,,,,,,,,,,,,,,,,,,082719_P1,001,2019_Aug_27_0924,body_behavioural,3.0.4,59.94371201518639,
0,parcelated_audio/24/24_16.aiff,,0,0,0,0,,,,,0,15,15,15,,,,,,,,,,,,,,,,,,,,,,,,,,,,,,,,,,,9,0.7698718390001886,,,,,,,,,,,,,,,,,,,,,,,,,,,,,,082719_P1,001,2019_Aug_27_0924,body_behavioural,3.0.4,59.94371201518639,
0,parcelated_audio/24/24_17.aiff,,0,0,0,0,,,,,0,16,16,16,,,,,,,,,,,,,,,,,,,,,,,,,,,,,,,,,,,9,1.3195371470010286,,,,,,,,,,,,,,,,,,,,,,,,,,,,,,082719_P1,001,2019_Aug_27_0924,body_behavioural,3.0.4,59.94371201518639,
0,parcelated_audio/24/24_18.aiff,,0,0,0,0,,,,,0,17,17,17,,,,,,,,,,,,,,,,,,,,,,,,,,,,,,,,,,,9,0.6858807909993629,,,,,,,,,,,,,,,,,,,,,,,,,,,,,,082719_P1,001,2019_Aug_27_0924,body_behavioural,3.0.4,59.94371201518639,
0,parcelated_audio/24/24_19.aiff,,0,0,0,0,,,,,0,18,18,18,,,,,,,,,,,,,,,,,,,,,,,,,,,,,,,,,,,9,0.4365215830002853,,,,,,,,,,,,,,,,,,,,,,,,,,,,,,082719_P1,001,2019_Aug_27_0924,body_behavioural,3.0.4,59.94371201518639,
0,parcelated_audio/24/24_20.aiff,,0,0,0,0,,,,,0,19,19,19,,,,,,,,,,,,,,,,,,,,,,,,,,,,,,,,,,,9,0.9865074720000848,,,,,,,,,,,,,,,,,,,,,,,,,,,,,,082719_P1,001,2019_Aug_27_0924,body_behavioural,3.0.4,59.94371201518639,
0,parcelated_audio/24/24_21.aiff,,0,0,0,0,,,,,0,20,20,20,,,,,,,,,,,,,,,,,,,,,,,,,,,,,,,,,,,9,0.4200806310000189,,,,,,,,,,,,,,,,,,,,,,,,,,,,,,082719_P1,001,2019_Aug_27_0924,body_behavioural,3.0.4,59.94371201518639,
0,parcelated_audio/24/24_22.aiff,,0,0,0,0,,,,,0,21,21,21,,,,,,,,,,,,,,,,,,,,,,,,,,,,,,,,,,,9,0.46919608200005314,,,,,,,,,,,,,,,,,,,,,,,,,,,,,,082719_P1,001,2019_Aug_27_0924,body_behavioural,3.0.4,59.94371201518639,
0,parcelated_audio/24/24_23.aiff,,0,0,0,0,,,,,0,22,22,22,,,,,,,,,,,,,,,,,,,,,,,,,,,,,,,,,,,9,0.6839793100007228,,,,,,,,,,,,,,,,,,,,,,,,,,,,,,082719_P1,001,2019_Aug_27_0924,body_behavioural,3.0.4,59.94371201518639,
0,parcelated_audio/24/24_24.aiff,,0,0,0,0,,,,,0,23,23,23,,,,,,,,,,,,,,,,,,,,,,,,,,,,,,,,,,,9,0.2699918170001183,,,,,,,,,,,,,,,,,,,,,,,,,,,,,,082719_P1,001,2019_Aug_27_0924,body_behavioural,3.0.4,59.94371201518639,
0,parcelated_audio/24/24_25.aiff,,0,0,0,0,,,,,0,24,24,24,,,,,,,,,,,,,,,,,,,,,,,,,,,,,,,,,,,9,0.7200645919983799,,,,,,,,,,,,,,,,,,,,,,,,,,,,,,082719_P1,001,2019_Aug_27_0924,body_behavioural,3.0.4,59.94371201518639,
0,parcelated_audio/24/24_26.aiff,,0,0,0,0,,,,,0,25,25,25,,,,,,,,,,,,,,,,,,,,,,,,,,,,,,,,,,,9,0.43642569000076037,,,,,,,,,,,,,,,,,,,,,,,,,,,,,,082719_P1,001,2019_Aug_27_0924,body_behavioural,3.0.4,59.94371201518639,
0,parcelated_audio/24/24_27.aiff,,0,0,0,0,,,,,0,26,26,26,,,,,,,,,,,,,,,,,,,,,,,,,,,,,,,,,,,9,0.8199682920003397,,,,,,,,,,,,,,,,,,,,,,,,,,,,,,082719_P1,001,2019_Aug_27_0924,body_behavioural,3.0.4,59.94371201518639,
0,parcelated_audio/24/24_28.aiff,,0,0,0,0,,,,,0,27,27,27,,,,,,,,,,,,,,,,,,,,,,,,,,,,,,,,,,,9,0.42012100300053135,,,,,,,,,,,,,,,,,,,,,,,,,,,,,,082719_P1,001,2019_Aug_27_0924,body_behavioural,3.0.4,59.94371201518639,
0,parcelated_audio/24/24_29.aiff,,0,0,0,0,,,,,0,28,28,28,,,,,,,,,,,,,,,,,,,,,,,,,,,,,,,,,,,9,0.6198230640002294,,,,,,,,,,,,,,,,,,,,,,,,,,,,,,082719_P1,001,2019_Aug_27_0924,body_behavioural,3.0.4,59.94371201518639,
0,parcelated_audio/24/24_30.aiff,,0,0,0,0,,,,,0,29,29,29,,,,,,,,,,,,,,,,,,,,,,,,,,,,,,,,,,,9,1.002651523998793,,,,,,,,,,,,,,,,,,,,,,,,,,,,,,082719_P1,001,2019_Aug_27_0924,body_behavioural,3.0.4,59.94371201518639,
0,parcelated_audio/24/24_31.aiff,,0,0,0,0,,,,,0,30,30,30,,,,,,,,,,,,,,,,,,,,,,,,,,,,,,,,,,,9,0.3363567270007479,,,,,,,,,,,,,,,,,,,,,,,,,,,,,,082719_P1,001,2019_Aug_27_0924,body_behavioural,3.0.4,59.94371201518639,
0,parcelated_audio/24/24_32.aiff,,0,0,0,0,,,,,0,31,31,31,,,,,,,,,,,,,,,,,,,,,,,,,,,,,,,,,,,9,0.5031063990008988,,,,,,,,,,,,,,,,,,,,,,,,,,,,,,082719_P1,001,2019_Aug_27_0924,body_behavioural,3.0.4,59.94371201518639,
0,,,0,0,0,0,,,,,,,,,,,,,,,,,,,,,,,,,,,,,,,,,,,,,,,,,,,,,space,2.8195993119989,,,,,,,,,,,,,,,,,,,,,,,,,,,,082719_P1,001,2019_Aug_27_0924,body_behavioural,3.0.4,59.94371201518639,
1,,,0,1,1,1,0,0,0,0,,,,,,,,,,,,,,,,,,,,,,,,,,,,,space,3.103409395000199,space,2.0030614320003224,space,0.9699142720000964,,,,,,,,,,,,,,,,,,,,,,,,,,,,,,,,,,,,082719_P1,001,2019_Aug_27_0924,body_behavioural,3.0.4,59.94371201518639,
1,,,0,1,1,1,1,0,1,0,,,,,,,,,,,,,,,,,,,,,,,,,,,,,,,,,space,0.4198013799996261,,,,,,,,,,,,,,,,,,,,,,,,,,,,,,,,,,,,082719_P1,001,2019_Aug_27_0924,body_behavioural,3.0.4,59.94371201518639,
1,,,0,1,1,1,2,0,2,0,,,,,,,,,,,,,,,,,,,,,,,,,,,,,,,,,space,1.9367440099995292,,,,,,,,,,,,,,,,,,,,,,,,,,,,,,,,,,,,082719_P1,001,2019_Aug_27_0924,body_behavioural,3.0.4,59.94371201518639,
1,,,0,1,1,1,3,0,3,0,,,,,,,,,,,,,,,,,,,,,,,,,,,,,,,,,space,1.2343194850000145,,,,,,,,,,,,,,,,,,,,,,,,,,,,,,,,,,,,082719_P1,001,2019_Aug_27_0924,body_behavioural,3.0.4,59.94371201518639,
1,,,0,1,1,1,4,0,4,0,,,,,,,,,,,,,,,,,,,,,,,,,,,,,,,,,space,0.25281912999889755,,,,,,,,,,,,,,,,,,,,,,,,,,,,,,,,,,,,082719_P1,001,2019_Aug_27_0924,body_behavioural,3.0.4,59.94371201518639,
1,,,0,1,1,1,5,0,5,0,,,,,,,,,,,,,,,,,,,,,,,,,,,,,,,,,space,1.4341724770001747,,,,,,,,,,,,,,,,,,,,,,,,,,,,,,,,,,,,082719_P1,001,2019_Aug_27_0924,body_behavioural,3.0.4,59.94371201518639,
1,,,0,1,1,1,6,0,6,0,,,,,,,,,,,,,,,,,,,,,,,,,,,,,,,,,space,1.0698441650001769,,,,,,,,,,,,,,,,,,,,,,,,,,,,,,,,,,,,082719_P1,001,2019_Aug_27_0924,body_behavioural,3.0.4,59.94371201518639,
1,parcelated_audio/34/34_1.aiff,,0,1,1,1,,,,,0,0,0,0,,,,,,,,,,,,,,,,,,,,,,,,,,,,,,,space,1.8031067600004462,space,1.4528587919994607,1,7.620472713999334,,,,,,,,,,,,,,,,,,,,,,,,,,,,,,082719_P1,001,2019_Aug_27_0924,body_behavioural,3.0.4,59.94371201518639,
1,parcelated_audio/34/34_2.aiff,,0,1,1,1,,,,,0,1,1,1,,,,,,,,,,,,,,,,,,,,,,,,,,,,,,,,,,,9,1.0698960080007964,,,,,,,,,,,,,,,,,,,,,,,,,,,,,,082719_P1,001,2019_Aug_27_0924,body_behavioural,3.0.4,59.94371201518639,
1,parcelated_audio/34/34_3.aiff,,0,1,1,1,,,,,0,2,2,2,,,,,,,,,,,,,,,,,,,,,,,,,,,,,,,,,,,9,7.520170924999547,,,,,,,,,,,,,,,,,,,,,,,,,,,,,,082719_P1,001,2019_Aug_27_0924,body_behavioural,3.0.4,59.94371201518639,
1,parcelated_audio/34/34_4.aiff,,0,1,1,1,,,,,0,3,3,3,,,,,,,,,,,,,,,,,,,,,,,,,,,,,,,,,,,9,0.3031669250012783,,,,,,,,,,,,,,,,,,,,,,,,,,,,,,082719_P1,001,2019_Aug_27_0924,body_behavioural,3.0.4,59.94371201518639,
1,parcelated_audio/34/34_5.aiff,,0,1,1,1,,,,,0,4,4,4,,,,,,,,,,,,,,,,,,,,,,,,,,,,,,,,,,,9,1.7528886729996884,,,,,,,,,,,,,,,,,,,,,,,,,,,,,,082719_P1,001,2019_Aug_27_0924,body_behavioural,3.0.4,59.94371201518639,
1,parcelated_audio/34/34_6.aiff,,0,1,1,1,,,,,0,5,5,5,,,,,,,,,,,,,,,,,,,,,,,,,,,,,,,,,,,9,0.6698818770000798,,,,,,,,,,,,,,,,,,,,,,,,,,,,,,082719_P1,001,2019_Aug_27_0924,body_behavioural,3.0.4,59.94371201518639,
1,parcelated_audio/34/34_7.aiff,,0,1,1,1,,,,,0,6,6,6,,,,,,,,,,,,,,,,,,,,,,,,,,,,,,,,,,,9,0.6201300480006466,,,,,,,,,,,,,,,,,,,,,,,,,,,,,,082719_P1,001,2019_Aug_27_0924,body_behavioural,3.0.4,59.94371201518639,
1,parcelated_audio/34/34_8.aiff,,0,1,1,1,,,,,0,7,7,7,,,,,,,,,,,,,,,,,,,,,,,,,,,,,,,,,,,9,0.41744712999934563,,,,,,,,,,,,,,,,,,,,,,,,,,,,,,082719_P1,001,2019_Aug_27_0924,body_behavioural,3.0.4,59.94371201518639,
1,parcelated_audio/34/34_9.aiff,,0,1,1,1,,,,,0,8,8,8,,,,,,,,,,,,,,,,,,,,,,,,,,,,,,,,,,,9,0.9532080600001791,,,,,,,,,,,,,,,,,,,,,,,,,,,,,,082719_P1,001,2019_Aug_27_0924,body_behavioural,3.0.4,59.94371201518639,
1,parcelated_audio/34/34_10.aiff,,0,1,1,1,,,,,0,9,9,9,,,,,,,,,,,,,,,,,,,,,,,,,,,,,,,,,,,1,1.550753989999066,,,,,,,,,,,,,,,,,,,,,,,,,,,,,,082719_P1,001,2019_Aug_27_0924,body_behavioural,3.0.4,59.94371201518639,
1,parcelated_audio/34/34_11.aiff,,0,1,1,1,,,,,0,10,10,10,,,,,,,,,,,,,,,,,,,,,,,,,,,,,,,,,,,1,0.9033920780002518,,,,,,,,,,,,,,,,,,,,,,,,,,,,,,082719_P1,001,2019_Aug_27_0924,body_behavioural,3.0.4,59.94371201518639,
1,parcelated_audio/34/34_12.aiff,,0,1,1,1,,,,,0,11,11,11,,,,,,,,,,,,,,,,,,,,,,,,,,,,,,,,,,,1,0.4698239879999164,,,,,,,,,,,,,,,,,,,,,,,,,,,,,,082719_P1,001,2019_Aug_27_0924,body_behavioural,3.0.4,59.94371201518639,
1,parcelated_audio/34/34_13.aiff,,0,1,1,1,,,,,0,12,12,12,,,,,,,,,,,,,,,,,,,,,,,,,,,,,,,,,,,1,1.1362774839999474,,,,,,,,,,,,,,,,,,,,,,,,,,,,,,082719_P1,001,2019_Aug_27_0924,body_behavioural,3.0.4,59.94371201518639,
1,parcelated_audio/34/34_14.aiff,,0,1,1,1,,,,,0,13,13,13,,,,,,,,,,,,,,,,,,,,,,,,,,,,,,,,,,,9,2.819848428998739,,,,,,,,,,,,,,,,,,,,,,,,,,,,,,082719_P1,001,2019_Aug_27_0924,body_behavioural,3.0.4,59.94371201518639,
1,parcelated_audio/34/34_15.aiff,,0,1,1,1,,,,,0,14,14,14,,,,,,,,,,,,,,,,,,,,,,,,,,,,,,,,,,,9,1.5681944739990286,,,,,,,,,,,,,,,,,,,,,,,,,,,,,,082719_P1,001,2019_Aug_27_0924,body_behavioural,3.0.4,59.94371201518639,
1,parcelated_audio/34/34_16.aiff,,0,1,1,1,,,,,0,15,15,15,,,,,,,,,,,,,,,,,,,,,,,,,,,,,,,,,,,9,0.500695030001225,,,,,,,,,,,,,,,,,,,,,,,,,,,,,,082719_P1,001,2019_Aug_27_0924,body_behavioural,3.0.4,59.94371201518639,
1,parcelated_audio/34/34_17.aiff,,0,1,1,1,,,,,0,16,16,16,,,,,,,,,,,,,,,,,,,,,,,,,,,,,,,,,,,9,0.5361936829995102,,,,,,,,,,,,,,,,,,,,,,,,,,,,,,082719_P1,001,2019_Aug_27_0924,body_behavioural,3.0.4,59.94371201518639,
1,parcelated_audio/34/34_18.aiff,,0,1,1,1,,,,,0,17,17,17,,,,,,,,,,,,,,,,,,,,,,,,,,,,,,,,,,,9,1.7199161879998428,,,,,,,,,,,,,,,,,,,,,,,,,,,,,,082719_P1,001,2019_Aug_27_0924,body_behavioural,3.0.4,59.94371201518639,
1,parcelated_audio/34/34_19.aiff,,0,1,1,1,,,,,0,18,18,18,,,,,,,,,,,,,,,,,,,,,,,,,,,,,,,,,,,9,2.353606512000624,,,,,,,,,,,,,,,,,,,,,,,,,,,,,,082719_P1,001,2019_Aug_27_0924,body_behavioural,3.0.4,59.94371201518639,
1,parcelated_audio/34/34_20.aiff,,0,1,1,1,,,,,0,19,19,19,,,,,,,,,,,,,,,,,,,,,,,,,,,,,,,,,,,1,1.0200275200004398,,,,,,,,,,,,,,,,,,,,,,,,,,,,,,082719_P1,001,2019_Aug_27_0924,body_behavioural,3.0.4,59.94371201518639,
1,parcelated_audio/34/34_21.aiff,,0,1,1,1,,,,,0,20,20,20,,,,,,,,,,,,,,,,,,,,,,,,,,,,,,,,,,,9,5.101151892000416,,,,,,,,,,,,,,,,,,,,,,,,,,,,,,082719_P1,001,2019_Aug_27_0924,body_behavioural,3.0.4,59.94371201518639,
1,parcelated_audio/34/34_22.aiff,,0,1,1,1,,,,,0,21,21,21,,,,,,,,,,,,,,,,,,,,,,,,,,,,,,,,,,,9,0.8697577200000524,,,,,,,,,,,,,,,,,,,,,,,,,,,,,,082719_P1,001,2019_Aug_27_0924,body_behavioural,3.0.4,59.94371201518639,
1,parcelated_audio/34/34_23.aiff,,0,1,1,1,,,,,0,22,22,22,,,,,,,,,,,,,,,,,,,,,,,,,,,,,,,,,,,9,1.3692909830006101,,,,,,,,,,,,,,,,,,,,,,,,,,,,,,082719_P1,001,2019_Aug_27_0924,body_behavioural,3.0.4,59.94371201518639,
1,parcelated_audio/34/34_24.aiff,,0,1,1,1,,,,,0,23,23,23,,,,,,,,,,,,,,,,,,,,,,,,,,,,,,,,,,,1,1.034189055000752,,,,,,,,,,,,,,,,,,,,,,,,,,,,,,082719_P1,001,2019_Aug_27_0924,body_behavioural,3.0.4,59.94371201518639,
1,parcelated_audio/34/34_25.aiff,,0,1,1,1,,,,,0,24,24,24,,,,,,,,,,,,,,,,,,,,,,,,,,,,,,,,,,,9,0.5339809699999023,,,,,,,,,,,,,,,,,,,,,,,,,,,,,,082719_P1,001,2019_Aug_27_0924,body_behavioural,3.0.4,59.94371201518639,
1,parcelated_audio/34/34_26.aiff,,0,1,1,1,,,,,0,25,25,25,,,,,,,,,,,,,,,,,,,,,,,,,,,,,,,,,,,9,1.3697606320001796,,,,,,,,,,,,,,,,,,,,,,,,,,,,,,082719_P1,001,2019_Aug_27_0924,body_behavioural,3.0.4,59.94371201518639,
1,parcelated_audio/34/34_27.aiff,,0,1,1,1,,,,,0,26,26,26,,,,,,,,,,,,,,,,,,,,,,,,,,,,,,,,,,,9,0.3863053300010506,,,,,,,,,,,,,,,,,,,,,,,,,,,,,,082719_P1,001,2019_Aug_27_0924,body_behavioural,3.0.4,59.94371201518639,
1,,,0,1,1,1,,,,,,,,,,,,,,,,,,,,,,,,,,,,,,,,,,,,,,,,,,,,,space,3.936726185000225,,,,,,,,,,,,,,,,,,,,,,,,,,,,082719_P1,001,2019_Aug_27_0924,body_behavioural,3.0.4,59.94371201518639,
2,,,0,2,2,2,0,0,0,0,,,,,,,,,,,,,,,,,,,,,,,,,,,,,space,2.136661753000226,space,0.6029186680007115,space,0.720106555001621,,,,,,,,,,,,,,,,,,,,,,,,,,,,,,,,,,,,082719_P1,001,2019_Aug_27_0924,body_behavioural,3.0.4,59.94371201518639,
2,,,0,2,2,2,1,0,1,0,,,,,,,,,,,,,,,,,,,,,,,,,,,,,,,,,space,0.7197349600010057,,,,,,,,,,,,,,,,,,,,,,,,,,,,,,,,,,,,082719_P1,001,2019_Aug_27_0924,body_behavioural,3.0.4,59.94371201518639,
2,,,0,2,2,2,2,0,2,0,,,,,,,,,,,,,,,,,,,,,,,,,,,,,,,,,space,0.8365000020003208,,,,,,,,,,,,,,,,,,,,,,,,,,,,,,,,,,,,082719_P1,001,2019_Aug_27_0924,body_behavioural,3.0.4,59.94371201518639,
2,,,0,2,2,2,3,0,3,0,,,,,,,,,,,,,,,,,,,,,,,,,,,,,,,,,space,1.9028681390009297,,,,,,,,,,,,,,,,,,,,,,,,,,,,,,,,,,,,082719_P1,001,2019_Aug_27_0924,body_behavioural,3.0.4,59.94371201518639,
2,,,0,2,2,2,4,0,4,0,,,,,,,,,,,,,,,,,,,,,,,,,,,,,,,,,space,2.4367747000014788,,,,,,,,,,,,,,,,,,,,,,,,,,,,,,,,,,,,082719_P1,001,2019_Aug_27_0924,body_behavioural,3.0.4,59.94371201518639,
2,,,0,2,2,2,5,0,5,0,,,,,,,,,,,,,,,,,,,,,,,,,,,,,,,,,space,0.8193251969987614,,,,,,,,,,,,,,,,,,,,,,,,,,,,,,,,,,,,082719_P1,001,2019_Aug_27_0924,body_behavioural,3.0.4,59.94371201518639,
2,,,0,2,2,2,6,0,6,0,,,,,,,,,,,,,,,,,,,,,,,,,,,,,,,,,space,2.553292425000109,,,,,,,,,,,,,,,,,,,,,,,,,,,,,,,,,,,,082719_P1,001,2019_Aug_27_0924,body_behavioural,3.0.4,59.94371201518639,
2,parcelated_audio/43/43_1.aiff,,0,2,2,2,,,,,0,0,0,0,,,,,,,,,,,,,,,,,,,,,,,,,,,,,,,space,3.1694512969988864,space,1.1342243680010142,9,4.5865409369998815,,,,,,,,,,,,,,,,,,,,,,,,,,,,,,082719_P1,001,2019_Aug_27_0924,body_behavioural,3.0.4,59.94371201518639,
2,parcelated_audio/43/43_2.aiff,,0,2,2,2,,,,,0,1,1,1,,,,,,,,,,,,,,,,,,,,,,,,,,,,,,,,,,,9,0.2531351049983641,,,,,,,,,,,,,,,,,,,,,,,,,,,,,,082719_P1,001,2019_Aug_27_0924,body_behavioural,3.0.4,59.94371201518639,
2,parcelated_audio/43/43_3.aiff,,0,2,2,2,,,,,0,2,2,2,,,,,,,,,,,,,,,,,,,,,,,,,,,,,,,,,,,9,0.25308521799888695,,,,,,,,,,,,,,,,,,,,,,,,,,,,,,082719_P1,001,2019_Aug_27_0924,body_behavioural,3.0.4,59.94371201518639,
2,parcelated_audio/43/43_4.aiff,,0,2,2,2,,,,,0,3,3,3,,,,,,,,,,,,,,,,,,,,,,,,,,,,,,,,,,,9,0.5339534249997087,,,,,,,,,,,,,,,,,,,,,,,,,,,,,,082719_P1,001,2019_Aug_27_0924,body_behavioural,3.0.4,59.94371201518639,
2,parcelated_audio/43/43_5.aiff,,0,2,2,2,,,,,0,4,4,4,,,,,,,,,,,,,,,,,,,,,,,,,,,,,,,,,,,9,0.5360219699996378,,,,,,,,,,,,,,,,,,,,,,,,,,,,,,082719_P1,001,2019_Aug_27_0924,body_behavioural,3.0.4,59.94371201518639,
2,parcelated_audio/43/43_6.aiff,,0,2,2,2,,,,,0,5,5,5,,,,,,,,,,,,,,,,,,,,,,,,,,,,,,,,,,,1,1.6839864949997718,,,,,,,,,,,,,,,,,,,,,,,,,,,,,,082719_P1,001,2019_Aug_27_0924,body_behavioural,3.0.4,59.94371201518639,
2,parcelated_audio/43/43_7.aiff,,0,2,2,2,,,,,0,6,6,6,,,,,,,,,,,,,,,,,,,,,,,,,,,,,,,,,,,1,1.053123345000131,,,,,,,,,,,,,,,,,,,,,,,,,,,,,,082719_P1,001,2019_Aug_27_0924,body_behavioural,3.0.4,59.94371201518639,
2,parcelated_audio/43/43_8.aiff,,0,2,2,2,,,,,0,7,7,7,,,,,,,,,,,,,,,,,,,,,,,,,,,,,,,,,,,1,0.28655926000101317,,,,,,,,,,,,,,,,,,,,,,,,,,,,,,082719_P1,001,2019_Aug_27_0924,body_behavioural,3.0.4,59.94371201518639,
2,parcelated_audio/43/43_9.aiff,,0,2,2,2,,,,,0,8,8,8,,,,,,,,,,,,,,,,,,,,,,,,,,,,,,,,,,,1,0.46996954299902427,,,,,,,,,,,,,,,,,,,,,,,,,,,,,,082719_P1,001,2019_Aug_27_0924,body_behavioural,3.0.4,59.94371201518639,
2,parcelated_audio/43/43_10.aiff,,0,2,2,2,,,,,0,9,9,9,,,,,,,,,,,,,,,,,,,,,,,,,,,,,,,,,,,9,0.5529377740003838,,,,,,,,,,,,,,,,,,,,,,,,,,,,,,082719_P1,001,2019_Aug_27_0924,body_behavioural,3.0.4,59.94371201518639,
2,parcelated_audio/43/43_11.aiff,,0,2,2,2,,,,,0,10,10,10,,,,,,,,,,,,,,,,,,,,,,,,,,,,,,,,,,,9,0.41980204799983767,,,,,,,,,,,,,,,,,,,,,,,,,,,,,,082719_P1,001,2019_Aug_27_0924,body_behavioural,3.0.4,59.94371201518639,
2,parcelated_audio/43/43_12.aiff,,0,2,2,2,,,,,0,11,11,11,,,,,,,,,,,,,,,,,,,,,,,,,,,,,,,,,,,9,0.4363611429998855,,,,,,,,,,,,,,,,,,,,,,,,,,,,,,082719_P1,001,2019_Aug_27_0924,body_behavioural,3.0.4,59.94371201518639,
2,parcelated_audio/43/43_13.aiff,,0,2,2,2,,,,,0,12,12,12,,,,,,,,,,,,,,,,,,,,,,,,,,,,,,,,,,,9,0.5203743519996351,,,,,,,,,,,,,,,,,,,,,,,,,,,,,,082719_P1,001,2019_Aug_27_0924,body_behavioural,3.0.4,59.94371201518639,
2,parcelated_audio/43/43_14.aiff,,0,2,2,2,,,,,0,13,13,13,,,,,,,,,,,,,,,,,,,,,,,,,,,,,,,,,,,9,0.46996471700003895,,,,,,,,,,,,,,,,,,,,,,,,,,,,,,082719_P1,001,2019_Aug_27_0924,body_behavioural,3.0.4,59.94371201518639,
2,parcelated_audio/43/43_15.aiff,,0,2,2,2,,,,,0,14,14,14,,,,,,,,,,,,,,,,,,,,,,,,,,,,,,,,,,,9,0.5202787649996026,,,,,,,,,,,,,,,,,,,,,,,,,,,,,,082719_P1,001,2019_Aug_27_0924,body_behavioural,3.0.4,59.94371201518639,
2,parcelated_audio/43/43_16.aiff,,0,2,2,2,,,,,0,15,15,15,,,,,,,,,,,,,,,,,,,,,,,,,,,,,,,,,,,9,0.4199874460009596,,,,,,,,,,,,,,,,,,,,,,,,,,,,,,082719_P1,001,2019_Aug_27_0924,body_behavioural,3.0.4,59.94371201518639,
2,parcelated_audio/43/43_17.aiff,,0,2,2,2,,,,,0,16,16,16,,,,,,,,,,,,,,,,,,,,,,,,,,,,,,,,,,,9,0.5869717130008212,,,,,,,,,,,,,,,,,,,,,,,,,,,,,,082719_P1,001,2019_Aug_27_0924,body_behavioural,3.0.4,59.94371201518639,
2,parcelated_audio/43/43_18.aiff,,0,2,2,2,,,,,0,17,17,17,,,,,,,,,,,,,,,,,,,,,,,,,,,,,,,,,,,9,0.3364272880007775,,,,,,,,,,,,,,,,,,,,,,,,,,,,,,082719_P1,001,2019_Aug_27_0924,body_behavioural,3.0.4,59.94371201518639,
2,parcelated_audio/43/43_19.aiff,,0,2,2,2,,,,,0,18,18,18,,,,,,,,,,,,,,,,,,,,,,,,,,,,,,,,,,,9,0.28707392899923434,,,,,,,,,,,,,,,,,,,,,,,,,,,,,,082719_P1,001,2019_Aug_27_0924,body_behavioural,3.0.4,59.94371201518639,
2,parcelated_audio/43/43_20.aiff,,0,2,2,2,,,,,0,19,19,19,,,,,,,,,,,,,,,,,,,,,,,,,,,,,,,,,,,9,0.369091753000248,,,,,,,,,,,,,,,,,,,,,,,,,,,,,,082719_P1,001,2019_Aug_27_0924,body_behavioural,3.0.4,59.94371201518639,
2,parcelated_audio/43/43_21.aiff,,0,2,2,2,,,,,0,20,20,20,,,,,,,,,,,,,,,,,,,,,,,,,,,,,,,,,,,9,0.4194695589994808,,,,,,,,,,,,,,,,,,,,,,,,,,,,,,082719_P1,001,2019_Aug_27_0924,body_behavioural,3.0.4,59.94371201518639,
2,parcelated_audio/43/43_22.aiff,,0,2,2,2,,,,,0,21,21,21,,,,,,,,,,,,,,,,,,,,,,,,,,,,,,,,,,,9,0.40277805400000943,,,,,,,,,,,,,,,,,,,,,,,,,,,,,,082719_P1,001,2019_Aug_27_0924,body_behavioural,3.0.4,59.94371201518639,
2,parcelated_audio/43/43_23.aiff,,0,2,2,2,,,,,0,22,22,22,,,,,,,,,,,,,,,,,,,,,,,,,,,,,,,,,,,9,0.3691476429994509,,,,,,,,,,,,,,,,,,,,,,,,,,,,,,082719_P1,001,2019_Aug_27_0924,body_behavioural,3.0.4,59.94371201518639,
2,parcelated_audio/43/43_24.aiff,,0,2,2,2,,,,,0,23,23,23,,,,,,,,,,,,,,,,,,,,,,,,,,,,,,,,,,,9,0.37006392199873517,,,,,,,,,,,,,,,,,,,,,,,,,,,,,,082719_P1,001,2019_Aug_27_0924,body_behavioural,3.0.4,59.94371201518639,
2,parcelated_audio/43/43_25.aiff,,0,2,2,2,,,,,0,24,24,24,,,,,,,,,,,,,,,,,,,,,,,,,,,,,,,,,,,9,0.36980540700096753,,,,,,,,,,,,,,,,,,,,,,,,,,,,,,082719_P1,001,2019_Aug_27_0924,body_behavioural,3.0.4,59.94371201518639,
2,parcelated_audio/43/43_26.aiff,,0,2,2,2,,,,,0,25,25,25,,,,,,,,,,,,,,,,,,,,,,,,,,,,,,,,,,,9,0.4364188710005692,,,,,,,,,,,,,,,,,,,,,,,,,,,,,,082719_P1,001,2019_Aug_27_0924,body_behavioural,3.0.4,59.94371201518639,
2,parcelated_audio/43/43_27.aiff,,0,2,2,2,,,,,0,26,26,26,,,,,,,,,,,,,,,,,,,,,,,,,,,,,,,,,,,9,0.3173810850003065,,,,,,,,,,,,,,,,,,,,,,,,,,,,,,082719_P1,001,2019_Aug_27_0924,body_behavioural,3.0.4,59.94371201518639,
2,parcelated_audio/43/43_28.aiff,,0,2,2,2,,,,,0,27,27,27,,,,,,,,,,,,,,,,,,,,,,,,,,,,,,,,,,,1,1.2030222840003262,,,,,,,,,,,,,,,,,,,,,,,,,,,,,,082719_P1,001,2019_Aug_27_0924,body_behavioural,3.0.4,59.94371201518639,
2,parcelated_audio/43/43_29.aiff,,0,2,2,2,,,,,0,28,28,28,,,,,,,,,,,,,,,,,,,,,,,,,,,,,,,,,,,9,3.353282997999486,,,,,,,,,,,,,,,,,,,,,,,,,,,,,,082719_P1,001,2019_Aug_27_0924,body_behavioural,3.0.4,59.94371201518639,
2,,,0,2,2,2,,,,,,,,,,,,,,,,,,,,,,,,,,,,,,,,,,,,,,,,,,,,,space,4.51929772999938,,,,,,,,,,,,,,,,,,,,,,,,,,,,082719_P1,001,2019_Aug_27_0924,body_behavioural,3.0.4,59.94371201518639,
3,,,0,3,3,3,0,0,0,0,,,,,,,,,,,,,,,,,,,,,,,,,,,,,space,0.6173444849991938,space,1.3534630620015378,space,2.3028470499994,,,,,,,,,,,,,,,,,,,,,,,,,,,,,,,,,,,,082719_P1,001,2019_Aug_27_0924,body_behavioural,3.0.4,59.94371201518639,
3,,,0,3,3,3,1,0,1,0,,,,,,,,,,,,,,,,,,,,,,,,,,,,,,,,,space,0.7198977730004117,,,,,,,,,,,,,,,,,,,,,,,,,,,,,,,,,,,,082719_P1,001,2019_Aug_27_0924,body_behavioural,3.0.4,59.94371201518639,
3,,,0,3,3,3,2,0,2,0,,,,,,,,,,,,,,,,,,,,,,,,,,,,,,,,,space,0.9865937030008354,,,,,,,,,,,,,,,,,,,,,,,,,,,,,,,,,,,,082719_P1,001,2019_Aug_27_0924,body_behavioural,3.0.4,59.94371201518639,
3,,,0,3,3,3,3,0,3,0,,,,,,,,,,,,,,,,,,,,,,,,,,,,,,,,,space,0.669814208000389,,,,,,,,,,,,,,,,,,,,,,,,,,,,,,,,,,,,082719_P1,001,2019_Aug_27_0924,body_behavioural,3.0.4,59.94371201518639,
3,,,0,3,3,3,4,0,4,0,,,,,,,,,,,,,,,,,,,,,,,,,,,,,,,,,space,1.0364993299990601,,,,,,,,,,,,,,,,,,,,,,,,,,,,,,,,,,,,082719_P1,001,2019_Aug_27_0924,body_behavioural,3.0.4,59.94371201518639,
3,,,0,3,3,3,5,0,5,0,,,,,,,,,,,,,,,,,,,,,,,,,,,,,,,,,space,0.7697566530005133,,,,,,,,,,,,,,,,,,,,,,,,,,,,,,,,,,,,082719_P1,001,2019_Aug_27_0924,body_behavioural,3.0.4,59.94371201518639,
3,,,0,3,3,3,6,0,6,0,,,,,,,,,,,,,,,,,,,,,,,,,,,,,,,,,space,1.735931896000693,,,,,,,,,,,,,,,,,,,,,,,,,,,,,,,,,,,,082719_P1,001,2019_Aug_27_0924,body_behavioural,3.0.4,59.94371201518639,
3,parcelated_audio/42/42_1.aiff,,0,3,3,3,,,,,0,0,0,0,,,,,,,,,,,,,,,,,,,,,,,,,,,,,,,space,1.2839924720010458,space,0.41989099999955215,9,1.5363737269999547,,,,,,,,,,,,,,,,,,,,,,,,,,,,,,082719_P1,001,2019_Aug_27_0924,body_behavioural,3.0.4,59.94371201518639,
3,parcelated_audio/42/42_2.aiff,,0,3,3,3,,,,,0,1,1,1,,,,,,,,,,,,,,,,,,,,,,,,,,,,,,,,,,,9,0.26914510800088465,,,,,,,,,,,,,,,,,,,,,,,,,,,,,,082719_P1,001,2019_Aug_27_0924,body_behavioural,3.0.4,59.94371201518639,
3,parcelated_audio/42/42_3.aiff,,0,3,3,3,,,,,0,2,2,2,,,,,,,,,,,,,,,,,,,,,,,,,,,,,,,,,,,9,1.2699212200004695,,,,,,,,,,,,,,,,,,,,,,,,,,,,,,082719_P1,001,2019_Aug_27_0924,body_behavioural,3.0.4,59.94371201518639,
3,parcelated_audio/42/42_4.aiff,,0,3,3,3,,,,,0,3,3,3,,,,,,,,,,,,,,,,,,,,,,,,,,,,,,,,,,,9,0.3532753800009232,,,,,,,,,,,,,,,,,,,,,,,,,,,,,,082719_P1,001,2019_Aug_27_0924,body_behavioural,3.0.4,59.94371201518639,
3,parcelated_audio/42/42_5.aiff,,0,3,3,3,,,,,0,4,4,4,,,,,,,,,,,,,,,,,,,,,,,,,,,,,,,,,,,9,1.0174538050014235,,,,,,,,,,,,,,,,,,,,,,,,,,,,,,082719_P1,001,2019_Aug_27_0924,body_behavioural,3.0.4,59.94371201518639,
3,parcelated_audio/42/42_6.aiff,,0,3,3,3,,,,,0,5,5,5,,,,,,,,,,,,,,,,,,,,,,,,,,,,,,,,,,,9,0.3034200830006739,,,,,,,,,,,,,,,,,,,,,,,,,,,,,,082719_P1,001,2019_Aug_27_0924,body_behavioural,3.0.4,59.94371201518639,
3,parcelated_audio/42/42_7.aiff,,0,3,3,3,,,,,0,6,6,6,,,,,,,,,,,,,,,,,,,,,,,,,,,,,,,,,,,9,0.5366140019996237,,,,,,,,,,,,,,,,,,,,,,,,,,,,,,082719_P1,001,2019_Aug_27_0924,body_behavioural,3.0.4,59.94371201518639,
3,parcelated_audio/42/42_8.aiff,,0,3,3,3,,,,,0,7,7,7,,,,,,,,,,,,,,,,,,,,,,,,,,,,,,,,,,,9,0.6696973719990638,,,,,,,,,,,,,,,,,,,,,,,,,,,,,,082719_P1,001,2019_Aug_27_0924,body_behavioural,3.0.4,59.94371201518639,
3,parcelated_audio/42/42_9.aiff,,0,3,3,3,,,,,0,8,8,8,,,,,,,,,,,,,,,,,,,,,,,,,,,,,,,,,,,9,0.3864012260000891,,,,,,,,,,,,,,,,,,,,,,,,,,,,,,082719_P1,001,2019_Aug_27_0924,body_behavioural,3.0.4,59.94371201518639,
3,parcelated_audio/42/42_10.aiff,,0,3,3,3,,,,,0,9,9,9,,,,,,,,,,,,,,,,,,,,,,,,,,,,,,,,,,,9,0.2197001429994998,,,,,,,,,,,,,,,,,,,,,,,,,,,,,,082719_P1,001,2019_Aug_27_0924,body_behavioural,3.0.4,59.94371201518639,
3,parcelated_audio/42/42_11.aiff,,0,3,3,3,,,,,0,10,10,10,,,,,,,,,,,,,,,,,,,,,,,,,,,,,,,,,,,9,0.48646677199940314,,,,,,,,,,,,,,,,,,,,,,,,,,,,,,082719_P1,001,2019_Aug_27_0924,body_behavioural,3.0.4,59.94371201518639,
3,parcelated_audio/42/42_12.aiff,,0,3,3,3,,,,,0,11,11,11,,,,,,,,,,,,,,,,,,,,,,,,,,,,,,,,,,,9,0.3033443870008341,,,,,,,,,,,,,,,,,,,,,,,,,,,,,,082719_P1,001,2019_Aug_27_0924,body_behavioural,3.0.4,59.94371201518639,
3,parcelated_audio/42/42_13.aiff,,0,3,3,3,,,,,0,12,12,12,,,,,,,,,,,,,,,,,,,,,,,,,,,,,,,,,,,9,0.4364153099995747,,,,,,,,,,,,,,,,,,,,,,,,,,,,,,082719_P1,001,2019_Aug_27_0924,body_behavioural,3.0.4,59.94371201518639,
3,parcelated_audio/42/42_14.aiff,,0,3,3,3,,,,,0,13,13,13,,,,,,,,,,,,,,,,,,,,,,,,,,,,,,,,,,,9,0.48672154499945464,,,,,,,,,,,,,,,,,,,,,,,,,,,,,,082719_P1,001,2019_Aug_27_0924,body_behavioural,3.0.4,59.94371201518639,
3,parcelated_audio/42/42_15.aiff,,0,3,3,3,,,,,0,14,14,14,,,,,,,,,,,,,,,,,,,,,,,,,,,,,,,,,,,9,0.9530648780000774,,,,,,,,,,,,,,,,,,,,,,,,,,,,,,082719_P1,001,2019_Aug_27_0924,body_behavioural,3.0.4,59.94371201518639,
3,parcelated_audio/42/42_16.aiff,,0,3,3,3,,,,,0,15,15,15,,,,,,,,,,,,,,,,,,,,,,,,,,,,,,,,,,,9,0.5368036870004289,,,,,,,,,,,,,,,,,,,,,,,,,,,,,,082719_P1,001,2019_Aug_27_0924,body_behavioural,3.0.4,59.94371201518639,
3,parcelated_audio/42/42_17.aiff,,0,3,3,3,,,,,0,16,16,16,,,,,,,,,,,,,,,,,,,,,,,,,,,,,,,,,,,9,0.302942078000342,,,,,,,,,,,,,,,,,,,,,,,,,,,,,,082719_P1,001,2019_Aug_27_0924,body_behavioural,3.0.4,59.94371201518639,
3,parcelated_audio/42/42_18.aiff,,0,3,3,3,,,,,0,17,17,17,,,,,,,,,,,,,,,,,,,,,,,,,,,,,,,,,,,9,0.3699108280015935,,,,,,,,,,,,,,,,,,,,,,,,,,,,,,082719_P1,001,2019_Aug_27_0924,body_behavioural,3.0.4,59.94371201518639,
3,parcelated_audio/42/42_19.aiff,,0,3,3,3,,,,,0,18,18,18,,,,,,,,,,,,,,,,,,,,,,,,,,,,,,,,,,,9,0.2339794819999952,,,,,,,,,,,,,,,,,,,,,,,,,,,,,,082719_P1,001,2019_Aug_27_0924,body_behavioural,3.0.4,59.94371201518639,
3,parcelated_audio/42/42_20.aiff,,0,3,3,3,,,,,0,19,19,19,,,,,,,,,,,,,,,,,,,,,,,,,,,,,,,,,,,9,0.4342359750007745,,,,,,,,,,,,,,,,,,,,,,,,,,,,,,082719_P1,001,2019_Aug_27_0924,body_behavioural,3.0.4,59.94371201518639,
3,parcelated_audio/42/42_21.aiff,,0,3,3,3,,,,,0,20,20,20,,,,,,,,,,,,,,,,,,,,,,,,,,,,,,,,,,,9,0.4341947800003254,,,,,,,,,,,,,,,,,,,,,,,,,,,,,,082719_P1,001,2019_Aug_27_0924,body_behavioural,3.0.4,59.94371201518639,
3,parcelated_audio/42/42_22.aiff,,0,3,3,3,,,,,0,21,21,21,,,,,,,,,,,,,,,,,,,,,,,,,,,,,,,,,,,9,0.6702263629995286,,,,,,,,,,,,,,,,,,,,,,,,,,,,,,082719_P1,001,2019_Aug_27_0924,body_behavioural,3.0.4,59.94371201518639,
3,parcelated_audio/42/42_23.aiff,,0,3,3,3,,,,,0,22,22,22,,,,,,,,,,,,,,,,,,,,,,,,,,,,,,,,,,,9,0.46958346700012044,,,,,,,,,,,,,,,,,,,,,,,,,,,,,,082719_P1,001,2019_Aug_27_0924,body_behavioural,3.0.4,59.94371201518639,
3,parcelated_audio/42/42_24.aiff,,0,3,3,3,,,,,0,23,23,23,,,,,,,,,,,,,,,,,,,,,,,,,,,,,,,,,,,9,1.3366811199994117,,,,,,,,,,,,,,,,,,,,,,,,,,,,,,082719_P1,001,2019_Aug_27_0924,body_behavioural,3.0.4,59.94371201518639,
3,parcelated_audio/42/42_25.aiff,,0,3,3,3,,,,,0,24,24,24,,,,,,,,,,,,,,,,,,,,,,,,,,,,,,,,,,,1,2.2699264859984396,,,,,,,,,,,,,,,,,,,,,,,,,,,,,,082719_P1,001,2019_Aug_27_0924,body_behavioural,3.0.4,59.94371201518639,
3,parcelated_audio/42/42_26.aiff,,0,3,3,3,,,,,0,25,25,25,,,,,,,,,,,,,,,,,,,,,,,,,,,,,,,,,,,9,1.169443553999372,,,,,,,,,,,,,,,,,,,,,,,,,,,,,,082719_P1,001,2019_Aug_27_0924,body_behavioural,3.0.4,59.94371201518639,
3,parcelated_audio/42/42_27.aiff,,0,3,3,3,,,,,0,26,26,26,,,,,,,,,,,,,,,,,,,,,,,,,,,,,,,,,,,9,0.503067462999752,,,,,,,,,,,,,,,,,,,,,,,,,,,,,,082719_P1,001,2019_Aug_27_0924,body_behavioural,3.0.4,59.94371201518639,
3,parcelated_audio/42/42_28.aiff,,0,3,3,3,,,,,0,27,27,27,,,,,,,,,,,,,,,,,,,,,,,,,,,,,,,,,,,9,1.1695991300002788,,,,,,,,,,,,,,,,,,,,,,,,,,,,,,082719_P1,001,2019_Aug_27_0924,body_behavioural,3.0.4,59.94371201518639,
3,parcelated_audio/42/42_29.aiff,,0,3,3,3,,,,,0,28,28,28,,,,,,,,,,,,,,,,,,,,,,,,,,,,,,,,,,,9,0.8697952359998453,,,,,,,,,,,,,,,,,,,,,,,,,,,,,,082719_P1,001,2019_Aug_27_0924,body_behavioural,3.0.4,59.94371201518639,
3,parcelated_audio/42/42_30.aiff,,0,3,3,3,,,,,0,29,29,29,,,,,,,,,,,,,,,,,,,,,,,,,,,,,,,,,,,9,0.30308194999997795,,,,,,,,,,,,,,,,,,,,,,,,,,,,,,082719_P1,001,2019_Aug_27_0924,body_behavioural,3.0.4,59.94371201518639,
3,parcelated_audio/42/42_31.aiff,,0,3,3,3,,,,,0,30,30,30,,,,,,,,,,,,,,,,,,,,,,,,,,,,,,,,,,,9,0.40347273500083247,,,,,,,,,,,,,,,,,,,,,,,,,,,,,,082719_P1,001,2019_Aug_27_0924,body_behavioural,3.0.4,59.94371201518639,
3,parcelated_audio/42/42_32.aiff,,0,3,3,3,,,,,0,31,31,31,,,,,,,,,,,,,,,,,,,,,,,,,,,,,,,,,,,9,0.46992599999975937,,,,,,,,,,,,,,,,,,,,,,,,,,,,,,082719_P1,001,2019_Aug_27_0924,body_behavioural,3.0.4,59.94371201518639,
3,parcelated_audio/42/42_33.aiff,,0,3,3,3,,,,,0,32,32,32,,,,,,,,,,,,,,,,,,,,,,,,,,,,,,,,,,,9,0.4691618130000279,,,,,,,,,,,,,,,,,,,,,,,,,,,,,,082719_P1,001,2019_Aug_27_0924,body_behavioural,3.0.4,59.94371201518639,
3,parcelated_audio/42/42_34.aiff,,0,3,3,3,,,,,0,33,33,33,,,,,,,,,,,,,,,,,,,,,,,,,,,,,,,,,,,9,0.8368358919997263,,,,,,,,,,,,,,,,,,,,,,,,,,,,,,082719_P1,001,2019_Aug_27_0924,body_behavioural,3.0.4,59.94371201518639,
3,parcelated_audio/42/42_35.aiff,,0,3,3,3,,,,,0,34,34,34,,,,,,,,,,,,,,,,,,,,,,,,,,,,,,,,,,,9,0.6204161360001308,,,,,,,,,,,,,,,,,,,,,,,,,,,,,,082719_P1,001,2019_Aug_27_0924,body_behavioural,3.0.4,59.94371201518639,
3,,,0,3,3,3,,,,,,,,,,,,,,,,,,,,,,,,,,,,,,,,,,,,,,,,,,,,,space,2.2537332129995775,,,,,,,,,,,,,,,,,,,,,,,,,,,,082719_P1,001,2019_Aug_27_0924,body_behavioural,3.0.4,59.94371201518639,
4,,,0,4,4,4,0,0,0,0,,,,,,,,,,,,,,,,,,,,,,,,,,,,,space,1.7699990220007749,space,0.5862507459987683,space,0.7861584180009231,,,,,,,,,,,,,,,,,,,,,,,,,,,,,,,,,,,,082719_P1,001,2019_Aug_27_0924,body_behavioural,3.0.4,59.94371201518639,
4,,,0,4,4,4,1,0,1,0,,,,,,,,,,,,,,,,,,,,,,,,,,,,,,,,,space,0.16973106000114058,,,,,,,,,,,,,,,,,,,,,,,,,,,,,,,,,,,,082719_P1,001,2019_Aug_27_0924,body_behavioural,3.0.4,59.94371201518639,
4,,,0,4,4,4,2,0,2,0,,,,,,,,,,,,,,,,,,,,,,,,,,,,,,,,,space,0.15308181699947454,,,,,,,,,,,,,,,,,,,,,,,,,,,,,,,,,,,,082719_P1,001,2019_Aug_27_0924,body_behavioural,3.0.4,59.94371201518639,
4,,,0,4,4,4,3,0,3,0,,,,,,,,,,,,,,,,,,,,,,,,,,,,,,,,,space,0.47000475999993796,,,,,,,,,,,,,,,,,,,,,,,,,,,,,,,,,,,,082719_P1,001,2019_Aug_27_0924,body_behavioural,3.0.4,59.94371201518639,
4,,,0,4,4,4,4,0,4,0,,,,,,,,,,,,,,,,,,,,,,,,,,,,,,,,,space,0.48383884800023225,,,,,,,,,,,,,,,,,,,,,,,,,,,,,,,,,,,,082719_P1,001,2019_Aug_27_0924,body_behavioural,3.0.4,59.94371201518639,
4,,,0,4,4,4,5,0,5,0,,,,,,,,,,,,,,,,,,,,,,,,,,,,,,,,,space,0.1367332819991134,,,,,,,,,,,,,,,,,,,,,,,,,,,,,,,,,,,,082719_P1,001,2019_Aug_27_0924,body_behavioural,3.0.4,59.94371201518639,
4,,,0,4,4,4,6,0,6,0,,,,,,,,,,,,,,,,,,,,,,,,,,,,,,,,,space,0.6837410629996157,,,,,,,,,,,,,,,,,,,,,,,,,,,,,,,,,,,,082719_P1,001,2019_Aug_27_0924,body_behavioural,3.0.4,59.94371201518639,
4,parcelated_audio/13/13_1.aiff,,0,4,4,4,,,,,0,0,0,0,,,,,,,,,,,,,,,,,,,,,,,,,,,,,,,space,1.3365504869998404,space,0.6533937219992367,9,0.719929917000627,,,,,,,,,,,,,,,,,,,,,,,,,,,,,,082719_P1,001,2019_Aug_27_0924,body_behavioural,3.0.4,59.94371201518639,
4,parcelated_audio/13/13_2.aiff,,0,4,4,4,,,,,0,1,1,1,,,,,,,,,,,,,,,,,,,,,,,,,,,,,,,,,,,9,0.5699565850009094,,,,,,,,,,,,,,,,,,,,,,,,,,,,,,082719_P1,001,2019_Aug_27_0924,body_behavioural,3.0.4,59.94371201518639,
4,parcelated_audio/13/13_3.aiff,,0,4,4,4,,,,,0,2,2,2,,,,,,,,,,,,,,,,,,,,,,,,,,,,,,,,,,,9,1.91726277700036,,,,,,,,,,,,,,,,,,,,,,,,,,,,,,082719_P1,001,2019_Aug_27_0924,body_behavioural,3.0.4,59.94371201518639,
4,parcelated_audio/13/13_4.aiff,,0,4,4,4,,,,,0,3,3,3,,,,,,,,,,,,,,,,,,,,,,,,,,,,,,,,,,,9,1.1527288059987768,,,,,,,,,,,,,,,,,,,,,,,,,,,,,,082719_P1,001,2019_Aug_27_0924,body_behavioural,3.0.4,59.94371201518639,
4,parcelated_audio/13/13_5.aiff,,0,4,4,4,,,,,0,4,4,4,,,,,,,,,,,,,,,,,,,,,,,,,,,,,,,,,,,9,1.519834667999021,,,,,,,,,,,,,,,,,,,,,,,,,,,,,,082719_P1,001,2019_Aug_27_0924,body_behavioural,3.0.4,59.94371201518639,
4,parcelated_audio/13/13_6.aiff,,0,4,4,4,,,,,0,5,5,5,,,,,,,,,,,,,,,,,,,,,,,,,,,,,,,,,,,9,1.3859728989991709,,,,,,,,,,,,,,,,,,,,,,,,,,,,,,082719_P1,001,2019_Aug_27_0924,body_behavioural,3.0.4,59.94371201518639,
4,parcelated_audio/13/13_7.aiff,,0,4,4,4,,,,,0,6,6,6,,,,,,,,,,,,,,,,,,,,,,,,,,,,,,,,,,,1,1.053265984999598,,,,,,,,,,,,,,,,,,,,,,,,,,,,,,082719_P1,001,2019_Aug_27_0924,body_behavioural,3.0.4,59.94371201518639,
4,parcelated_audio/13/13_8.aiff,,0,4,4,4,,,,,0,7,7,7,,,,,,,,,,,,,,,,,,,,,,,,,,,,,,,,,,,9,1.469000926001172,,,,,,,,,,,,,,,,,,,,,,,,,,,,,,082719_P1,001,2019_Aug_27_0924,body_behavioural,3.0.4,59.94371201518639,
4,parcelated_audio/13/13_9.aiff,,0,4,4,4,,,,,0,8,8,8,,,,,,,,,,,,,,,,,,,,,,,,,,,,,,,,,,,9,0.7034429420000379,,,,,,,,,,,,,,,,,,,,,,,,,,,,,,082719_P1,001,2019_Aug_27_0924,body_behavioural,3.0.4,59.94371201518639,
4,parcelated_audio/13/13_10.aiff,,0,4,4,4,,,,,0,9,9,9,,,,,,,,,,,,,,,,,,,,,,,,,,,,,,,,,,,9,1.0532164380001632,,,,,,,,,,,,,,,,,,,,,,,,,,,,,,082719_P1,001,2019_Aug_27_0924,body_behavioural,3.0.4,59.94371201518639,
4,parcelated_audio/13/13_11.aiff,,0,4,4,4,,,,,0,10,10,10,,,,,,,,,,,,,,,,,,,,,,,,,,,,,,,,,,,9,0.8197714050002105,,,,,,,,,,,,,,,,,,,,,,,,,,,,,,082719_P1,001,2019_Aug_27_0924,body_behavioural,3.0.4,59.94371201518639,
4,parcelated_audio/13/13_12.aiff,,0,4,4,4,,,,,0,11,11,11,,,,,,,,,,,,,,,,,,,,,,,,,,,,,,,,,,,9,0.4365464279999287,,,,,,,,,,,,,,,,,,,,,,,,,,,,,,082719_P1,001,2019_Aug_27_0924,body_behavioural,3.0.4,59.94371201518639,
4,parcelated_audio/13/13_13.aiff,,0,4,4,4,,,,,0,12,12,12,,,,,,,,,,,,,,,,,,,,,,,,,,,,,,,,,,,9,1.0198807649994706,,,,,,,,,,,,,,,,,,,,,,,,,,,,,,082719_P1,001,2019_Aug_27_0924,body_behavioural,3.0.4,59.94371201518639,
4,parcelated_audio/13/13_14.aiff,,0,4,4,4,,,,,0,13,13,13,,,,,,,,,,,,,,,,,,,,,,,,,,,,,,,,,,,9,0.40361794799900963,,,,,,,,,,,,,,,,,,,,,,,,,,,,,,082719_P1,001,2019_Aug_27_0924,body_behavioural,3.0.4,59.94371201518639,
4,parcelated_audio/13/13_15.aiff,,0,4,4,4,,,,,0,14,14,14,,,,,,,,,,,,,,,,,,,,,,,,,,,,,,,,,,,9,0.6866101819996402,,,,,,,,,,,,,,,,,,,,,,,,,,,,,,082719_P1,001,2019_Aug_27_0924,body_behavioural,3.0.4,59.94371201518639,
4,parcelated_audio/13/13_16.aiff,,0,4,4,4,,,,,0,15,15,15,,,,,,,,,,,,,,,,,,,,,,,,,,,,,,,,,,,9,1.4027224260007642,,,,,,,,,,,,,,,,,,,,,,,,,,,,,,082719_P1,001,2019_Aug_27_0924,body_behavioural,3.0.4,59.94371201518639,
4,parcelated_audio/13/13_17.aiff,,0,4,4,4,,,,,0,16,16,16,,,,,,,,,,,,,,,,,,,,,,,,,,,,,,,,,,,9,0.28653987500001676,,,,,,,,,,,,,,,,,,,,,,,,,,,,,,082719_P1,001,2019_Aug_27_0924,body_behavioural,3.0.4,59.94371201518639,
4,parcelated_audio/13/13_18.aiff,,0,4,4,4,,,,,0,17,17,17,,,,,,,,,,,,,,,,,,,,,,,,,,,,,,,,,,,9,1.119868272999156,,,,,,,,,,,,,,,,,,,,,,,,,,,,,,082719_P1,001,2019_Aug_27_0924,body_behavioural,3.0.4,59.94371201518639,
4,parcelated_audio/13/13_19.aiff,,0,4,4,4,,,,,0,18,18,18,,,,,,,,,,,,,,,,,,,,,,,,,,,,,,,,,,,9,0.91991518299983,,,,,,,,,,,,,,,,,,,,,,,,,,,,,,082719_P1,001,2019_Aug_27_0924,body_behavioural,3.0.4,59.94371201518639,
4,parcelated_audio/13/13_20.aiff,,0,4,4,4,,,,,0,19,19,19,,,,,,,,,,,,,,,,,,,,,,,,,,,,,,,,,,,9,1.1529777029991237,,,,,,,,,,,,,,,,,,,,,,,,,,,,,,082719_P1,001,2019_Aug_27_0924,body_behavioural,3.0.4,59.94371201518639,
4,parcelated_audio/13/13_21.aiff,,0,4,4,4,,,,,0,20,20,20,,,,,,,,,,,,,,,,,,,,,,,,,,,,,,,,,,,9,1.1034196950004116,,,,,,,,,,,,,,,,,,,,,,,,,,,,,,082719_P1,001,2019_Aug_27_0924,body_behavioural,3.0.4,59.94371201518639,
4,parcelated_audio/13/13_22.aiff,,0,4,4,4,,,,,0,21,21,21,,,,,,,,,,,,,,,,,,,,,,,,,,,,,,,,,,,9,1.219597484001497,,,,,,,,,,,,,,,,,,,,,,,,,,,,,,082719_P1,001,2019_Aug_27_0924,body_behavioural,3.0.4,59.94371201518639,
4,parcelated_audio/13/13_23.aiff,,0,4,4,4,,,,,0,22,22,22,,,,,,,,,,,,,,,,,,,,,,,,,,,,,,,,,,,9,0.5673387629994977,,,,,,,,,,,,,,,,,,,,,,,,,,,,,,082719_P1,001,2019_Aug_27_0924,body_behavioural,3.0.4,59.94371201518639,
4,parcelated_audio/13/13_24.aiff,,0,4,4,4,,,,,0,23,23,23,,,,,,,,,,,,,,,,,,,,,,,,,,,,,,,,,,,9,0.13651107099940418,,,,,,,,,,,,,,,,,,,,,,,,,,,,,,082719_P1,001,2019_Aug_27_0924,body_behavioural,3.0.4,59.94371201518639,
4,parcelated_audio/13/13_25.aiff,,0,4,4,4,,,,,0,24,24,24,,,,,,,,,,,,,,,,,,,,,,,,,,,,,,,,,,,9,0.5672383170003741,,,,,,,,,,,,,,,,,,,,,,,,,,,,,,082719_P1,001,2019_Aug_27_0924,body_behavioural,3.0.4,59.94371201518639,
4,parcelated_audio/13/13_26.aiff,,0,4,4,4,,,,,0,25,25,25,,,,,,,,,,,,,,,,,,,,,,,,,,,,,,,,,,,9,0.5866241349995107,,,,,,,,,,,,,,,,,,,,,,,,,,,,,,082719_P1,001,2019_Aug_27_0924,body_behavioural,3.0.4,59.94371201518639,
4,parcelated_audio/13/13_27.aiff,,0,4,4,4,,,,,0,26,26,26,,,,,,,,,,,,,,,,,,,,,,,,,,,,,,,,,,,9,0.8839472950003255,,,,,,,,,,,,,,,,,,,,,,,,,,,,,,082719_P1,001,2019_Aug_27_0924,body_behavioural,3.0.4,59.94371201518639,
4,parcelated_audio/13/13_28.aiff,,0,4,4,4,,,,,0,27,27,27,,,,,,,,,,,,,,,,,,,,,,,,,,,,,,,,,,,9,0.8368299600006139,,,,,,,,,,,,,,,,,,,,,,,,,,,,,,082719_P1,001,2019_Aug_27_0924,body_behavioural,3.0.4,59.94371201518639,
4,parcelated_audio/13/13_29.aiff,,0,4,4,4,,,,,0,28,28,28,,,,,,,,,,,,,,,,,,,,,,,,,,,,,,,,,,,9,1.3033989230007137,,,,,,,,,,,,,,,,,,,,,,,,,,,,,,082719_P1,001,2019_Aug_27_0924,body_behavioural,3.0.4,59.94371201518639,
4,parcelated_audio/13/13_30.aiff,,0,4,4,4,,,,,0,29,29,29,,,,,,,,,,,,,,,,,,,,,,,,,,,,,,,,,,,9,0.7198138250005286,,,,,,,,,,,,,,,,,,,,,,,,,,,,,,082719_P1,001,2019_Aug_27_0924,body_behavioural,3.0.4,59.94371201518639,
4,parcelated_audio/13/13_31.aiff,,0,4,4,4,,,,,0,30,30,30,,,,,,,,,,,,,,,,,,,,,,,,,,,,,,,,,,,9,1.503150557000481,,,,,,,,,,,,,,,,,,,,,,,,,,,,,,082719_P1,001,2019_Aug_27_0924,body_behavioural,3.0.4,59.94371201518639,
4,parcelated_audio/13/13_32.aiff,,0,4,4,4,,,,,0,31,31,31,,,,,,,,,,,,,,,,,,,,,,,,,,,,,,,,,,,9,3.203236064999146,,,,,,,,,,,,,,,,,,,,,,,,,,,,,,082719_P1,001,2019_Aug_27_0924,body_behavioural,3.0.4,59.94371201518639,
4,parcelated_audio/13/13_33.aiff,,0,4,4,4,,,,,0,32,32,32,,,,,,,,,,,,,,,,,,,,,,,,,,,,,,,,,,,9,0.6837764020001487,,,,,,,,,,,,,,,,,,,,,,,,,,,,,,082719_P1,001,2019_Aug_27_0924,body_behavioural,3.0.4,59.94371201518639,
4,,,0,4,4,4,,,,,,,,,,,,,,,,,,,,,,,,,,,,,,,,,,,,,,,,,,,,,space,1.870111297999756,,,,,,,,,,,,,,,,,,,,,,,,,,,,082719_P1,001,2019_Aug_27_0924,body_behavioural,3.0.4,59.94371201518639,
5,,,0,5,5,5,0,0,0,0,,,,,,,,,,,,,,,,,,,,,,,,,,,,,space,1.9865882149988465,space,0.6036180409992085,space,0.6031833729994105,,,,,,,,,,,,,,,,,,,,,,,,,,,,,,,,,,,,082719_P1,001,2019_Aug_27_0924,body_behavioural,3.0.4,59.94371201518639,
5,,,0,5,5,5,1,0,1,0,,,,,,,,,,,,,,,,,,,,,,,,,,,,,,,,,space,1.5031907560005493,,,,,,,,,,,,,,,,,,,,,,,,,,,,,,,,,,,,082719_P1,001,2019_Aug_27_0924,body_behavioural,3.0.4,59.94371201518639,
5,,,0,5,5,5,2,0,2,0,,,,,,,,,,,,,,,,,,,,,,,,,,,,,,,,,space,0.5865006499989249,,,,,,,,,,,,,,,,,,,,,,,,,,,,,,,,,,,,082719_P1,001,2019_Aug_27_0924,body_behavioural,3.0.4,59.94371201518639,
5,,,0,5,5,5,3,0,3,0,,,,,,,,,,,,,,,,,,,,,,,,,,,,,,,,,space,0.4672699399998237,,,,,,,,,,,,,,,,,,,,,,,,,,,,,,,,,,,,082719_P1,001,2019_Aug_27_0924,body_behavioural,3.0.4,59.94371201518639,
5,,,0,5,5,5,4,0,4,0,,,,,,,,,,,,,,,,,,,,,,,,,,,,,,,,,space,0.5031088770010683,,,,,,,,,,,,,,,,,,,,,,,,,,,,,,,,,,,,082719_P1,001,2019_Aug_27_0924,body_behavioural,3.0.4,59.94371201518639,
5,,,0,5,5,5,5,0,5,0,,,,,,,,,,,,,,,,,,,,,,,,,,,,,,,,,space,0.2530853919997753,,,,,,,,,,,,,,,,,,,,,,,,,,,,,,,,,,,,082719_P1,001,2019_Aug_27_0924,body_behavioural,3.0.4,59.94371201518639,
5,,,0,5,5,5,6,0,6,0,,,,,,,,,,,,,,,,,,,,,,,,,,,,,,,,,space,0.5033195430005435,,,,,,,,,,,,,,,,,,,,,,,,,,,,,,,,,,,,082719_P1,001,2019_Aug_27_0924,body_behavioural,3.0.4,59.94371201518639,
5,parcelated_audio/31/31_1.aiff,,0,5,5,5,,,,,0,0,0,0,,,,,,,,,,,,,,,,,,,,,,,,,,,,,,,space,0.5864606199993432,space,1.4866125949993148,9,0.5201089689999208,,,,,,,,,,,,,,,,,,,,,,,,,,,,,,082719_P1,001,2019_Aug_27_0924,body_behavioural,3.0.4,59.94371201518639,
5,parcelated_audio/31/31_2.aiff,,0,5,5,5,,,,,0,1,1,1,,,,,,,,,,,,,,,,,,,,,,,,,,,,,,,,,,,9,0.2537365520001913,,,,,,,,,,,,,,,,,,,,,,,,,,,,,,082719_P1,001,2019_Aug_27_0924,body_behavioural,3.0.4,59.94371201518639,
5,parcelated_audio/31/31_3.aiff,,0,5,5,5,,,,,0,2,2,2,,,,,,,,,,,,,,,,,,,,,,,,,,,,,,,,,,,9,0.35325036000176624,,,,,,,,,,,,,,,,,,,,,,,,,,,,,,082719_P1,001,2019_Aug_27_0924,body_behavioural,3.0.4,59.94371201518639,
5,parcelated_audio/31/31_4.aiff,,0,5,5,5,,,,,0,3,3,3,,,,,,,,,,,,,,,,,,,,,,,,,,,,,,,,,,,9,0.2699333629989269,,,,,,,,,,,,,,,,,,,,,,,,,,,,,,082719_P1,001,2019_Aug_27_0924,body_behavioural,3.0.4,59.94371201518639,
5,parcelated_audio/31/31_5.aiff,,0,5,5,5,,,,,0,4,4,4,,,,,,,,,,,,,,,,,,,,,,,,,,,,,,,,,,,1,2.669937287999346,,,,,,,,,,,,,,,,,,,,,,,,,,,,,,082719_P1,001,2019_Aug_27_0924,body_behavioural,3.0.4,59.94371201518639,
5,parcelated_audio/31/31_6.aiff,,0,5,5,5,,,,,0,5,5,5,,,,,,,,,,,,,,,,,,,,,,,,,,,,,,,,,,,9,0.8530419929993514,,,,,,,,,,,,,,,,,,,,,,,,,,,,,,082719_P1,001,2019_Aug_27_0924,body_behavioural,3.0.4,59.94371201518639,
5,parcelated_audio/31/31_7.aiff,,0,5,5,5,,,,,0,6,6,6,,,,,,,,,,,,,,,,,,,,,,,,,,,,,,,,,,,9,0.30311730499852274,,,,,,,,,,,,,,,,,,,,,,,,,,,,,,082719_P1,001,2019_Aug_27_0924,body_behavioural,3.0.4,59.94371201518639,
5,parcelated_audio/31/31_8.aiff,,0,5,5,5,,,,,0,7,7,7,,,,,,,,,,,,,,,,,,,,,,,,,,,,,,,,,,,9,0.3031376420003653,,,,,,,,,,,,,,,,,,,,,,,,,,,,,,082719_P1,001,2019_Aug_27_0924,body_behavioural,3.0.4,59.94371201518639,
5,parcelated_audio/31/31_9.aiff,,0,5,5,5,,,,,0,8,8,8,,,,,,,,,,,,,,,,,,,,,,,,,,,,,,,,,,,9,0.4672958650007786,,,,,,,,,,,,,,,,,,,,,,,,,,,,,,082719_P1,001,2019_Aug_27_0924,body_behavioural,3.0.4,59.94371201518639,
5,parcelated_audio/31/31_10.aiff,,0,5,5,5,,,,,0,9,9,9,,,,,,,,,,,,,,,,,,,,,,,,,,,,,,,,,,,9,0.13650186799895891,,,,,,,,,,,,,,,,,,,,,,,,,,,,,,082719_P1,001,2019_Aug_27_0924,body_behavioural,3.0.4,59.94371201518639,
5,parcelated_audio/31/31_11.aiff,,0,5,5,5,,,,,0,10,10,10,,,,,,,,,,,,,,,,,,,,,,,,,,,,,,,,,,,9,1.071008607001204,,,,,,,,,,,,,,,,,,,,,,,,,,,,,,082719_P1,001,2019_Aug_27_0924,body_behavioural,3.0.4,59.94371201518639,
5,parcelated_audio/31/31_12.aiff,,0,5,5,5,,,,,0,11,11,11,,,,,,,,,,,,,,,,,,,,,,,,,,,,,,,,,,,9,1.3342717729992728,,,,,,,,,,,,,,,,,,,,,,,,,,,,,,082719_P1,001,2019_Aug_27_0924,body_behavioural,3.0.4,59.94371201518639,
5,parcelated_audio/31/31_13.aiff,,0,5,5,5,,,,,0,12,12,12,,,,,,,,,,,,,,,,,,,,,,,,,,,,,,,,,,,9,0.4031099000003451,,,,,,,,,,,,,,,,,,,,,,,,,,,,,,082719_P1,001,2019_Aug_27_0924,body_behavioural,3.0.4,59.94371201518639,
5,parcelated_audio/31/31_14.aiff,,0,5,5,5,,,,,0,13,13,13,,,,,,,,,,,,,,,,,,,,,,,,,,,,,,,,,,,9,0.4703897290000896,,,,,,,,,,,,,,,,,,,,,,,,,,,,,,082719_P1,001,2019_Aug_27_0924,body_behavioural,3.0.4,59.94371201518639,
5,parcelated_audio/31/31_15.aiff,,0,5,5,5,,,,,0,14,14,14,,,,,,,,,,,,,,,,,,,,,,,,,,,,,,,,,,,9,0.7197440130003088,,,,,,,,,,,,,,,,,,,,,,,,,,,,,,082719_P1,001,2019_Aug_27_0924,body_behavioural,3.0.4,59.94371201518639,
5,parcelated_audio/31/31_16.aiff,,0,5,5,5,,,,,0,15,15,15,,,,,,,,,,,,,,,,,,,,,,,,,,,,,,,,,,,9,1.253206732999388,,,,,,,,,,,,,,,,,,,,,,,,,,,,,,082719_P1,001,2019_Aug_27_0924,body_behavioural,3.0.4,59.94371201518639,
5,parcelated_audio/31/31_17.aiff,,0,5,5,5,,,,,0,16,16,16,,,,,,,,,,,,,,,,,,,,,,,,,,,,,,,,,,,9,0.5195796200005134,,,,,,,,,,,,,,,,,,,,,,,,,,,,,,082719_P1,001,2019_Aug_27_0924,body_behavioural,3.0.4,59.94371201518639,
5,parcelated_audio/31/31_18.aiff,,0,5,5,5,,,,,0,17,17,17,,,,,,,,,,,,,,,,,,,,,,,,,,,,,,,,,,,9,0.3839553479992901,,,,,,,,,,,,,,,,,,,,,,,,,,,,,,082719_P1,001,2019_Aug_27_0924,body_behavioural,3.0.4,59.94371201518639,
5,parcelated_audio/31/31_19.aiff,,0,5,5,5,,,,,0,18,18,18,,,,,,,,,,,,,,,,,,,,,,,,,,,,,,,,,,,9,0.38396902500062424,,,,,,,,,,,,,,,,,,,,,,,,,,,,,,082719_P1,001,2019_Aug_27_0924,body_behavioural,3.0.4,59.94371201518639,
5,parcelated_audio/31/31_20.aiff,,0,5,5,5,,,,,0,19,19,19,,,,,,,,,,,,,,,,,,,,,,,,,,,,,,,,,,,9,1.0532724599997891,,,,,,,,,,,,,,,,,,,,,,,,,,,,,,082719_P1,001,2019_Aug_27_0924,body_behavioural,3.0.4,59.94371201518639,
5,parcelated_audio/31/31_21.aiff,,0,5,5,5,,,,,0,20,20,20,,,,,,,,,,,,,,,,,,,,,,,,,,,,,,,,,,,9,0.38661082499857,,,,,,,,,,,,,,,,,,,,,,,,,,,,,,082719_P1,001,2019_Aug_27_0924,body_behavioural,3.0.4,59.94371201518639,
5,parcelated_audio/31/31_22.aiff,,0,5,5,5,,,,,0,21,21,21,,,,,,,,,,,,,,,,,,,,,,,,,,,,,,,,,,,9,0.20303089800108864,,,,,,,,,,,,,,,,,,,,,,,,,,,,,,082719_P1,001,2019_Aug_27_0924,body_behavioural,3.0.4,59.94371201518639,
5,parcelated_audio/31/31_23.aiff,,0,5,5,5,,,,,0,22,22,22,,,,,,,,,,,,,,,,,,,,,,,,,,,,,,,,,,,9,0.31988323500081606,,,,,,,,,,,,,,,,,,,,,,,,,,,,,,082719_P1,001,2019_Aug_27_0924,body_behavioural,3.0.4,59.94371201518639,
5,parcelated_audio/31/31_24.aiff,,0,5,5,5,,,,,0,23,23,23,,,,,,,,,,,,,,,,,,,,,,,,,,,,,,,,,,,9,0.36979653500020504,,,,,,,,,,,,,,,,,,,,,,,,,,,,,,082719_P1,001,2019_Aug_27_0924,body_behavioural,3.0.4,59.94371201518639,
5,parcelated_audio/31/31_25.aiff,,0,5,5,5,,,,,0,24,24,24,,,,,,,,,,,,,,,,,,,,,,,,,,,,,,,,,,,9,0.2339705350004806,,,,,,,,,,,,,,,,,,,,,,,,,,,,,,082719_P1,001,2019_Aug_27_0924,body_behavioural,3.0.4,59.94371201518639,
5,parcelated_audio/31/31_26.aiff,,0,5,5,5,,,,,0,25,25,25,,,,,,,,,,,,,,,,,,,,,,,,,,,,,,,,,,,9,0.38660899299975426,,,,,,,,,,,,,,,,,,,,,,,,,,,,,,082719_P1,001,2019_Aug_27_0924,body_behavioural,3.0.4,59.94371201518639,
5,parcelated_audio/31/31_27.aiff,,0,5,5,5,,,,,0,26,26,26,,,,,,,,,,,,,,,,,,,,,,,,,,,,,,,,,,,9,0.7674019299993233,,,,,,,,,,,,,,,,,,,,,,,,,,,,,,082719_P1,001,2019_Aug_27_0924,body_behavioural,3.0.4,59.94371201518639,
5,parcelated_audio/31/31_28.aiff,,0,5,5,5,,,,,0,27,27,27,,,,,,,,,,,,,,,,,,,,,,,,,,,,,,,,,,,9,0.40287715600061347,,,,,,,,,,,,,,,,,,,,,,,,,,,,,,082719_P1,001,2019_Aug_27_0924,body_behavioural,3.0.4,59.94371201518639,
5,parcelated_audio/31/31_29.aiff,,0,5,5,5,,,,,0,28,28,28,,,,,,,,,,,,,,,,,,,,,,,,,,,,,,,,,,,9,0.3032635230010783,,,,,,,,,,,,,,,,,,,,,,,,,,,,,,082719_P1,001,2019_Aug_27_0924,body_behavioural,3.0.4,59.94371201518639,
5,parcelated_audio/31/31_30.aiff,,0,5,5,5,,,,,0,29,29,29,,,,,,,,,,,,,,,,,,,,,,,,,,,,,,,,,,,9,0.48646647700115864,,,,,,,,,,,,,,,,,,,,,,,,,,,,,,082719_P1,001,2019_Aug_27_0924,body_behavioural,3.0.4,59.94371201518639,
5,parcelated_audio/31/31_31.aiff,,0,5,5,5,,,,,0,30,30,30,,,,,,,,,,,,,,,,,,,,,,,,,,,,,,,,,,,9,0.403156222000689,,,,,,,,,,,,,,,,,,,,,,,,,,,,,,082719_P1,001,2019_Aug_27_0924,body_behavioural,3.0.4,59.94371201518639,
5,parcelated_audio/31/31_32.aiff,,0,5,5,5,,,,,0,31,31,31,,,,,,,,,,,,,,,,,,,,,,,,,,,,,,,,,,,9,0.6696336559998599,,,,,,,,,,,,,,,,,,,,,,,,,,,,,,082719_P1,001,2019_Aug_27_0924,body_behavioural,3.0.4,59.94371201518639,
5,parcelated_audio/31/31_33.aiff,,0,5,5,5,,,,,0,32,32,32,,,,,,,,,,,,,,,,,,,,,,,,,,,,,,,,,,,9,0.8032614349995129,,,,,,,,,,,,,,,,,,,,,,,,,,,,,,082719_P1,001,2019_Aug_27_0924,body_behavioural,3.0.4,59.94371201518639,
5,parcelated_audio/31/31_34.aiff,,0,5,5,5,,,,,0,33,33,33,,,,,,,,,,,,,,,,,,,,,,,,,,,,,,,,,,,9,0.6032545779999055,,,,,,,,,,,,,,,,,,,,,,,,,,,,,,082719_P1,001,2019_Aug_27_0924,body_behavioural,3.0.4,59.94371201518639,
5,parcelated_audio/31/31_35.aiff,,0,5,5,5,,,,,0,34,34,34,,,,,,,,,,,,,,,,,,,,,,,,,,,,,,,,,,,9,0.33591521800008195,,,,,,,,,,,,,,,,,,,,,,,,,,,,,,082719_P1,001,2019_Aug_27_0924,body_behavioural,3.0.4,59.94371201518639,
5,parcelated_audio/31/31_36.aiff,,0,5,5,5,,,,,0,35,35,35,,,,,,,,,,,,,,,,,,,,,,,,,,,,,,,,,,,9,0.3684274099996401,,,,,,,,,,,,,,,,,,,,,,,,,,,,,,082719_P1,001,2019_Aug_27_0924,body_behavioural,3.0.4,59.94371201518639,
5,,,0,5,5,5,,,,,,,,,,,,,,,,,,,,,,,,,,,,,,,,,,,,,,,,,,,,,space,1.3362034850015334,,,,,,,,,,,,,,,,,,,,,,,,,,,,082719_P1,001,2019_Aug_27_0924,body_behavioural,3.0.4,59.94371201518639,
6,,,0,6,6,6,0,0,0,0,,,,,,,,,,,,,,,,,,,,,,,,,,,,,space,1.3365152299993497,space,0.6700814750001882,space,0.4698229869991337,,,,,,,,,,,,,,,,,,,,,,,,,,,,,,,,,,,,082719_P1,001,2019_Aug_27_0924,body_behavioural,3.0.4,59.94371201518639,
6,,,0,6,6,6,1,0,1,0,,,,,,,,,,,,,,,,,,,,,,,,,,,,,,,,,space,0.4033689100015181,,,,,,,,,,,,,,,,,,,,,,,,,,,,,,,,,,,,082719_P1,001,2019_Aug_27_0924,body_behavioural,3.0.4,59.94371201518639,
6,,,0,6,6,6,2,0,2,0,,,,,,,,,,,,,,,,,,,,,,,,,,,,,,,,,space,0.3032325629992556,,,,,,,,,,,,,,,,,,,,,,,,,,,,,,,,,,,,082719_P1,001,2019_Aug_27_0924,body_behavioural,3.0.4,59.94371201518639,
6,,,0,6,6,6,3,0,3,0,,,,,,,,,,,,,,,,,,,,,,,,,,,,,,,,,space,0.586545442998613,,,,,,,,,,,,,,,,,,,,,,,,,,,,,,,,,,,,082719_P1,001,2019_Aug_27_0924,body_behavioural,3.0.4,59.94371201518639,
6,,,0,6,6,6,4,0,4,0,,,,,,,,,,,,,,,,,,,,,,,,,,,,,,,,,space,1.719906690001153,,,,,,,,,,,,,,,,,,,,,,,,,,,,,,,,,,,,082719_P1,001,2019_Aug_27_0924,body_behavioural,3.0.4,59.94371201518639,
6,parcelated_audio/12/12_1.aiff,,0,6,6,6,,,,,0,0,0,0,,,,,,,,,,,,,,,,,,,,,,,,,,,,,,,space,1.0365438879998692,space,0.3839682800007722,9,0.4533316670003842,,,,,,,,,,,,,,,,,,,,,,,,,,,,,,082719_P1,001,2019_Aug_27_0924,body_behavioural,3.0.4,59.94371201518639,
6,parcelated_audio/12/12_2.aiff,,0,6,6,6,,,,,0,1,1,1,,,,,,,,,,,,,,,,,,,,,,,,,,,,,,,,,,,9,0.2700324020006519,,,,,,,,,,,,,,,,,,,,,,,,,,,,,,082719_P1,001,2019_Aug_27_0924,body_behavioural,3.0.4,59.94371201518639,
6,parcelated_audio/12/12_3.aiff,,0,6,6,6,,,,,0,2,2,2,,,,,,,,,,,,,,,,,,,,,,,,,,,,,,,,,,,9,0.30322884199995315,,,,,,,,,,,,,,,,,,,,,,,,,,,,,,082719_P1,001,2019_Aug_27_0924,body_behavioural,3.0.4,59.94371201518639,
6,parcelated_audio/12/12_4.aiff,,0,6,6,6,,,,,0,3,3,3,,,,,,,,,,,,,,,,,,,,,,,,,,,,,,,,,,,9,0.0031112119995668763,,,,,,,,,,,,,,,,,,,,,,,,,,,,,,082719_P1,001,2019_Aug_27_0924,body_behavioural,3.0.4,59.94371201518639,
6,parcelated_audio/12/12_5.aiff,,0,6,6,6,,,,,0,4,4,4,,,,,,,,,,,,,,,,,,,,,,,,,,,,,,,,,,,9,0.3365107749996241,,,,,,,,,,,,,,,,,,,,,,,,,,,,,,082719_P1,001,2019_Aug_27_0924,body_behavioural,3.0.4,59.94371201518639,
6,parcelated_audio/12/12_6.aiff,,0,6,6,6,,,,,0,5,5,5,,,,,,,,,,,,,,,,,,,,,,,,,,,,,,,,,,,9,0.2697836200004531,,,,,,,,,,,,,,,,,,,,,,,,,,,,,,082719_P1,001,2019_Aug_27_0924,body_behavioural,3.0.4,59.94371201518639,
6,parcelated_audio/12/12_7.aiff,,0,6,6,6,,,,,0,6,6,6,,,,,,,,,,,,,,,,,,,,,,,,,,,,,,,,,,,9,0.50345834700056,,,,,,,,,,,,,,,,,,,,,,,,,,,,,,082719_P1,001,2019_Aug_27_0924,body_behavioural,3.0.4,59.94371201518639,
6,parcelated_audio/12/12_8.aiff,,0,6,6,6,,,,,0,7,7,7,,,,,,,,,,,,,,,,,,,,,,,,,,,,,,,,,,,9,0.3533284179993643,,,,,,,,,,,,,,,,,,,,,,,,,,,,,,082719_P1,001,2019_Aug_27_0924,body_behavioural,3.0.4,59.94371201518639,
6,parcelated_audio/12/12_9.aiff,,0,6,6,6,,,,,0,8,8,8,,,,,,,,,,,,,,,,,,,,,,,,,,,,,,,,,,,9,0.4200375450000138,,,,,,,,,,,,,,,,,,,,,,,,,,,,,,082719_P1,001,2019_Aug_27_0924,body_behavioural,3.0.4,59.94371201518639,
6,parcelated_audio/12/12_10.aiff,,0,6,6,6,,,,,0,9,9,9,,,,,,,,,,,,,,,,,,,,,,,,,,,,,,,,,,,9,0.3863203399996564,,,,,,,,,,,,,,,,,,,,,,,,,,,,,,082719_P1,001,2019_Aug_27_0924,body_behavioural,3.0.4,59.94371201518639,
6,parcelated_audio/12/12_11.aiff,,0,6,6,6,,,,,0,10,10,10,,,,,,,,,,,,,,,,,,,,,,,,,,,,,,,,,,,9,0.3030071670000325,,,,,,,,,,,,,,,,,,,,,,,,,,,,,,082719_P1,001,2019_Aug_27_0924,body_behavioural,3.0.4,59.94371201518639,
6,parcelated_audio/12/12_12.aiff,,0,6,6,6,,,,,0,11,11,11,,,,,,,,,,,,,,,,,,,,,,,,,,,,,,,,,,,9,0.40314369999941846,,,,,,,,,,,,,,,,,,,,,,,,,,,,,,082719_P1,001,2019_Aug_27_0924,body_behavioural,3.0.4,59.94371201518639,
6,parcelated_audio/12/12_13.aiff,,0,6,6,6,,,,,0,12,12,12,,,,,,,,,,,,,,,,,,,,,,,,,,,,,,,,,,,9,0.5031567579990224,,,,,,,,,,,,,,,,,,,,,,,,,,,,,,082719_P1,001,2019_Aug_27_0924,body_behavioural,3.0.4,59.94371201518639,
6,parcelated_audio/12/12_14.aiff,,0,6,6,6,,,,,0,13,13,13,,,,,,,,,,,,,,,,,,,,,,,,,,,,,,,,,,,9,0.3365635519985517,,,,,,,,,,,,,,,,,,,,,,,,,,,,,,082719_P1,001,2019_Aug_27_0924,body_behavioural,3.0.4,59.94371201518639,
6,parcelated_audio/12/12_15.aiff,,0,6,6,6,,,,,0,14,14,14,,,,,,,,,,,,,,,,,,,,,,,,,,,,,,,,,,,9,0.1363992930000677,,,,,,,,,,,,,,,,,,,,,,,,,,,,,,082719_P1,001,2019_Aug_27_0924,body_behavioural,3.0.4,59.94371201518639,
6,parcelated_audio/12/12_16.aiff,,0,6,6,6,,,,,0,15,15,15,,,,,,,,,,,,,,,,,,,,,,,,,,,,,,,,,,,9,0.43659034300071653,,,,,,,,,,,,,,,,,,,,,,,,,,,,,,082719_P1,001,2019_Aug_27_0924,body_behavioural,3.0.4,59.94371201518639,
6,parcelated_audio/12/12_17.aiff,,0,6,6,6,,,,,0,16,16,16,,,,,,,,,,,,,,,,,,,,,,,,,,,,,,,,,,,9,1.319809147000342,,,,,,,,,,,,,,,,,,,,,,,,,,,,,,082719_P1,001,2019_Aug_27_0924,body_behavioural,3.0.4,59.94371201518639,
6,parcelated_audio/12/12_18.aiff,,0,6,6,6,,,,,0,17,17,17,,,,,,,,,,,,,,,,,,,,,,,,,,,,,,,,,,,9,0.35324461499840254,,,,,,,,,,,,,,,,,,,,,,,,,,,,,,082719_P1,001,2019_Aug_27_0924,body_behavioural,3.0.4,59.94371201518639,
6,parcelated_audio/12/12_19.aiff,,0,6,6,6,,,,,0,18,18,18,,,,,,,,,,,,,,,,,,,,,,,,,,,,,,,,,,,9,0.08686800300165487,,,,,,,,,,,,,,,,,,,,,,,,,,,,,,082719_P1,001,2019_Aug_27_0924,body_behavioural,3.0.4,59.94371201518639,
6,parcelated_audio/12/12_20.aiff,,0,6,6,6,,,,,0,19,19,19,,,,,,,,,,,,,,,,,,,,,,,,,,,,,,,,,,,9,0.45304413300073065,,,,,,,,,,,,,,,,,,,,,,,,,,,,,,082719_P1,001,2019_Aug_27_0924,body_behavioural,3.0.4,59.94371201518639,
6,parcelated_audio/12/12_21.aiff,,0,6,6,6,,,,,0,20,20,20,,,,,,,,,,,,,,,,,,,,,,,,,,,,,,,,,,,9,0.45330934899902786,,,,,,,,,,,,,,,,,,,,,,,,,,,,,,082719_P1,001,2019_Aug_27_0924,body_behavioural,3.0.4,59.94371201518639,
6,parcelated_audio/12/12_22.aiff,,0,6,6,6,,,,,0,21,21,21,,,,,,,,,,,,,,,,,,,,,,,,,,,,,,,,,,,9,0.35303339999882155,,,,,,,,,,,,,,,,,,,,,,,,,,,,,,082719_P1,001,2019_Aug_27_0924,body_behavioural,3.0.4,59.94371201518639,
6,parcelated_audio/12/12_23.aiff,,0,6,6,6,,,,,0,22,22,22,,,,,,,,,,,,,,,,,,,,,,,,,,,,,,,,,,,9,0.5864598810003372,,,,,,,,,,,,,,,,,,,,,,,,,,,,,,082719_P1,001,2019_Aug_27_0924,body_behavioural,3.0.4,59.94371201518639,
6,parcelated_audio/12/12_24.aiff,,0,6,6,6,,,,,0,23,23,23,,,,,,,,,,,,,,,,,,,,,,,,,,,,,,,,,,,9,1.6028181919991766,,,,,,,,,,,,,,,,,,,,,,,,,,,,,,082719_P1,001,2019_Aug_27_0924,body_behavioural,3.0.4,59.94371201518639,
6,parcelated_audio/12/12_25.aiff,,0,6,6,6,,,,,0,24,24,24,,,,,,,,,,,,,,,,,,,,,,,,,,,,,,,,,,,9,0.37000086499938334,,,,,,,,,,,,,,,,,,,,,,,,,,,,,,082719_P1,001,2019_Aug_27_0924,body_behavioural,3.0.4,59.94371201518639,
6,parcelated_audio/12/12_26.aiff,,0,6,6,6,,,,,0,25,25,25,,,,,,,,,,,,,,,,,,,,,,,,,,,,,,,,,,,9,0.45321083499948145,,,,,,,,,,,,,,,,,,,,,,,,,,,,,,082719_P1,001,2019_Aug_27_0924,body_behavioural,3.0.4,59.94371201518639,
6,parcelated_audio/12/12_27.aiff,,0,6,6,6,,,,,0,26,26,26,,,,,,,,,,,,,,,,,,,,,,,,,,,,,,,,,,,9,0.05297616499956348,,,,,,,,,,,,,,,,,,,,,,,,,,,,,,082719_P1,001,2019_Aug_27_0924,body_behavioural,3.0.4,59.94371201518639,
6,parcelated_audio/12/12_28.aiff,,0,6,6,6,,,,,0,27,27,27,,,,,,,,,,,,,,,,,,,,,,,,,,,,,,,,,,,9,0.7032563669999945,,,,,,,,,,,,,,,,,,,,,,,,,,,,,,082719_P1,001,2019_Aug_27_0924,body_behavioural,3.0.4,59.94371201518639,
6,parcelated_audio/12/12_29.aiff,,0,6,6,6,,,,,0,28,28,28,,,,,,,,,,,,,,,,,,,,,,,,,,,,,,,,,,,9,0.35330027200143377,,,,,,,,,,,,,,,,,,,,,,,,,,,,,,082719_P1,001,2019_Aug_27_0924,body_behavioural,3.0.4,59.94371201518639,
6,parcelated_audio/12/12_30.aiff,,0,6,6,6,,,,,0,29,29,29,,,,,,,,,,,,,,,,,,,,,,,,,,,,,,,,,,,9,0.6365563769995788,,,,,,,,,,,,,,,,,,,,,,,,,,,,,,082719_P1,001,2019_Aug_27_0924,body_behavioural,3.0.4,59.94371201518639,
6,parcelated_audio/12/12_31.aiff,,0,6,6,6,,,,,0,30,30,30,,,,,,,,,,,,,,,,,,,,,,,,,,,,,,,,,,,9,0.38625218699962716,,,,,,,,,,,,,,,,,,,,,,,,,,,,,,082719_P1,001,2019_Aug_27_0924,body_behavioural,3.0.4,59.94371201518639,
6,,,0,6,6,6,,,,,,,,,,,,,,,,,,,,,,,,,,,,,,,,,,,,,,,,,,,,,space,1.4173422370004118,,,,,,,,,,,,,,,,,,,,,,,,,,,,082719_P1,001,2019_Aug_27_0924,body_behavioural,3.0.4,59.94371201518639,
7,,,0,7,7,7,0,0,0,0,,,,,,,,,,,,,,,,,,,,,,,,,,,,,space,1.4205446939995454,space,0.586872530000619,space,0.5032584479995421,,,,,,,,,,,,,,,,,,,,,,,,,,,,,,,,,,,,082719_P1,001,2019_Aug_27_0924,body_behavioural,3.0.4,59.94371201518639,
7,,,0,7,7,7,1,0,1,0,,,,,,,,,,,,,,,,,,,,,,,,,,,,,,,,,space,0.4863499420007429,,,,,,,,,,,,,,,,,,,,,,,,,,,,,,,,,,,,082719_P1,001,2019_Aug_27_0924,body_behavioural,3.0.4,59.94371201518639,
7,,,0,7,7,7,2,0,2,0,,,,,,,,,,,,,,,,,,,,,,,,,,,,,,,,,space,0.15308564500082866,,,,,,,,,,,,,,,,,,,,,,,,,,,,,,,,,,,,082719_P1,001,2019_Aug_27_0924,body_behavioural,3.0.4,59.94371201518639,
7,,,0,7,7,7,3,0,3,0,,,,,,,,,,,,,,,,,,,,,,,,,,,,,,,,,space,0.3197105349991034,,,,,,,,,,,,,,,,,,,,,,,,,,,,,,,,,,,,082719_P1,001,2019_Aug_27_0924,body_behavioural,3.0.4,59.94371201518639,
7,,,0,7,7,7,4,0,4,0,,,,,,,,,,,,,,,,,,,,,,,,,,,,,,,,,space,0.867455756999334,,,,,,,,,,,,,,,,,,,,,,,,,,,,,,,,,,,,082719_P1,001,2019_Aug_27_0924,body_behavioural,3.0.4,59.94371201518639,
7,,,0,7,7,7,5,0,5,0,,,,,,,,,,,,,,,,,,,,,,,,,,,,,,,,,space,0.5196774029991502,,,,,,,,,,,,,,,,,,,,,,,,,,,,,,,,,,,,082719_P1,001,2019_Aug_27_0924,body_behavioural,3.0.4,59.94371201518639,
7,,,0,7,7,7,6,0,6,0,,,,,,,,,,,,,,,,,,,,,,,,,,,,,,,,,space,1.0840240550005547,,,,,,,,,,,,,,,,,,,,,,,,,,,,,,,,,,,,082719_P1,001,2019_Aug_27_0924,body_behavioural,3.0.4,59.94371201518639,
7,parcelated_audio/21/21_1.aiff,,0,7,7,7,,,,,0,0,0,0,,,,,,,,,,,,,,,,,,,,,,,,,,,,,,,space,1.3865353830005915,space,0.45305835500039393,9,0.3032675480008038,,,,,,,,,,,,,,,,,,,,,,,,,,,,,,082719_P1,001,2019_Aug_27_0924,body_behavioural,3.0.4,59.94371201518639,
7,parcelated_audio/21/21_2.aiff,,0,7,7,7,,,,,0,1,1,1,,,,,,,,,,,,,,,,,,,,,,,,,,,,,,,,,,,9,0.31699938500059943,,,,,,,,,,,,,,,,,,,,,,,,,,,,,,082719_P1,001,2019_Aug_27_0924,body_behavioural,3.0.4,59.94371201518639,
7,parcelated_audio/21/21_3.aiff,,0,7,7,7,,,,,0,2,2,2,,,,,,,,,,,,,,,,,,,,,,,,,,,,,,,,,,,9,0.21986587900028098,,,,,,,,,,,,,,,,,,,,,,,,,,,,,,082719_P1,001,2019_Aug_27_0924,body_behavioural,3.0.4,59.94371201518639,
7,parcelated_audio/21/21_4.aiff,,0,7,7,7,,,,,0,3,3,3,,,,,,,,,,,,,,,,,,,,,,,,,,,,,,,,,,,9,0.203029776999756,,,,,,,,,,,,,,,,,,,,,,,,,,,,,,082719_P1,001,2019_Aug_27_0924,body_behavioural,3.0.4,59.94371201518639,
7,parcelated_audio/21/21_5.aiff,,0,7,7,7,,,,,0,4,4,4,,,,,,,,,,,,,,,,,,,,,,,,,,,,,,,,,,,9,0.4700969919995259,,,,,,,,,,,,,,,,,,,,,,,,,,,,,,082719_P1,001,2019_Aug_27_0924,body_behavioural,3.0.4,59.94371201518639,
7,parcelated_audio/21/21_6.aiff,,0,7,7,7,,,,,0,5,5,5,,,,,,,,,,,,,,,,,,,,,,,,,,,,,,,,,,,9,0.3036580349998985,,,,,,,,,,,,,,,,,,,,,,,,,,,,,,082719_P1,001,2019_Aug_27_0924,body_behavioural,3.0.4,59.94371201518639,
7,parcelated_audio/21/21_7.aiff,,0,7,7,7,,,,,0,6,6,6,,,,,,,,,,,,,,,,,,,,,,,,,,,,,,,,,,,9,0.7861784649994661,,,,,,,,,,,,,,,,,,,,,,,,,,,,,,082719_P1,001,2019_Aug_27_0924,body_behavioural,3.0.4,59.94371201518639,
7,parcelated_audio/21/21_8.aiff,,0,7,7,7,,,,,0,7,7,7,,,,,,,,,,,,,,,,,,,,,,,,,,,,,,,,,,,9,0.3364101400002255,,,,,,,,,,,,,,,,,,,,,,,,,,,,,,082719_P1,001,2019_Aug_27_0924,body_behavioural,3.0.4,59.94371201518639,
7,parcelated_audio/21/21_9.aiff,,0,7,7,7,,,,,0,8,8,8,,,,,,,,,,,,,,,,,,,,,,,,,,,,,,,,,,,9,0.2530309109988593,,,,,,,,,,,,,,,,,,,,,,,,,,,,,,082719_P1,001,2019_Aug_27_0924,body_behavioural,3.0.4,59.94371201518639,
7,parcelated_audio/21/21_10.aiff,,0,7,7,7,,,,,0,9,9,9,,,,,,,,,,,,,,,,,,,,,,,,,,,,,,,,,,,9,0.23656762999962666,,,,,,,,,,,,,,,,,,,,,,,,,,,,,,082719_P1,001,2019_Aug_27_0924,body_behavioural,3.0.4,59.94371201518639,
7,parcelated_audio/21/21_11.aiff,,0,7,7,7,,,,,0,10,10,10,,,,,,,,,,,,,,,,,,,,,,,,,,,,,,,,,,,9,0.4695678259995475,,,,,,,,,,,,,,,,,,,,,,,,,,,,,,082719_P1,001,2019_Aug_27_0924,body_behavioural,3.0.4,59.94371201518639,
7,parcelated_audio/21/21_12.aiff,,0,7,7,7,,,,,0,11,11,11,,,,,,,,,,,,,,,,,,,,,,,,,,,,,,,,,,,9,0.5859937069999432,,,,,,,,,,,,,,,,,,,,,,,,,,,,,,082719_P1,001,2019_Aug_27_0924,body_behavioural,3.0.4,59.94371201518639,
7,parcelated_audio/21/21_13.aiff,,0,7,7,7,,,,,0,12,12,12,,,,,,,,,,,,,,,,,,,,,,,,,,,,,,,,,,,9,0.4196993140012637,,,,,,,,,,,,,,,,,,,,,,,,,,,,,,082719_P1,001,2019_Aug_27_0924,body_behavioural,3.0.4,59.94371201518639,
7,parcelated_audio/21/21_14.aiff,,0,7,7,7,,,,,0,13,13,13,,,,,,,,,,,,,,,,,,,,,,,,,,,,,,,,,,,9,0.5006754170008207,,,,,,,,,,,,,,,,,,,,,,,,,,,,,,082719_P1,001,2019_Aug_27_0924,body_behavioural,3.0.4,59.94371201518639,
7,parcelated_audio/21/21_15.aiff,,0,7,7,7,,,,,0,14,14,14,,,,,,,,,,,,,,,,,,,,,,,,,,,,,,,,,,,9,0.36978599000030954,,,,,,,,,,,,,,,,,,,,,,,,,,,,,,082719_P1,001,2019_Aug_27_0924,body_behavioural,3.0.4,59.94371201518639,
7,parcelated_audio/21/21_16.aiff,,0,7,7,7,,,,,0,15,15,15,,,,,,,,,,,,,,,,,,,,,,,,,,,,,,,,,,,9,1.0201077399997303,,,,,,,,,,,,,,,,,,,,,,,,,,,,,,082719_P1,001,2019_Aug_27_0924,body_behavioural,3.0.4,59.94371201518639,
7,parcelated_audio/21/21_17.aiff,,0,7,7,7,,,,,0,16,16,16,,,,,,,,,,,,,,,,,,,,,,,,,,,,,,,,,,,9,1.7866760119995888,,,,,,,,,,,,,,,,,,,,,,,,,,,,,,082719_P1,001,2019_Aug_27_0924,body_behavioural,3.0.4,59.94371201518639,
7,parcelated_audio/21/21_18.aiff,,0,7,7,7,,,,,0,17,17,17,,,,,,,,,,,,,,,,,,,,,,,,,,,,,,,,,,,9,0.3535378220003622,,,,,,,,,,,,,,,,,,,,,,,,,,,,,,082719_P1,001,2019_Aug_27_0924,body_behavioural,3.0.4,59.94371201518639,
7,parcelated_audio/21/21_19.aiff,,0,7,7,7,,,,,0,18,18,18,,,,,,,,,,,,,,,,,,,,,,,,,,,,,,,,,,,9,0.4531081309996807,,,,,,,,,,,,,,,,,,,,,,,,,,,,,,082719_P1,001,2019_Aug_27_0924,body_behavioural,3.0.4,59.94371201518639,
7,parcelated_audio/21/21_20.aiff,,0,7,7,7,,,,,0,19,19,19,,,,,,,,,,,,,,,,,,,,,,,,,,,,,,,,,,,9,0.5340777100009291,,,,,,,,,,,,,,,,,,,,,,,,,,,,,,082719_P1,001,2019_Aug_27_0924,body_behavioural,3.0.4,59.94371201518639,
7,parcelated_audio/21/21_21.aiff,,0,7,7,7,,,,,0,20,20,20,,,,,,,,,,,,,,,,,,,,,,,,,,,,,,,,,,,9,0.5368403419997776,,,,,,,,,,,,,,,,,,,,,,,,,,,,,,082719_P1,001,2019_Aug_27_0924,body_behavioural,3.0.4,59.94371201518639,
7,parcelated_audio/21/21_22.aiff,,0,7,7,7,,,,,0,21,21,21,,,,,,,,,,,,,,,,,,,,,,,,,,,,,,,,,,,9,0.28668308699889167,,,,,,,,,,,,,,,,,,,,,,,,,,,,,,082719_P1,001,2019_Aug_27_0924,body_behavioural,3.0.4,59.94371201518639,
7,parcelated_audio/21/21_23.aiff,,0,7,7,7,,,,,0,22,22,22,,,,,,,,,,,,,,,,,,,,,,,,,,,,,,,,,,,9,0.7031913050013827,,,,,,,,,,,,,,,,,,,,,,,,,,,,,,082719_P1,001,2019_Aug_27_0924,body_behavioural,3.0.4,59.94371201518639,
7,parcelated_audio/21/21_24.aiff,,0,7,7,7,,,,,0,23,23,23,,,,,,,,,,,,,,,,,,,,,,,,,,,,,,,,,,,9,0.4699398970005859,,,,,,,,,,,,,,,,,,,,,,,,,,,,,,082719_P1,001,2019_Aug_27_0924,body_behavioural,3.0.4,59.94371201518639,
7,parcelated_audio/21/21_25.aiff,,0,7,7,7,,,,,0,24,24,24,,,,,,,,,,,,,,,,,,,,,,,,,,,,,,,,,,,9,0.5699421980007173,,,,,,,,,,,,,,,,,,,,,,,,,,,,,,082719_P1,001,2019_Aug_27_0924,body_behavioural,3.0.4,59.94371201518639,
7,parcelated_audio/21/21_26.aiff,,0,7,7,7,,,,,0,25,25,25,,,,,,,,,,,,,,,,,,,,,,,,,,,,,,,,,,,9,0.3364731349993235,,,,,,,,,,,,,,,,,,,,,,,,,,,,,,082719_P1,001,2019_Aug_27_0924,body_behavioural,3.0.4,59.94371201518639,
7,parcelated_audio/21/21_27.aiff,,0,7,7,7,,,,,0,26,26,26,,,,,,,,,,,,,,,,,,,,,,,,,,,,,,,,,,,9,0.38673629200093274,,,,,,,,,,,,,,,,,,,,,,,,,,,,,,082719_P1,001,2019_Aug_27_0924,body_behavioural,3.0.4,59.94371201518639,
7,parcelated_audio/21/21_28.aiff,,0,7,7,7,,,,,0,27,27,27,,,,,,,,,,,,,,,,,,,,,,,,,,,,,,,,,,,9,0.3862519689992041,,,,,,,,,,,,,,,,,,,,,,,,,,,,,,082719_P1,001,2019_Aug_27_0924,body_behavioural,3.0.4,59.94371201518639,
7,parcelated_audio/21/21_29.aiff,,0,7,7,7,,,,,0,28,28,28,,,,,,,,,,,,,,,,,,,,,,,,,,,,,,,,,,,9,0.2528273389998503,,,,,,,,,,,,,,,,,,,,,,,,,,,,,,082719_P1,001,2019_Aug_27_0924,body_behavioural,3.0.4,59.94371201518639,
7,parcelated_audio/21/21_30.aiff,,0,7,7,7,,,,,0,29,29,29,,,,,,,,,,,,,,,,,,,,,,,,,,,,,,,,,,,9,0.33614128900080686,,,,,,,,,,,,,,,,,,,,,,,,,,,,,,082719_P1,001,2019_Aug_27_0924,body_behavioural,3.0.4,59.94371201518639,
7,,,0,7,7,7,,,,,,,,,,,,,,,,,,,,,,,,,,,,,,,,,,,,,,,,,,,,,space,1.7363922250005999,,,,,,,,,,,,,,,,,,,,,,,,,,,,082719_P1,001,2019_Aug_27_0924,body_behavioural,3.0.4,59.94371201518639,
,,,,,,,,,,,,,,,,,,,,,,,,,,,,,,,,,,,,,,,,,,,,,,,,,,,,,2526.77165119,space,0.9531618930013792,,,,,,,,,,,,,,,,,,,,,,,,,082719_P1,001,2019_Aug_27_0924,body_behavioural,3.0.4,59.94371201518639,
,,"In this next part of the experiment, please recall each story to the best of your ability.",,,,,,,,,,,,,0,0,0,0,,,,,,,,,,,,,,,,,,,,,,,,,,,,,,,,,,,,,,space,2.220432725000137,,,,,,,,,,,,,,,,,,,,,,,082719_P1,001,2019_Aug_27_0924,body_behavioural,3.0.4,59.94371201518639,
,,"You will be presented with the story title, names, the images, and a blank text box for each story.",,,,,,,,,,,,,0,1,1,1,,,,,,,,,,,,,,,,,,,,,,,,,,,,,,,,,,,,,,space,0.33653586999935214,,,,,,,,,,,,,,,,,,,,,,,082719_P1,001,2019_Aug_27_0924,body_behavioural,3.0.4,59.94371201518639,
,,Describe the story indicated with as many details as you can remember in the space provided. ,,,,,,,,,,,,,0,2,2,2,,,,,,,,,,,,,,,,,,,,,,,,,,,,,,,,,,,,,,space,0.26981930599868065,,,,,,,,,,,,,,,,,,,,,,,082719_P1,001,2019_Aug_27_0924,body_behavioural,3.0.4,59.94371201518639,
,,"When you are finished recalling one story, to move onto the next one, press the ‘return’ key. ",,,,,,,,,,,,,0,3,3,3,,,,,,,,,,,,,,,,,,,,,,,,,,,,,,,,,,,,,,space,0.16972929700023087,,,,,,,,,,,,,,,,,,,,,,,082719_P1,001,2019_Aug_27_0924,body_behavioural,3.0.4,59.94371201518639,
,,There is a 5 minute time limit to make your response. ,,,,,,,,,,,,,0,4,4,4,,,,,,,,,,,,,,,,,,,,,,,,,,,,,,,,,,,,,,space,0.17006487000071502,,,,,,,,,,,,,,,,,,,,,,,082719_P1,001,2019_Aug_27_0924,body_behavioural,3.0.4,59.94371201518639,
,,Please note that you will not be able to capitalize any letters except for the first letter of your answer.,,,,,,,,,,,,,0,5,5,5,,,,,,,,,,,,,,,,,,,,,,,,,,,,,,,,,,,,,,space,0.469707008000114,,,,,,,,,,,,,,,,,,,,,,,082719_P1,001,2019_Aug_27_0924,body_behavioural,3.0.4,59.94371201518639,
0,,,,,,,,,,,,,,,,,,,0,0,0,0,,,,,,,,,,,,,,,,,,,,,,,,,,,,,,,,,,,,space,2.7533150510007545, they proposed in a college class,,,,,,,,,,,,,,,,,,,,082719_P1,001,2019_Aug_27_0924,body_behavioural,3.0.4,59.94371201518639,
1,,,,,,,,,,,,,,,,,,,0,1,1,1,,,,,,,,,,,,,,,,,,,,,,,,,,,,,,,,,,,,space,1.6366480579999916,They had positive energy,,,,,,,,,,,,,,,,,,,,082719_P1,001,2019_Aug_27_0924,body_behavioural,3.0.4,59.94371201518639,
2,,,,,,,,,,,,,,,,,,,0,2,2,2,,,,,,,,,,,,,,,,,,,,,,,,,,,,,,,,,,,,space,2.7865858130007837,They met in a grocery store,,,,,,,,,,,,,,,,,,,,082719_P1,001,2019_Aug_27_0924,body_behavioural,3.0.4,59.94371201518639,
3,,,,,,,,,,,,,,,,,,,0,3,3,3,,,,,,,,,,,,,,,,,,,,,,,,,,,,,,,,,,,,space,0.9009517849990516,Dont remember,,,,,,,,,,,,,,,,,,,,082719_P1,001,2019_Aug_27_0924,body_behavioural,3.0.4,59.94371201518639,
4,,,,,,,,,,,,,,,,,,,0,4,4,4,,,,,,,,,,,,,,,,,,,,,,,,,,,,,,,,,,,,space,2.203169843000069,They broke up ,,,,,,,,,,,,,,,,,,,,082719_P1,001,2019_Aug_27_0924,body_behavioural,3.0.4,59.94371201518639,
5,,,,,,,,,,,,,,,,,,,0,5,5,5,,,,,,,,,,,,,,,,,,,,,,,,,,,,,,,,,,,,space,1.2673304929994629,They became bussiness partners,,,,,,,,,,,,,,,,,,,,082719_P1,001,2019_Aug_27_0924,body_behavioural,3.0.4,59.94371201518639,
6,,,,,,,,,,,,,,,,,,,0,6,6,6,,,,,,,,,,,,,,,,,,,,,,,,,,,,,,,,,,,,space,1.1031847249996645,They broke up on a vactation plane trip,,,,,,,,,,,,,,,,,,,,082719_P1,001,2019_Aug_27_0924,body_behavioural,3.0.4,59.94371201518639,
7,,,,,,,,,,,,,,,,,,,0,7,7,7,,,,,,,,,,,,,,,,,,,,,,,,,,,,,,,,,,,,space,0.83662544300023,They made proposal in a resturant,,,,,,,,,,,,,,,,,,,,082719_P1,001,2019_Aug_27_0924,body_behavioural,3.0.4,59.94371201518639,
,,,,,,,,,,,,,,,,,,,,,,,,,,,,,,,,,,,,,,,,,,,,,,,,,,,,,,,,,,,,,2730.2499516629996,space,0.6698070999991614,,,,,,,,,,,,,,,,,082719_P1,001,2019_Aug_27_0924,body_behavioural,3.0.4,59.94371201518639,
,,"In this last part of the experiment, please answer 8 questions about each story.",,,,,,,,,,,,,,,,,,,,,0,0,0,0,,,,,,,,,,,,,,,,,,,,,,,,,,,,,,,,,,,,,,space,0.636644348000118,,,,,,,,,,,,,,,082719_P1,001,2019_Aug_27_0924,body_behavioural,3.0.4,59.94371201518639,
,,Some of the questions are not related to the perspective you were asked to assume.,,,,,,,,,,,,,,,,,,,,,0,1,1,1,,,,,,,,,,,,,,,,,,,,,,,,,,,,,,,,,,,,,,space,0.6868838319987844,,,,,,,,,,,,,,,082719_P1,001,2019_Aug_27_0924,body_behavioural,3.0.4,59.94371201518639,
,,"We realize that we did not tell you to think of these questions during the story, but please do your best to answer them.",,,,,,,,,,,,,,,,,,,,,0,2,2,2,,,,,,,,,,,,,,,,,,,,,,,,,,,,,,,,,,,,,,space,0.9673293299983925,,,,,,,,,,,,,,,082719_P1,001,2019_Aug_27_0924,body_behavioural,3.0.4,59.94371201518639,
,,"Please answer as much as you remember, and be specific and concrete in your answers. It is best to try to be as faithful as possible to what the story actually said.
",,,,,,,,,,,,,,,,,,,,,0,3,3,3,,,,,,,,,,,,,,,,,,,,,,,,,,,,,,,,,,,,,,space,0.2866835650002031,,,,,,,,,,,,,,,082719_P1,001,2019_Aug_27_0924,body_behavioural,3.0.4,59.94371201518639,
,,"When you have finished typing your answer, hit ‘return’ to submit your answer and move onto the next question. ",,,,,,,,,,,,,,,,,,,,,0,4,4,4,,,,,,,,,,,,,,,,,,,,,,,,,,,,,,,,,,,,,,space,0.3199302249995526,,,,,,,,,,,,,,,082719_P1,001,2019_Aug_27_0924,body_behavioural,3.0.4,59.94371201518639,
0,,,,,,,,,,,,,,,,,,,,,,,,,,,0,0,0,0,,,,,,,,,,,,,,,,,,,,,,,,,,,,,,,,,,,,space,0.1699266230007197,1 year,primed first,6,At the end,Her sister,Big auditoruinm,Idk,Chemistry,,,,,082719_P1,001,2019_Aug_27_0924,body_behavioural,3.0.4,59.94371201518639,
1,,,,,,,,,,,,,,,,,,,,,,,,,,,0,1,1,1,,,,,,,,,,,,,,,,,,,,,,,,,,,,,,Charity,,,,,,space,2.536323882999568,Idk,primed first,I forgot,Dont remember,Dont rember,Dont remeber,2800,Dont rember,Charity,,,,082719_P1,001,2019_Aug_27_0924,body_behavioural,3.0.4,59.94371201518639,
2,,,,,,,,,,,,,,,,,,,,,,,,,,,0,2,2,2,,,,,,,,,,,,,,,,,,,,,,,,,,,,,,34 he used credit card,,,,,,space,1.6199497090001387,His eyes,primed first,Flirting,Dont rember,Dont rember,Nice,I forgot,3,34 he used credit card,,,,082719_P1,001,2019_Aug_27_0924,body_behavioural,3.0.4,59.94371201518639,
3,,,,,,,,,,,,,,,,,,,,,,,,,,,0,3,3,3,,,,,,,,,,,,,,,,,,,,,,,,,,,,,,The end,,,,,,space,0.9692895159987529,Forgot,primed first,Arugyment,Boadrerline,Left,Forgot,Forgot,Never,The end,,,,082719_P1,001,2019_Aug_27_0924,body_behavioural,3.0.4,59.94371201518639,
4,,,,,,,,,,,,,,,,,,,,,,,,,,,0,4,4,4,,,,,,,,,,,,,,,,,,,,,,,,,,,,,,Cat,,,,,,space,1.0698176549994969,Loud,primed first,Food,4,55,5 months,Conflict,Conflict,Cat,,,,082719_P1,001,2019_Aug_27_0924,body_behavioural,3.0.4,59.94371201518639,
5,,,,,,,,,,,,,,,,,,,,,,,,,,,0,5,5,5,,,,,,,,,,,,,,,,,,,,,,,,,,,,,,Thinking,,,,,,space,1.0367360700001882,Nice,non-primed first,Nce,Steak,Notat all,Business,Forgot,Tech,Thinking,,,,082719_P1,001,2019_Aug_27_0924,body_behavioural,3.0.4,59.94371201518639,
6,,,,,,,,,,,,,,,,,,,,,,,,,,,0,6,6,6,,,,,,,,,,,,,,,,,,,,,,,,,,,,,,Females wants books back,,,,,,space,1.036659690000306,Less than a hour,non-primed first,Argument,Forgot,Forgot,The end,Dont get along,Idk,Females wants books back,,,,082719_P1,001,2019_Aug_27_0924,body_behavioural,3.0.4,59.94371201518639,
7,,,,,,,,,,,,,,,,,,,,,,,,,,,0,7,7,7,,,,,,,,,,,,,,,,,,,,,,,,,,,,,,Like,,,,,,space,1.7195569640007307,4 months,non-primed first,4,Yes,Sister,Ok,Forgot,I forgot,Like,,,,082719_P1,001,2019_Aug_27_0924,body_behavioural,3.0.4,59.94371201518639,
,,,,,,,,,,,,,,,,,,,,,,,,,,,,,,,,,,,,,,,,,,,,,,,,,,,,,,,,,,,,,,,,,,,,,,,,,,,,,3213.4500673229995,space,1.1673799929994857,082719_P1,001,2019_Aug_27_0924,body_behavioural,3.0.4,59.94371201518639,
,,,,,,,,,,,,,,,,,,,,,,,,,,,,,,,0,0,0,0,,,,,,,,,,,,,,,,,,,,,,,,,,,,,,,,,,,,,,,,,,,,,,082719_P1,001,2019_Aug_27_0924,body_behavioural,3.0.4,59.94371201518639,
,,,,,,,,,,,,,,,,,,,,,,,,,,,,,,,1,0,1,0,,,,,,,,,,,,,,,,,,,,,,,,,,,,,,,,,,,,,,,,,,,,,,082719_P1,001,2019_Aug_27_0924,body_behavioural,3.0.4,59.94371201518639,
,,,,,,,,,,,,,,,,,,,,,,,,,,,,,,,2,0,2,0,,,,,,,,,,,,,,,,,,,,,,,,,,,,,,,,,,,,,,,,,,,,,,082719_P1,001,2019_Aug_27_0924,body_behavioural,3.0.4,59.94371201518639,
,,,,,,,,,,,,,,,,,,,,,,,,,,,,,,,3,0,3,0,,,,,,,,,,,,,,,,,,,,,,,,,,,,,,,,,,,,,,,,,,,,,,082719_P1,001,2019_Aug_27_0924,body_behavioural,3.0.4,59.94371201518639,
,,,,,,,,,,,,,,,,,,,,,,,,,,,,,,,4,0,4,0,,,,,,,,,,,,,,,,,,,,,,,,,,,,,,,,,,,,,,,,,,,,,,082719_P1,001,2019_Aug_27_0924,body_behavioural,3.0.4,59.94371201518639,
