count,audio,instructText,trials.thisRepN,trials.thisTrialN,trials.thisN,trials.thisIndex,trials_7.thisRepN,trials_7.thisTrialN,trials_7.thisN,trials_7.thisIndex,trials_2.thisRepN,trials_2.thisTrialN,trials_2.thisN,trials_2.thisIndex,trials_3.thisRepN,trials_3.thisTrialN,trials_3.thisN,trials_3.thisIndex,trials_4.thisRepN,trials_4.thisTrialN,trials_4.thisN,trials_4.thisIndex,order of stories,order of perspectives,participant 2 order - stories,participant 2 order  - schemas types,key_resp_8.keys,key_resp_8.rt,key_resp_5.keys,key_resp_5.rt,key_resp_7.keys,key_resp_7.rt,key_resp_15.keys,key_resp_15.rt,key_resp_14.keys,key_resp_14.rt,story_presses.keys,story_presses.rt,key_resp_16.keys,key_resp_16.rt,story time,key_resp_6.keys,key_resp_6.rt,key_resp_2.keys,key_resp_2.rt,key_resp_10.keys,key_resp_10.rt,recall,participant,session,date,expName,psychopyVersion,frameRate,
0,,,0,0,0,0,0,0,0,0,,,,,,,,,,,,,[32 21 12 41 14 23 34 43 24 33 31 11 22 42 13 44],"['Social' 'Social' 'Location' 'Location' 'Social' 'Location' 'Location'
 'Social' 'Social' 'Social' 'Location' 'Social' 'Location' 'Social'
 'Location' 'Location']",[24 33 31 11 22 42 13 44],"['Social' 'Social' 'Location' 'Social' 'Location' 'Social' 'Location'
 'Location']",space,11.123405953999992,space,12.287166636999999,space,3.469357592999998,,,,,,,,,,,,,,,,,082819_p1,001,2019_Aug_28_1240,body_behavioural,3.0.4,59.95734322824446,
0,parcelated_audio/32/32_1.aiff,,0,0,0,0,,,,,0,0,0,0,,,,,,,,,,,,,,,,,,,space,4.0534958329999995,space,3.9699671799999976,1,6.0695738530000085,,,,,,,,,,,082819_p1,001,2019_Aug_28_1240,body_behavioural,3.0.4,59.95734322824446,
0,parcelated_audio/32/32_2.aiff,,0,0,0,0,,,,,0,1,1,1,,,,,,,,,,,,,,,,,,,,,,,1,3.086345253000019,,,,,,,,,,,082819_p1,001,2019_Aug_28_1240,body_behavioural,3.0.4,59.95734322824446,
0,parcelated_audio/32/32_3.aiff,,0,0,0,0,,,,,0,2,2,2,,,,,,,,,,,,,,,,,,,,,,,9,9.337191975000025,,,,,,,,,,,082819_p1,001,2019_Aug_28_1240,body_behavioural,3.0.4,59.95734322824446,
0,parcelated_audio/32/32_4.aiff,,0,0,0,0,,,,,0,3,3,3,,,,,,,,,,,,,,,,,,,,,,,1,3.9508459750000213,,,,,,,,,,,082819_p1,001,2019_Aug_28_1240,body_behavioural,3.0.4,59.95734322824446,
0,parcelated_audio/32/32_5.aiff,,0,0,0,0,,,,,0,4,4,4,,,,,,,,,,,,,,,,,,,,,,,1,2.7369951550000167,,,,,,,,,,,082819_p1,001,2019_Aug_28_1240,body_behavioural,3.0.4,59.95734322824446,
0,parcelated_audio/32/32_6.aiff,,0,0,0,0,,,,,0,5,5,5,,,,,,,,,,,,,,,,,,,,,,,1,0.6365679700000157,,,,,,,,,,,082819_p1,001,2019_Aug_28_1240,body_behavioural,3.0.4,59.95734322824446,
0,parcelated_audio/32/32_7.aiff,,0,0,0,0,,,,,0,6,6,6,,,,,,,,,,,,,,,,,,,,,,,9,7.0370713289999856,,,,,,,,,,,082819_p1,001,2019_Aug_28_1240,body_behavioural,3.0.4,59.95734322824446,
0,parcelated_audio/32/32_8.aiff,,0,0,0,0,,,,,0,7,7,7,,,,,,,,,,,,,,,,,,,,,,,9,3.136966387000001,,,,,,,,,,,082819_p1,001,2019_Aug_28_1240,body_behavioural,3.0.4,59.95734322824446,
0,parcelated_audio/32/32_9.aiff,,0,0,0,0,,,,,0,8,8,8,,,,,,,,,,,,,,,,,,,,,,,1,1.3865866630000028,,,,,,,,,,,082819_p1,001,2019_Aug_28_1240,body_behavioural,3.0.4,59.95734322824446,
0,parcelated_audio/32/32_10.aiff,,0,0,0,0,,,,,0,9,9,9,,,,,,,,,,,,,,,,,,,,,,,1,1.0030020899999954,,,,,,,,,,,082819_p1,001,2019_Aug_28_1240,body_behavioural,3.0.4,59.95734322824446,
0,parcelated_audio/32/32_11.aiff,,0,0,0,0,,,,,0,10,10,10,,,,,,,,,,,,,,,,,,,,,,,9,2.1368150569999784,,,,,,,,,,,082819_p1,001,2019_Aug_28_1240,body_behavioural,3.0.4,59.95734322824446,
0,parcelated_audio/32/32_12.aiff,,0,0,0,0,,,,,0,11,11,11,,,,,,,,,,,,,,,,,,,,,,,9,3.920250923000026,,,,,,,,,,,082819_p1,001,2019_Aug_28_1240,body_behavioural,3.0.4,59.95734322824446,
0,parcelated_audio/32/32_13.aiff,,0,0,0,0,,,,,0,12,12,12,,,,,,,,,,,,,,,,,,,,,,,1,0.6195220870000071,,,,,,,,,,,082819_p1,001,2019_Aug_28_1240,body_behavioural,3.0.4,59.95734322824446,
0,parcelated_audio/32/32_14.aiff,,0,0,0,0,,,,,0,13,13,13,,,,,,,,,,,,,,,,,,,,,,,1,0.636573210999984,,,,,,,,,,,082819_p1,001,2019_Aug_28_1240,body_behavioural,3.0.4,59.95734322824446,
0,parcelated_audio/32/32_15.aiff,,0,0,0,0,,,,,0,14,14,14,,,,,,,,,,,,,,,,,,,,,,,1,4.003070593000018,,,,,,,,,,,082819_p1,001,2019_Aug_28_1240,body_behavioural,3.0.4,59.95734322824446,
0,parcelated_audio/32/32_16.aiff,,0,0,0,0,,,,,0,15,15,15,,,,,,,,,,,,,,,,,,,,,,,1,1.2203052479999883,,,,,,,,,,,082819_p1,001,2019_Aug_28_1240,body_behavioural,3.0.4,59.95734322824446,
0,parcelated_audio/32/32_17.aiff,,0,0,0,0,,,,,0,16,16,16,,,,,,,,,,,,,,,,,,,,,,,9,1.5699593779999645,,,,,,,,,,,082819_p1,001,2019_Aug_28_1240,body_behavioural,3.0.4,59.95734322824446,
0,parcelated_audio/32/32_18.aiff,,0,0,0,0,,,,,0,17,17,17,,,,,,,,,,,,,,,,,,,,,,,1,1.1368105520000427,,,,,,,,,,,082819_p1,001,2019_Aug_28_1240,body_behavioural,3.0.4,59.95734322824446,
0,parcelated_audio/32/32_19.aiff,,0,0,0,0,,,,,0,18,18,18,,,,,,,,,,,,,,,,,,,,,,,1,0.9506443480000257,,,,,,,,,,,082819_p1,001,2019_Aug_28_1240,body_behavioural,3.0.4,59.95734322824446,
0,parcelated_audio/32/32_20.aiff,,0,0,0,0,,,,,0,19,19,19,,,,,,,,,,,,,,,,,,,,,,,1,0.7200326970000219,,,,,,,,,,,082819_p1,001,2019_Aug_28_1240,body_behavioural,3.0.4,59.95734322824446,
0,parcelated_audio/32/32_21.aiff,,0,0,0,0,,,,,0,20,20,20,,,,,,,,,,,,,,,,,,,,,,,1,1.5866010430000301,,,,,,,,,,,082819_p1,001,2019_Aug_28_1240,body_behavioural,3.0.4,59.95734322824446,
0,parcelated_audio/32/32_22.aiff,,0,0,0,0,,,,,0,21,21,21,,,,,,,,,,,,,,,,,,,,,,,9,0.5699834200000282,,,,,,,,,,,082819_p1,001,2019_Aug_28_1240,body_behavioural,3.0.4,59.95734322824446,
0,parcelated_audio/32/32_23.aiff,,0,0,0,0,,,,,0,22,22,22,,,,,,,,,,,,,,,,,,,,,,,1,0.8337386379999998,,,,,,,,,,,082819_p1,001,2019_Aug_28_1240,body_behavioural,3.0.4,59.95734322824446,
0,parcelated_audio/32/32_24.aiff,,0,0,0,0,,,,,0,23,23,23,,,,,,,,,,,,,,,,,,,,,,,1,0.5196158849999506,,,,,,,,,,,082819_p1,001,2019_Aug_28_1240,body_behavioural,3.0.4,59.95734322824446,
0,parcelated_audio/32/32_25.aiff,,0,0,0,0,,,,,0,24,24,24,,,,,,,,,,,,,,,,,,,,,,,9,2.0366709619999597,,,,,,,,,,,082819_p1,001,2019_Aug_28_1240,body_behavioural,3.0.4,59.95734322824446,
0,parcelated_audio/32/32_26.aiff,,0,0,0,0,,,,,0,25,25,25,,,,,,,,,,,,,,,,,,,,,,,1,1.403228640000009,,,,,,,,,,,082819_p1,001,2019_Aug_28_1240,body_behavioural,3.0.4,59.95734322824446,
0,parcelated_audio/32/32_27.aiff,,0,0,0,0,,,,,0,26,26,26,,,,,,,,,,,,,,,,,,,,,,,9,4.886975410000048,,,,,,,,,,,082819_p1,001,2019_Aug_28_1240,body_behavioural,3.0.4,59.95734322824446,
0,parcelated_audio/32/32_28.aiff,,0,0,0,0,,,,,0,27,27,27,,,,,,,,,,,,,,,,,,,,,,,1,0.3698112249999781,,,,,,,,,,,082819_p1,001,2019_Aug_28_1240,body_behavioural,3.0.4,59.95734322824446,
0,parcelated_audio/32/32_29.aiff,,0,0,0,0,,,,,0,28,28,28,,,,,,,,,,,,,,,,,,,,,,,1,3.1533544999999776,,,,,,,,,,,082819_p1,001,2019_Aug_28_1240,body_behavioural,3.0.4,59.95734322824446,
0,parcelated_audio/32/32_30.aiff,,0,0,0,0,,,,,0,29,29,29,,,,,,,,,,,,,,,,,,,,,,,1,0.40309754199995496,,,,,,,,,,,082819_p1,001,2019_Aug_28_1240,body_behavioural,3.0.4,59.95734322824446,
0,parcelated_audio/32/32_31.aiff,,0,0,0,0,,,,,0,30,30,30,,,,,,,,,,,,,,,,,,,,,,,1,5.719861869999988,,,,,,,,,,,082819_p1,001,2019_Aug_28_1240,body_behavioural,3.0.4,59.95734322824446,
0,parcelated_audio/32/32_32.aiff,,0,0,0,0,,,,,0,31,31,31,,,,,,,,,,,,,,,,,,,,,,,1,0.8032854169999837,,,,,,,,,,,082819_p1,001,2019_Aug_28_1240,body_behavioural,3.0.4,59.95734322824446,
0,parcelated_audio/32/32_33.aiff,,0,0,0,0,,,,,0,32,32,32,,,,,,,,,,,,,,,,,,,,,,,9,2.503290119999974,,,,,,,,,,,082819_p1,001,2019_Aug_28_1240,body_behavioural,3.0.4,59.95734322824446,
0,,,0,0,0,0,,,,,,,,,,,,,,,,,,,,,,,,,,,,,,,,,space,10.734817790000022,,,,,,,,,082819_p1,001,2019_Aug_28_1240,body_behavioural,3.0.4,59.95734322824446,
1,,,0,1,1,1,0,0,0,0,,,,,,,,,,,,,,,,,space,4.036622338000029,space,1.7509095820000766,space,3.053383702000019,,,,,,,,,,,,,,,,,082819_p1,001,2019_Aug_28_1240,body_behavioural,3.0.4,59.95734322824446,
1,parcelated_audio/21/21_1.aiff,,0,1,1,1,,,,,0,0,0,0,,,,,,,,,,,,,,,,,,,space,2.3675775699999804,space,1.9865615699999353,1,4.103500724000014,,,,,,,,,,,082819_p1,001,2019_Aug_28_1240,body_behavioural,3.0.4,59.95734322824446,
1,parcelated_audio/21/21_2.aiff,,0,1,1,1,,,,,0,1,1,1,,,,,,,,,,,,,,,,,,,,,,,1,6.10372001199994,,,,,,,,,,,082819_p1,001,2019_Aug_28_1240,body_behavioural,3.0.4,59.95734322824446,
1,parcelated_audio/21/21_3.aiff,,0,1,1,1,,,,,0,2,2,2,,,,,,,,,,,,,,,,,,,,,,,9,0.45338034799999605,,,,,,,,,,,082819_p1,001,2019_Aug_28_1240,body_behavioural,3.0.4,59.95734322824446,
1,parcelated_audio/21/21_4.aiff,,0,1,1,1,,,,,0,3,3,3,,,,,,,,,,,,,,,,,,,,,,,1,0.4199987260000171,,,,,,,,,,,082819_p1,001,2019_Aug_28_1240,body_behavioural,3.0.4,59.95734322824446,
1,parcelated_audio/21/21_5.aiff,,0,1,1,1,,,,,0,4,4,4,,,,,,,,,,,,,,,,,,,,,,,1,0.5838207270001021,,,,,,,,,,,082819_p1,001,2019_Aug_28_1240,body_behavioural,3.0.4,59.95734322824446,
1,parcelated_audio/21/21_6.aiff,,0,1,1,1,,,,,0,5,5,5,,,,,,,,,,,,,,,,,,,,,,,1,1.2340261599999849,,,,,,,,,,,082819_p1,001,2019_Aug_28_1240,body_behavioural,3.0.4,59.95734322824446,
1,parcelated_audio/21/21_7.aiff,,0,1,1,1,,,,,0,6,6,6,,,,,,,,,,,,,,,,,,,,,,,9,2.853345504999993,,,,,,,,,,,082819_p1,001,2019_Aug_28_1240,body_behavioural,3.0.4,59.95734322824446,
1,parcelated_audio/21/21_8.aiff,,0,1,1,1,,,,,0,7,7,7,,,,,,,,,,,,,,,,,,,,,,,1,0.45302919399989605,,,,,,,,,,,082819_p1,001,2019_Aug_28_1240,body_behavioural,3.0.4,59.95734322824446,
1,parcelated_audio/21/21_9.aiff,,0,1,1,1,,,,,0,8,8,8,,,,,,,,,,,,,,,,,,,,,,,9,0.9865294190000213,,,,,,,,,,,082819_p1,001,2019_Aug_28_1240,body_behavioural,3.0.4,59.95734322824446,
1,parcelated_audio/21/21_10.aiff,,0,1,1,1,,,,,0,9,9,9,,,,,,,,,,,,,,,,,,,,,,,1,0.7034572040000739,,,,,,,,,,,082819_p1,001,2019_Aug_28_1240,body_behavioural,3.0.4,59.95734322824446,
1,parcelated_audio/21/21_11.aiff,,0,1,1,1,,,,,0,10,10,10,,,,,,,,,,,,,,,,,,,,,,,1,4.18668430799994,,,,,,,,,,,082819_p1,001,2019_Aug_28_1240,body_behavioural,3.0.4,59.95734322824446,
1,parcelated_audio/21/21_12.aiff,,0,1,1,1,,,,,0,11,11,11,,,,,,,,,,,,,,,,,,,,,,,9,1.2363417599999593,,,,,,,,,,,082819_p1,001,2019_Aug_28_1240,body_behavioural,3.0.4,59.95734322824446,
1,parcelated_audio/21/21_13.aiff,,0,1,1,1,,,,,0,12,12,12,,,,,,,,,,,,,,,,,,,,,,,1,0.7031217979999838,,,,,,,,,,,082819_p1,001,2019_Aug_28_1240,body_behavioural,3.0.4,59.95734322824446,
1,parcelated_audio/21/21_14.aiff,,0,1,1,1,,,,,0,13,13,13,,,,,,,,,,,,,,,,,,,,,,,9,3.070017409000002,,,,,,,,,,,082819_p1,001,2019_Aug_28_1240,body_behavioural,3.0.4,59.95734322824446,
1,parcelated_audio/21/21_15.aiff,,0,1,1,1,,,,,0,14,14,14,,,,,,,,,,,,,,,,,,,,,,,1,2.4362093519999917,,,,,,,,,,,082819_p1,001,2019_Aug_28_1240,body_behavioural,3.0.4,59.95734322824446,
1,parcelated_audio/21/21_16.aiff,,0,1,1,1,,,,,0,15,15,15,,,,,,,,,,,,,,,,,,,,,,,1,1.5173039649999964,,,,,,,,,,,082819_p1,001,2019_Aug_28_1240,body_behavioural,3.0.4,59.95734322824446,
1,parcelated_audio/21/21_17.aiff,,0,1,1,1,,,,,0,16,16,16,,,,,,,,,,,,,,,,,,,,,,,1,0.46983162499998343,,,,,,,,,,,082819_p1,001,2019_Aug_28_1240,body_behavioural,3.0.4,59.95734322824446,
1,parcelated_audio/21/21_18.aiff,,0,1,1,1,,,,,0,17,17,17,,,,,,,,,,,,,,,,,,,,,,,9,1.0201284500000156,,,,,,,,,,,082819_p1,001,2019_Aug_28_1240,body_behavioural,3.0.4,59.95734322824446,
1,parcelated_audio/21/21_19.aiff,,0,1,1,1,,,,,0,18,18,18,,,,,,,,,,,,,,,,,,,,,,,1,0.30308478500001,,,,,,,,,,,082819_p1,001,2019_Aug_28_1240,body_behavioural,3.0.4,59.95734322824446,
1,parcelated_audio/21/21_20.aiff,,0,1,1,1,,,,,0,19,19,19,,,,,,,,,,,,,,,,,,,,,,,1,6.5037377500000275,,,,,,,,,,,082819_p1,001,2019_Aug_28_1240,body_behavioural,3.0.4,59.95734322824446,
1,parcelated_audio/21/21_21.aiff,,0,1,1,1,,,,,0,20,20,20,,,,,,,,,,,,,,,,,,,,,,,9,0.40305962100001125,,,,,,,,,,,082819_p1,001,2019_Aug_28_1240,body_behavioural,3.0.4,59.95734322824446,
1,parcelated_audio/21/21_22.aiff,,0,1,1,1,,,,,0,21,21,21,,,,,,,,,,,,,,,,,,,,,,,1,1.0533540720000474,,,,,,,,,,,082819_p1,001,2019_Aug_28_1240,body_behavioural,3.0.4,59.95734322824446,
1,parcelated_audio/21/21_23.aiff,,0,1,1,1,,,,,0,22,22,22,,,,,,,,,,,,,,,,,,,,,,,1,2.3036561979999988,,,,,,,,,,,082819_p1,001,2019_Aug_28_1240,body_behavioural,3.0.4,59.95734322824446,
1,parcelated_audio/21/21_24.aiff,,0,1,1,1,,,,,0,23,23,23,,,,,,,,,,,,,,,,,,,,,,,1,0.5032844919999206,,,,,,,,,,,082819_p1,001,2019_Aug_28_1240,body_behavioural,3.0.4,59.95734322824446,
1,parcelated_audio/21/21_25.aiff,,0,1,1,1,,,,,0,24,24,24,,,,,,,,,,,,,,,,,,,,,,,1,2.2196595259999867,,,,,,,,,,,082819_p1,001,2019_Aug_28_1240,body_behavioural,3.0.4,59.95734322824446,
1,parcelated_audio/21/21_26.aiff,,0,1,1,1,,,,,0,25,25,25,,,,,,,,,,,,,,,,,,,,,,,1,3.4867632279999725,,,,,,,,,,,082819_p1,001,2019_Aug_28_1240,body_behavioural,3.0.4,59.95734322824446,
1,parcelated_audio/21/21_27.aiff,,0,1,1,1,,,,,0,26,26,26,,,,,,,,,,,,,,,,,,,,,,,1,0.8351018120000617,,,,,,,,,,,082819_p1,001,2019_Aug_28_1240,body_behavioural,3.0.4,59.95734322824446,
1,parcelated_audio/21/21_28.aiff,,0,1,1,1,,,,,0,27,27,27,,,,,,,,,,,,,,,,,,,,,,,1,0.5671826079999391,,,,,,,,,,,082819_p1,001,2019_Aug_28_1240,body_behavioural,3.0.4,59.95734322824446,
1,parcelated_audio/21/21_29.aiff,,0,1,1,1,,,,,0,28,28,28,,,,,,,,,,,,,,,,,,,,,,,9,0.9864206600000216,,,,,,,,,,,082819_p1,001,2019_Aug_28_1240,body_behavioural,3.0.4,59.95734322824446,
1,parcelated_audio/21/21_30.aiff,,0,1,1,1,,,,,0,29,29,29,,,,,,,,,,,,,,,,,,,,,,,1,2.2355223480000177,,,,,,,,,,,082819_p1,001,2019_Aug_28_1240,body_behavioural,3.0.4,59.95734322824446,
1,,,0,1,1,1,,,,,,,,,,,,,,,,,,,,,,,,,,,,,,,,,space,5.335900351999953,,,,,,,,,082819_p1,001,2019_Aug_28_1240,body_behavioural,3.0.4,59.95734322824446,
2,,,0,2,2,2,0,0,0,0,,,,,,,,,,,,,,,,,space,2.552593047000073,space,1.7858537230000593,space,2.035400541999934,,,,,,,,,,,,,,,,,082819_p1,001,2019_Aug_28_1240,body_behavioural,3.0.4,59.95734322824446,
2,parcelated_audio/12/12_1.aiff,,0,2,2,2,,,,,0,0,0,0,,,,,,,,,,,,,,,,,,,space,1.6366660719999118,space,1.3034639119999838,1,5.886727360999998,,,,,,,,,,,082819_p1,001,2019_Aug_28_1240,body_behavioural,3.0.4,59.95734322824446,
2,parcelated_audio/12/12_2.aiff,,0,2,2,2,,,,,0,1,1,1,,,,,,,,,,,,,,,,,,,,,,,1,3.520291456999985,,,,,,,,,,,082819_p1,001,2019_Aug_28_1240,body_behavioural,3.0.4,59.95734322824446,
2,parcelated_audio/12/12_3.aiff,,0,2,2,2,,,,,0,2,2,2,,,,,,,,,,,,,,,,,,,,,,,9,1.8534888210000418,,,,,,,,,,,082819_p1,001,2019_Aug_28_1240,body_behavioural,3.0.4,59.95734322824446,
2,parcelated_audio/12/12_4.aiff,,0,2,2,2,,,,,0,3,3,3,,,,,,,,,,,,,,,,,,,,,,,1,1.087124178999943,,,,,,,,,,,082819_p1,001,2019_Aug_28_1240,body_behavioural,3.0.4,59.95734322824446,
2,parcelated_audio/12/12_5.aiff,,0,2,2,2,,,,,0,4,4,4,,,,,,,,,,,,,,,,,,,,,,,1,0.43648833800000375,,,,,,,,,,,082819_p1,001,2019_Aug_28_1240,body_behavioural,3.0.4,59.95734322824446,
2,parcelated_audio/12/12_6.aiff,,0,2,2,2,,,,,0,5,5,5,,,,,,,,,,,,,,,,,,,,,,,1,0.8033897859999115,,,,,,,,,,,082819_p1,001,2019_Aug_28_1240,body_behavioural,3.0.4,59.95734322824446,
2,parcelated_audio/12/12_7.aiff,,0,2,2,2,,,,,0,6,6,6,,,,,,,,,,,,,,,,,,,,,,,1,0.35321915199995146,,,,,,,,,,,082819_p1,001,2019_Aug_28_1240,body_behavioural,3.0.4,59.95734322824446,
2,parcelated_audio/12/12_8.aiff,,0,2,2,2,,,,,0,7,7,7,,,,,,,,,,,,,,,,,,,,,,,9,0.26977710900007423,,,,,,,,,,,082819_p1,001,2019_Aug_28_1240,body_behavioural,3.0.4,59.95734322824446,
2,parcelated_audio/12/12_9.aiff,,0,2,2,2,,,,,0,8,8,8,,,,,,,,,,,,,,,,,,,,,,,1,1.519995267000013,,,,,,,,,,,082819_p1,001,2019_Aug_28_1240,body_behavioural,3.0.4,59.95734322824446,
2,parcelated_audio/12/12_10.aiff,,0,2,2,2,,,,,0,9,9,9,,,,,,,,,,,,,,,,,,,,,,,1,4.184368187000018,,,,,,,,,,,082819_p1,001,2019_Aug_28_1240,body_behavioural,3.0.4,59.95734322824446,
2,parcelated_audio/12/12_11.aiff,,0,2,2,2,,,,,0,10,10,10,,,,,,,,,,,,,,,,,,,,,,,9,0.6006005579999965,,,,,,,,,,,082819_p1,001,2019_Aug_28_1240,body_behavioural,3.0.4,59.95734322824446,
2,parcelated_audio/12/12_12.aiff,,0,2,2,2,,,,,0,11,11,11,,,,,,,,,,,,,,,,,,,,,,,1,4.0200443370000585,,,,,,,,,,,082819_p1,001,2019_Aug_28_1240,body_behavioural,3.0.4,59.95734322824446,
2,parcelated_audio/12/12_13.aiff,,0,2,2,2,,,,,0,12,12,12,,,,,,,,,,,,,,,,,,,,,,,1,0.7362791539999307,,,,,,,,,,,082819_p1,001,2019_Aug_28_1240,body_behavioural,3.0.4,59.95734322824446,
2,parcelated_audio/12/12_14.aiff,,0,2,2,2,,,,,0,13,13,13,,,,,,,,,,,,,,,,,,,,,,,1,3.986452030999999,,,,,,,,,,,082819_p1,001,2019_Aug_28_1240,body_behavioural,3.0.4,59.95734322824446,
2,parcelated_audio/12/12_15.aiff,,0,2,2,2,,,,,0,14,14,14,,,,,,,,,,,,,,,,,,,,,,,1,0.41988579999997455,,,,,,,,,,,082819_p1,001,2019_Aug_28_1240,body_behavioural,3.0.4,59.95734322824446,
2,parcelated_audio/12/12_16.aiff,,0,2,2,2,,,,,0,15,15,15,,,,,,,,,,,,,,,,,,,,,,,9,1.3508181400000012,,,,,,,,,,,082819_p1,001,2019_Aug_28_1240,body_behavioural,3.0.4,59.95734322824446,
2,parcelated_audio/12/12_17.aiff,,0,2,2,2,,,,,0,16,16,16,,,,,,,,,,,,,,,,,,,,,,,1,0.6032589349999853,,,,,,,,,,,082819_p1,001,2019_Aug_28_1240,body_behavioural,3.0.4,59.95734322824446,
2,parcelated_audio/12/12_18.aiff,,0,2,2,2,,,,,0,17,17,17,,,,,,,,,,,,,,,,,,,,,,,1,1.5534048770000481,,,,,,,,,,,082819_p1,001,2019_Aug_28_1240,body_behavioural,3.0.4,59.95734322824446,
2,parcelated_audio/12/12_19.aiff,,0,2,2,2,,,,,0,18,18,18,,,,,,,,,,,,,,,,,,,,,,,1,0.18657117499992637,,,,,,,,,,,082819_p1,001,2019_Aug_28_1240,body_behavioural,3.0.4,59.95734322824446,
2,parcelated_audio/12/12_20.aiff,,0,2,2,2,,,,,0,19,19,19,,,,,,,,,,,,,,,,,,,,,,,9,3.753397307000114,,,,,,,,,,,082819_p1,001,2019_Aug_28_1240,body_behavioural,3.0.4,59.95734322824446,
2,parcelated_audio/12/12_21.aiff,,0,2,2,2,,,,,0,20,20,20,,,,,,,,,,,,,,,,,,,,,,,1,1.3340363400000115,,,,,,,,,,,082819_p1,001,2019_Aug_28_1240,body_behavioural,3.0.4,59.95734322824446,
2,parcelated_audio/12/12_22.aiff,,0,2,2,2,,,,,0,21,21,21,,,,,,,,,,,,,,,,,,,,,,,1,0.5363711970001077,,,,,,,,,,,082819_p1,001,2019_Aug_28_1240,body_behavioural,3.0.4,59.95734322824446,
2,parcelated_audio/12/12_23.aiff,,0,2,2,2,,,,,0,22,22,22,,,,,,,,,,,,,,,,,,,,,,,9,0.3196966339999108,,,,,,,,,,,082819_p1,001,2019_Aug_28_1240,body_behavioural,3.0.4,59.95734322824446,
2,parcelated_audio/12/12_24.aiff,,0,2,2,2,,,,,0,23,23,23,,,,,,,,,,,,,,,,,,,,,,,1,1.6364966050000476,,,,,,,,,,,082819_p1,001,2019_Aug_28_1240,body_behavioural,3.0.4,59.95734322824446,
2,parcelated_audio/12/12_25.aiff,,0,2,2,2,,,,,0,24,24,24,,,,,,,,,,,,,,,,,,,,,,,1,0.3366152950000014,,,,,,,,,,,082819_p1,001,2019_Aug_28_1240,body_behavioural,3.0.4,59.95734322824446,
2,parcelated_audio/12/12_26.aiff,,0,2,2,2,,,,,0,25,25,25,,,,,,,,,,,,,,,,,,,,,,,9,3.603483254999901,,,,,,,,,,,082819_p1,001,2019_Aug_28_1240,body_behavioural,3.0.4,59.95734322824446,
2,parcelated_audio/12/12_27.aiff,,0,2,2,2,,,,,0,26,26,26,,,,,,,,,,,,,,,,,,,,,,,1,1.086517782999863,,,,,,,,,,,082819_p1,001,2019_Aug_28_1240,body_behavioural,3.0.4,59.95734322824446,
2,parcelated_audio/12/12_28.aiff,,0,2,2,2,,,,,0,27,27,27,,,,,,,,,,,,,,,,,,,,,,,1,1.336527075000049,,,,,,,,,,,082819_p1,001,2019_Aug_28_1240,body_behavioural,3.0.4,59.95734322824446,
2,parcelated_audio/12/12_29.aiff,,0,2,2,2,,,,,0,28,28,28,,,,,,,,,,,,,,,,,,,,,,,9,1.4197241819999817,,,,,,,,,,,082819_p1,001,2019_Aug_28_1240,body_behavioural,3.0.4,59.95734322824446,
2,parcelated_audio/12/12_30.aiff,,0,2,2,2,,,,,0,29,29,29,,,,,,,,,,,,,,,,,,,,,,,1,1.3696644219999143,,,,,,,,,,,082819_p1,001,2019_Aug_28_1240,body_behavioural,3.0.4,59.95734322824446,
2,parcelated_audio/12/12_31.aiff,,0,2,2,2,,,,,0,30,30,30,,,,,,,,,,,,,,,,,,,,,,,1,1.7538271099999747,,,,,,,,,,,082819_p1,001,2019_Aug_28_1240,body_behavioural,3.0.4,59.95734322824446,
2,,,0,2,2,2,,,,,,,,,,,,,,,,,,,,,,,,,,,,,,,,,space,3.9010461099999247,,,,,,,,,082819_p1,001,2019_Aug_28_1240,body_behavioural,3.0.4,59.95734322824446,
3,,,0,3,3,3,0,0,0,0,,,,,,,,,,,,,,,,,space,4.186721277000061,space,1.1699964800000089,space,0.7863913269998193,,,,,,,,,,,,,,,,,082819_p1,001,2019_Aug_28_1240,body_behavioural,3.0.4,59.95734322824446,
3,parcelated_audio/41/41_1.aiff,,0,3,3,3,,,,,0,0,0,0,,,,,,,,,,,,,,,,,,,space,0.9531234030000633,space,1.2033372669998244,1,2.5029061189998174,,,,,,,,,,,082819_p1,001,2019_Aug_28_1240,body_behavioural,3.0.4,59.95734322824446,
3,parcelated_audio/41/41_2.aiff,,0,3,3,3,,,,,0,1,1,1,,,,,,,,,,,,,,,,,,,,,,,9,4.4035588599999755,,,,,,,,,,,082819_p1,001,2019_Aug_28_1240,body_behavioural,3.0.4,59.95734322824446,
3,parcelated_audio/41/41_3.aiff,,0,3,3,3,,,,,0,2,2,2,,,,,,,,,,,,,,,,,,,,,,,1,0.400875219999989,,,,,,,,,,,082819_p1,001,2019_Aug_28_1240,body_behavioural,3.0.4,59.95734322824446,
3,parcelated_audio/41/41_4.aiff,,0,3,3,3,,,,,0,3,3,3,,,,,,,,,,,,,,,,,,,,,,,1,0.5198017999998683,,,,,,,,,,,082819_p1,001,2019_Aug_28_1240,body_behavioural,3.0.4,59.95734322824446,
3,parcelated_audio/41/41_5.aiff,,0,3,3,3,,,,,0,4,4,4,,,,,,,,,,,,,,,,,,,,,,,1,1.086412590000009,,,,,,,,,,,082819_p1,001,2019_Aug_28_1240,body_behavioural,3.0.4,59.95734322824446,
3,parcelated_audio/41/41_6.aiff,,0,3,3,3,,,,,0,5,5,5,,,,,,,,,,,,,,,,,,,,,,,1,1.285920860999795,,,,,,,,,,,082819_p1,001,2019_Aug_28_1240,body_behavioural,3.0.4,59.95734322824446,
3,parcelated_audio/41/41_7.aiff,,0,3,3,3,,,,,0,6,6,6,,,,,,,,,,,,,,,,,,,,,,,9,1.0866898199999468,,,,,,,,,,,082819_p1,001,2019_Aug_28_1240,body_behavioural,3.0.4,59.95734322824446,
3,parcelated_audio/41/41_8.aiff,,0,3,3,3,,,,,0,7,7,7,,,,,,,,,,,,,,,,,,,,,,,1,1.1031752200001392,,,,,,,,,,,082819_p1,001,2019_Aug_28_1240,body_behavioural,3.0.4,59.95734322824446,
3,parcelated_audio/41/41_9.aiff,,0,3,3,3,,,,,0,8,8,8,,,,,,,,,,,,,,,,,,,,,,,1,0.30294950000006793,,,,,,,,,,,082819_p1,001,2019_Aug_28_1240,body_behavioural,3.0.4,59.95734322824446,
3,parcelated_audio/41/41_10.aiff,,0,3,3,3,,,,,0,9,9,9,,,,,,,,,,,,,,,,,,,,,,,1,4.870217319999938,,,,,,,,,,,082819_p1,001,2019_Aug_28_1240,body_behavioural,3.0.4,59.95734322824446,
3,parcelated_audio/41/41_11.aiff,,0,3,3,3,,,,,0,10,10,10,,,,,,,,,,,,,,,,,,,,,,,1,1.7005863150000096,,,,,,,,,,,082819_p1,001,2019_Aug_28_1240,body_behavioural,3.0.4,59.95734322824446,
3,parcelated_audio/41/41_12.aiff,,0,3,3,3,,,,,0,11,11,11,,,,,,,,,,,,,,,,,,,,,,,1,0.4365179620001527,,,,,,,,,,,082819_p1,001,2019_Aug_28_1240,body_behavioural,3.0.4,59.95734322824446,
3,parcelated_audio/41/41_13.aiff,,0,3,3,3,,,,,0,12,12,12,,,,,,,,,,,,,,,,,,,,,,,1,0.719954972000096,,,,,,,,,,,082819_p1,001,2019_Aug_28_1240,body_behavioural,3.0.4,59.95734322824446,
3,parcelated_audio/41/41_14.aiff,,0,3,3,3,,,,,0,13,13,13,,,,,,,,,,,,,,,,,,,,,,,9,0.7704067720001149,,,,,,,,,,,082819_p1,001,2019_Aug_28_1240,body_behavioural,3.0.4,59.95734322824446,
3,parcelated_audio/41/41_15.aiff,,0,3,3,3,,,,,0,14,14,14,,,,,,,,,,,,,,,,,,,,,,,9,4.8198061150001195,,,,,,,,,,,082819_p1,001,2019_Aug_28_1240,body_behavioural,3.0.4,59.95734322824446,
3,parcelated_audio/41/41_16.aiff,,0,3,3,3,,,,,0,15,15,15,,,,,,,,,,,,,,,,,,,,,,,1,0.769676010000012,,,,,,,,,,,082819_p1,001,2019_Aug_28_1240,body_behavioural,3.0.4,59.95734322824446,
3,parcelated_audio/41/41_17.aiff,,0,3,3,3,,,,,0,16,16,16,,,,,,,,,,,,,,,,,,,,,,,1,0.38675632300009966,,,,,,,,,,,082819_p1,001,2019_Aug_28_1240,body_behavioural,3.0.4,59.95734322824446,
3,parcelated_audio/41/41_18.aiff,,0,3,3,3,,,,,0,17,17,17,,,,,,,,,,,,,,,,,,,,,,,1,0.7533182100000886,,,,,,,,,,,082819_p1,001,2019_Aug_28_1240,body_behavioural,3.0.4,59.95734322824446,
3,parcelated_audio/41/41_19.aiff,,0,3,3,3,,,,,0,18,18,18,,,,,,,,,,,,,,,,,,,,,,,9,0.0037289839999630203,,,,,,,,,,,082819_p1,001,2019_Aug_28_1240,body_behavioural,3.0.4,59.95734322824446,
3,parcelated_audio/41/41_20.aiff,,0,3,3,3,,,,,0,19,19,19,,,,,,,,,,,,,,,,,,,,,,,1,0.3697417250000399,,,,,,,,,,,082819_p1,001,2019_Aug_28_1240,body_behavioural,3.0.4,59.95734322824446,
3,parcelated_audio/41/41_21.aiff,,0,3,3,3,,,,,0,20,20,20,,,,,,,,,,,,,,,,,,,,,,,1,1.2674949530000958,,,,,,,,,,,082819_p1,001,2019_Aug_28_1240,body_behavioural,3.0.4,59.95734322824446,
3,parcelated_audio/41/41_22.aiff,,0,3,3,3,,,,,0,21,21,21,,,,,,,,,,,,,,,,,,,,,,,9,1.1032834590000675,,,,,,,,,,,082819_p1,001,2019_Aug_28_1240,body_behavioural,3.0.4,59.95734322824446,
3,parcelated_audio/41/41_23.aiff,,0,3,3,3,,,,,0,22,22,22,,,,,,,,,,,,,,,,,,,,,,,9,2.9673893069998485,,,,,,,,,,,082819_p1,001,2019_Aug_28_1240,body_behavioural,3.0.4,59.95734322824446,
3,parcelated_audio/41/41_24.aiff,,0,3,3,3,,,,,0,23,23,23,,,,,,,,,,,,,,,,,,,,,,,1,0.31998555799987116,,,,,,,,,,,082819_p1,001,2019_Aug_28_1240,body_behavioural,3.0.4,59.95734322824446,
3,parcelated_audio/41/41_25.aiff,,0,3,3,3,,,,,0,24,24,24,,,,,,,,,,,,,,,,,,,,,,,1,1.13654177300009,,,,,,,,,,,082819_p1,001,2019_Aug_28_1240,body_behavioural,3.0.4,59.95734322824446,
3,parcelated_audio/41/41_26.aiff,,0,3,3,3,,,,,0,25,25,25,,,,,,,,,,,,,,,,,,,,,,,1,0.40233935399987786,,,,,,,,,,,082819_p1,001,2019_Aug_28_1240,body_behavioural,3.0.4,59.95734322824446,
3,parcelated_audio/41/41_27.aiff,,0,3,3,3,,,,,0,26,26,26,,,,,,,,,,,,,,,,,,,,,,,1,0.48650403699980416,,,,,,,,,,,082819_p1,001,2019_Aug_28_1240,body_behavioural,3.0.4,59.95734322824446,
3,parcelated_audio/41/41_28.aiff,,0,3,3,3,,,,,0,27,27,27,,,,,,,,,,,,,,,,,,,,,,,9,1.1194013680001262,,,,,,,,,,,082819_p1,001,2019_Aug_28_1240,body_behavioural,3.0.4,59.95734322824446,
3,parcelated_audio/41/41_29.aiff,,0,3,3,3,,,,,0,28,28,28,,,,,,,,,,,,,,,,,,,,,,,1,0.33639376699989043,,,,,,,,,,,082819_p1,001,2019_Aug_28_1240,body_behavioural,3.0.4,59.95734322824446,
3,parcelated_audio/41/41_30.aiff,,0,3,3,3,,,,,0,29,29,29,,,,,,,,,,,,,,,,,,,,,,,1,0.2673879599999509,,,,,,,,,,,082819_p1,001,2019_Aug_28_1240,body_behavioural,3.0.4,59.95734322824446,
3,parcelated_audio/41/41_31.aiff,,0,3,3,3,,,,,0,30,30,30,,,,,,,,,,,,,,,,,,,,,,,9,0.5530960300000061,,,,,,,,,,,082819_p1,001,2019_Aug_28_1240,body_behavioural,3.0.4,59.95734322824446,
3,parcelated_audio/41/41_32.aiff,,0,3,3,3,,,,,0,31,31,31,,,,,,,,,,,,,,,,,,,,,,,1,2.370069195000042,,,,,,,,,,,082819_p1,001,2019_Aug_28_1240,body_behavioural,3.0.4,59.95734322824446,
3,parcelated_audio/41/41_33.aiff,,0,3,3,3,,,,,0,32,32,32,,,,,,,,,,,,,,,,,,,,,,,1,1.7030632650000825,,,,,,,,,,,082819_p1,001,2019_Aug_28_1240,body_behavioural,3.0.4,59.95734322824446,
3,parcelated_audio/41/41_34.aiff,,0,3,3,3,,,,,0,33,33,33,,,,,,,,,,,,,,,,,,,,,,,1,0.7511836020000828,,,,,,,,,,,082819_p1,001,2019_Aug_28_1240,body_behavioural,3.0.4,59.95734322824446,
3,parcelated_audio/41/41_35.aiff,,0,3,3,3,,,,,0,34,34,34,,,,,,,,,,,,,,,,,,,,,,,9,0.786398613000074,,,,,,,,,,,082819_p1,001,2019_Aug_28_1240,body_behavioural,3.0.4,59.95734322824446,
3,parcelated_audio/41/41_36.aiff,,0,3,3,3,,,,,0,35,35,35,,,,,,,,,,,,,,,,,,,,,,,1,0.0030494469999666762,,,,,,,,,,,082819_p1,001,2019_Aug_28_1240,body_behavioural,3.0.4,59.95734322824446,
3,parcelated_audio/41/41_37.aiff,,0,3,3,3,,,,,0,36,36,36,,,,,,,,,,,,,,,,,,,,,,,9,4.536793997999894,,,,,,,,,,,082819_p1,001,2019_Aug_28_1240,body_behavioural,3.0.4,59.95734322824446,
3,,,0,3,3,3,,,,,,,,,,,,,,,,,,,,,,,,,,,,,,,,,space,8.034498618000043,,,,,,,,,082819_p1,001,2019_Aug_28_1240,body_behavioural,3.0.4,59.95734322824446,
4,,,0,4,4,4,0,0,0,0,,,,,,,,,,,,,,,,,space,0.7031951320000189,space,0.5864234190000843,space,0.9176588020000054,,,,,,,,,,,,,,,,,082819_p1,001,2019_Aug_28_1240,body_behavioural,3.0.4,59.95734322824446,
4,parcelated_audio/14/14_1.aiff,,0,4,4,4,,,,,0,0,0,0,,,,,,,,,,,,,,,,,,,space,2.236740212000086,space,0.903553471999885,1,4.850711345000036,,,,,,,,,,,082819_p1,001,2019_Aug_28_1240,body_behavioural,3.0.4,59.95734322824446,
4,parcelated_audio/14/14_2.aiff,,0,4,4,4,,,,,0,1,1,1,,,,,,,,,,,,,,,,,,,,,,,1,2.6506940200001736,,,,,,,,,,,082819_p1,001,2019_Aug_28_1240,body_behavioural,3.0.4,59.95734322824446,
4,parcelated_audio/14/14_3.aiff,,0,4,4,4,,,,,0,2,2,2,,,,,,,,,,,,,,,,,,,,,,,1,2.2863133459998153,,,,,,,,,,,082819_p1,001,2019_Aug_28_1240,body_behavioural,3.0.4,59.95734322824446,
4,parcelated_audio/14/14_4.aiff,,0,4,4,4,,,,,0,3,3,3,,,,,,,,,,,,,,,,,,,,,,,1,4.53681678199996,,,,,,,,,,,082819_p1,001,2019_Aug_28_1240,body_behavioural,3.0.4,59.95734322824446,
4,parcelated_audio/14/14_5.aiff,,0,4,4,4,,,,,0,4,4,4,,,,,,,,,,,,,,,,,,,,,,,1,11.620587290000003,,,,,,,,,,,082819_p1,001,2019_Aug_28_1240,body_behavioural,3.0.4,59.95734322824446,
4,parcelated_audio/14/14_6.aiff,,0,4,4,4,,,,,0,5,5,5,,,,,,,,,,,,,,,,,,,,,,,9,0.5866773979998925,,,,,,,,,,,082819_p1,001,2019_Aug_28_1240,body_behavioural,3.0.4,59.95734322824446,
4,parcelated_audio/14/14_7.aiff,,0,4,4,4,,,,,0,6,6,6,,,,,,,,,,,,,,,,,,,,,,,1,0.45306314100002965,,,,,,,,,,,082819_p1,001,2019_Aug_28_1240,body_behavioural,3.0.4,59.95734322824446,
4,parcelated_audio/14/14_8.aiff,,0,4,4,4,,,,,0,7,7,7,,,,,,,,,,,,,,,,,,,,,,,1,0.4028524400000606,,,,,,,,,,,082819_p1,001,2019_Aug_28_1240,body_behavioural,3.0.4,59.95734322824446,
4,parcelated_audio/14/14_9.aiff,,0,4,4,4,,,,,0,8,8,8,,,,,,,,,,,,,,,,,,,,,,,1,0.3365659670000696,,,,,,,,,,,082819_p1,001,2019_Aug_28_1240,body_behavioural,3.0.4,59.95734322824446,
4,parcelated_audio/14/14_10.aiff,,0,4,4,4,,,,,0,9,9,9,,,,,,,,,,,,,,,,,,,,,,,9,0.7866447639999024,,,,,,,,,,,082819_p1,001,2019_Aug_28_1240,body_behavioural,3.0.4,59.95734322824446,
4,parcelated_audio/14/14_11.aiff,,0,4,4,4,,,,,0,10,10,10,,,,,,,,,,,,,,,,,,,,,,,1,0.5698983299998872,,,,,,,,,,,082819_p1,001,2019_Aug_28_1240,body_behavioural,3.0.4,59.95734322824446,
4,parcelated_audio/14/14_12.aiff,,0,4,4,4,,,,,0,11,11,11,,,,,,,,,,,,,,,,,,,,,,,1,0.736608735000118,,,,,,,,,,,082819_p1,001,2019_Aug_28_1240,body_behavioural,3.0.4,59.95734322824446,
4,parcelated_audio/14/14_13.aiff,,0,4,4,4,,,,,0,12,12,12,,,,,,,,,,,,,,,,,,,,,,,1,0.8198117199999615,,,,,,,,,,,082819_p1,001,2019_Aug_28_1240,body_behavioural,3.0.4,59.95734322824446,
4,parcelated_audio/14/14_14.aiff,,0,4,4,4,,,,,0,13,13,13,,,,,,,,,,,,,,,,,,,,,,,9,0.4032844700000169,,,,,,,,,,,082819_p1,001,2019_Aug_28_1240,body_behavioural,3.0.4,59.95734322824446,
4,parcelated_audio/14/14_15.aiff,,0,4,4,4,,,,,0,14,14,14,,,,,,,,,,,,,,,,,,,,,,,1,0.4031539979998797,,,,,,,,,,,082819_p1,001,2019_Aug_28_1240,body_behavioural,3.0.4,59.95734322824446,
4,parcelated_audio/14/14_16.aiff,,0,4,4,4,,,,,0,15,15,15,,,,,,,,,,,,,,,,,,,,,,,1,1.4699966270000004,,,,,,,,,,,082819_p1,001,2019_Aug_28_1240,body_behavioural,3.0.4,59.95734322824446,
4,parcelated_audio/14/14_17.aiff,,0,4,4,4,,,,,0,16,16,16,,,,,,,,,,,,,,,,,,,,,,,1,0.4339589219998743,,,,,,,,,,,082819_p1,001,2019_Aug_28_1240,body_behavioural,3.0.4,59.95734322824446,
4,parcelated_audio/14/14_18.aiff,,0,4,4,4,,,,,0,17,17,17,,,,,,,,,,,,,,,,,,,,,,,9,0.5368957499999851,,,,,,,,,,,082819_p1,001,2019_Aug_28_1240,body_behavioural,3.0.4,59.95734322824446,
4,parcelated_audio/14/14_19.aiff,,0,4,4,4,,,,,0,18,18,18,,,,,,,,,,,,,,,,,,,,,,,1,0.8700109950000297,,,,,,,,,,,082819_p1,001,2019_Aug_28_1240,body_behavioural,3.0.4,59.95734322824446,
4,parcelated_audio/14/14_20.aiff,,0,4,4,4,,,,,0,19,19,19,,,,,,,,,,,,,,,,,,,,,,,1,1.3841585870000017,,,,,,,,,,,082819_p1,001,2019_Aug_28_1240,body_behavioural,3.0.4,59.95734322824446,
4,parcelated_audio/14/14_21.aiff,,0,4,4,4,,,,,0,20,20,20,,,,,,,,,,,,,,,,,,,,,,,9,4.520105270000158,,,,,,,,,,,082819_p1,001,2019_Aug_28_1240,body_behavioural,3.0.4,59.95734322824446,
4,parcelated_audio/14/14_22.aiff,,0,4,4,4,,,,,0,21,21,21,,,,,,,,,,,,,,,,,,,,,,,1,1.5026153039998462,,,,,,,,,,,082819_p1,001,2019_Aug_28_1240,body_behavioural,3.0.4,59.95734322824446,
4,parcelated_audio/14/14_23.aiff,,0,4,4,4,,,,,0,22,22,22,,,,,,,,,,,,,,,,,,,,,,,9,1.38712320500008,,,,,,,,,,,082819_p1,001,2019_Aug_28_1240,body_behavioural,3.0.4,59.95734322824446,
4,parcelated_audio/14/14_24.aiff,,0,4,4,4,,,,,0,23,23,23,,,,,,,,,,,,,,,,,,,,,,,1,0.5341541249999864,,,,,,,,,,,082819_p1,001,2019_Aug_28_1240,body_behavioural,3.0.4,59.95734322824446,
4,parcelated_audio/14/14_25.aiff,,0,4,4,4,,,,,0,24,24,24,,,,,,,,,,,,,,,,,,,,,,,1,0.5034481349998714,,,,,,,,,,,082819_p1,001,2019_Aug_28_1240,body_behavioural,3.0.4,59.95734322824446,
4,parcelated_audio/14/14_26.aiff,,0,4,4,4,,,,,0,25,25,25,,,,,,,,,,,,,,,,,,,,,,,1,0.5533930599999621,,,,,,,,,,,082819_p1,001,2019_Aug_28_1240,body_behavioural,3.0.4,59.95734322824446,
4,parcelated_audio/14/14_27.aiff,,0,4,4,4,,,,,0,26,26,26,,,,,,,,,,,,,,,,,,,,,,,9,0.3862991329999659,,,,,,,,,,,082819_p1,001,2019_Aug_28_1240,body_behavioural,3.0.4,59.95734322824446,
4,parcelated_audio/14/14_28.aiff,,0,4,4,4,,,,,0,27,27,27,,,,,,,,,,,,,,,,,,,,,,,1,3.186606752999978,,,,,,,,,,,082819_p1,001,2019_Aug_28_1240,body_behavioural,3.0.4,59.95734322824446,
4,parcelated_audio/14/14_29.aiff,,0,4,4,4,,,,,0,28,28,28,,,,,,,,,,,,,,,,,,,,,,,1,1.036840057000063,,,,,,,,,,,082819_p1,001,2019_Aug_28_1240,body_behavioural,3.0.4,59.95734322824446,
4,parcelated_audio/14/14_30.aiff,,0,4,4,4,,,,,0,29,29,29,,,,,,,,,,,,,,,,,,,,,,,1,0.6530756549998387,,,,,,,,,,,082819_p1,001,2019_Aug_28_1240,body_behavioural,3.0.4,59.95734322824446,
4,parcelated_audio/14/14_31.aiff,,0,4,4,4,,,,,0,30,30,30,,,,,,,,,,,,,,,,,,,,,,,9,2.653691654999875,,,,,,,,,,,082819_p1,001,2019_Aug_28_1240,body_behavioural,3.0.4,59.95734322824446,
4,parcelated_audio/14/14_32.aiff,,0,4,4,4,,,,,0,31,31,31,,,,,,,,,,,,,,,,,,,,,,,1,1.8201683220001996,,,,,,,,,,,082819_p1,001,2019_Aug_28_1240,body_behavioural,3.0.4,59.95734322824446,
4,parcelated_audio/14/14_33.aiff,,0,4,4,4,,,,,0,32,32,32,,,,,,,,,,,,,,,,,,,,,,,1,1.3198497910000242,,,,,,,,,,,082819_p1,001,2019_Aug_28_1240,body_behavioural,3.0.4,59.95734322824446,
4,,,0,4,4,4,,,,,,,,,,,,,,,,,,,,,,,,,,,,,,,,,space,32.072016158,,,,,,,,,082819_p1,001,2019_Aug_28_1240,body_behavioural,3.0.4,59.95734322824446,
5,,,0,5,5,5,0,0,0,0,,,,,,,,,,,,,,,,,space,3.786854247000065,space,1.8173311929999727,space,0.9030455469999197,,,,,,,,,,,,,,,,,082819_p1,001,2019_Aug_28_1240,body_behavioural,3.0.4,59.95734322824446,
5,,,0,5,5,5,1,0,1,0,,,,,,,,,,,,,,,,,,,,,space,1.000719682999943,,,,,,,,,,,,,,,,,082819_p1,001,2019_Aug_28_1240,body_behavioural,3.0.4,59.95734322824446,
5,parcelated_audio/23/23_1.aiff,,0,5,5,5,,,,,0,0,0,0,,,,,,,,,,,,,,,,,,,space,2.7008582079999996,space,2.069857456999898,1,5.901198495000017,,,,,,,,,,,082819_p1,001,2019_Aug_28_1240,body_behavioural,3.0.4,59.95734322824446,
5,parcelated_audio/23/23_2.aiff,,0,5,5,5,,,,,0,1,1,1,,,,,,,,,,,,,,,,,,,,,,,9,1.6191792529998565,,,,,,,,,,,082819_p1,001,2019_Aug_28_1240,body_behavioural,3.0.4,59.95734322824446,
5,parcelated_audio/23/23_3.aiff,,0,5,5,5,,,,,0,2,2,2,,,,,,,,,,,,,,,,,,,,,,,1,0.3365862749999451,,,,,,,,,,,082819_p1,001,2019_Aug_28_1240,body_behavioural,3.0.4,59.95734322824446,
5,parcelated_audio/23/23_4.aiff,,0,5,5,5,,,,,0,3,3,3,,,,,,,,,,,,,,,,,,,,,,,1,0.7035256550000213,,,,,,,,,,,082819_p1,001,2019_Aug_28_1240,body_behavioural,3.0.4,59.95734322824446,
5,parcelated_audio/23/23_5.aiff,,0,5,5,5,,,,,0,4,4,4,,,,,,,,,,,,,,,,,,,,,,,9,5.23686943000007,,,,,,,,,,,082819_p1,001,2019_Aug_28_1240,body_behavioural,3.0.4,59.95734322824446,
5,parcelated_audio/23/23_6.aiff,,0,5,5,5,,,,,0,5,5,5,,,,,,,,,,,,,,,,,,,,,,,1,1.3033555700001216,,,,,,,,,,,082819_p1,001,2019_Aug_28_1240,body_behavioural,3.0.4,59.95734322824446,
5,parcelated_audio/23/23_7.aiff,,0,5,5,5,,,,,0,6,6,6,,,,,,,,,,,,,,,,,,,,,,,9,0.7697215389998746,,,,,,,,,,,082819_p1,001,2019_Aug_28_1240,body_behavioural,3.0.4,59.95734322824446,
5,parcelated_audio/23/23_8.aiff,,0,5,5,5,,,,,0,7,7,7,,,,,,,,,,,,,,,,,,,,,,,1,2.170074087999865,,,,,,,,,,,082819_p1,001,2019_Aug_28_1240,body_behavioural,3.0.4,59.95734322824446,
5,parcelated_audio/23/23_9.aiff,,0,5,5,5,,,,,0,8,8,8,,,,,,,,,,,,,,,,,,,,,,,1,25.20457376399986,,,,,,,,,,,082819_p1,001,2019_Aug_28_1240,body_behavioural,3.0.4,59.95734322824446,
5,parcelated_audio/23/23_10.aiff,,0,5,5,5,,,,,0,9,9,9,,,,,,,,,,,,,,,,,,,,,,,1,20.254723114999933,,,,,,,,,,,082819_p1,001,2019_Aug_28_1240,body_behavioural,3.0.4,59.95734322824446,
5,parcelated_audio/23/23_11.aiff,,0,5,5,5,,,,,0,10,10,10,,,,,,,,,,,,,,,,,,,,,,,1,1.0700232819999655,,,,,,,,,,,082819_p1,001,2019_Aug_28_1240,body_behavioural,3.0.4,59.95734322824446,
5,parcelated_audio/23/23_12.aiff,,0,5,5,5,,,,,0,11,11,11,,,,,,,,,,,,,,,,,,,,,,,1,1.4032921149998856,,,,,,,,,,,082819_p1,001,2019_Aug_28_1240,body_behavioural,3.0.4,59.95734322824446,
5,parcelated_audio/23/23_13.aiff,,0,5,5,5,,,,,0,12,12,12,,,,,,,,,,,,,,,,,,,,,,,1,1.2361915369999679,,,,,,,,,,,082819_p1,001,2019_Aug_28_1240,body_behavioural,3.0.4,59.95734322824446,
5,parcelated_audio/23/23_14.aiff,,0,5,5,5,,,,,0,13,13,13,,,,,,,,,,,,,,,,,,,,,,,9,0.5034791979999227,,,,,,,,,,,082819_p1,001,2019_Aug_28_1240,body_behavioural,3.0.4,59.95734322824446,
5,parcelated_audio/23/23_15.aiff,,0,5,5,5,,,,,0,14,14,14,,,,,,,,,,,,,,,,,,,,,,,1,2.7367191600001206,,,,,,,,,,,082819_p1,001,2019_Aug_28_1240,body_behavioural,3.0.4,59.95734322824446,
5,parcelated_audio/23/23_16.aiff,,0,5,5,5,,,,,0,15,15,15,,,,,,,,,,,,,,,,,,,,,,,1,1.7171389200000249,,,,,,,,,,,082819_p1,001,2019_Aug_28_1240,body_behavioural,3.0.4,59.95734322824446,
5,parcelated_audio/23/23_17.aiff,,0,5,5,5,,,,,0,16,16,16,,,,,,,,,,,,,,,,,,,,,,,9,2.7199098470000536,,,,,,,,,,,082819_p1,001,2019_Aug_28_1240,body_behavioural,3.0.4,59.95734322824446,
5,parcelated_audio/23/23_18.aiff,,0,5,5,5,,,,,0,17,17,17,,,,,,,,,,,,,,,,,,,,,,,1,1.2697889849998774,,,,,,,,,,,082819_p1,001,2019_Aug_28_1240,body_behavioural,3.0.4,59.95734322824446,
5,parcelated_audio/23/23_19.aiff,,0,5,5,5,,,,,0,18,18,18,,,,,,,,,,,,,,,,,,,,,,,9,2.4866994679996424,,,,,,,,,,,082819_p1,001,2019_Aug_28_1240,body_behavioural,3.0.4,59.95734322824446,
5,parcelated_audio/23/23_20.aiff,,0,5,5,5,,,,,0,19,19,19,,,,,,,,,,,,,,,,,,,,,,,1,2.0035164170003554,,,,,,,,,,,082819_p1,001,2019_Aug_28_1240,body_behavioural,3.0.4,59.95734322824446,
5,parcelated_audio/23/23_21.aiff,,0,5,5,5,,,,,0,20,20,20,,,,,,,,,,,,,,,,,,,,,,,9,0.4006209200001649,,,,,,,,,,,082819_p1,001,2019_Aug_28_1240,body_behavioural,3.0.4,59.95734322824446,
5,parcelated_audio/23/23_22.aiff,,0,5,5,5,,,,,0,21,21,21,,,,,,,,,,,,,,,,,,,,,,,1,1.219659429999865,,,,,,,,,,,082819_p1,001,2019_Aug_28_1240,body_behavioural,3.0.4,59.95734322824446,
5,parcelated_audio/23/23_23.aiff,,0,5,5,5,,,,,0,22,22,22,,,,,,,,,,,,,,,,,,,,,,,1,1.0366805530002239,,,,,,,,,,,082819_p1,001,2019_Aug_28_1240,body_behavioural,3.0.4,59.95734322824446,
5,parcelated_audio/23/23_24.aiff,,0,5,5,5,,,,,0,23,23,23,,,,,,,,,,,,,,,,,,,,,,,1,1.7368726499998957,,,,,,,,,,,082819_p1,001,2019_Aug_28_1240,body_behavioural,3.0.4,59.95734322824446,
5,parcelated_audio/23/23_25.aiff,,0,5,5,5,,,,,0,24,24,24,,,,,,,,,,,,,,,,,,,,,,,9,4.269865970999945,,,,,,,,,,,082819_p1,001,2019_Aug_28_1240,body_behavioural,3.0.4,59.95734322824446,
5,parcelated_audio/23/23_26.aiff,,0,5,5,5,,,,,0,25,25,25,,,,,,,,,,,,,,,,,,,,,,,1,1.4361230250001427,,,,,,,,,,,082819_p1,001,2019_Aug_28_1240,body_behavioural,3.0.4,59.95734322824446,
5,parcelated_audio/23/23_27.aiff,,0,5,5,5,,,,,0,26,26,26,,,,,,,,,,,,,,,,,,,,,,,1,0.7193970250000348,,,,,,,,,,,082819_p1,001,2019_Aug_28_1240,body_behavioural,3.0.4,59.95734322824446,
5,parcelated_audio/23/23_28.aiff,,0,5,5,5,,,,,0,27,27,27,,,,,,,,,,,,,,,,,,,,,,,9,1.2532140630000868,,,,,,,,,,,082819_p1,001,2019_Aug_28_1240,body_behavioural,3.0.4,59.95734322824446,
5,parcelated_audio/23/23_29.aiff,,0,5,5,5,,,,,0,28,28,28,,,,,,,,,,,,,,,,,,,,,,,1,55.77357853000012,,,,,,,,,,,082819_p1,001,2019_Aug_28_1240,body_behavioural,3.0.4,59.95734322824446,
5,parcelated_audio/23/23_30.aiff,,0,5,5,5,,,,,0,29,29,29,,,,,,,,,,,,,,,,,,,,,,,1,0.8364508609997756,,,,,,,,,,,082819_p1,001,2019_Aug_28_1240,body_behavioural,3.0.4,59.95734322824446,
5,parcelated_audio/23/23_31.aiff,,0,5,5,5,,,,,0,30,30,30,,,,,,,,,,,,,,,,,,,,,,,9,1.6200719570001638,,,,,,,,,,,082819_p1,001,2019_Aug_28_1240,body_behavioural,3.0.4,59.95734322824446,
5,parcelated_audio/23/23_32.aiff,,0,5,5,5,,,,,0,31,31,31,,,,,,,,,,,,,,,,,,,,,,,1,2.253304047999791,,,,,,,,,,,082819_p1,001,2019_Aug_28_1240,body_behavioural,3.0.4,59.95734322824446,
5,parcelated_audio/23/23_33.aiff,,0,5,5,5,,,,,0,32,32,32,,,,,,,,,,,,,,,,,,,,,,,1,0.7700268429998687,,,,,,,,,,,082819_p1,001,2019_Aug_28_1240,body_behavioural,3.0.4,59.95734322824446,
5,parcelated_audio/23/23_34.aiff,,0,5,5,5,,,,,0,33,33,33,,,,,,,,,,,,,,,,,,,,,,,1,1.8200838899997507,,,,,,,,,,,082819_p1,001,2019_Aug_28_1240,body_behavioural,3.0.4,59.95734322824446,
5,parcelated_audio/23/23_35.aiff,,0,5,5,5,,,,,0,34,34,34,,,,,,,,,,,,,,,,,,,,,,,1,3.8532654850000654,,,,,,,,,,,082819_p1,001,2019_Aug_28_1240,body_behavioural,3.0.4,59.95734322824446,
5,parcelated_audio/23/23_36.aiff,,0,5,5,5,,,,,0,35,35,35,,,,,,,,,,,,,,,,,,,,,,,9,3.686432834000243,,,,,,,,,,,082819_p1,001,2019_Aug_28_1240,body_behavioural,3.0.4,59.95734322824446,
5,parcelated_audio/23/23_37.aiff,,0,5,5,5,,,,,0,36,36,36,,,,,,,,,,,,,,,,,,,,,,,1,1.9532779649998702,,,,,,,,,,,082819_p1,001,2019_Aug_28_1240,body_behavioural,3.0.4,59.95734322824446,
5,parcelated_audio/23/23_38.aiff,,0,5,5,5,,,,,0,37,37,37,,,,,,,,,,,,,,,,,,,,,,,1,0.33633206100012103,,,,,,,,,,,082819_p1,001,2019_Aug_28_1240,body_behavioural,3.0.4,59.95734322824446,
5,parcelated_audio/23/23_39.aiff,,0,5,5,5,,,,,0,38,38,38,,,,,,,,,,,,,,,,,,,,,,,1,2.7695655929996974,,,,,,,,,,,082819_p1,001,2019_Aug_28_1240,body_behavioural,3.0.4,59.95734322824446,
5,,,0,5,5,5,,,,,,,,,,,,,,,,,,,,,,,,,,,,,,,,,space,34.55547220100016,,,,,,,,,082819_p1,001,2019_Aug_28_1240,body_behavioural,3.0.4,59.95734322824446,
6,,,0,6,6,6,0,0,0,0,,,,,,,,,,,,,,,,,space,24.154667631999928,space,27.738177579999956,space,2.8033268829999543,,,,,,,,,,,,,,,,,082819_p1,001,2019_Aug_28_1240,body_behavioural,3.0.4,59.95734322824446,
6,parcelated_audio/34/34_1.aiff,,0,6,6,6,,,,,0,0,0,0,,,,,,,,,,,,,,,,,,,space,17.920568643000024,space,1.3365152790001957,9,8.303855517000102,,,,,,,,,,,082819_p1,001,2019_Aug_28_1240,body_behavioural,3.0.4,59.95734322824446,
6,parcelated_audio/34/34_2.aiff,,0,6,6,6,,,,,0,1,1,1,,,,,,,,,,,,,,,,,,,,,,,1,2.5031894799999463,,,,,,,,,,,082819_p1,001,2019_Aug_28_1240,body_behavioural,3.0.4,59.95734322824446,
6,parcelated_audio/34/34_3.aiff,,0,6,6,6,,,,,0,2,2,2,,,,,,,,,,,,,,,,,,,,,,,1,1.5699215829999957,,,,,,,,,,,082819_p1,001,2019_Aug_28_1240,body_behavioural,3.0.4,59.95734322824446,
6,parcelated_audio/34/34_4.aiff,,0,6,6,6,,,,,0,3,3,3,,,,,,,,,,,,,,,,,,,,,,,9,1.8360190990001684,,,,,,,,,,,082819_p1,001,2019_Aug_28_1240,body_behavioural,3.0.4,59.95734322824446,
6,parcelated_audio/34/34_5.aiff,,0,6,6,6,,,,,0,4,4,4,,,,,,,,,,,,,,,,,,,,,,,1,0.35343117299998994,,,,,,,,,,,082819_p1,001,2019_Aug_28_1240,body_behavioural,3.0.4,59.95734322824446,
6,parcelated_audio/34/34_6.aiff,,0,6,6,6,,,,,0,5,5,5,,,,,,,,,,,,,,,,,,,,,,,1,1.2339792900002067,,,,,,,,,,,082819_p1,001,2019_Aug_28_1240,body_behavioural,3.0.4,59.95734322824446,
6,parcelated_audio/34/34_7.aiff,,0,6,6,6,,,,,0,6,6,6,,,,,,,,,,,,,,,,,,,,,,,9,0.4697747000000163,,,,,,,,,,,082819_p1,001,2019_Aug_28_1240,body_behavioural,3.0.4,59.95734322824446,
6,parcelated_audio/34/34_8.aiff,,0,6,6,6,,,,,0,7,7,7,,,,,,,,,,,,,,,,,,,,,,,1,0.36756689200001347,,,,,,,,,,,082819_p1,001,2019_Aug_28_1240,body_behavioural,3.0.4,59.95734322824446,
6,parcelated_audio/34/34_9.aiff,,0,6,6,6,,,,,0,8,8,8,,,,,,,,,,,,,,,,,,,,,,,9,1.252775801000098,,,,,,,,,,,082819_p1,001,2019_Aug_28_1240,body_behavioural,3.0.4,59.95734322824446,
6,parcelated_audio/34/34_10.aiff,,0,6,6,6,,,,,0,9,9,9,,,,,,,,,,,,,,,,,,,,,,,1,0.5365924650000125,,,,,,,,,,,082819_p1,001,2019_Aug_28_1240,body_behavioural,3.0.4,59.95734322824446,
6,parcelated_audio/34/34_11.aiff,,0,6,6,6,,,,,0,10,10,10,,,,,,,,,,,,,,,,,,,,,,,1,0.9700033969998003,,,,,,,,,,,082819_p1,001,2019_Aug_28_1240,body_behavioural,3.0.4,59.95734322824446,
6,parcelated_audio/34/34_12.aiff,,0,6,6,6,,,,,0,11,11,11,,,,,,,,,,,,,,,,,,,,,,,1,2.0194995750002818,,,,,,,,,,,082819_p1,001,2019_Aug_28_1240,body_behavioural,3.0.4,59.95734322824446,
6,parcelated_audio/34/34_13.aiff,,0,6,6,6,,,,,0,12,12,12,,,,,,,,,,,,,,,,,,,,,,,1,3.4363585209998746,,,,,,,,,,,082819_p1,001,2019_Aug_28_1240,body_behavioural,3.0.4,59.95734322824446,
6,parcelated_audio/34/34_14.aiff,,0,6,6,6,,,,,0,13,13,13,,,,,,,,,,,,,,,,,,,,,,,1,6.92042973999969,,,,,,,,,,,082819_p1,001,2019_Aug_28_1240,body_behavioural,3.0.4,59.95734322824446,
6,parcelated_audio/34/34_15.aiff,,0,6,6,6,,,,,0,14,14,14,,,,,,,,,,,,,,,,,,,,,,,1,0.6199747470000148,,,,,,,,,,,082819_p1,001,2019_Aug_28_1240,body_behavioural,3.0.4,59.95734322824446,
6,parcelated_audio/34/34_16.aiff,,0,6,6,6,,,,,0,15,15,15,,,,,,,,,,,,,,,,,,,,,,,9,0.46982036200006405,,,,,,,,,,,082819_p1,001,2019_Aug_28_1240,body_behavioural,3.0.4,59.95734322824446,
6,parcelated_audio/34/34_17.aiff,,0,6,6,6,,,,,0,16,16,16,,,,,,,,,,,,,,,,,,,,,,,1,1.1364231530001234,,,,,,,,,,,082819_p1,001,2019_Aug_28_1240,body_behavioural,3.0.4,59.95734322824446,
6,parcelated_audio/34/34_18.aiff,,0,6,6,6,,,,,0,17,17,17,,,,,,,,,,,,,,,,,,,,,,,9,0.9862378739999258,,,,,,,,,,,082819_p1,001,2019_Aug_28_1240,body_behavioural,3.0.4,59.95734322824446,
6,parcelated_audio/34/34_19.aiff,,0,6,6,6,,,,,0,18,18,18,,,,,,,,,,,,,,,,,,,,,,,1,1.6031951459999618,,,,,,,,,,,082819_p1,001,2019_Aug_28_1240,body_behavioural,3.0.4,59.95734322824446,
6,parcelated_audio/34/34_20.aiff,,0,6,6,6,,,,,0,19,19,19,,,,,,,,,,,,,,,,,,,,,,,1,0.9506591300000764,,,,,,,,,,,082819_p1,001,2019_Aug_28_1240,body_behavioural,3.0.4,59.95734322824446,
6,parcelated_audio/34/34_21.aiff,,0,6,6,6,,,,,0,20,20,20,,,,,,,,,,,,,,,,,,,,,,,1,2.950771010000153,,,,,,,,,,,082819_p1,001,2019_Aug_28_1240,body_behavioural,3.0.4,59.95734322824446,
6,parcelated_audio/34/34_22.aiff,,0,6,6,6,,,,,0,21,21,21,,,,,,,,,,,,,,,,,,,,,,,9,3.8029232049998427,,,,,,,,,,,082819_p1,001,2019_Aug_28_1240,body_behavioural,3.0.4,59.95734322824446,
6,parcelated_audio/34/34_23.aiff,,0,6,6,6,,,,,0,22,22,22,,,,,,,,,,,,,,,,,,,,,,,9,3.7367171250002684,,,,,,,,,,,082819_p1,001,2019_Aug_28_1240,body_behavioural,3.0.4,59.95734322824446,
6,parcelated_audio/34/34_24.aiff,,0,6,6,6,,,,,0,23,23,23,,,,,,,,,,,,,,,,,,,,,,,1,1.2033809220001785,,,,,,,,,,,082819_p1,001,2019_Aug_28_1240,body_behavioural,3.0.4,59.95734322824446,
6,parcelated_audio/34/34_25.aiff,,0,6,6,6,,,,,0,24,24,24,,,,,,,,,,,,,,,,,,,,,,,9,0.9198817129999952,,,,,,,,,,,082819_p1,001,2019_Aug_28_1240,body_behavioural,3.0.4,59.95734322824446,
6,parcelated_audio/34/34_26.aiff,,0,6,6,6,,,,,0,25,25,25,,,,,,,,,,,,,,,,,,,,,,,1,1.3199383450000823,,,,,,,,,,,082819_p1,001,2019_Aug_28_1240,body_behavioural,3.0.4,59.95734322824446,
6,parcelated_audio/34/34_27.aiff,,0,6,6,6,,,,,0,26,26,26,,,,,,,,,,,,,,,,,,,,,,,1,0.48677679499996884,,,,,,,,,,,082819_p1,001,2019_Aug_28_1240,body_behavioural,3.0.4,59.95734322824446,
6,,,0,6,6,6,,,,,,,,,,,,,,,,,,,,,,,,,,,,,,,,,space,3.553406670000186,,,,,,,,,082819_p1,001,2019_Aug_28_1240,body_behavioural,3.0.4,59.95734322824446,
7,,,0,7,7,7,0,0,0,0,,,,,,,,,,,,,,,,,space,1.95336406000024,space,1.28633971499994,space,5.903458752000006,,,,,,,,,,,,,,,,,082819_p1,001,2019_Aug_28_1240,body_behavioural,3.0.4,59.95734322824446,
7,parcelated_audio/43/43_1.aiff,,0,7,7,7,,,,,0,0,0,0,,,,,,,,,,,,,,,,,,,space,3.636912999999822,space,1.3366432699999677,9,5.520357264999802,,,,,,,,,,,082819_p1,001,2019_Aug_28_1240,body_behavioural,3.0.4,59.95734322824446,
7,parcelated_audio/43/43_2.aiff,,0,7,7,7,,,,,0,1,1,1,,,,,,,,,,,,,,,,,,,,,,,1,4.353451001999929,,,,,,,,,,,082819_p1,001,2019_Aug_28_1240,body_behavioural,3.0.4,59.95734322824446,
7,parcelated_audio/43/43_3.aiff,,0,7,7,7,,,,,0,2,2,2,,,,,,,,,,,,,,,,,,,,,,,9,0.2532298829996762,,,,,,,,,,,082819_p1,001,2019_Aug_28_1240,body_behavioural,3.0.4,59.95734322824446,
7,parcelated_audio/43/43_4.aiff,,0,7,7,7,,,,,0,3,3,3,,,,,,,,,,,,,,,,,,,,,,,1,1.503308201999971,,,,,,,,,,,082819_p1,001,2019_Aug_28_1240,body_behavioural,3.0.4,59.95734322824446,
7,parcelated_audio/43/43_5.aiff,,0,7,7,7,,,,,0,4,4,4,,,,,,,,,,,,,,,,,,,,,,,1,1.4034063250001054,,,,,,,,,,,082819_p1,001,2019_Aug_28_1240,body_behavioural,3.0.4,59.95734322824446,
7,parcelated_audio/43/43_6.aiff,,0,7,7,7,,,,,0,5,5,5,,,,,,,,,,,,,,,,,,,,,,,9,1.2841726249998828,,,,,,,,,,,082819_p1,001,2019_Aug_28_1240,body_behavioural,3.0.4,59.95734322824446,
7,parcelated_audio/43/43_7.aiff,,0,7,7,7,,,,,0,6,6,6,,,,,,,,,,,,,,,,,,,,,,,1,1.0532896750000873,,,,,,,,,,,082819_p1,001,2019_Aug_28_1240,body_behavioural,3.0.4,59.95734322824446,
7,parcelated_audio/43/43_8.aiff,,0,7,7,7,,,,,0,7,7,7,,,,,,,,,,,,,,,,,,,,,,,1,1.8032265570000163,,,,,,,,,,,082819_p1,001,2019_Aug_28_1240,body_behavioural,3.0.4,59.95734322824446,
7,parcelated_audio/43/43_9.aiff,,0,7,7,7,,,,,0,8,8,8,,,,,,,,,,,,,,,,,,,,,,,1,1.0199344120001115,,,,,,,,,,,082819_p1,001,2019_Aug_28_1240,body_behavioural,3.0.4,59.95734322824446,
7,parcelated_audio/43/43_10.aiff,,0,7,7,7,,,,,0,9,9,9,,,,,,,,,,,,,,,,,,,,,,,1,3.519849294999858,,,,,,,,,,,082819_p1,001,2019_Aug_28_1240,body_behavioural,3.0.4,59.95734322824446,
7,parcelated_audio/43/43_11.aiff,,0,7,7,7,,,,,0,10,10,10,,,,,,,,,,,,,,,,,,,,,,,1,2.7508931100001064,,,,,,,,,,,082819_p1,001,2019_Aug_28_1240,body_behavioural,3.0.4,59.95734322824446,
7,parcelated_audio/43/43_12.aiff,,0,7,7,7,,,,,0,11,11,11,,,,,,,,,,,,,,,,,,,,,,,1,3.320359651999752,,,,,,,,,,,082819_p1,001,2019_Aug_28_1240,body_behavioural,3.0.4,59.95734322824446,
7,parcelated_audio/43/43_13.aiff,,0,7,7,7,,,,,0,12,12,12,,,,,,,,,,,,,,,,,,,,,,,9,0.4368226400001731,,,,,,,,,,,082819_p1,001,2019_Aug_28_1240,body_behavioural,3.0.4,59.95734322824446,
7,parcelated_audio/43/43_14.aiff,,0,7,7,7,,,,,0,13,13,13,,,,,,,,,,,,,,,,,,,,,,,9,0.6173523200000091,,,,,,,,,,,082819_p1,001,2019_Aug_28_1240,body_behavioural,3.0.4,59.95734322824446,
7,parcelated_audio/43/43_15.aiff,,0,7,7,7,,,,,0,14,14,14,,,,,,,,,,,,,,,,,,,,,,,1,2.453301134999947,,,,,,,,,,,082819_p1,001,2019_Aug_28_1240,body_behavioural,3.0.4,59.95734322824446,
7,parcelated_audio/43/43_16.aiff,,0,7,7,7,,,,,0,15,15,15,,,,,,,,,,,,,,,,,,,,,,,1,1.2867030960001102,,,,,,,,,,,082819_p1,001,2019_Aug_28_1240,body_behavioural,3.0.4,59.95734322824446,
7,parcelated_audio/43/43_17.aiff,,0,7,7,7,,,,,0,16,16,16,,,,,,,,,,,,,,,,,,,,,,,9,3.5534818950000044,,,,,,,,,,,082819_p1,001,2019_Aug_28_1240,body_behavioural,3.0.4,59.95734322824446,
7,parcelated_audio/43/43_18.aiff,,0,7,7,7,,,,,0,17,17,17,,,,,,,,,,,,,,,,,,,,,,,1,0.9196867000000566,,,,,,,,,,,082819_p1,001,2019_Aug_28_1240,body_behavioural,3.0.4,59.95734322824446,
7,parcelated_audio/43/43_19.aiff,,0,7,7,7,,,,,0,18,18,18,,,,,,,,,,,,,,,,,,,,,,,9,4.003323808000005,,,,,,,,,,,082819_p1,001,2019_Aug_28_1240,body_behavioural,3.0.4,59.95734322824446,
7,parcelated_audio/43/43_20.aiff,,0,7,7,7,,,,,0,19,19,19,,,,,,,,,,,,,,,,,,,,,,,9,3.8033480590002,,,,,,,,,,,082819_p1,001,2019_Aug_28_1240,body_behavioural,3.0.4,59.95734322824446,
7,parcelated_audio/43/43_21.aiff,,0,7,7,7,,,,,0,20,20,20,,,,,,,,,,,,,,,,,,,,,,,1,2.419938533000277,,,,,,,,,,,082819_p1,001,2019_Aug_28_1240,body_behavioural,3.0.4,59.95734322824446,
7,parcelated_audio/43/43_22.aiff,,0,7,7,7,,,,,0,21,21,21,,,,,,,,,,,,,,,,,,,,,,,1,2.903381348000039,,,,,,,,,,,082819_p1,001,2019_Aug_28_1240,body_behavioural,3.0.4,59.95734322824446,
7,parcelated_audio/43/43_23.aiff,,0,7,7,7,,,,,0,22,22,22,,,,,,,,,,,,,,,,,,,,,,,1,1.9198183349999454,,,,,,,,,,,082819_p1,001,2019_Aug_28_1240,body_behavioural,3.0.4,59.95734322824446,
7,parcelated_audio/43/43_24.aiff,,0,7,7,7,,,,,0,23,23,23,,,,,,,,,,,,,,,,,,,,,,,9,0.8697459969998818,,,,,,,,,,,082819_p1,001,2019_Aug_28_1240,body_behavioural,3.0.4,59.95734322824446,
7,parcelated_audio/43/43_25.aiff,,0,7,7,7,,,,,0,24,24,24,,,,,,,,,,,,,,,,,,,,,,,1,0.41965013299977727,,,,,,,,,,,082819_p1,001,2019_Aug_28_1240,body_behavioural,3.0.4,59.95734322824446,
7,parcelated_audio/43/43_26.aiff,,0,7,7,7,,,,,0,25,25,25,,,,,,,,,,,,,,,,,,,,,,,9,1.169943086999865,,,,,,,,,,,082819_p1,001,2019_Aug_28_1240,body_behavioural,3.0.4,59.95734322824446,
7,parcelated_audio/43/43_27.aiff,,0,7,7,7,,,,,0,26,26,26,,,,,,,,,,,,,,,,,,,,,,,9,3.919938000000002,,,,,,,,,,,082819_p1,001,2019_Aug_28_1240,body_behavioural,3.0.4,59.95734322824446,
7,parcelated_audio/43/43_28.aiff,,0,7,7,7,,,,,0,27,27,27,,,,,,,,,,,,,,,,,,,,,,,9,3.4866143680001187,,,,,,,,,,,082819_p1,001,2019_Aug_28_1240,body_behavioural,3.0.4,59.95734322824446,
7,parcelated_audio/43/43_29.aiff,,0,7,7,7,,,,,0,28,28,28,,,,,,,,,,,,,,,,,,,,,,,1,1.053151310999965,,,,,,,,,,,082819_p1,001,2019_Aug_28_1240,body_behavioural,3.0.4,59.95734322824446,
7,,,0,7,7,7,,,,,,,,,,,,,,,,,,,,,,,,,,,,,,,,,space,1.8363970830000653,,,,,,,,,082819_p1,001,2019_Aug_28_1240,body_behavioural,3.0.4,59.95734322824446,
,,,,,,,,,,,,,,,,,,,,,,,,,,,,,,,,,,,,,,,,,2851.083661201,space,4.734261269999934,,,,,,082819_p1,001,2019_Aug_28_1240,body_behavioural,3.0.4,59.95734322824446,
,,"In this next part of the experiment, please recall each story to the best of your ability.",,,,,,,,,,,,,0,0,0,0,,,,,,,,,,,,,,,,,,,,,,,,,,space,6.303583534000154,,,,082819_p1,001,2019_Aug_28_1240,body_behavioural,3.0.4,59.95734322824446,
,,"You will be presented with the story title, names, the images, and a blank text box for each story.",,,,,,,,,,,,,0,1,1,1,,,,,,,,,,,,,,,,,,,,,,,,,,space,6.486988569999994,,,,082819_p1,001,2019_Aug_28_1240,body_behavioural,3.0.4,59.95734322824446,
,,Describe the story indicated with as many details as you can remember in the space provided. ,,,,,,,,,,,,,0,2,2,2,,,,,,,,,,,,,,,,,,,,,,,,,,space,3.9535049780001827,,,,082819_p1,001,2019_Aug_28_1240,body_behavioural,3.0.4,59.95734322824446,
,,"When you are finished recalling one story, to move onto the next one, press the ‘return’ key. ",,,,,,,,,,,,,0,3,3,3,,,,,,,,,,,,,,,,,,,,,,,,,,space,3.570312280000053,,,,082819_p1,001,2019_Aug_28_1240,body_behavioural,3.0.4,59.95734322824446,
,,There is a 5 minute time limit to make your response. ,,,,,,,,,,,,,0,4,4,4,,,,,,,,,,,,,,,,,,,,,,,,,,space,2.9029888370000663,,,,082819_p1,001,2019_Aug_28_1240,body_behavioural,3.0.4,59.95734322824446,
,,Please note that you will not be able to capitalize any letters except for the first letter of your answer.,,,,,,,,,,,,,0,5,5,5,,,,,,,,,,,,,,,,,,,,,,,,,,space,5.387192536999919,,,,082819_p1,001,2019_Aug_28_1240,body_behavioural,3.0.4,59.95734322824446,
0,,,,,,,,,,,,,,,,,,,0,0,0,0,,,,,,,,,,,,,,,,,,,,,,,,space,1.6343660999996246,,082819_p1,001,2019_Aug_28_1240,body_behavioural,3.0.4,59.95734322824446,
1,,,,,,,,,,,,,,,,,,,0,1,1,1,,,,,,,,,,,,,,,,,,,,,,,,space,3.003458317999957,"After nearly two years of dating, senna finally decided to propose to his girlfriend alvira. he chose a nice restaurant near the ocean as the setting. alvira said yes, and texted her father the good news.",082819_p1,001,2019_Aug_28_1240,body_behavioural,3.0.4,59.95734322824446,
2,,,,,,,,,,,,,,,,,,,0,2,2,2,,,,,,,,,,,,,,,,,,,,,,,,space,1.5367222830000173,"After spending time on vacation together in jamaica, jessie decided to tell calvin that she wanted to break up with him as they were trying to catch their flight home. the two agreed to part ways.",082819_p1,001,2019_Aug_28_1240,body_behavioural,3.0.4,59.95734322824446,
3,,,,,,,,,,,,,,,,,,,0,3,3,3,,,,,,,,,,,,,,,,,,,,,,,,space,1.2537017880003987,James and teresa met at a sushi restaurant in atlanta after teresa ran into a glass door while texting on her phone. the two ended up sharing a meal together before james asked teresa to join him for another engagement.,082819_p1,001,2019_Aug_28_1240,body_behavioural,3.0.4,59.95734322824446,
4,,,,,,,,,,,,,,,,,,,0,4,4,4,,,,,,,,,,,,,,,,,,,,,,,,space,1.5195825659998263,Maria decided to tell henry that she thought it was best that they break up because she would be studying abroad. she broke the news to henry during a lecture. henry said he didn't want the relationship to end and would travel to meet her in an attempt to make it work. maria said no. ,082819_p1,001,2019_Aug_28_1240,body_behavioural,3.0.4,59.95734322824446,
5,,,,,,,,,,,,,,,,,,,0,5,5,5,,,,,,,,,,,,,,,,,,,,,,,,space,1.6193888509997123,"Alex wanted to surprise his girlfriend chloe with a marriage proposal. he decided to ask her in line while the two were shopping at the grocery store, and had some of their friends waiting outside the store to help celebrate. she said yes. other shoppers applauded and the group left the store to celebrate.",082819_p1,001,2019_Aug_28_1240,body_behavioural,3.0.4,59.95734322824446,
6,,,,,,,,,,,,,,,,,,,0,6,6,6,,,,,,,,,,,,,,,,,,,,,,,,space,1.6364519930002643,"Alma asked charlie and his partners to finance her new business. charlie offered her half of the amount she was seeking. alma resisted, and charlie ended up given her the full amount she requested.",082819_p1,001,2019_Aug_28_1240,body_behavioural,3.0.4,59.95734322824446,
