count,audio,instructText,trials.thisRepN,trials.thisTrialN,trials.thisN,trials.thisIndex,trials_7.thisRepN,trials_7.thisTrialN,trials_7.thisN,trials_7.thisIndex,trials_2.thisRepN,trials_2.thisTrialN,trials_2.thisN,trials_2.thisIndex,trials_3.thisRepN,trials_3.thisTrialN,trials_3.thisN,trials_3.thisIndex,trials_4.thisRepN,trials_4.thisTrialN,trials_4.thisN,trials_4.thisIndex,order of stories,order of perspectives,participant 2 order - stories,participant 2 order  - schemas types,key_resp_8.keys,key_resp_8.rt,key_resp_5.keys,key_resp_5.rt,key_resp_7.keys,key_resp_7.rt,key_resp_15.keys,key_resp_15.rt,key_resp_14.keys,key_resp_14.rt,story_presses.keys,story_presses.rt,key_resp_16.keys,key_resp_16.rt,story time,key_resp_6.keys,key_resp_6.rt,key_resp_2.keys,key_resp_2.rt,key_resp_10.keys,key_resp_10.rt,recall,participant,session,date,expName,psychopyVersion,frameRate,
0,,,0,0,0,0,0,0,0,0,,,,,,,,,,,,,[22 14 34 42 11 43 31 23 12 33 41 21 32 13 24 44],"['Social' 'Location' 'Social' 'Location' 'Social' 'Social' 'Location'
 'Location' 'Location' 'Location' 'Social' 'Location' 'Social' 'Social'
 'Social' 'Location']",[12 33 41 21 32 13 24 44],"['Location' 'Location' 'Social' 'Location' 'Social' 'Social' 'Social'
 'Location']",space,82.05123929000001,space,0.6698482899999476,space,0.7865212579999934,,,,,,,,,,,,,,,,,082919_p1,001,2019_Aug_29_1355,body_behavioural,3.0.4,59.98621576748611,
0,parcelated_audio/22/22_1.aiff,,0,0,0,0,,,,,0,0,0,0,,,,,,,,,,,,,,,,,,,space,3.1531873380000093,space,0.8698300400000107,9,0.35312952499998573,,,,,,,,,,,082919_p1,001,2019_Aug_29_1355,body_behavioural,3.0.4,59.98621576748611,
0,parcelated_audio/22/22_2.aiff,,0,0,0,0,,,,,0,1,1,1,,,,,,,,,,,,,,,,,,,,,,,1,0.35324996999997893,,,,,,,,,,,082919_p1,001,2019_Aug_29_1355,body_behavioural,3.0.4,59.98621576748611,
0,parcelated_audio/22/22_3.aiff,,0,0,0,0,,,,,0,2,2,2,,,,,,,,,,,,,,,,,,,,,,,1,0.3365786539999931,,,,,,,,,,,082919_p1,001,2019_Aug_29_1355,body_behavioural,3.0.4,59.98621576748611,
0,parcelated_audio/22/22_4.aiff,,0,0,0,0,,,,,0,3,3,3,,,,,,,,,,,,,,,,,,,,,,,1,0.8365859269999874,,,,,,,,,,,082919_p1,001,2019_Aug_29_1355,body_behavioural,3.0.4,59.98621576748611,
0,parcelated_audio/22/22_5.aiff,,0,0,0,0,,,,,0,4,4,4,,,,,,,,,,,,,,,,,,,,,,,1,0.35311829699998043,,,,,,,,,,,082919_p1,001,2019_Aug_29_1355,body_behavioural,3.0.4,59.98621576748611,
0,parcelated_audio/22/22_6.aiff,,0,0,0,0,,,,,0,5,5,5,,,,,,,,,,,,,,,,,,,,,,,1,0.3339178230000357,,,,,,,,,,,082919_p1,001,2019_Aug_29_1355,body_behavioural,3.0.4,59.98621576748611,
0,parcelated_audio/22/22_7.aiff,,0,0,0,0,,,,,0,6,6,6,,,,,,,,,,,,,,,,,,,,,,,1,0.7694920139999795,,,,,,,,,,,082919_p1,001,2019_Aug_29_1355,body_behavioural,3.0.4,59.98621576748611,
0,parcelated_audio/22/22_8.aiff,,0,0,0,0,,,,,0,7,7,7,,,,,,,,,,,,,,,,,,,,,,,9,0.370110206999982,,,,,,,,,,,082919_p1,001,2019_Aug_29_1355,body_behavioural,3.0.4,59.98621576748611,
0,parcelated_audio/22/22_9.aiff,,0,0,0,0,,,,,0,8,8,8,,,,,,,,,,,,,,,,,,,,,,,1,0.3032160779999913,,,,,,,,,,,082919_p1,001,2019_Aug_29_1355,body_behavioural,3.0.4,59.98621576748611,
0,parcelated_audio/22/22_10.aiff,,0,0,0,0,,,,,0,9,9,9,,,,,,,,,,,,,,,,,,,,,,,1,0.4341999650000048,,,,,,,,,,,082919_p1,001,2019_Aug_29_1355,body_behavioural,3.0.4,59.98621576748611,
0,parcelated_audio/22/22_11.aiff,,0,0,0,0,,,,,0,10,10,10,,,,,,,,,,,,,,,,,,,,,,,1,1.4002626890000442,,,,,,,,,,,082919_p1,001,2019_Aug_29_1355,body_behavioural,3.0.4,59.98621576748611,
0,parcelated_audio/22/22_12.aiff,,0,0,0,0,,,,,0,11,11,11,,,,,,,,,,,,,,,,,,,,,,,1,0.3840208970000276,,,,,,,,,,,082919_p1,001,2019_Aug_29_1355,body_behavioural,3.0.4,59.98621576748611,
0,parcelated_audio/22/22_13.aiff,,0,0,0,0,,,,,0,12,12,12,,,,,,,,,,,,,,,,,,,,,,,1,0.33402667299998257,,,,,,,,,,,082919_p1,001,2019_Aug_29_1355,body_behavioural,3.0.4,59.98621576748611,
0,parcelated_audio/22/22_14.aiff,,0,0,0,0,,,,,0,13,13,13,,,,,,,,,,,,,,,,,,,,,,,1,0.6531806350000124,,,,,,,,,,,082919_p1,001,2019_Aug_29_1355,body_behavioural,3.0.4,59.98621576748611,
0,parcelated_audio/22/22_15.aiff,,0,0,0,0,,,,,0,14,14,14,,,,,,,,,,,,,,,,,,,,,,,9,0.8840646220000394,,,,,,,,,,,082919_p1,001,2019_Aug_29_1355,body_behavioural,3.0.4,59.98621576748611,
0,parcelated_audio/22/22_16.aiff,,0,0,0,0,,,,,0,15,15,15,,,,,,,,,,,,,,,,,,,,,,,1,0.28625990000000456,,,,,,,,,,,082919_p1,001,2019_Aug_29_1355,body_behavioural,3.0.4,59.98621576748611,
0,parcelated_audio/22/22_17.aiff,,0,0,0,0,,,,,0,16,16,16,,,,,,,,,,,,,,,,,,,,,,,1,1.4029809669999622,,,,,,,,,,,082919_p1,001,2019_Aug_29_1355,body_behavioural,3.0.4,59.98621576748611,
0,parcelated_audio/22/22_18.aiff,,0,0,0,0,,,,,0,17,17,17,,,,,,,,,,,,,,,,,,,,,,,9,0.7865830650000021,,,,,,,,,,,082919_p1,001,2019_Aug_29_1355,body_behavioural,3.0.4,59.98621576748611,
0,parcelated_audio/22/22_19.aiff,,0,0,0,0,,,,,0,18,18,18,,,,,,,,,,,,,,,,,,,,,,,1,0.8031215180000117,,,,,,,,,,,082919_p1,001,2019_Aug_29_1355,body_behavioural,3.0.4,59.98621576748611,
0,parcelated_audio/22/22_20.aiff,,0,0,0,0,,,,,0,19,19,19,,,,,,,,,,,,,,,,,,,,,,,1,0.352912769999989,,,,,,,,,,,082919_p1,001,2019_Aug_29_1355,body_behavioural,3.0.4,59.98621576748611,
0,parcelated_audio/22/22_21.aiff,,0,0,0,0,,,,,0,20,20,20,,,,,,,,,,,,,,,,,,,,,,,1,0.5861895050000498,,,,,,,,,,,082919_p1,001,2019_Aug_29_1355,body_behavioural,3.0.4,59.98621576748611,
0,parcelated_audio/22/22_22.aiff,,0,0,0,0,,,,,0,21,21,21,,,,,,,,,,,,,,,,,,,,,,,1,0.41988352200002055,,,,,,,,,,,082919_p1,001,2019_Aug_29_1355,body_behavioural,3.0.4,59.98621576748611,
0,parcelated_audio/22/22_23.aiff,,0,0,0,0,,,,,0,22,22,22,,,,,,,,,,,,,,,,,,,,,,,1,0.4865132780000181,,,,,,,,,,,082919_p1,001,2019_Aug_29_1355,body_behavioural,3.0.4,59.98621576748611,
0,parcelated_audio/22/22_24.aiff,,0,0,0,0,,,,,0,23,23,23,,,,,,,,,,,,,,,,,,,,,,,1,1.36994367799997,,,,,,,,,,,082919_p1,001,2019_Aug_29_1355,body_behavioural,3.0.4,59.98621576748611,
0,parcelated_audio/22/22_25.aiff,,0,0,0,0,,,,,0,24,24,24,,,,,,,,,,,,,,,,,,,,,,,9,0.5509936629999856,,,,,,,,,,,082919_p1,001,2019_Aug_29_1355,body_behavioural,3.0.4,59.98621576748611,
0,parcelated_audio/22/22_26.aiff,,0,0,0,0,,,,,0,25,25,25,,,,,,,,,,,,,,,,,,,,,,,1,0.3339932150000209,,,,,,,,,,,082919_p1,001,2019_Aug_29_1355,body_behavioural,3.0.4,59.98621576748611,
0,parcelated_audio/22/22_27.aiff,,0,0,0,0,,,,,0,26,26,26,,,,,,,,,,,,,,,,,,,,,,,1,0.31928939699997727,,,,,,,,,,,082919_p1,001,2019_Aug_29_1355,body_behavioural,3.0.4,59.98621576748611,
0,parcelated_audio/22/22_28.aiff,,0,0,0,0,,,,,0,27,27,27,,,,,,,,,,,,,,,,,,,,,,,1,0.503008608000016,,,,,,,,,,,082919_p1,001,2019_Aug_29_1355,body_behavioural,3.0.4,59.98621576748611,
0,parcelated_audio/22/22_29.aiff,,0,0,0,0,,,,,0,28,28,28,,,,,,,,,,,,,,,,,,,,,,,1,3.5698536380000405,,,,,,,,,,,082919_p1,001,2019_Aug_29_1355,body_behavioural,3.0.4,59.98621576748611,
0,parcelated_audio/22/22_30.aiff,,0,0,0,0,,,,,0,29,29,29,,,,,,,,,,,,,,,,,,,,,,,9,3.636648399999899,,,,,,,,,,,082919_p1,001,2019_Aug_29_1355,body_behavioural,3.0.4,59.98621576748611,
0,parcelated_audio/22/22_31.aiff,,0,0,0,0,,,,,0,30,30,30,,,,,,,,,,,,,,,,,,,,,,,1,1.0033451179999702,,,,,,,,,,,082919_p1,001,2019_Aug_29_1355,body_behavioural,3.0.4,59.98621576748611,
0,parcelated_audio/22/22_32.aiff,,0,0,0,0,,,,,0,31,31,31,,,,,,,,,,,,,,,,,,,,,,,1,0.36932541900000615,,,,,,,,,,,082919_p1,001,2019_Aug_29_1355,body_behavioural,3.0.4,59.98621576748611,
0,parcelated_audio/22/22_33.aiff,,0,0,0,0,,,,,0,32,32,32,,,,,,,,,,,,,,,,,,,,,,,1,7.353379607999955,,,,,,,,,,,082919_p1,001,2019_Aug_29_1355,body_behavioural,3.0.4,59.98621576748611,
0,parcelated_audio/22/22_34.aiff,,0,0,0,0,,,,,0,33,33,33,,,,,,,,,,,,,,,,,,,,,,,9,1.836679815000025,,,,,,,,,,,082919_p1,001,2019_Aug_29_1355,body_behavioural,3.0.4,59.98621576748611,
0,parcelated_audio/22/22_35.aiff,,0,0,0,0,,,,,0,34,34,34,,,,,,,,,,,,,,,,,,,,,,,1,3.820251127000006,,,,,,,,,,,082919_p1,001,2019_Aug_29_1355,body_behavioural,3.0.4,59.98621576748611,
0,parcelated_audio/22/22_36.aiff,,0,0,0,0,,,,,0,35,35,35,,,,,,,,,,,,,,,,,,,,,,,1,1.1701121629999989,,,,,,,,,,,082919_p1,001,2019_Aug_29_1355,body_behavioural,3.0.4,59.98621576748611,
0,parcelated_audio/22/22_37.aiff,,0,0,0,0,,,,,0,36,36,36,,,,,,,,,,,,,,,,,,,,,,,1,0.969649211999922,,,,,,,,,,,082919_p1,001,2019_Aug_29_1355,body_behavioural,3.0.4,59.98621576748611,
0,,,0,0,0,0,,,,,,,,,,,,,,,,,,,,,,,,,,,,,,,,,space,5.62015894000001,,,,,,,,,082919_p1,001,2019_Aug_29_1355,body_behavioural,3.0.4,59.98621576748611,
1,,,0,1,1,1,0,0,0,0,,,,,,,,,,,,,,,,,space,1.7531750769999235,space,1.386340247000021,space,0.6200022680000075,,,,,,,,,,,,,,,,,082919_p1,001,2019_Aug_29_1355,body_behavioural,3.0.4,59.98621576748611,
1,,,0,1,1,1,1,0,1,0,,,,,,,,,,,,,,,,,,,,,space,0.3692053739999892,,,,,,,,,,,,,,,,,082919_p1,001,2019_Aug_29_1355,body_behavioural,3.0.4,59.98621576748611,
1,parcelated_audio/14/14_1.aiff,,0,1,1,1,,,,,0,0,0,0,,,,,,,,,,,,,,,,,,,space,48.5871486100001,space,0.4864851400000134,9,0.42009176299995943,,,,,,,,,,,082919_p1,001,2019_Aug_29_1355,body_behavioural,3.0.4,59.98621576748611,
1,parcelated_audio/14/14_2.aiff,,0,1,1,1,,,,,0,1,1,1,,,,,,,,,,,,,,,,,,,,,,,1,0.45283021300008386,,,,,,,,,,,082919_p1,001,2019_Aug_29_1355,body_behavioural,3.0.4,59.98621576748611,
1,parcelated_audio/14/14_3.aiff,,0,1,1,1,,,,,0,2,2,2,,,,,,,,,,,,,,,,,,,,,,,1,0.48623014199995396,,,,,,,,,,,082919_p1,001,2019_Aug_29_1355,body_behavioural,3.0.4,59.98621576748611,
1,parcelated_audio/14/14_4.aiff,,0,1,1,1,,,,,0,3,3,3,,,,,,,,,,,,,,,,,,,,,,,9,0.3367416650000905,,,,,,,,,,,082919_p1,001,2019_Aug_29_1355,body_behavioural,3.0.4,59.98621576748611,
1,parcelated_audio/14/14_5.aiff,,0,1,1,1,,,,,0,4,4,4,,,,,,,,,,,,,,,,,,,,,,,1,0.40346289499996146,,,,,,,,,,,082919_p1,001,2019_Aug_29_1355,body_behavioural,3.0.4,59.98621576748611,
1,parcelated_audio/14/14_6.aiff,,0,1,1,1,,,,,0,5,5,5,,,,,,,,,,,,,,,,,,,,,,,1,1.0701188049999928,,,,,,,,,,,082919_p1,001,2019_Aug_29_1355,body_behavioural,3.0.4,59.98621576748611,
1,parcelated_audio/14/14_7.aiff,,0,1,1,1,,,,,0,6,6,6,,,,,,,,,,,,,,,,,,,,,,,1,0.0529821229999925,,,,,,,,,,,082919_p1,001,2019_Aug_29_1355,body_behavioural,3.0.4,59.98621576748611,
1,parcelated_audio/14/14_8.aiff,,0,1,1,1,,,,,0,7,7,7,,,,,,,,,,,,,,,,,,,,,,,1,0.5363019960000202,,,,,,,,,,,082919_p1,001,2019_Aug_29_1355,body_behavioural,3.0.4,59.98621576748611,
1,parcelated_audio/14/14_9.aiff,,0,1,1,1,,,,,0,8,8,8,,,,,,,,,,,,,,,,,,,,,,,1,0.750615072999949,,,,,,,,,,,082919_p1,001,2019_Aug_29_1355,body_behavioural,3.0.4,59.98621576748611,
1,parcelated_audio/14/14_10.aiff,,0,1,1,1,,,,,0,9,9,9,,,,,,,,,,,,,,,,,,,,,,,1,0.35323518999996395,,,,,,,,,,,082919_p1,001,2019_Aug_29_1355,body_behavioural,3.0.4,59.98621576748611,
1,parcelated_audio/14/14_11.aiff,,0,1,1,1,,,,,0,10,10,10,,,,,,,,,,,,,,,,,,,,,,,1,0.38671448299999156,,,,,,,,,,,082919_p1,001,2019_Aug_29_1355,body_behavioural,3.0.4,59.98621576748611,
1,parcelated_audio/14/14_12.aiff,,0,1,1,1,,,,,0,11,11,11,,,,,,,,,,,,,,,,,,,,,,,1,0.2698516350000091,,,,,,,,,,,082919_p1,001,2019_Aug_29_1355,body_behavioural,3.0.4,59.98621576748611,
1,parcelated_audio/14/14_13.aiff,,0,1,1,1,,,,,0,12,12,12,,,,,,,,,,,,,,,,,,,,,,,1,0.4531970350000165,,,,,,,,,,,082919_p1,001,2019_Aug_29_1355,body_behavioural,3.0.4,59.98621576748611,
1,parcelated_audio/14/14_14.aiff,,0,1,1,1,,,,,0,13,13,13,,,,,,,,,,,,,,,,,,,,,,,9,1.7200382249999393,,,,,,,,,,,082919_p1,001,2019_Aug_29_1355,body_behavioural,3.0.4,59.98621576748611,
1,parcelated_audio/14/14_15.aiff,,0,1,1,1,,,,,0,14,14,14,,,,,,,,,,,,,,,,,,,,,,,1,0.6839734000000135,,,,,,,,,,,082919_p1,001,2019_Aug_29_1355,body_behavioural,3.0.4,59.98621576748611,
1,parcelated_audio/14/14_16.aiff,,0,1,1,1,,,,,0,15,15,15,,,,,,,,,,,,,,,,,,,,,,,1,1.35068504700007,,,,,,,,,,,082919_p1,001,2019_Aug_29_1355,body_behavioural,3.0.4,59.98621576748611,
1,parcelated_audio/14/14_17.aiff,,0,1,1,1,,,,,0,16,16,16,,,,,,,,,,,,,,,,,,,,,,,1,0.6361258949999637,,,,,,,,,,,082919_p1,001,2019_Aug_29_1355,body_behavioural,3.0.4,59.98621576748611,
1,parcelated_audio/14/14_18.aiff,,0,1,1,1,,,,,0,17,17,17,,,,,,,,,,,,,,,,,,,,,,,9,2.3532904810000446,,,,,,,,,,,082919_p1,001,2019_Aug_29_1355,body_behavioural,3.0.4,59.98621576748611,
1,parcelated_audio/14/14_19.aiff,,0,1,1,1,,,,,0,18,18,18,,,,,,,,,,,,,,,,,,,,,,,1,0.6696257410000044,,,,,,,,,,,082919_p1,001,2019_Aug_29_1355,body_behavioural,3.0.4,59.98621576748611,
1,parcelated_audio/14/14_20.aiff,,0,1,1,1,,,,,0,19,19,19,,,,,,,,,,,,,,,,,,,,,,,1,0.503312477999998,,,,,,,,,,,082919_p1,001,2019_Aug_29_1355,body_behavioural,3.0.4,59.98621576748611,
1,parcelated_audio/14/14_21.aiff,,0,1,1,1,,,,,0,20,20,20,,,,,,,,,,,,,,,,,,,,,,,1,0.7698363499999914,,,,,,,,,,,082919_p1,001,2019_Aug_29_1355,body_behavioural,3.0.4,59.98621576748611,
1,parcelated_audio/14/14_22.aiff,,0,1,1,1,,,,,0,21,21,21,,,,,,,,,,,,,,,,,,,,,,,1,1.4365605130000176,,,,,,,,,,,082919_p1,001,2019_Aug_29_1355,body_behavioural,3.0.4,59.98621576748611,
1,parcelated_audio/14/14_23.aiff,,0,1,1,1,,,,,0,22,22,22,,,,,,,,,,,,,,,,,,,,,,,9,0.38647811500004536,,,,,,,,,,,082919_p1,001,2019_Aug_29_1355,body_behavioural,3.0.4,59.98621576748611,
1,parcelated_audio/14/14_24.aiff,,0,1,1,1,,,,,0,23,23,23,,,,,,,,,,,,,,,,,,,,,,,1,0.48657603399999516,,,,,,,,,,,082919_p1,001,2019_Aug_29_1355,body_behavioural,3.0.4,59.98621576748611,
1,parcelated_audio/14/14_25.aiff,,0,1,1,1,,,,,0,24,24,24,,,,,,,,,,,,,,,,,,,,,,,1,0.3198819149999963,,,,,,,,,,,082919_p1,001,2019_Aug_29_1355,body_behavioural,3.0.4,59.98621576748611,
1,parcelated_audio/14/14_26.aiff,,0,1,1,1,,,,,0,25,25,25,,,,,,,,,,,,,,,,,,,,,,,1,0.18646032799995282,,,,,,,,,,,082919_p1,001,2019_Aug_29_1355,body_behavioural,3.0.4,59.98621576748611,
1,parcelated_audio/14/14_27.aiff,,0,1,1,1,,,,,0,26,26,26,,,,,,,,,,,,,,,,,,,,,,,9,0.5032875550000426,,,,,,,,,,,082919_p1,001,2019_Aug_29_1355,body_behavioural,3.0.4,59.98621576748611,
1,parcelated_audio/14/14_28.aiff,,0,1,1,1,,,,,0,27,27,27,,,,,,,,,,,,,,,,,,,,,,,1,0.4361845670000548,,,,,,,,,,,082919_p1,001,2019_Aug_29_1355,body_behavioural,3.0.4,59.98621576748611,
1,parcelated_audio/14/14_29.aiff,,0,1,1,1,,,,,0,28,28,28,,,,,,,,,,,,,,,,,,,,,,,1,0.2528428770000346,,,,,,,,,,,082919_p1,001,2019_Aug_29_1355,body_behavioural,3.0.4,59.98621576748611,
1,parcelated_audio/14/14_30.aiff,,0,1,1,1,,,,,0,29,29,29,,,,,,,,,,,,,,,,,,,,,,,1,0.23644795500001692,,,,,,,,,,,082919_p1,001,2019_Aug_29_1355,body_behavioural,3.0.4,59.98621576748611,
1,parcelated_audio/14/14_31.aiff,,0,1,1,1,,,,,0,30,30,30,,,,,,,,,,,,,,,,,,,,,,,9,1.6032513779999817,,,,,,,,,,,082919_p1,001,2019_Aug_29_1355,body_behavioural,3.0.4,59.98621576748611,
1,parcelated_audio/14/14_32.aiff,,0,1,1,1,,,,,0,31,31,31,,,,,,,,,,,,,,,,,,,,,,,1,0.5864920850000317,,,,,,,,,,,082919_p1,001,2019_Aug_29_1355,body_behavioural,3.0.4,59.98621576748611,
1,parcelated_audio/14/14_33.aiff,,0,1,1,1,,,,,0,32,32,32,,,,,,,,,,,,,,,,,,,,,,,1,0.28638951800007817,,,,,,,,,,,082919_p1,001,2019_Aug_29_1355,body_behavioural,3.0.4,59.98621576748611,
1,,,0,1,1,1,,,,,,,,,,,,,,,,,,,,,,,,,,,,,,,,,space,1.3366273949999368,,,,,,,,,082919_p1,001,2019_Aug_29_1355,body_behavioural,3.0.4,59.98621576748611,
2,,,0,2,2,2,0,0,0,0,,,,,,,,,,,,,,,,,space,0.41748790000008285,space,0.4530590319999419,space,0.6195293929999934,,,,,,,,,,,,,,,,,082919_p1,001,2019_Aug_29_1355,body_behavioural,3.0.4,59.98621576748611,
2,parcelated_audio/34/34_1.aiff,,0,2,2,2,,,,,0,0,0,0,,,,,,,,,,,,,,,,,,,space,0.9531735799999979,space,0.8699963349999962,9,2.0030301860000463,,,,,,,,,,,082919_p1,001,2019_Aug_29_1355,body_behavioural,3.0.4,59.98621576748611,
2,parcelated_audio/34/34_2.aiff,,0,2,2,2,,,,,0,1,1,1,,,,,,,,,,,,,,,,,,,,,,,1,0.5365320119999524,,,,,,,,,,,082919_p1,001,2019_Aug_29_1355,body_behavioural,3.0.4,59.98621576748611,
2,parcelated_audio/34/34_3.aiff,,0,2,2,2,,,,,0,2,2,2,,,,,,,,,,,,,,,,,,,,,,,1,0.5034386900000527,,,,,,,,,,,082919_p1,001,2019_Aug_29_1355,body_behavioural,3.0.4,59.98621576748611,
2,parcelated_audio/34/34_4.aiff,,0,2,2,2,,,,,0,3,3,3,,,,,,,,,,,,,,,,,,,,,,,9,0.3698334219999424,,,,,,,,,,,082919_p1,001,2019_Aug_29_1355,body_behavioural,3.0.4,59.98621576748611,
2,parcelated_audio/34/34_5.aiff,,0,2,2,2,,,,,0,4,4,4,,,,,,,,,,,,,,,,,,,,,,,1,1.702923665999947,,,,,,,,,,,082919_p1,001,2019_Aug_29_1355,body_behavioural,3.0.4,59.98621576748611,
2,parcelated_audio/34/34_6.aiff,,0,2,2,2,,,,,0,5,5,5,,,,,,,,,,,,,,,,,,,,,,,9,1.6704080450000447,,,,,,,,,,,082919_p1,001,2019_Aug_29_1355,body_behavioural,3.0.4,59.98621576748611,
2,parcelated_audio/34/34_7.aiff,,0,2,2,2,,,,,0,6,6,6,,,,,,,,,,,,,,,,,,,,,,,1,0.553318977999993,,,,,,,,,,,082919_p1,001,2019_Aug_29_1355,body_behavioural,3.0.4,59.98621576748611,
2,parcelated_audio/34/34_8.aiff,,0,2,2,2,,,,,0,7,7,7,,,,,,,,,,,,,,,,,,,,,,,9,0.36725322699999197,,,,,,,,,,,082919_p1,001,2019_Aug_29_1355,body_behavioural,3.0.4,59.98621576748611,
2,parcelated_audio/34/34_9.aiff,,0,2,2,2,,,,,0,8,8,8,,,,,,,,,,,,,,,,,,,,,,,1,0.4032230450000043,,,,,,,,,,,082919_p1,001,2019_Aug_29_1355,body_behavioural,3.0.4,59.98621576748611,
2,parcelated_audio/34/34_10.aiff,,0,2,2,2,,,,,0,9,9,9,,,,,,,,,,,,,,,,,,,,,,,9,0.6360781369999131,,,,,,,,,,,082919_p1,001,2019_Aug_29_1355,body_behavioural,3.0.4,59.98621576748611,
2,parcelated_audio/34/34_11.aiff,,0,2,2,2,,,,,0,10,10,10,,,,,,,,,,,,,,,,,,,,,,,9,0.5861003119998713,,,,,,,,,,,082919_p1,001,2019_Aug_29_1355,body_behavioural,3.0.4,59.98621576748611,
2,parcelated_audio/34/34_12.aiff,,0,2,2,2,,,,,0,11,11,11,,,,,,,,,,,,,,,,,,,,,,,1,1.1035716449998745,,,,,,,,,,,082919_p1,001,2019_Aug_29_1355,body_behavioural,3.0.4,59.98621576748611,
2,parcelated_audio/34/34_13.aiff,,0,2,2,2,,,,,0,12,12,12,,,,,,,,,,,,,,,,,,,,,,,1,1.8033387980001407,,,,,,,,,,,082919_p1,001,2019_Aug_29_1355,body_behavioural,3.0.4,59.98621576748611,
2,parcelated_audio/34/34_14.aiff,,0,2,2,2,,,,,0,13,13,13,,,,,,,,,,,,,,,,,,,,,,,1,0.7865639599999668,,,,,,,,,,,082919_p1,001,2019_Aug_29_1355,body_behavioural,3.0.4,59.98621576748611,
2,parcelated_audio/34/34_15.aiff,,0,2,2,2,,,,,0,14,14,14,,,,,,,,,,,,,,,,,,,,,,,1,0.6862634020001224,,,,,,,,,,,082919_p1,001,2019_Aug_29_1355,body_behavioural,3.0.4,59.98621576748611,
2,parcelated_audio/34/34_16.aiff,,0,2,2,2,,,,,0,15,15,15,,,,,,,,,,,,,,,,,,,,,,,9,2.9366461600000093,,,,,,,,,,,082919_p1,001,2019_Aug_29_1355,body_behavioural,3.0.4,59.98621576748611,
2,parcelated_audio/34/34_17.aiff,,0,2,2,2,,,,,0,16,16,16,,,,,,,,,,,,,,,,,,,,,,,1,0.5032309030000306,,,,,,,,,,,082919_p1,001,2019_Aug_29_1355,body_behavioural,3.0.4,59.98621576748611,
2,parcelated_audio/34/34_18.aiff,,0,2,2,2,,,,,0,17,17,17,,,,,,,,,,,,,,,,,,,,,,,9,0.36969487000010304,,,,,,,,,,,082919_p1,001,2019_Aug_29_1355,body_behavioural,3.0.4,59.98621576748611,
2,parcelated_audio/34/34_19.aiff,,0,2,2,2,,,,,0,18,18,18,,,,,,,,,,,,,,,,,,,,,,,1,0.8861567829999331,,,,,,,,,,,082919_p1,001,2019_Aug_29_1355,body_behavioural,3.0.4,59.98621576748611,
2,parcelated_audio/34/34_20.aiff,,0,2,2,2,,,,,0,19,19,19,,,,,,,,,,,,,,,,,,,,,,,1,0.8866201350001575,,,,,,,,,,,082919_p1,001,2019_Aug_29_1355,body_behavioural,3.0.4,59.98621576748611,
2,parcelated_audio/34/34_21.aiff,,0,2,2,2,,,,,0,20,20,20,,,,,,,,,,,,,,,,,,,,,,,1,2.503173464999918,,,,,,,,,,,082919_p1,001,2019_Aug_29_1355,body_behavioural,3.0.4,59.98621576748611,
2,parcelated_audio/34/34_22.aiff,,0,2,2,2,,,,,0,21,21,21,,,,,,,,,,,,,,,,,,,,,,,1,3.2676793500002077,,,,,,,,,,,082919_p1,001,2019_Aug_29_1355,body_behavioural,3.0.4,59.98621576748611,
2,parcelated_audio/34/34_23.aiff,,0,2,2,2,,,,,0,22,22,22,,,,,,,,,,,,,,,,,,,,,,,9,0.4867904650000128,,,,,,,,,,,082919_p1,001,2019_Aug_29_1355,body_behavioural,3.0.4,59.98621576748611,
2,parcelated_audio/34/34_24.aiff,,0,2,2,2,,,,,0,23,23,23,,,,,,,,,,,,,,,,,,,,,,,1,0.31983233799996924,,,,,,,,,,,082919_p1,001,2019_Aug_29_1355,body_behavioural,3.0.4,59.98621576748611,
2,parcelated_audio/34/34_25.aiff,,0,2,2,2,,,,,0,24,24,24,,,,,,,,,,,,,,,,,,,,,,,1,0.35307830299984744,,,,,,,,,,,082919_p1,001,2019_Aug_29_1355,body_behavioural,3.0.4,59.98621576748611,
2,parcelated_audio/34/34_26.aiff,,0,2,2,2,,,,,0,25,25,25,,,,,,,,,,,,,,,,,,,,,,,1,0.3508030929999677,,,,,,,,,,,082919_p1,001,2019_Aug_29_1355,body_behavioural,3.0.4,59.98621576748611,
2,parcelated_audio/34/34_27.aiff,,0,2,2,2,,,,,0,26,26,26,,,,,,,,,,,,,,,,,,,,,,,1,0.5031540479999421,,,,,,,,,,,082919_p1,001,2019_Aug_29_1355,body_behavioural,3.0.4,59.98621576748611,
2,,,0,2,2,2,,,,,,,,,,,,,,,,,,,,,,,,,,,,,,,,,space,1.0701812709999103,,,,,,,,,082919_p1,001,2019_Aug_29_1355,body_behavioural,3.0.4,59.98621576748611,
3,,,0,3,3,3,0,0,0,0,,,,,,,,,,,,,,,,,space,0.569853010000088,space,0.7363611519999722,space,0.6194423090000782,,,,,,,,,,,,,,,,,082919_p1,001,2019_Aug_29_1355,body_behavioural,3.0.4,59.98621576748611,
3,,,0,3,3,3,1,0,1,0,,,,,,,,,,,,,,,,,,,,,space,0.6364396880001095,,,,,,,,,,,,,,,,,082919_p1,001,2019_Aug_29_1355,body_behavioural,3.0.4,59.98621576748611,
3,,,0,3,3,3,2,0,2,0,,,,,,,,,,,,,,,,,,,,,space,0.5031468350000523,,,,,,,,,,,,,,,,,082919_p1,001,2019_Aug_29_1355,body_behavioural,3.0.4,59.98621576748611,
3,,,0,3,3,3,3,0,3,0,,,,,,,,,,,,,,,,,,,,,space,0.4363310950000141,,,,,,,,,,,,,,,,,082919_p1,001,2019_Aug_29_1355,body_behavioural,3.0.4,59.98621576748611,
3,parcelated_audio/42/42_1.aiff,,0,3,3,3,,,,,0,0,0,0,,,,,,,,,,,,,,,,,,,space,1.3696981499999765,space,1.2865993699999763,9,2.970147705000045,,,,,,,,,,,082919_p1,001,2019_Aug_29_1355,body_behavioural,3.0.4,59.98621576748611,
3,parcelated_audio/42/42_2.aiff,,0,3,3,3,,,,,0,1,1,1,,,,,,,,,,,,,,,,,,,,,,,1,0.9505463000000418,,,,,,,,,,,082919_p1,001,2019_Aug_29_1355,body_behavioural,3.0.4,59.98621576748611,
3,parcelated_audio/42/42_3.aiff,,0,3,3,3,,,,,0,2,2,2,,,,,,,,,,,,,,,,,,,,,,,1,3.050973097999986,,,,,,,,,,,082919_p1,001,2019_Aug_29_1355,body_behavioural,3.0.4,59.98621576748611,
3,parcelated_audio/42/42_4.aiff,,0,3,3,3,,,,,0,3,3,3,,,,,,,,,,,,,,,,,,,,,,,9,0.2866676539999844,,,,,,,,,,,082919_p1,001,2019_Aug_29_1355,body_behavioural,3.0.4,59.98621576748611,
3,parcelated_audio/42/42_5.aiff,,0,3,3,3,,,,,0,4,4,4,,,,,,,,,,,,,,,,,,,,,,,1,0.5531649489998927,,,,,,,,,,,082919_p1,001,2019_Aug_29_1355,body_behavioural,3.0.4,59.98621576748611,
3,parcelated_audio/42/42_6.aiff,,0,3,3,3,,,,,0,5,5,5,,,,,,,,,,,,,,,,,,,,,,,1,0.41975755999987996,,,,,,,,,,,082919_p1,001,2019_Aug_29_1355,body_behavioural,3.0.4,59.98621576748611,
3,parcelated_audio/42/42_7.aiff,,0,3,3,3,,,,,0,6,6,6,,,,,,,,,,,,,,,,,,,,,,,1,2.169507321000083,,,,,,,,,,,082919_p1,001,2019_Aug_29_1355,body_behavioural,3.0.4,59.98621576748611,
3,parcelated_audio/42/42_8.aiff,,0,3,3,3,,,,,0,7,7,7,,,,,,,,,,,,,,,,,,,,,,,1,0.36989818200004265,,,,,,,,,,,082919_p1,001,2019_Aug_29_1355,body_behavioural,3.0.4,59.98621576748611,
3,parcelated_audio/42/42_9.aiff,,0,3,3,3,,,,,0,8,8,8,,,,,,,,,,,,,,,,,,,,,,,1,0.5359407599999031,,,,,,,,,,,082919_p1,001,2019_Aug_29_1355,body_behavioural,3.0.4,59.98621576748611,
3,parcelated_audio/42/42_10.aiff,,0,3,3,3,,,,,0,9,9,9,,,,,,,,,,,,,,,,,,,,,,,1,0.3530217600000469,,,,,,,,,,,082919_p1,001,2019_Aug_29_1355,body_behavioural,3.0.4,59.98621576748611,
3,parcelated_audio/42/42_11.aiff,,0,3,3,3,,,,,0,10,10,10,,,,,,,,,,,,,,,,,,,,,,,1,1.6365251199999875,,,,,,,,,,,082919_p1,001,2019_Aug_29_1355,body_behavioural,3.0.4,59.98621576748611,
3,parcelated_audio/42/42_12.aiff,,0,3,3,3,,,,,0,11,11,11,,,,,,,,,,,,,,,,,,,,,,,9,0.33394370499991055,,,,,,,,,,,082919_p1,001,2019_Aug_29_1355,body_behavioural,3.0.4,59.98621576748611,
3,parcelated_audio/42/42_13.aiff,,0,3,3,3,,,,,0,12,12,12,,,,,,,,,,,,,,,,,,,,,,,1,0.35088956300000973,,,,,,,,,,,082919_p1,001,2019_Aug_29_1355,body_behavioural,3.0.4,59.98621576748611,
3,parcelated_audio/42/42_14.aiff,,0,3,3,3,,,,,0,13,13,13,,,,,,,,,,,,,,,,,,,,,,,9,0.6033752079999886,,,,,,,,,,,082919_p1,001,2019_Aug_29_1355,body_behavioural,3.0.4,59.98621576748611,
3,parcelated_audio/42/42_15.aiff,,0,3,3,3,,,,,0,14,14,14,,,,,,,,,,,,,,,,,,,,,,,1,0.40292562199988424,,,,,,,,,,,082919_p1,001,2019_Aug_29_1355,body_behavioural,3.0.4,59.98621576748611,
3,parcelated_audio/42/42_16.aiff,,0,3,3,3,,,,,0,15,15,15,,,,,,,,,,,,,,,,,,,,,,,1,0.7174679729998843,,,,,,,,,,,082919_p1,001,2019_Aug_29_1355,body_behavioural,3.0.4,59.98621576748611,
3,parcelated_audio/42/42_17.aiff,,0,3,3,3,,,,,0,16,16,16,,,,,,,,,,,,,,,,,,,,,,,1,0.7196591260001242,,,,,,,,,,,082919_p1,001,2019_Aug_29_1355,body_behavioural,3.0.4,59.98621576748611,
3,parcelated_audio/42/42_18.aiff,,0,3,3,3,,,,,0,17,17,17,,,,,,,,,,,,,,,,,,,,,,,9,2.4028909590001604,,,,,,,,,,,082919_p1,001,2019_Aug_29_1355,body_behavioural,3.0.4,59.98621576748611,
3,parcelated_audio/42/42_19.aiff,,0,3,3,3,,,,,0,18,18,18,,,,,,,,,,,,,,,,,,,,,,,1,1.2365171579999696,,,,,,,,,,,082919_p1,001,2019_Aug_29_1355,body_behavioural,3.0.4,59.98621576748611,
3,parcelated_audio/42/42_20.aiff,,0,3,3,3,,,,,0,19,19,19,,,,,,,,,,,,,,,,,,,,,,,9,0.4530120800000077,,,,,,,,,,,082919_p1,001,2019_Aug_29_1355,body_behavioural,3.0.4,59.98621576748611,
3,parcelated_audio/42/42_21.aiff,,0,3,3,3,,,,,0,20,20,20,,,,,,,,,,,,,,,,,,,,,,,1,0.11967887499986318,,,,,,,,,,,082919_p1,001,2019_Aug_29_1355,body_behavioural,3.0.4,59.98621576748611,
3,parcelated_audio/42/42_22.aiff,,0,3,3,3,,,,,0,21,21,21,,,,,,,,,,,,,,,,,,,,,,,1,0.5172815729999911,,,,,,,,,,,082919_p1,001,2019_Aug_29_1355,body_behavioural,3.0.4,59.98621576748611,
3,parcelated_audio/42/42_23.aiff,,0,3,3,3,,,,,0,22,22,22,,,,,,,,,,,,,,,,,,,,,,,9,4.503549470000053,,,,,,,,,,,082919_p1,001,2019_Aug_29_1355,body_behavioural,3.0.4,59.98621576748611,
3,parcelated_audio/42/42_24.aiff,,0,3,3,3,,,,,0,23,23,23,,,,,,,,,,,,,,,,,,,,,,,1,0.8530273719998149,,,,,,,,,,,082919_p1,001,2019_Aug_29_1355,body_behavioural,3.0.4,59.98621576748611,
3,parcelated_audio/42/42_25.aiff,,0,3,3,3,,,,,0,24,24,24,,,,,,,,,,,,,,,,,,,,,,,1,0.5029880850001973,,,,,,,,,,,082919_p1,001,2019_Aug_29_1355,body_behavioural,3.0.4,59.98621576748611,
3,parcelated_audio/42/42_26.aiff,,0,3,3,3,,,,,0,25,25,25,,,,,,,,,,,,,,,,,,,,,,,1,0.36949146400002064,,,,,,,,,,,082919_p1,001,2019_Aug_29_1355,body_behavioural,3.0.4,59.98621576748611,
3,parcelated_audio/42/42_27.aiff,,0,3,3,3,,,,,0,26,26,26,,,,,,,,,,,,,,,,,,,,,,,1,2.486392795000029,,,,,,,,,,,082919_p1,001,2019_Aug_29_1355,body_behavioural,3.0.4,59.98621576748611,
3,parcelated_audio/42/42_28.aiff,,0,3,3,3,,,,,0,27,27,27,,,,,,,,,,,,,,,,,,,,,,,1,0.3199174179999318,,,,,,,,,,,082919_p1,001,2019_Aug_29_1355,body_behavioural,3.0.4,59.98621576748611,
3,parcelated_audio/42/42_29.aiff,,0,3,3,3,,,,,0,28,28,28,,,,,,,,,,,,,,,,,,,,,,,9,0.8532363909998821,,,,,,,,,,,082919_p1,001,2019_Aug_29_1355,body_behavioural,3.0.4,59.98621576748611,
3,parcelated_audio/42/42_30.aiff,,0,3,3,3,,,,,0,29,29,29,,,,,,,,,,,,,,,,,,,,,,,9,3.270381802999964,,,,,,,,,,,082919_p1,001,2019_Aug_29_1355,body_behavioural,3.0.4,59.98621576748611,
3,parcelated_audio/42/42_31.aiff,,0,3,3,3,,,,,0,30,30,30,,,,,,,,,,,,,,,,,,,,,,,1,5.584034814999995,,,,,,,,,,,082919_p1,001,2019_Aug_29_1355,body_behavioural,3.0.4,59.98621576748611,
3,parcelated_audio/42/42_32.aiff,,0,3,3,3,,,,,0,31,31,31,,,,,,,,,,,,,,,,,,,,,,,9,1.8033510769998884,,,,,,,,,,,082919_p1,001,2019_Aug_29_1355,body_behavioural,3.0.4,59.98621576748611,
3,parcelated_audio/42/42_33.aiff,,0,3,3,3,,,,,0,32,32,32,,,,,,,,,,,,,,,,,,,,,,,1,0.836215472000049,,,,,,,,,,,082919_p1,001,2019_Aug_29_1355,body_behavioural,3.0.4,59.98621576748611,
3,parcelated_audio/42/42_34.aiff,,0,3,3,3,,,,,0,33,33,33,,,,,,,,,,,,,,,,,,,,,,,1,2.1032325060000403,,,,,,,,,,,082919_p1,001,2019_Aug_29_1355,body_behavioural,3.0.4,59.98621576748611,
3,parcelated_audio/42/42_35.aiff,,0,3,3,3,,,,,0,34,34,34,,,,,,,,,,,,,,,,,,,,,,,1,0.33648274799998035,,,,,,,,,,,082919_p1,001,2019_Aug_29_1355,body_behavioural,3.0.4,59.98621576748611,
3,,,0,3,3,3,,,,,,,,,,,,,,,,,,,,,,,,,,,,,,,,,space,1.0529676720000225,,,,,,,,,082919_p1,001,2019_Aug_29_1355,body_behavioural,3.0.4,59.98621576748611,
4,,,0,4,4,4,0,0,0,0,,,,,,,,,,,,,,,,,space,0.586553892999973,space,0.5031489800001054,space,0.9030055599998832,,,,,,,,,,,,,,,,,082919_p1,001,2019_Aug_29_1355,body_behavioural,3.0.4,59.98621576748611,
4,parcelated_audio/11/11_1.aiff,,0,4,4,4,,,,,0,0,0,0,,,,,,,,,,,,,,,,,,,space,1.053147226999954,space,0.7197218969999994,9,1.4175519019997864,,,,,,,,,,,082919_p1,001,2019_Aug_29_1355,body_behavioural,3.0.4,59.98621576748611,
4,parcelated_audio/11/11_2.aiff,,0,4,4,4,,,,,0,1,1,1,,,,,,,,,,,,,,,,,,,,,,,1,2.0862968930000534,,,,,,,,,,,082919_p1,001,2019_Aug_29_1355,body_behavioural,3.0.4,59.98621576748611,
4,parcelated_audio/11/11_3.aiff,,0,4,4,4,,,,,0,2,2,2,,,,,,,,,,,,,,,,,,,,,,,1,2.1007200700000794,,,,,,,,,,,082919_p1,001,2019_Aug_29_1355,body_behavioural,3.0.4,59.98621576748611,
4,parcelated_audio/11/11_4.aiff,,0,4,4,4,,,,,0,3,3,3,,,,,,,,,,,,,,,,,,,,,,,1,0.35335720500006573,,,,,,,,,,,082919_p1,001,2019_Aug_29_1355,body_behavioural,3.0.4,59.98621576748611,
4,parcelated_audio/11/11_5.aiff,,0,4,4,4,,,,,0,4,4,4,,,,,,,,,,,,,,,,,,,,,,,9,0.9195065119999981,,,,,,,,,,,082919_p1,001,2019_Aug_29_1355,body_behavioural,3.0.4,59.98621576748611,
4,parcelated_audio/11/11_6.aiff,,0,4,4,4,,,,,0,5,5,5,,,,,,,,,,,,,,,,,,,,,,,1,1.002927636000095,,,,,,,,,,,082919_p1,001,2019_Aug_29_1355,body_behavioural,3.0.4,59.98621576748611,
4,parcelated_audio/11/11_7.aiff,,0,4,4,4,,,,,0,6,6,6,,,,,,,,,,,,,,,,,,,,,,,1,2.4866838129998996,,,,,,,,,,,082919_p1,001,2019_Aug_29_1355,body_behavioural,3.0.4,59.98621576748611,
4,parcelated_audio/11/11_8.aiff,,0,4,4,4,,,,,0,7,7,7,,,,,,,,,,,,,,,,,,,,,,,1,1.7031271980001748,,,,,,,,,,,082919_p1,001,2019_Aug_29_1355,body_behavioural,3.0.4,59.98621576748611,
4,parcelated_audio/11/11_9.aiff,,0,4,4,4,,,,,0,8,8,8,,,,,,,,,,,,,,,,,,,,,,,9,0.886385743000119,,,,,,,,,,,082919_p1,001,2019_Aug_29_1355,body_behavioural,3.0.4,59.98621576748611,
4,parcelated_audio/11/11_10.aiff,,0,4,4,4,,,,,0,9,9,9,,,,,,,,,,,,,,,,,,,,,,,1,0.50326033500005,,,,,,,,,,,082919_p1,001,2019_Aug_29_1355,body_behavioural,3.0.4,59.98621576748611,
4,parcelated_audio/11/11_11.aiff,,0,4,4,4,,,,,0,10,10,10,,,,,,,,,,,,,,,,,,,,,,,1,3.2674706479999713,,,,,,,,,,,082919_p1,001,2019_Aug_29_1355,body_behavioural,3.0.4,59.98621576748611,
4,parcelated_audio/11/11_12.aiff,,0,4,4,4,,,,,0,11,11,11,,,,,,,,,,,,,,,,,,,,,,,1,0.6861950949999027,,,,,,,,,,,082919_p1,001,2019_Aug_29_1355,body_behavioural,3.0.4,59.98621576748611,
4,parcelated_audio/11/11_13.aiff,,0,4,4,4,,,,,0,12,12,12,,,,,,,,,,,,,,,,,,,,,,,1,0.08656119300007958,,,,,,,,,,,082919_p1,001,2019_Aug_29_1355,body_behavioural,3.0.4,59.98621576748611,
4,parcelated_audio/11/11_14.aiff,,0,4,4,4,,,,,0,13,13,13,,,,,,,,,,,,,,,,,,,,,,,1,0.636578186999941,,,,,,,,,,,082919_p1,001,2019_Aug_29_1355,body_behavioural,3.0.4,59.98621576748611,
4,parcelated_audio/11/11_15.aiff,,0,4,4,4,,,,,0,14,14,14,,,,,,,,,,,,,,,,,,,,,,,1,0.4364861799999744,,,,,,,,,,,082919_p1,001,2019_Aug_29_1355,body_behavioural,3.0.4,59.98621576748611,
4,parcelated_audio/11/11_16.aiff,,0,4,4,4,,,,,0,15,15,15,,,,,,,,,,,,,,,,,,,,,,,1,0.6361554580000757,,,,,,,,,,,082919_p1,001,2019_Aug_29_1355,body_behavioural,3.0.4,59.98621576748611,
4,parcelated_audio/11/11_17.aiff,,0,4,4,4,,,,,0,16,16,16,,,,,,,,,,,,,,,,,,,,,,,1,0.7532428300000902,,,,,,,,,,,082919_p1,001,2019_Aug_29_1355,body_behavioural,3.0.4,59.98621576748611,
4,parcelated_audio/11/11_18.aiff,,0,4,4,4,,,,,0,17,17,17,,,,,,,,,,,,,,,,,,,,,,,1,1.0034365399999388,,,,,,,,,,,082919_p1,001,2019_Aug_29_1355,body_behavioural,3.0.4,59.98621576748611,
4,parcelated_audio/11/11_19.aiff,,0,4,4,4,,,,,0,18,18,18,,,,,,,,,,,,,,,,,,,,,,,9,0.5342718729998523,,,,,,,,,,,082919_p1,001,2019_Aug_29_1355,body_behavioural,3.0.4,59.98621576748611,
4,parcelated_audio/11/11_20.aiff,,0,4,4,4,,,,,0,19,19,19,,,,,,,,,,,,,,,,,,,,,,,1,0.7030990600001132,,,,,,,,,,,082919_p1,001,2019_Aug_29_1355,body_behavioural,3.0.4,59.98621576748611,
4,parcelated_audio/11/11_21.aiff,,0,4,4,4,,,,,0,20,20,20,,,,,,,,,,,,,,,,,,,,,,,1,0.35307160799993653,,,,,,,,,,,082919_p1,001,2019_Aug_29_1355,body_behavioural,3.0.4,59.98621576748611,
4,parcelated_audio/11/11_22.aiff,,0,4,4,4,,,,,0,21,21,21,,,,,,,,,,,,,,,,,,,,,,,1,0.836598856999899,,,,,,,,,,,082919_p1,001,2019_Aug_29_1355,body_behavioural,3.0.4,59.98621576748611,
4,parcelated_audio/11/11_23.aiff,,0,4,4,4,,,,,0,22,22,22,,,,,,,,,,,,,,,,,,,,,,,1,0.5339963119999993,,,,,,,,,,,082919_p1,001,2019_Aug_29_1355,body_behavioural,3.0.4,59.98621576748611,
4,parcelated_audio/11/11_24.aiff,,0,4,4,4,,,,,0,23,23,23,,,,,,,,,,,,,,,,,,,,,,,1,0.6868143660001351,,,,,,,,,,,082919_p1,001,2019_Aug_29_1355,body_behavioural,3.0.4,59.98621576748611,
4,parcelated_audio/11/11_25.aiff,,0,4,4,4,,,,,0,24,24,24,,,,,,,,,,,,,,,,,,,,,,,1,0.43481782300000305,,,,,,,,,,,082919_p1,001,2019_Aug_29_1355,body_behavioural,3.0.4,59.98621576748611,
4,parcelated_audio/11/11_26.aiff,,0,4,4,4,,,,,0,25,25,25,,,,,,,,,,,,,,,,,,,,,,,1,0.9697925469999973,,,,,,,,,,,082919_p1,001,2019_Aug_29_1355,body_behavioural,3.0.4,59.98621576748611,
4,parcelated_audio/11/11_27.aiff,,0,4,4,4,,,,,0,26,26,26,,,,,,,,,,,,,,,,,,,,,,,1,0.7032535969999572,,,,,,,,,,,082919_p1,001,2019_Aug_29_1355,body_behavioural,3.0.4,59.98621576748611,
4,parcelated_audio/11/11_28.aiff,,0,4,4,4,,,,,0,27,27,27,,,,,,,,,,,,,,,,,,,,,,,1,0.6531721999999718,,,,,,,,,,,082919_p1,001,2019_Aug_29_1355,body_behavioural,3.0.4,59.98621576748611,
4,parcelated_audio/11/11_29.aiff,,0,4,4,4,,,,,0,28,28,28,,,,,,,,,,,,,,,,,,,,,,,1,0.7529506949999814,,,,,,,,,,,082919_p1,001,2019_Aug_29_1355,body_behavioural,3.0.4,59.98621576748611,
4,parcelated_audio/11/11_30.aiff,,0,4,4,4,,,,,0,29,29,29,,,,,,,,,,,,,,,,,,,,,,,1,0.6531449869999051,,,,,,,,,,,082919_p1,001,2019_Aug_29_1355,body_behavioural,3.0.4,59.98621576748611,
4,parcelated_audio/11/11_31.aiff,,0,4,4,4,,,,,0,30,30,30,,,,,,,,,,,,,,,,,,,,,,,9,0.7840180629998486,,,,,,,,,,,082919_p1,001,2019_Aug_29_1355,body_behavioural,3.0.4,59.98621576748611,
4,parcelated_audio/11/11_32.aiff,,0,4,4,4,,,,,0,31,31,31,,,,,,,,,,,,,,,,,,,,,,,9,0.4006875019999825,,,,,,,,,,,082919_p1,001,2019_Aug_29_1355,body_behavioural,3.0.4,59.98621576748611,
4,parcelated_audio/11/11_33.aiff,,0,4,4,4,,,,,0,32,32,32,,,,,,,,,,,,,,,,,,,,,,,1,0.336482358000012,,,,,,,,,,,082919_p1,001,2019_Aug_29_1355,body_behavioural,3.0.4,59.98621576748611,
4,parcelated_audio/11/11_34.aiff,,0,4,4,4,,,,,0,33,33,33,,,,,,,,,,,,,,,,,,,,,,,1,0.9698039649999828,,,,,,,,,,,082919_p1,001,2019_Aug_29_1355,body_behavioural,3.0.4,59.98621576748611,
4,parcelated_audio/11/11_35.aiff,,0,4,4,4,,,,,0,34,34,34,,,,,,,,,,,,,,,,,,,,,,,1,1.2530660719999105,,,,,,,,,,,082919_p1,001,2019_Aug_29_1355,body_behavioural,3.0.4,59.98621576748611,
4,parcelated_audio/11/11_36.aiff,,0,4,4,4,,,,,0,35,35,35,,,,,,,,,,,,,,,,,,,,,,,9,0.5700265920002039,,,,,,,,,,,082919_p1,001,2019_Aug_29_1355,body_behavioural,3.0.4,59.98621576748611,
4,parcelated_audio/11/11_37.aiff,,0,4,4,4,,,,,0,36,36,36,,,,,,,,,,,,,,,,,,,,,,,1,1.086604811999905,,,,,,,,,,,082919_p1,001,2019_Aug_29_1355,body_behavioural,3.0.4,59.98621576748611,
4,parcelated_audio/11/11_38.aiff,,0,4,4,4,,,,,0,37,37,37,,,,,,,,,,,,,,,,,,,,,,,1,5.152963585999942,,,,,,,,,,,082919_p1,001,2019_Aug_29_1355,body_behavioural,3.0.4,59.98621576748611,
4,parcelated_audio/11/11_39.aiff,,0,4,4,4,,,,,0,38,38,38,,,,,,,,,,,,,,,,,,,,,,,1,0.6865135210000517,,,,,,,,,,,082919_p1,001,2019_Aug_29_1355,body_behavioural,3.0.4,59.98621576748611,
4,parcelated_audio/11/11_40.aiff,,0,4,4,4,,,,,0,39,39,39,,,,,,,,,,,,,,,,,,,,,,,1,0.5531996549998439,,,,,,,,,,,082919_p1,001,2019_Aug_29_1355,body_behavioural,3.0.4,59.98621576748611,
4,parcelated_audio/11/11_41.aiff,,0,4,4,4,,,,,0,40,40,40,,,,,,,,,,,,,,,,,,,,,,,1,0.7369350869998925,,,,,,,,,,,082919_p1,001,2019_Aug_29_1355,body_behavioural,3.0.4,59.98621576748611,
4,,,0,4,4,4,,,,,,,,,,,,,,,,,,,,,,,,,,,,,,,,,space,0.9506235679998554,,,,,,,,,082919_p1,001,2019_Aug_29_1355,body_behavioural,3.0.4,59.98621576748611,
5,,,0,5,5,5,0,0,0,0,,,,,,,,,,,,,,,,,space,0.5198385419998885,space,0.41975535300002775,space,0.4697950330000822,,,,,,,,,,,,,,,,,082919_p1,001,2019_Aug_29_1355,body_behavioural,3.0.4,59.98621576748611,
5,parcelated_audio/43/43_1.aiff,,0,5,5,5,,,,,0,0,0,0,,,,,,,,,,,,,,,,,,,space,0.9032550699998865,space,0.9341005250000762,9,0.9839544229998864,,,,,,,,,,,082919_p1,001,2019_Aug_29_1355,body_behavioural,3.0.4,59.98621576748611,
5,parcelated_audio/43/43_2.aiff,,0,5,5,5,,,,,0,1,1,1,,,,,,,,,,,,,,,,,,,,,,,1,0.35317872799987526,,,,,,,,,,,082919_p1,001,2019_Aug_29_1355,body_behavioural,3.0.4,59.98621576748611,
5,parcelated_audio/43/43_3.aiff,,0,5,5,5,,,,,0,2,2,2,,,,,,,,,,,,,,,,,,,,,,,1,0.21985747500002617,,,,,,,,,,,082919_p1,001,2019_Aug_29_1355,body_behavioural,3.0.4,59.98621576748611,
5,parcelated_audio/43/43_4.aiff,,0,5,5,5,,,,,0,3,3,3,,,,,,,,,,,,,,,,,,,,,,,1,0.5362813229999119,,,,,,,,,,,082919_p1,001,2019_Aug_29_1355,body_behavioural,3.0.4,59.98621576748611,
5,parcelated_audio/43/43_5.aiff,,0,5,5,5,,,,,0,4,4,4,,,,,,,,,,,,,,,,,,,,,,,9,1.1006736229999206,,,,,,,,,,,082919_p1,001,2019_Aug_29_1355,body_behavioural,3.0.4,59.98621576748611,
5,parcelated_audio/43/43_6.aiff,,0,5,5,5,,,,,0,5,5,5,,,,,,,,,,,,,,,,,,,,,,,1,0.21976912199988874,,,,,,,,,,,082919_p1,001,2019_Aug_29_1355,body_behavioural,3.0.4,59.98621576748611,
5,parcelated_audio/43/43_7.aiff,,0,5,5,5,,,,,0,6,6,6,,,,,,,,,,,,,,,,,,,,,,,1,0.45311039099988193,,,,,,,,,,,082919_p1,001,2019_Aug_29_1355,body_behavioural,3.0.4,59.98621576748611,
5,parcelated_audio/43/43_8.aiff,,0,5,5,5,,,,,0,7,7,7,,,,,,,,,,,,,,,,,,,,,,,1,0.11985139800003708,,,,,,,,,,,082919_p1,001,2019_Aug_29_1355,body_behavioural,3.0.4,59.98621576748611,
5,parcelated_audio/43/43_9.aiff,,0,5,5,5,,,,,0,8,8,8,,,,,,,,,,,,,,,,,,,,,,,1,0.9366527399999995,,,,,,,,,,,082919_p1,001,2019_Aug_29_1355,body_behavioural,3.0.4,59.98621576748611,
5,parcelated_audio/43/43_10.aiff,,0,5,5,5,,,,,0,9,9,9,,,,,,,,,,,,,,,,,,,,,,,9,0.11981516300011208,,,,,,,,,,,082919_p1,001,2019_Aug_29_1355,body_behavioural,3.0.4,59.98621576748611,
5,parcelated_audio/43/43_11.aiff,,0,5,5,5,,,,,0,10,10,10,,,,,,,,,,,,,,,,,,,,,,,1,0.3698200960000122,,,,,,,,,,,082919_p1,001,2019_Aug_29_1355,body_behavioural,3.0.4,59.98621576748611,
5,parcelated_audio/43/43_12.aiff,,0,5,5,5,,,,,0,11,11,11,,,,,,,,,,,,,,,,,,,,,,,1,3.55343055000003,,,,,,,,,,,082919_p1,001,2019_Aug_29_1355,body_behavioural,3.0.4,59.98621576748611,
5,parcelated_audio/43/43_13.aiff,,0,5,5,5,,,,,0,12,12,12,,,,,,,,,,,,,,,,,,,,,,,1,2.1531587800000125,,,,,,,,,,,082919_p1,001,2019_Aug_29_1355,body_behavioural,3.0.4,59.98621576748611,
5,parcelated_audio/43/43_14.aiff,,0,5,5,5,,,,,0,13,13,13,,,,,,,,,,,,,,,,,,,,,,,9,1.7697384829998555,,,,,,,,,,,082919_p1,001,2019_Aug_29_1355,body_behavioural,3.0.4,59.98621576748611,
5,parcelated_audio/43/43_15.aiff,,0,5,5,5,,,,,0,14,14,14,,,,,,,,,,,,,,,,,,,,,,,1,0.8342638999999963,,,,,,,,,,,082919_p1,001,2019_Aug_29_1355,body_behavioural,3.0.4,59.98621576748611,
5,parcelated_audio/43/43_16.aiff,,0,5,5,5,,,,,0,15,15,15,,,,,,,,,,,,,,,,,,,,,,,1,0.8532073400001536,,,,,,,,,,,082919_p1,001,2019_Aug_29_1355,body_behavioural,3.0.4,59.98621576748611,
5,parcelated_audio/43/43_17.aiff,,0,5,5,5,,,,,0,16,16,16,,,,,,,,,,,,,,,,,,,,,,,1,1.0529830329999186,,,,,,,,,,,082919_p1,001,2019_Aug_29_1355,body_behavioural,3.0.4,59.98621576748611,
5,parcelated_audio/43/43_18.aiff,,0,5,5,5,,,,,0,17,17,17,,,,,,,,,,,,,,,,,,,,,,,1,1.3698926500001107,,,,,,,,,,,082919_p1,001,2019_Aug_29_1355,body_behavioural,3.0.4,59.98621576748611,
5,parcelated_audio/43/43_19.aiff,,0,5,5,5,,,,,0,18,18,18,,,,,,,,,,,,,,,,,,,,,,,9,0.45259428500003196,,,,,,,,,,,082919_p1,001,2019_Aug_29_1355,body_behavioural,3.0.4,59.98621576748611,
5,parcelated_audio/43/43_20.aiff,,0,5,5,5,,,,,0,19,19,19,,,,,,,,,,,,,,,,,,,,,,,1,0.419890635999991,,,,,,,,,,,082919_p1,001,2019_Aug_29_1355,body_behavioural,3.0.4,59.98621576748611,
5,parcelated_audio/43/43_21.aiff,,0,5,5,5,,,,,0,20,20,20,,,,,,,,,,,,,,,,,,,,,,,1,0.5700478449998627,,,,,,,,,,,082919_p1,001,2019_Aug_29_1355,body_behavioural,3.0.4,59.98621576748611,
5,parcelated_audio/43/43_22.aiff,,0,5,5,5,,,,,0,21,21,21,,,,,,,,,,,,,,,,,,,,,,,1,0.4840456430001723,,,,,,,,,,,082919_p1,001,2019_Aug_29_1355,body_behavioural,3.0.4,59.98621576748611,
5,parcelated_audio/43/43_23.aiff,,0,5,5,5,,,,,0,22,22,22,,,,,,,,,,,,,,,,,,,,,,,1,0.1007628500001374,,,,,,,,,,,082919_p1,001,2019_Aug_29_1355,body_behavioural,3.0.4,59.98621576748611,
5,parcelated_audio/43/43_24.aiff,,0,5,5,5,,,,,0,23,23,23,,,,,,,,,,,,,,,,,,,,,,,9,0.4839621470000566,,,,,,,,,,,082919_p1,001,2019_Aug_29_1355,body_behavioural,3.0.4,59.98621576748611,
5,parcelated_audio/43/43_25.aiff,,0,5,5,5,,,,,0,24,24,24,,,,,,,,,,,,,,,,,,,,,,,1,0.45326784000008047,,,,,,,,,,,082919_p1,001,2019_Aug_29_1355,body_behavioural,3.0.4,59.98621576748611,
5,parcelated_audio/43/43_26.aiff,,0,5,5,5,,,,,0,25,25,25,,,,,,,,,,,,,,,,,,,,,,,1,0.9865181430000121,,,,,,,,,,,082919_p1,001,2019_Aug_29_1355,body_behavioural,3.0.4,59.98621576748611,
5,parcelated_audio/43/43_27.aiff,,0,5,5,5,,,,,0,26,26,26,,,,,,,,,,,,,,,,,,,,,,,9,1.7525368299998263,,,,,,,,,,,082919_p1,001,2019_Aug_29_1355,body_behavioural,3.0.4,59.98621576748611,
5,parcelated_audio/43/43_28.aiff,,0,5,5,5,,,,,0,27,27,27,,,,,,,,,,,,,,,,,,,,,,,9,0.48644550500011974,,,,,,,,,,,082919_p1,001,2019_Aug_29_1355,body_behavioural,3.0.4,59.98621576748611,
5,parcelated_audio/43/43_29.aiff,,0,5,5,5,,,,,0,28,28,28,,,,,,,,,,,,,,,,,,,,,,,9,0.017228742000042985,,,,,,,,,,,082919_p1,001,2019_Aug_29_1355,body_behavioural,3.0.4,59.98621576748611,
5,,,0,5,5,5,,,,,,,,,,,,,,,,,,,,,,,,,,,,,,,,,space,1.5029819930000485,,,,,,,,,082919_p1,001,2019_Aug_29_1355,body_behavioural,3.0.4,59.98621576748611,
6,,,0,6,6,6,0,0,0,0,,,,,,,,,,,,,,,,,space,0.4531587579999723,space,0.4531057310000506,space,0.6697042649998366,,,,,,,,,,,,,,,,,082919_p1,001,2019_Aug_29_1355,body_behavioural,3.0.4,59.98621576748611,
6,,,0,6,6,6,1,0,1,0,,,,,,,,,,,,,,,,,,,,,space,0.36989345200026946,,,,,,,,,,,,,,,,,082919_p1,001,2019_Aug_29_1355,body_behavioural,3.0.4,59.98621576748611,
6,,,0,6,6,6,2,0,2,0,,,,,,,,,,,,,,,,,,,,,space,0.33666403300003367,,,,,,,,,,,,,,,,,082919_p1,001,2019_Aug_29_1355,body_behavioural,3.0.4,59.98621576748611,
6,,,0,6,6,6,3,0,3,0,,,,,,,,,,,,,,,,,,,,,space,0.35319575099993017,,,,,,,,,,,,,,,,,082919_p1,001,2019_Aug_29_1355,body_behavioural,3.0.4,59.98621576748611,
6,,,0,6,6,6,4,0,4,0,,,,,,,,,,,,,,,,,,,,,space,0.30318314699979965,,,,,,,,,,,,,,,,,082919_p1,001,2019_Aug_29_1355,body_behavioural,3.0.4,59.98621576748611,
6,parcelated_audio/31/31_1.aiff,,0,6,6,6,,,,,0,0,0,0,,,,,,,,,,,,,,,,,,,space,1.836530645000039,space,0.4032030749999649,9,1.036520125000152,,,,,,,,,,,082919_p1,001,2019_Aug_29_1355,body_behavioural,3.0.4,59.98621576748611,
6,parcelated_audio/31/31_2.aiff,,0,6,6,6,,,,,0,1,1,1,,,,,,,,,,,,,,,,,,,,,,,1,0.36988889699978245,,,,,,,,,,,082919_p1,001,2019_Aug_29_1355,body_behavioural,3.0.4,59.98621576748611,
6,parcelated_audio/31/31_3.aiff,,0,6,6,6,,,,,0,2,2,2,,,,,,,,,,,,,,,,,,,,,,,1,0.25304526499985514,,,,,,,,,,,082919_p1,001,2019_Aug_29_1355,body_behavioural,3.0.4,59.98621576748611,
6,parcelated_audio/31/31_4.aiff,,0,6,6,6,,,,,0,3,3,3,,,,,,,,,,,,,,,,,,,,,,,1,0.40332364799996867,,,,,,,,,,,082919_p1,001,2019_Aug_29_1355,body_behavioural,3.0.4,59.98621576748611,
6,parcelated_audio/31/31_5.aiff,,0,6,6,6,,,,,0,4,4,4,,,,,,,,,,,,,,,,,,,,,,,9,1.9359692120001455,,,,,,,,,,,082919_p1,001,2019_Aug_29_1355,body_behavioural,3.0.4,59.98621576748611,
6,parcelated_audio/31/31_6.aiff,,0,6,6,6,,,,,0,5,5,5,,,,,,,,,,,,,,,,,,,,,,,1,0.36943853899992973,,,,,,,,,,,082919_p1,001,2019_Aug_29_1355,body_behavioural,3.0.4,59.98621576748611,
6,parcelated_audio/31/31_7.aiff,,0,6,6,6,,,,,0,6,6,6,,,,,,,,,,,,,,,,,,,,,,,1,0.7198050950000834,,,,,,,,,,,082919_p1,001,2019_Aug_29_1355,body_behavioural,3.0.4,59.98621576748611,
6,parcelated_audio/31/31_8.aiff,,0,6,6,6,,,,,0,7,7,7,,,,,,,,,,,,,,,,,,,,,,,9,1.269545823000044,,,,,,,,,,,082919_p1,001,2019_Aug_29_1355,body_behavioural,3.0.4,59.98621576748611,
6,parcelated_audio/31/31_9.aiff,,0,6,6,6,,,,,0,8,8,8,,,,,,,,,,,,,,,,,,,,,,,1,0.3672943100000339,,,,,,,,,,,082919_p1,001,2019_Aug_29_1355,body_behavioural,3.0.4,59.98621576748611,
6,parcelated_audio/31/31_10.aiff,,0,6,6,6,,,,,0,9,9,9,,,,,,,,,,,,,,,,,,,,,,,1,0.5696696979998706,,,,,,,,,,,082919_p1,001,2019_Aug_29_1355,body_behavioural,3.0.4,59.98621576748611,
6,parcelated_audio/31/31_11.aiff,,0,6,6,6,,,,,0,10,10,10,,,,,,,,,,,,,,,,,,,,,,,9,1.8030457270001534,,,,,,,,,,,082919_p1,001,2019_Aug_29_1355,body_behavioural,3.0.4,59.98621576748611,
6,parcelated_audio/31/31_12.aiff,,0,6,6,6,,,,,0,11,11,11,,,,,,,,,,,,,,,,,,,,,,,1,0.5532616919999782,,,,,,,,,,,082919_p1,001,2019_Aug_29_1355,body_behavioural,3.0.4,59.98621576748611,
6,parcelated_audio/31/31_13.aiff,,0,6,6,6,,,,,0,12,12,12,,,,,,,,,,,,,,,,,,,,,,,1,0.3698725049998757,,,,,,,,,,,082919_p1,001,2019_Aug_29_1355,body_behavioural,3.0.4,59.98621576748611,
6,parcelated_audio/31/31_14.aiff,,0,6,6,6,,,,,0,13,13,13,,,,,,,,,,,,,,,,,,,,,,,1,0.4031737670002258,,,,,,,,,,,082919_p1,001,2019_Aug_29_1355,body_behavioural,3.0.4,59.98621576748611,
6,parcelated_audio/31/31_15.aiff,,0,6,6,6,,,,,0,14,14,14,,,,,,,,,,,,,,,,,,,,,,,1,0.870287142000052,,,,,,,,,,,082919_p1,001,2019_Aug_29_1355,body_behavioural,3.0.4,59.98621576748611,
6,parcelated_audio/31/31_16.aiff,,0,6,6,6,,,,,0,15,15,15,,,,,,,,,,,,,,,,,,,,,,,1,0.35300679600004514,,,,,,,,,,,082919_p1,001,2019_Aug_29_1355,body_behavioural,3.0.4,59.98621576748611,
6,parcelated_audio/31/31_17.aiff,,0,6,6,6,,,,,0,16,16,16,,,,,,,,,,,,,,,,,,,,,,,9,2.017321554999853,,,,,,,,,,,082919_p1,001,2019_Aug_29_1355,body_behavioural,3.0.4,59.98621576748611,
6,parcelated_audio/31/31_18.aiff,,0,6,6,6,,,,,0,17,17,17,,,,,,,,,,,,,,,,,,,,,,,9,0.30301274900011776,,,,,,,,,,,082919_p1,001,2019_Aug_29_1355,body_behavioural,3.0.4,59.98621576748611,
6,parcelated_audio/31/31_19.aiff,,0,6,6,6,,,,,0,18,18,18,,,,,,,,,,,,,,,,,,,,,,,1,0.36741662999975233,,,,,,,,,,,082919_p1,001,2019_Aug_29_1355,body_behavioural,3.0.4,59.98621576748611,
6,parcelated_audio/31/31_20.aiff,,0,6,6,6,,,,,0,19,19,19,,,,,,,,,,,,,,,,,,,,,,,1,1.136654147000172,,,,,,,,,,,082919_p1,001,2019_Aug_29_1355,body_behavioural,3.0.4,59.98621576748611,
6,parcelated_audio/31/31_21.aiff,,0,6,6,6,,,,,0,20,20,20,,,,,,,,,,,,,,,,,,,,,,,1,2.1699657220001427,,,,,,,,,,,082919_p1,001,2019_Aug_29_1355,body_behavioural,3.0.4,59.98621576748611,
6,parcelated_audio/31/31_22.aiff,,0,6,6,6,,,,,0,21,21,21,,,,,,,,,,,,,,,,,,,,,,,1,2.0340282399997704,,,,,,,,,,,082919_p1,001,2019_Aug_29_1355,body_behavioural,3.0.4,59.98621576748611,
6,parcelated_audio/31/31_23.aiff,,0,6,6,6,,,,,0,22,22,22,,,,,,,,,,,,,,,,,,,,,,,1,24.638226360000317,,,,,,,,,,,082919_p1,001,2019_Aug_29_1355,body_behavioural,3.0.4,59.98621576748611,
6,parcelated_audio/31/31_24.aiff,,0,6,6,6,,,,,0,23,23,23,,,,,,,,,,,,,,,,,,,,,,,1,0.32012121300022045,,,,,,,,,,,082919_p1,001,2019_Aug_29_1355,body_behavioural,3.0.4,59.98621576748611,
6,parcelated_audio/31/31_25.aiff,,0,6,6,6,,,,,0,24,24,24,,,,,,,,,,,,,,,,,,,,,,,1,0.4339417850001155,,,,,,,,,,,082919_p1,001,2019_Aug_29_1355,body_behavioural,3.0.4,59.98621576748611,
6,parcelated_audio/31/31_26.aiff,,0,6,6,6,,,,,0,25,25,25,,,,,,,,,,,,,,,,,,,,,,,1,1.0028079879998586,,,,,,,,,,,082919_p1,001,2019_Aug_29_1355,body_behavioural,3.0.4,59.98621576748611,
6,parcelated_audio/31/31_27.aiff,,0,6,6,6,,,,,0,26,26,26,,,,,,,,,,,,,,,,,,,,,,,1,0.6032411850001154,,,,,,,,,,,082919_p1,001,2019_Aug_29_1355,body_behavioural,3.0.4,59.98621576748611,
6,parcelated_audio/31/31_28.aiff,,0,6,6,6,,,,,0,27,27,27,,,,,,,,,,,,,,,,,,,,,,,1,0.38646331700010705,,,,,,,,,,,082919_p1,001,2019_Aug_29_1355,body_behavioural,3.0.4,59.98621576748611,
6,parcelated_audio/31/31_29.aiff,,0,6,6,6,,,,,0,28,28,28,,,,,,,,,,,,,,,,,,,,,,,1,0.286498285000107,,,,,,,,,,,082919_p1,001,2019_Aug_29_1355,body_behavioural,3.0.4,59.98621576748611,
6,parcelated_audio/31/31_30.aiff,,0,6,6,6,,,,,0,29,29,29,,,,,,,,,,,,,,,,,,,,,,,9,0.3698232399997323,,,,,,,,,,,082919_p1,001,2019_Aug_29_1355,body_behavioural,3.0.4,59.98621576748611,
6,parcelated_audio/31/31_31.aiff,,0,6,6,6,,,,,0,30,30,30,,,,,,,,,,,,,,,,,,,,,,,1,0.4033962500002417,,,,,,,,,,,082919_p1,001,2019_Aug_29_1355,body_behavioural,3.0.4,59.98621576748611,
6,parcelated_audio/31/31_32.aiff,,0,6,6,6,,,,,0,31,31,31,,,,,,,,,,,,,,,,,,,,,,,1,3.503345797000293,,,,,,,,,,,082919_p1,001,2019_Aug_29_1355,body_behavioural,3.0.4,59.98621576748611,
6,parcelated_audio/31/31_33.aiff,,0,6,6,6,,,,,0,32,32,32,,,,,,,,,,,,,,,,,,,,,,,1,0.4534331109998675,,,,,,,,,,,082919_p1,001,2019_Aug_29_1355,body_behavioural,3.0.4,59.98621576748611,
6,parcelated_audio/31/31_34.aiff,,0,6,6,6,,,,,0,33,33,33,,,,,,,,,,,,,,,,,,,,,,,1,0.4361330309998266,,,,,,,,,,,082919_p1,001,2019_Aug_29_1355,body_behavioural,3.0.4,59.98621576748611,
6,parcelated_audio/31/31_35.aiff,,0,6,6,6,,,,,0,34,34,34,,,,,,,,,,,,,,,,,,,,,,,1,0.4031228430003466,,,,,,,,,,,082919_p1,001,2019_Aug_29_1355,body_behavioural,3.0.4,59.98621576748611,
6,parcelated_audio/31/31_36.aiff,,0,6,6,6,,,,,0,35,35,35,,,,,,,,,,,,,,,,,,,,,,,1,0.6698053499999332,,,,,,,,,,,082919_p1,001,2019_Aug_29_1355,body_behavioural,3.0.4,59.98621576748611,
6,,,0,6,6,6,,,,,,,,,,,,,,,,,,,,,,,,,,,,,,,,,space,1.6365445850001379,,,,,,,,,082919_p1,001,2019_Aug_29_1355,body_behavioural,3.0.4,59.98621576748611,
7,,,0,7,7,7,0,0,0,0,,,,,,,,,,,,,,,,,space,0.9363531529997999,space,0.7864881329996933,space,0.5031173399997897,,,,,,,,,,,,,,,,,082919_p1,001,2019_Aug_29_1355,body_behavioural,3.0.4,59.98621576748611,
7,parcelated_audio/23/23_1.aiff,,0,7,7,7,,,,,0,0,0,0,,,,,,,,,,,,,,,,,,,space,1.9365963170002942,space,0.5339840899996489,9,1.519954332999987,,,,,,,,,,,082919_p1,001,2019_Aug_29_1355,body_behavioural,3.0.4,59.98621576748611,
7,parcelated_audio/23/23_2.aiff,,0,7,7,7,,,,,0,1,1,1,,,,,,,,,,,,,,,,,,,,,,,1,0.43653690999963146,,,,,,,,,,,082919_p1,001,2019_Aug_29_1355,body_behavioural,3.0.4,59.98621576748611,
7,parcelated_audio/23/23_3.aiff,,0,7,7,7,,,,,0,2,2,2,,,,,,,,,,,,,,,,,,,,,,,1,1.0531380600000375,,,,,,,,,,,082919_p1,001,2019_Aug_29_1355,body_behavioural,3.0.4,59.98621576748611,
7,parcelated_audio/23/23_4.aiff,,0,7,7,7,,,,,0,3,3,3,,,,,,,,,,,,,,,,,,,,,,,1,0.46967994700025884,,,,,,,,,,,082919_p1,001,2019_Aug_29_1355,body_behavioural,3.0.4,59.98621576748611,
7,parcelated_audio/23/23_5.aiff,,0,7,7,7,,,,,0,4,4,4,,,,,,,,,,,,,,,,,,,,,,,9,0.9029027400001723,,,,,,,,,,,082919_p1,001,2019_Aug_29_1355,body_behavioural,3.0.4,59.98621576748611,
7,parcelated_audio/23/23_6.aiff,,0,7,7,7,,,,,0,5,5,5,,,,,,,,,,,,,,,,,,,,,,,1,0.3364467070000501,,,,,,,,,,,082919_p1,001,2019_Aug_29_1355,body_behavioural,3.0.4,59.98621576748611,
7,parcelated_audio/23/23_7.aiff,,0,7,7,7,,,,,0,6,6,6,,,,,,,,,,,,,,,,,,,,,,,1,0.753529146999881,,,,,,,,,,,082919_p1,001,2019_Aug_29_1355,body_behavioural,3.0.4,59.98621576748611,
7,parcelated_audio/23/23_8.aiff,,0,7,7,7,,,,,0,7,7,7,,,,,,,,,,,,,,,,,,,,,,,1,0.8362955340003282,,,,,,,,,,,082919_p1,001,2019_Aug_29_1355,body_behavioural,3.0.4,59.98621576748611,
7,parcelated_audio/23/23_9.aiff,,0,7,7,7,,,,,0,8,8,8,,,,,,,,,,,,,,,,,,,,,,,1,0.3197093280000445,,,,,,,,,,,082919_p1,001,2019_Aug_29_1355,body_behavioural,3.0.4,59.98621576748611,
7,parcelated_audio/23/23_10.aiff,,0,7,7,7,,,,,0,9,9,9,,,,,,,,,,,,,,,,,,,,,,,1,0.40289718199983326,,,,,,,,,,,082919_p1,001,2019_Aug_29_1355,body_behavioural,3.0.4,59.98621576748611,
7,parcelated_audio/23/23_11.aiff,,0,7,7,7,,,,,0,10,10,10,,,,,,,,,,,,,,,,,,,,,,,1,1.2532193120000557,,,,,,,,,,,082919_p1,001,2019_Aug_29_1355,body_behavioural,3.0.4,59.98621576748611,
7,parcelated_audio/23/23_12.aiff,,0,7,7,7,,,,,0,11,11,11,,,,,,,,,,,,,,,,,,,,,,,1,0.6030210770004487,,,,,,,,,,,082919_p1,001,2019_Aug_29_1355,body_behavioural,3.0.4,59.98621576748611,
7,parcelated_audio/23/23_13.aiff,,0,7,7,7,,,,,0,12,12,12,,,,,,,,,,,,,,,,,,,,,,,1,0.4198636820001411,,,,,,,,,,,082919_p1,001,2019_Aug_29_1355,body_behavioural,3.0.4,59.98621576748611,
7,parcelated_audio/23/23_14.aiff,,0,7,7,7,,,,,0,13,13,13,,,,,,,,,,,,,,,,,,,,,,,9,1.1365028499999426,,,,,,,,,,,082919_p1,001,2019_Aug_29_1355,body_behavioural,3.0.4,59.98621576748611,
7,parcelated_audio/23/23_15.aiff,,0,7,7,7,,,,,0,14,14,14,,,,,,,,,,,,,,,,,,,,,,,1,1.7508315219997712,,,,,,,,,,,082919_p1,001,2019_Aug_29_1355,body_behavioural,3.0.4,59.98621576748611,
7,parcelated_audio/23/23_16.aiff,,0,7,7,7,,,,,0,15,15,15,,,,,,,,,,,,,,,,,,,,,,,1,0.35336021300008724,,,,,,,,,,,082919_p1,001,2019_Aug_29_1355,body_behavioural,3.0.4,59.98621576748611,
7,parcelated_audio/23/23_17.aiff,,0,7,7,7,,,,,0,16,16,16,,,,,,,,,,,,,,,,,,,,,,,9,0.3695593000002191,,,,,,,,,,,082919_p1,001,2019_Aug_29_1355,body_behavioural,3.0.4,59.98621576748611,
7,parcelated_audio/23/23_18.aiff,,0,7,7,7,,,,,0,17,17,17,,,,,,,,,,,,,,,,,,,,,,,1,0.6695198030001848,,,,,,,,,,,082919_p1,001,2019_Aug_29_1355,body_behavioural,3.0.4,59.98621576748611,
7,parcelated_audio/23/23_19.aiff,,0,7,7,7,,,,,0,18,18,18,,,,,,,,,,,,,,,,,,,,,,,1,1.603137701000378,,,,,,,,,,,082919_p1,001,2019_Aug_29_1355,body_behavioural,3.0.4,59.98621576748611,
7,parcelated_audio/23/23_20.aiff,,0,7,7,7,,,,,0,19,19,19,,,,,,,,,,,,,,,,,,,,,,,1,1.136240817000271,,,,,,,,,,,082919_p1,001,2019_Aug_29_1355,body_behavioural,3.0.4,59.98621576748611,
7,parcelated_audio/23/23_21.aiff,,0,7,7,7,,,,,0,20,20,20,,,,,,,,,,,,,,,,,,,,,,,9,0.9197486779999053,,,,,,,,,,,082919_p1,001,2019_Aug_29_1355,body_behavioural,3.0.4,59.98621576748611,
7,parcelated_audio/23/23_22.aiff,,0,7,7,7,,,,,0,21,21,21,,,,,,,,,,,,,,,,,,,,,,,1,0.3868233899997904,,,,,,,,,,,082919_p1,001,2019_Aug_29_1355,body_behavioural,3.0.4,59.98621576748611,
7,parcelated_audio/23/23_23.aiff,,0,7,7,7,,,,,0,22,22,22,,,,,,,,,,,,,,,,,,,,,,,1,0.4031702789998235,,,,,,,,,,,082919_p1,001,2019_Aug_29_1355,body_behavioural,3.0.4,59.98621576748611,
7,parcelated_audio/23/23_24.aiff,,0,7,7,7,,,,,0,23,23,23,,,,,,,,,,,,,,,,,,,,,,,1,0.3196845550000944,,,,,,,,,,,082919_p1,001,2019_Aug_29_1355,body_behavioural,3.0.4,59.98621576748611,
7,parcelated_audio/23/23_25.aiff,,0,7,7,7,,,,,0,24,24,24,,,,,,,,,,,,,,,,,,,,,,,1,0.43653644500000155,,,,,,,,,,,082919_p1,001,2019_Aug_29_1355,body_behavioural,3.0.4,59.98621576748611,
7,parcelated_audio/23/23_26.aiff,,0,7,7,7,,,,,0,25,25,25,,,,,,,,,,,,,,,,,,,,,,,1,1.8700099920001776,,,,,,,,,,,082919_p1,001,2019_Aug_29_1355,body_behavioural,3.0.4,59.98621576748611,
7,parcelated_audio/23/23_27.aiff,,0,7,7,7,,,,,0,26,26,26,,,,,,,,,,,,,,,,,,,,,,,1,1.0863496279998799,,,,,,,,,,,082919_p1,001,2019_Aug_29_1355,body_behavioural,3.0.4,59.98621576748611,
7,parcelated_audio/23/23_28.aiff,,0,7,7,7,,,,,0,27,27,27,,,,,,,,,,,,,,,,,,,,,,,1,0.41963361499983876,,,,,,,,,,,082919_p1,001,2019_Aug_29_1355,body_behavioural,3.0.4,59.98621576748611,
7,parcelated_audio/23/23_29.aiff,,0,7,7,7,,,,,0,28,28,28,,,,,,,,,,,,,,,,,,,,,,,1,0.4364370369999051,,,,,,,,,,,082919_p1,001,2019_Aug_29_1355,body_behavioural,3.0.4,59.98621576748611,
7,parcelated_audio/23/23_30.aiff,,0,7,7,7,,,,,0,29,29,29,,,,,,,,,,,,,,,,,,,,,,,9,0.9531019070000184,,,,,,,,,,,082919_p1,001,2019_Aug_29_1355,body_behavioural,3.0.4,59.98621576748611,
7,parcelated_audio/23/23_31.aiff,,0,7,7,7,,,,,0,30,30,30,,,,,,,,,,,,,,,,,,,,,,,1,0.4363353150001785,,,,,,,,,,,082919_p1,001,2019_Aug_29_1355,body_behavioural,3.0.4,59.98621576748611,
7,parcelated_audio/23/23_32.aiff,,0,7,7,7,,,,,0,31,31,31,,,,,,,,,,,,,,,,,,,,,,,1,0.30330547599987767,,,,,,,,,,,082919_p1,001,2019_Aug_29_1355,body_behavioural,3.0.4,59.98621576748611,
7,parcelated_audio/23/23_33.aiff,,0,7,7,7,,,,,0,32,32,32,,,,,,,,,,,,,,,,,,,,,,,1,0.9365722299999106,,,,,,,,,,,082919_p1,001,2019_Aug_29_1355,body_behavioural,3.0.4,59.98621576748611,
7,parcelated_audio/23/23_34.aiff,,0,7,7,7,,,,,0,33,33,33,,,,,,,,,,,,,,,,,,,,,,,1,1.6862622589997045,,,,,,,,,,,082919_p1,001,2019_Aug_29_1355,body_behavioural,3.0.4,59.98621576748611,
7,parcelated_audio/23/23_35.aiff,,0,7,7,7,,,,,0,34,34,34,,,,,,,,,,,,,,,,,,,,,,,1,2.1699446100001296,,,,,,,,,,,082919_p1,001,2019_Aug_29_1355,body_behavioural,3.0.4,59.98621576748611,
7,parcelated_audio/23/23_36.aiff,,0,7,7,7,,,,,0,35,35,35,,,,,,,,,,,,,,,,,,,,,,,1,1.9366928919998827,,,,,,,,,,,082919_p1,001,2019_Aug_29_1355,body_behavioural,3.0.4,59.98621576748611,
7,parcelated_audio/23/23_37.aiff,,0,7,7,7,,,,,0,36,36,36,,,,,,,,,,,,,,,,,,,,,,,1,0.7033285120000983,,,,,,,,,,,082919_p1,001,2019_Aug_29_1355,body_behavioural,3.0.4,59.98621576748611,
7,parcelated_audio/23/23_38.aiff,,0,7,7,7,,,,,0,37,37,37,,,,,,,,,,,,,,,,,,,,,,,1,0.5842677099999491,,,,,,,,,,,082919_p1,001,2019_Aug_29_1355,body_behavioural,3.0.4,59.98621576748611,
7,parcelated_audio/23/23_39.aiff,,0,7,7,7,,,,,0,38,38,38,,,,,,,,,,,,,,,,,,,,,,,1,0.5840811100001702,,,,,,,,,,,082919_p1,001,2019_Aug_29_1355,body_behavioural,3.0.4,59.98621576748611,
7,,,0,7,7,7,,,,,,,,,,,,,,,,,,,,,,,,,,,,,,,,,space,1.1199242480001885,,,,,,,,,082919_p1,001,2019_Aug_29_1355,body_behavioural,3.0.4,59.98621576748611,
,,,,,,,,,,,,,,,,,,,,,,,,,,,,,,,,,,,,,,,,,2606.11590226,space,0.43646477799984496,,,,,,082919_p1,001,2019_Aug_29_1355,body_behavioural,3.0.4,59.98621576748611,
,,"In this next part of the experiment, please recall each story to the best of your ability.",,,,,,,,,,,,,0,0,0,0,,,,,,,,,,,,,,,,,,,,,,,,,,space,2.7032951539999885,,,,082919_p1,001,2019_Aug_29_1355,body_behavioural,3.0.4,59.98621576748611,
,,"You will be presented with the story title, names, the images, and a blank text box for each story.",,,,,,,,,,,,,0,1,1,1,,,,,,,,,,,,,,,,,,,,,,,,,,space,2.4867813350001597,,,,082919_p1,001,2019_Aug_29_1355,body_behavioural,3.0.4,59.98621576748611,
,,Describe the story indicated with as many details as you can remember in the space provided. ,,,,,,,,,,,,,0,2,2,2,,,,,,,,,,,,,,,,,,,,,,,,,,space,2.2533693149998726,,,,082919_p1,001,2019_Aug_29_1355,body_behavioural,3.0.4,59.98621576748611,
,,"When you are finished recalling one story, to move onto the next one, press the ‘return’ key. ",,,,,,,,,,,,,0,3,3,3,,,,,,,,,,,,,,,,,,,,,,,,,,space,2.753276845000073,,,,082919_p1,001,2019_Aug_29_1355,body_behavioural,3.0.4,59.98621576748611,
,,There is a 5 minute time limit to make your response. ,,,,,,,,,,,,,0,4,4,4,,,,,,,,,,,,,,,,,,,,,,,,,,space,2.0366619070000525,,,,082919_p1,001,2019_Aug_29_1355,body_behavioural,3.0.4,59.98621576748611,
,,Please note that you will not be able to capitalize any letters except for the first letter of your answer.,,,,,,,,,,,,,0,5,5,5,,,,,,,,,,,,,,,,,,,,,,,,,,space,4.136845767000068,,,,082919_p1,001,2019_Aug_29_1355,body_behavioural,3.0.4,59.98621576748611,
0,,,,,,,,,,,,,,,,,,,0,0,0,0,,,,,,,,,,,,,,,,,,,,,,,,space,1.0700023419999525,,082919_p1,001,2019_Aug_29_1355,body_behavioural,3.0.4,59.98621576748611,
1,,,,,,,,,,,,,,,,,,,0,1,1,1,,,,,,,,,,,,,,,,,,,,,,,,space,1.300812656999824,,082919_p1,001,2019_Aug_29_1355,body_behavioural,3.0.4,59.98621576748611,
2,,,,,,,,,,,,,,,,,,,0,2,2,2,,,,,,,,,,,,,,,,,,,,,,,,space,2.9033507849999296,,082919_p1,001,2019_Aug_29_1355,body_behavioural,3.0.4,59.98621576748611,
3,,,,,,,,,,,,,,,,,,,0,3,3,3,,,,,,,,,,,,,,,,,,,,,,,,space,1.369545714999731,,082919_p1,001,2019_Aug_29_1355,body_behavioural,3.0.4,59.98621576748611,
4,,,,,,,,,,,,,,,,,,,0,4,4,4,,,,,,,,,,,,,,,,,,,,,,,,space,2.1029087920001075,"Thomas and sadie went to dinner together. they walked into a restaurant, but thomas asked sadie if they could be seated at the back in a booth. sadie said yes. thomas had been wanting to take some time off from his relationship with sadie because a lot of things were going on at work and he was unsure if he wanted to continue with his job. safie said that they could figure out some time apart and that to her it didn't matter, but thomas was not sure that that was the right decision. the waitress came over and they realized they had menus in front of them. the items on the menu had funny names, but they both selected familiar items. thomas picked the hamburger with a tomato and sadie asked about the reuben. later when their food came sadie got really upset and took half of her rebuen and yelled at thomas. she said she never wanted to hear from him and wanted her poloraid and beatles poster back. she stormed out of the restaurant. thomas took a bite of his hamburger but it tasted bad and fishy to him. he didn't know if to blame the restaurant or himself for the foul taste of his food.",082919_p1,001,2019_Aug_29_1355,body_behavioural,3.0.4,59.98621576748611,
