instruct_text,rolePic,job,Q1,Q2,Q3,Q4,D1,D2,roleName,trials_2.thisRepN,trials_2.thisTrialN,trials_2.thisN,trials_2.thisIndex,trials_13.thisRepN,trials_13.thisTrialN,trials_13.thisN,trials_13.thisIndex,trials_9.thisRepN,trials_9.thisTrialN,trials_9.thisN,trials_9.thisIndex,trials_10.thisRepN,trials_10.thisTrialN,trials_10.thisN,trials_10.thisIndex,trials_11.thisRepN,trials_11.thisTrialN,trials_11.thisN,trials_11.thisIndex,trials_4.thisRepN,trials_4.thisTrialN,trials_4.thisN,trials_4.thisIndex,trials_12.thisRepN,trials_12.thisTrialN,trials_12.thisN,trials_12.thisIndex,trials_3.thisRepN,trials_3.thisTrialN,trials_3.thisN,trials_3.thisIndex,trials.thisRepN,trials.thisTrialN,trials.thisN,trials.thisIndex,trials_5.thisRepN,trials_5.thisTrialN,trials_5.thisN,trials_5.thisIndex,trials_7.thisRepN,trials_7.thisTrialN,trials_7.thisN,trials_7.thisIndex,trials_8.thisRepN,trials_8.thisTrialN,trials_8.thisN,trials_8.thisIndex,key_resp_9.keys,key_resp_9.rt,key_resp_8.keys,key_resp_8.rt,key_resp_19.keys,key_resp_19.rt,key_resp_20.keys,key_resp_20.rt,key_resp_21.keys,key_resp_21.rt,key_resp_15.keys,key_resp_15.rt,key_resp_16.keys,key_resp_16.rt,key_resp_17.keys,key_resp_17.rt,key_resp_2.keys,key_resp_2.rt,key_resp_14.keys,key_resp_14.rt,key_resp_10.keys,key_resp_10.rt,key_resp_11.keys,key_resp_11.rt,key_resp_12.keys,key_resp_12.rt,key_resp_13.keys,key_resp_13.rt,key_resp_4.keys,key_resp_4.rt,key_resp_3.keys,key_resp_3.rt,key_resp_7.keys,key_resp_7.rt,participant,session,date,expName,psychopyVersion,frameRate,
,,,,,,,,,,,,,,,,,,,,,,,,,,,,,,,,,,,,,,,,,,,,,,,,,,,,,,,,,,space,3.0549488380002003,,,,,,,,,,,,,,,,,,,,,,,,,,,,,,,,,090419_p1,001,2019_Sep_04_0910,part1_subjective_segmentation,3.0.4,59.98780627864927,
"In this experiment, you will be assuming the perspectives of various jobs while listening to short stories.",,,,,,,,,,0,0,0,0,,,,,,,,,,,,,,,,,,,,,,,,,,,,,,,,,,,,,,,,,,,,,,,space,5.836668199999622,,,,,,,,,,,,,,,,,,,,,,,,,,,,,,,090419_p1,001,2019_Sep_04_0910,part1_subjective_segmentation,3.0.4,59.98780627864927,
"There are 4 parts of the experiment, and, before you begin, we'll give you a brief overview of all the parts. ",,,,,,,,,,0,1,1,1,,,,,,,,,,,,,,,,,,,,,,,,,,,,,,,,,,,,,,,,,,,,,,,space,7.036262997999984,,,,,,,,,,,,,,,,,,,,,,,,,,,,,,,090419_p1,001,2019_Sep_04_0910,part1_subjective_segmentation,3.0.4,59.98780627864927,
1,,,,,,,,,,0,2,2,2,,,,,,,,,,,,,,,,,,,,,,,,,,,,,,,,,,,,,,,,,,,,,,,space,0.8362712680000186,,,,,,,,,,,,,,,,,,,,,,,,,,,,,,,090419_p1,001,2019_Sep_04_0910,part1_subjective_segmentation,3.0.4,59.98780627864927,
"In the first part, you'll be introduced to the perspectives of 8 different jobs.",,,,,,,,,,0,3,3,3,,,,,,,,,,,,,,,,,,,,,,,,,,,,,,,,,,,,,,,,,,,,,,,space,7.487806126000578,,,,,,,,,,,,,,,,,,,,,,,,,,,,,,,090419_p1,001,2019_Sep_04_0910,part1_subjective_segmentation,3.0.4,59.98780627864927,
"For each short story, you'll be assigned one of these perspectives to assume while you listen to it. ",,,,,,,,,,0,4,4,4,,,,,,,,,,,,,,,,,,,,,,,,,,,,,,,,,,,,,,,,,,,,,,,space,5.119544123000196,,,,,,,,,,,,,,,,,,,,,,,,,,,,,,,090419_p1,001,2019_Sep_04_0910,part1_subjective_segmentation,3.0.4,59.98780627864927,
,,,,,,,,,,,,,,,,,,,,,,,,,,,,,,,,,,,,,,,,,,,,,,,,,,,,,,,,,,,,,,space,6.586321829000553,,,,,,,,,,,,,,,,,,,,,,,,,,,,,090419_p1,001,2019_Sep_04_0910,part1_subjective_segmentation,3.0.4,59.98780627864927,
,,,,,,,,,,,,,,,,,,,,,,,,,,,,,,,,,,,,,,,,,,,,,,,,,,,,,,,,,,,,,,,,space,9.437086135000754,,,,,,,,,,,,,,,,,,,,,,,,,,,090419_p1,001,2019_Sep_04_0910,part1_subjective_segmentation,3.0.4,59.98780627864927,
,,,,,,,,,,,,,,,,,,,,,,,,,,,,,,,,,,,,,,,,,,,,,,,,,,,,,,,,,,,,,,,,,,space,11.37060898799973,,,,,,,,,,,,,,,,,,,,,,,,,090419_p1,001,2019_Sep_04_0910,part1_subjective_segmentation,3.0.4,59.98780627864927,
The 4 questions for each perspective are learned with quizzes in this first part of the experiment. ,,,,,,,,,,,,,,0,0,0,0,,,,,,,,,,,,,,,,,,,,,,,,,,,,,,,,,,,,,,,,,,,space,5.453520383000068,,,,,,,,,,,,,,,,,,,,,,,,,,,,,,,090419_p1,001,2019_Sep_04_0910,part1_subjective_segmentation,3.0.4,59.98780627864927,
2,,,,,,,,,,,,,,0,1,1,1,,,,,,,,,,,,,,,,,,,,,,,,,,,,,,,,,,,,,,,,,,,space,1.1698569680002038,,,,,,,,,,,,,,,,,,,,,,,,,,,,,,,090419_p1,001,2019_Sep_04_0910,part1_subjective_segmentation,3.0.4,59.98780627864927,
"In the second part of the experiment, you will listen to 8 short stories. ",,,,,,,,,,,,,,0,2,2,2,,,,,,,,,,,,,,,,,,,,,,,,,,,,,,,,,,,,,,,,,,,space,3.1199694380002256,,,,,,,,,,,,,,,,,,,,,,,,,,,,,,,090419_p1,001,2019_Sep_04_0910,part1_subjective_segmentation,3.0.4,59.98780627864927,
,,,,,,,,,,,,,,,,,,,,,,,,,,,,,,,,,,,,,,,,,,,,,,,,,,,,,,,,,,,,,,,,,,,,space,9.736761429999206,,,,,,,,,,,,,,,,,,,,,,,090419_p1,001,2019_Sep_04_0910,part1_subjective_segmentation,3.0.4,59.98780627864927,
You will hear each sentence of the story played individually.,,,,,,,,,,,,,,,,,,0,0,0,0,,,,,,,,,,,,,,,,,,,,,,,,,,,,,,,,,,,,,,,space,3.6199236580005163,,,,,,,,,,,,,,,,,,,,,,,,,,,,,,,090419_p1,001,2019_Sep_04_0910,part1_subjective_segmentation,3.0.4,59.98780627864927,
"The sentence will play fully, and, when the sentence has finished playing, you will press a button to advance to the next sentence. ",,,,,,,,,,,,,,,,,,0,1,1,1,,,,,,,,,,,,,,,,,,,,,,,,,,,,,,,,,,,,,,,space,6.653554902999531,,,,,,,,,,,,,,,,,,,,,,,,,,,,,,,090419_p1,001,2019_Sep_04_0910,part1_subjective_segmentation,3.0.4,59.98780627864927,
"Before listening to each story, you will be assigned one of the eight perspectives to take on while listening to it. ",,,,,,,,,,,,,,,,,,0,2,2,2,,,,,,,,,,,,,,,,,,,,,,,,,,,,,,,,,,,,,,,space,5.769937535000281,,,,,,,,,,,,,,,,,,,,,,,,,,,,,,,090419_p1,001,2019_Sep_04_0910,part1_subjective_segmentation,3.0.4,59.98780627864927,
You'll be given a quiz before the story on the 4 questions associated with the assigned perspective. ,,,,,,,,,,,,,,,,,,0,3,3,3,,,,,,,,,,,,,,,,,,,,,,,,,,,,,,,,,,,,,,,space,6.403549798000313,,,,,,,,,,,,,,,,,,,,,,,,,,,,,,,090419_p1,001,2019_Sep_04_0910,part1_subjective_segmentation,3.0.4,59.98780627864927,
You must pass this quiz to move onto the story. ,,,,,,,,,,,,,,,,,,0,4,4,4,,,,,,,,,,,,,,,,,,,,,,,,,,,,,,,,,,,,,,,space,3.1195182999999815,,,,,,,,,,,,,,,,,,,,,,,,,,,,,,,090419_p1,001,2019_Sep_04_0910,part1_subjective_segmentation,3.0.4,59.98780627864927,
3,,,,,,,,,,,,,,,,,,0,5,5,5,,,,,,,,,,,,,,,,,,,,,,,,,,,,,,,,,,,,,,,space,2.0370343920003506,,,,,,,,,,,,,,,,,,,,,,,,,,,,,,,090419_p1,001,2019_Sep_04_0910,part1_subjective_segmentation,3.0.4,59.98780627864927,
,,,,,,,,,,,,,,,,,,,,,,,,,,,,,,,,,,,,,,,,,,,,,,,,,,,,,,,,,,,,,,,,,,,,,,space,7.386481503000141,,,,,,,,,,,,,,,,,,,,,090419_p1,001,2019_Sep_04_0910,part1_subjective_segmentation,3.0.4,59.98780627864927,
"You'll be given a blank text box under the image, where you can type out all the details of the story you can remember. ",,,,,,,,,,,,,,,,,,,,,,0,0,0,0,,,,,,,,,,,,,,,,,,,,,,,,,,,,,,,,,,,space,6.484438629999204,,,,,,,,,,,,,,,,,,,,,,,,,,,,,,,090419_p1,001,2019_Sep_04_0910,part1_subjective_segmentation,3.0.4,59.98780627864927,
There is a 5 minute time limit for recalling each story. ,,,,,,,,,,,,,,,,,,,,,,0,1,1,1,,,,,,,,,,,,,,,,,,,,,,,,,,,,,,,,,,,space,2.153180825000163,,,,,,,,,,,,,,,,,,,,,,,,,,,,,,,090419_p1,001,2019_Sep_04_0910,part1_subjective_segmentation,3.0.4,59.98780627864927,
4,,,,,,,,,,,,,,,,,,,,,,0,2,2,2,,,,,,,,,,,,,,,,,,,,,,,,,,,,,,,,,,,space,1.153219371999512,,,,,,,,,,,,,,,,,,,,,,,,,,,,,,,090419_p1,001,2019_Sep_04_0910,part1_subjective_segmentation,3.0.4,59.98780627864927,
"In the fourth part of the experiment, you will be asked questions about each story. ",,,,,,,,,,,,,,,,,,,,,,0,3,3,3,,,,,,,,,,,,,,,,,,,,,,,,,,,,,,,,,,,space,3.3365355229998386,,,,,,,,,,,,,,,,,,,,,,,,,,,,,,,090419_p1,001,2019_Sep_04_0910,part1_subjective_segmentation,3.0.4,59.98780627864927,
,,,,,,,,,,,,,,,,,,,,,,,,,,,,,,,,,,,,,,,,,,,,,,,,,,,,,,,,,,,,,,,,,,,,,,,,space,5.436602220000168,,,,,,,,,,,,,,,,,,,090419_p1,001,2019_Sep_04_0910,part1_subjective_segmentation,3.0.4,59.98780627864927,
You'll type your answers to the questions in a text box.,,,,,,,,,,,,,,,,,,,,,,,,,,0,0,0,0,,,,,,,,,,,,,,,,,,,,,,,,,,,,,,,space,3.7196293500001048,,,,,,,,,,,,,,,,,,,,,,,,,,,,,,,090419_p1,001,2019_Sep_04_0910,part1_subjective_segmentation,3.0.4,59.98780627864927,
Questions?,,,,,,,,,,,,,,,,,,,,,,,,,,0,1,1,1,,,,,,,,,,,,,,,,,,,,,,,,,,,,,,,space,1.9531643050004277,,,,,,,,,,,,,,,,,,,,,,,,,,,,,,,090419_p1,001,2019_Sep_04_0910,part1_subjective_segmentation,3.0.4,59.98780627864927,
Let's begin Part 1!,,,,,,,,,,,,,,,,,,,,,,,,,,0,2,2,2,,,,,,,,,,,,,,,,,,,,,,,,,,,,,,,space,3.55277788300009,,,,,,,,,,,,,,,,,,,,,,,,,,,,,,,090419_p1,001,2019_Sep_04_0910,part1_subjective_segmentation,3.0.4,59.98780627864927,
The 8 perspectives are as follows:,,,,,,,,,,,,,,,,,,,,,,,,,,0,3,3,3,,,,,,,,,,,,,,,,,,,,,,,,,,,,,,,space,1.9697665280000365,,,,,,,,,,,,,,,,,,,,,,,,,,,,,,,090419_p1,001,2019_Sep_04_0910,part1_subjective_segmentation,3.0.4,59.98780627864927,
,jobphotos/restaurant_critic.jpg,Restaurant Critic,,,,,,,,,,,,,,,,,,,,,,,,,,,,0,0,0,1,,,,,,,,,,,,,,,,,,,,,,,,,,,,,,,,,,,,,,,,,space,3.503369922999809,,,,,,,,,,,,,,,,,090419_p1,001,2019_Sep_04_0910,part1_subjective_segmentation,3.0.4,59.98780627864927,
,jobphotos/matchmaker.jpg,Matchmaker,,,,,,,,,,,,,,,,,,,,,,,,,,,,0,1,1,2,,,,,,,,,,,,,,,,,,,,,,,,,,,,,,,,,,,,,,,,,space,1.8845923879998736,,,,,,,,,,,,,,,,,090419_p1,001,2019_Sep_04_0910,part1_subjective_segmentation,3.0.4,59.98780627864927,
,jobphotos/dean.jpg,Dean of Academic Studies,,,,,,,,,,,,,,,,,,,,,,,,,,,,0,2,2,6,,,,,,,,,,,,,,,,,,,,,,,,,,,,,,,,,,,,,,,,,space,1.8872663379997903,,,,,,,,,,,,,,,,,090419_p1,001,2019_Sep_04_0910,part1_subjective_segmentation,3.0.4,59.98780627864927,
,jobphotos/acem.jpg,Airport Customer Experience Manager,,,,,,,,,,,,,,,,,,,,,,,,,,,,0,3,3,4,,,,,,,,,,,,,,,,,,,,,,,,,,,,,,,,,,,,,,,,,space,2.7532704029999877,,,,,,,,,,,,,,,,,090419_p1,001,2019_Sep_04_0910,part1_subjective_segmentation,3.0.4,59.98780627864927,
,jobphotos/couples.jpeg,"Couples Therapist
",,,,,,,,,,,,,,,,,,,,,,,,,,,,0,4,4,7,,,,,,,,,,,,,,,,,,,,,,,,,,,,,,,,,,,,,,,,,space,7.403503215000455,,,,,,,,,,,,,,,,,090419_p1,001,2019_Sep_04_0910,part1_subjective_segmentation,3.0.4,59.98780627864927,
,jobphotos/weddingplanner.jpg,Wedding Planner,,,,,,,,,,,,,,,,,,,,,,,,,,,,0,5,5,3,,,,,,,,,,,,,,,,,,,,,,,,,,,,,,,,,,,,,,,,,space,1.8193239430001995,,,,,,,,,,,,,,,,,090419_p1,001,2019_Sep_04_0910,part1_subjective_segmentation,3.0.4,59.98780627864927,
,jobphotos/business_reporter.jpg,Business Reporter,,,,,,,,,,,,,,,,,,,,,,,,,,,,0,6,6,0,,,,,,,,,,,,,,,,,,,,,,,,,,,,,,,,,,,,,,,,,space,2.0863993269995262,,,,,,,,,,,,,,,,,090419_p1,001,2019_Sep_04_0910,part1_subjective_segmentation,3.0.4,59.98780627864927,
,jobphotos/gscem.jpg,"Grocery Store Customer Experience Manager
",,,,,,,,,,,,,,,,,,,,,,,,,,,,0,7,7,5,,,,,,,,,,,,,,,,,,,,,,,,,,,,,,,,,,,,,,,,,space,4.052969960000155,,,,,,,,,,,,,,,,,090419_p1,001,2019_Sep_04_0910,part1_subjective_segmentation,3.0.4,59.98780627864927,
You’ll become acquainted with these perspectives more in the following quizzes where you’ll learn the 4 questions associated with each perspective. ,,,,,,,,,,,,,,,,,,,,,,,,,,,,,,,,,,0,0,0,0,,,,,,,,,,,,,,,,,,,,,,,space,23.70487381500061,,,,,,,,,,,,,,,,,,,,,,,,,,,,,,,090419_p1,001,2019_Sep_04_0910,part1_subjective_segmentation,3.0.4,59.98780627864927,
"For each perspective, you'll go through all four questions in a sequence. ",,,,,,,,,,,,,,,,,,,,,,,,,,,,,,,,,,0,1,1,1,,,,,,,,,,,,,,,,,,,,,,,space,4.136622629999692,,,,,,,,,,,,,,,,,,,,,,,,,,,,,,,090419_p1,001,2019_Sep_04_0910,part1_subjective_segmentation,3.0.4,59.98780627864927,
Then you'll get the quiz and indicate which questions you saw in the order in which they appeared in the sequence. ,,,,,,,,,,,,,,,,,,,,,,,,,,,,,,,,,,0,2,2,2,,,,,,,,,,,,,,,,,,,,,,,space,13.137241407999682,,,,,,,,,,,,,,,,,,,,,,,,,,,,,,,090419_p1,001,2019_Sep_04_0910,part1_subjective_segmentation,3.0.4,59.98780627864927,
You'll indicate the question you select by pressing the number key corresponding to the number in front of the question. ,,,,,,,,,,,,,,,,,,,,,,,,,,,,,,,,,,0,3,3,3,,,,,,,,,,,,,,,,,,,,,,,space,23.104642300000705,,,,,,,,,,,,,,,,,,,,,,,,,,,,,,,090419_p1,001,2019_Sep_04_0910,part1_subjective_segmentation,3.0.4,59.98780627864927,
"If you indicate the wrong question during the quiz, you'll get the questions presented in the correct order again and restart the quiz. ",,,,,,,,,,,,,,,,,,,,,,,,,,,,,,,,,,0,4,4,4,,,,,,,,,,,,,,,,,,,,,,,space,7.653548403000059,,,,,,,,,,,,,,,,,,,,,,,,,,,,,,,090419_p1,001,2019_Sep_04_0910,part1_subjective_segmentation,3.0.4,59.98780627864927,
"After you've passed the quizzes for each perspective, you'll do all of the quizzes a final time but without seeing the correct order of the questions beforehand.",,,,,,,,,,,,,,,,,,,,,,,,,,,,,,,,,,0,5,5,5,,,,,,,,,,,,,,,,,,,,,,,space,7.336887982999542,,,,,,,,,,,,,,,,,,,,,,,,,,,,,,,090419_p1,001,2019_Sep_04_0910,part1_subjective_segmentation,3.0.4,59.98780627864927,
Press space to begin the quizzes!,,,,,,,,,,,,,,,,,,,,,,,,,,,,,,,,,,0,6,6,6,,,,,,,,,,,,,,,,,,,,,,,space,12.837274030000117,,,,,,,,,,,,,,,,,,,,,,,,,,,,,,,090419_p1,001,2019_Sep_04_0910,part1_subjective_segmentation,3.0.4,59.98780627864927,
,jobphotos/dean.jpg,,"What is the lecture hall like?
","What class are the students in, and what is the day’s lecture about?
","What is something taught in lecture?
","What is the next assessment/assignment for the class, and when is it scheduled/due?",Are the students paying attention?,Are the desks comfortable?,Dean of Academic Studies,,,,,,,,,,,,,,,,,,,,,,,,,,,,,0,0,0,6,0,0,0,0,,,,,,,,,,,,,,,,,,,,,,,,,,,,,,,space,10.003882799999701,space,2.469506200000069,space,5.670034189999569,space,2.8363064049999593,space,4.4862291749996075,space,2.0694299650003813,,,,,090419_p1,001,2019_Sep_04_0910,part1_subjective_segmentation,3.0.4,59.98780627864927,
,jobphotos/dean.jpg,,"What is the lecture hall like?
","What class are the students in, and what is the day’s lecture about?
","What is something taught in lecture?
","What is the next assessment/assignment for the class, and when is it scheduled/due?",Are the students paying attention?,Are the desks comfortable?,Dean of Academic Studies,,,,,,,,,,,,,,,,,,,,,,,,,,,,,0,0,0,6,1,0,1,0,,,,,,,,,,,,,,,,,,,,,,,,,,,,,,,space,3.8194697180006187,space,1.5704868239999996,space,3.0702654400001848,space,2.786063887999262,space,2.9029964669998662,space,1.9698784199999864,,,,,090419_p1,001,2019_Sep_04_0910,part1_subjective_segmentation,3.0.4,59.98780627864927,
,jobphotos/dean.jpg,,"What is the lecture hall like?
","What class are the students in, and what is the day’s lecture about?
","What is something taught in lecture?
","What is the next assessment/assignment for the class, and when is it scheduled/due?",Are the students paying attention?,Are the desks comfortable?,Dean of Academic Studies,,,,,,,,,,,,,,,,,,,,,,,,,,,,,0,0,0,6,2,0,2,0,,,,,,,,,,,,,,,,,,,,,,,,,,,,,,,space,6.153583347999302,space,1.7674164629997904,space,4.719705155000156,space,2.7862796650006203,space,5.0866585529993245,space,2.0695447049993163,,,,,090419_p1,001,2019_Sep_04_0910,part1_subjective_segmentation,3.0.4,59.98780627864927,
,jobphotos/dean.jpg,,"What is the lecture hall like?
","What class are the students in, and what is the day’s lecture about?
","What is something taught in lecture?
","What is the next assessment/assignment for the class, and when is it scheduled/due?",Are the students paying attention?,Are the desks comfortable?,Dean of Academic Studies,,,,,,,,,,,,,,,,,,,,,,,,,,,,,0,0,0,6,,,,,,,,,,,,,,,,,,,,,,,,,,,,,,,,,,,,,,,,,,,,,,,,,,,090419_p1,001,2019_Sep_04_0910,part1_subjective_segmentation,3.0.4,59.98780627864927,
,jobphotos/matchmaker.jpg,,What object is the initiator of the interaction holding when he/she first notices the other person?,What is the initial question that begins the conversation between the couple?,When will be the next time the couple meets and for what occasion?,"What time is it when the couple parts?
",Is the couple going to get married?,Who shows more interest?,Matchmaker,,,,,,,,,,,,,,,,,,,,,,,,,,,,,0,1,1,2,0,0,0,0,,,,,,,,,,,,,,,,,,,,,,,,,,,,,,,space,14.485041904999889,space,11.137252728000021,space,6.8368175850000625,space,2.9179941229995165,space,4.41987876300027,space,0.6195366550000472,,,,,090419_p1,001,2019_Sep_04_0910,part1_subjective_segmentation,3.0.4,59.98780627864927,
,jobphotos/matchmaker.jpg,,What object is the initiator of the interaction holding when he/she first notices the other person?,What is the initial question that begins the conversation between the couple?,When will be the next time the couple meets and for what occasion?,"What time is it when the couple parts?
",Is the couple going to get married?,Who shows more interest?,Matchmaker,,,,,,,,,,,,,,,,,,,,,,,,,,,,,0,1,1,2,,,,,,,,,,,,,,,,,,,,,,,,,,,,,,,,,,,,,,,,,,,,,,,,,,,090419_p1,001,2019_Sep_04_0910,part1_subjective_segmentation,3.0.4,59.98780627864927,
,jobphotos/weddingplanner.jpg,,For how long has the couple been dating?,"How many diamonds are on the ring, and what is the diamond color?","In/on what item is the ring presented?
","Who does the new fiancee text first?
",Is anyone taking pictures of the proposal?,How long does the proposal take?,Wedding Planner,,,,,,,,,,,,,,,,,,,,,,,,,,,,,0,2,2,3,0,0,0,0,,,,,,,,,,,,,,,,,,,,,,,,,,,,,,,space,1.2025136130005194,space,5.934411342999738,space,4.353798447000372,space,8.085689291000563,space,10.986619297000288,space,0.7532561880007052,,,,,090419_p1,001,2019_Sep_04_0910,part1_subjective_segmentation,3.0.4,59.98780627864927,
,jobphotos/weddingplanner.jpg,,For how long has the couple been dating?,"How many diamonds are on the ring, and what is the diamond color?","In/on what item is the ring presented?
","Who does the new fiancee text first?
",Is anyone taking pictures of the proposal?,How long does the proposal take?,Wedding Planner,,,,,,,,,,,,,,,,,,,,,,,,,,,,,0,2,2,3,,,,,,,,,,,,,,,,,,,,,,,,,,,,,,,,,,,,,,,,,,,,,,,,,,,090419_p1,001,2019_Sep_04_0910,part1_subjective_segmentation,3.0.4,59.98780627864927,
,jobphotos/restaurant_critic.jpg,,How is the restaurant decorated?,What are the menus like?,"What does each client order?
",How do the clients like the food?,How old is the waiter?,What meal is being served?,Restaurant Critic,,,,,,,,,,,,,,,,,,,,,,,,,,,,,0,3,3,1,0,0,0,0,,,,,,,,,,,,,,,,,,,,,,,,,,,,,,,space,1.4700447249997524,space,2.953493377999621,space,3.119710908000343,space,4.653439998000067,space,2.2200710200004323,space,0.7363047779999761,,,,,090419_p1,001,2019_Sep_04_0910,part1_subjective_segmentation,3.0.4,59.98780627864927,
,jobphotos/restaurant_critic.jpg,,How is the restaurant decorated?,What are the menus like?,"What does each client order?
",How do the clients like the food?,How old is the waiter?,What meal is being served?,Restaurant Critic,,,,,,,,,,,,,,,,,,,,,,,,,,,,,0,3,3,1,,,,,,,,,,,,,,,,,,,,,,,,,,,,,,,,,,,,,,,,,,,,,,,,,,,090419_p1,001,2019_Sep_04_0910,part1_subjective_segmentation,3.0.4,59.98780627864927,
,jobphotos/couples.jpg,,For how long has the initiator of the breakup been thinking about breaking up with his/her partner?,"What is the initial reason stated by the initiator for why he/she is breaking up?
","Does the person who is being broken up with want to break up, and what’s the reason stated by the person being broken up with that he/she does or does not want to break up?
",Who wants what items back as a result of the breakup?,Does the person being broken up with expect that this is coming?,Who witnesses the breakup?,"Couples Therapist
",,,,,,,,,,,,,,,,,,,,,,,,,,,,,0,4,4,7,0,0,0,0,,,,,,,,,,,,,,,,,,,,,,,,,,,,,,,space,0.18399183200017433,space,14.42055895500016,space,6.11999994999951,space,20.687511404999896,space,7.270219815000019,space,1.2697626079998372,,,,,090419_p1,001,2019_Sep_04_0910,part1_subjective_segmentation,3.0.4,59.98780627864927,
,jobphotos/couples.jpg,,For how long has the initiator of the breakup been thinking about breaking up with his/her partner?,"What is the initial reason stated by the initiator for why he/she is breaking up?
","Does the person who is being broken up with want to break up, and what’s the reason stated by the person being broken up with that he/she does or does not want to break up?
",Who wants what items back as a result of the breakup?,Does the person being broken up with expect that this is coming?,Who witnesses the breakup?,"Couples Therapist
",,,,,,,,,,,,,,,,,,,,,,,,,,,,,0,4,4,7,,,,,,,,,,,,,,,,,,,,,,,,,,,,,,,,,,,,,,,,,,,,,,,,,,,090419_p1,001,2019_Sep_04_0910,part1_subjective_segmentation,3.0.4,59.98780627864927,
,jobphotos/acem.jpg,,"When the clients arrive at the airport, how much time do they have until their flight departs?
",What is the reason for the hold-up at security?,"Toward which gate are the clients walking?
","What section and seat does each client sit in on the plane?
",Are the security guards friendly or rude?,Are the airport restrooms clean?,Airport Customer Experience Manager,,,,,,,,,,,,,,,,,,,,,,,,,,,,,0,5,5,4,0,0,0,0,,,,,,,,,,,,,,,,,,,,,,,,,,,,,,,space,1.1031057950003742,space,10.304040615000304,space,11.253907114999492,space,5.1530133899996144,space,7.053249137999956,space,1.0197495529992011,,,,,090419_p1,001,2019_Sep_04_0910,part1_subjective_segmentation,3.0.4,59.98780627864927,
,jobphotos/acem.jpg,,"When the clients arrive at the airport, how much time do they have until their flight departs?
",What is the reason for the hold-up at security?,"Toward which gate are the clients walking?
","What section and seat does each client sit in on the plane?
",Are the security guards friendly or rude?,Are the airport restrooms clean?,Airport Customer Experience Manager,,,,,,,,,,,,,,,,,,,,,,,,,,,,,0,5,5,4,1,0,1,0,,,,,,,,,,,,,,,,,,,,,,,,,,,,,,,space,1.667248863000168,space,5.986840636999659,space,1.1693138880000333,space,2.952889657999549,space,3.1698540229999708,space,0.967455283000163,,,,,090419_p1,001,2019_Sep_04_0910,part1_subjective_segmentation,3.0.4,59.98780627864927,
,jobphotos/acem.jpg,,"When the clients arrive at the airport, how much time do they have until their flight departs?
",What is the reason for the hold-up at security?,"Toward which gate are the clients walking?
","What section and seat does each client sit in on the plane?
",Are the security guards friendly or rude?,Are the airport restrooms clean?,Airport Customer Experience Manager,,,,,,,,,,,,,,,,,,,,,,,,,,,,,0,5,5,4,,,,,,,,,,,,,,,,,,,,,,,,,,,,,,,,,,,,,,,,,,,,,,,,,,,090419_p1,001,2019_Sep_04_0910,part1_subjective_segmentation,3.0.4,59.98780627864927,
,jobphotos/gscem.jpg,,"What is the grocery store like upon entering?
",What items do the clients pick out to buy?,"How many checkout lanes are open, and which one do the clients step into?
","How much are the groceries, and what method of payment do the clients use?
",How long does it take for the cashier to scan all of the customers’ groceries?,What type of grocery bags do the clients use?,"Grocery Store Customer Experience Manager
",,,,,,,,,,,,,,,,,,,,,,,,,,,,,0,6,6,5,0,0,0,0,,,,,,,,,,,,,,,,,,,,,,,,,,,,,,,space,1.6532757529994342,space,3.303222049999931,space,7.402873613000338,space,5.703654087999894,space,6.453963370000565,space,0.6031132079997406,,,,,090419_p1,001,2019_Sep_04_0910,part1_subjective_segmentation,3.0.4,59.98780627864927,
,jobphotos/gscem.jpg,,"What is the grocery store like upon entering?
",What items do the clients pick out to buy?,"How many checkout lanes are open, and which one do the clients step into?
","How much are the groceries, and what method of payment do the clients use?
",How long does it take for the cashier to scan all of the customers’ groceries?,What type of grocery bags do the clients use?,"Grocery Store Customer Experience Manager
",,,,,,,,,,,,,,,,,,,,,,,,,,,,,0,6,6,5,,,,,,,,,,,,,,,,,,,,,,,,,,,,,,,,,,,,,,,,,,,,,,,,,,,090419_p1,001,2019_Sep_04_0910,part1_subjective_segmentation,3.0.4,59.98780627864927,
,jobphotos/business_reporter.jpg,,What is each business person’s job title?,"How much money is at stake in the initial offer made?
",What is the name of the other industry competitor? ,With what gesture do the business partners secure the deal?,Is the deal fair?,How long does it take to make the deal?,Business Reporter,,,,,,,,,,,,,,,,,,,,,,,,,,,,,0,7,7,0,0,0,0,0,,,,,,,,,,,,,,,,,,,,,,,,,,,,,,,space,2.950832894999621,space,17.518576932999167,space,6.2034240700004375,space,4.520298702999753,space,14.137328643000728,space,1.5864821450004456,,,,,090419_p1,001,2019_Sep_04_0910,part1_subjective_segmentation,3.0.4,59.98780627864927,
,jobphotos/business_reporter.jpg,,What is each business person’s job title?,"How much money is at stake in the initial offer made?
",What is the name of the other industry competitor? ,With what gesture do the business partners secure the deal?,Is the deal fair?,How long does it take to make the deal?,Business Reporter,,,,,,,,,,,,,,,,,,,,,,,,,,,,,0,7,7,0,1,0,1,0,,,,,,,,,,,,,,,,,,,,,,,,,,,,,,,space,2.2030554900002244,space,1.5198025179997785,space,1.2025446729994655,space,2.469920622000245,space,1.6862864749991786,space,1.0027855199996338,,,,,090419_p1,001,2019_Sep_04_0910,part1_subjective_segmentation,3.0.4,59.98780627864927,
,jobphotos/business_reporter.jpg,,What is each business person’s job title?,"How much money is at stake in the initial offer made?
",What is the name of the other industry competitor? ,With what gesture do the business partners secure the deal?,Is the deal fair?,How long does it take to make the deal?,Business Reporter,,,,,,,,,,,,,,,,,,,,,,,,,,,,,0,7,7,0,,,,,,,,,,,,,,,,,,,,,,,,,,,,,,,,,,,,,,,,,,,,,,,,,,,090419_p1,001,2019_Sep_04_0910,part1_subjective_segmentation,3.0.4,59.98780627864927,
,jobphotos/business_reporter.jpg,,What is each business person’s job title?,"How much money is at stake in the initial offer made?
",What is the name of the other industry competitor? ,With what gesture do the business partners secure the deal?,Is the deal fair?,How long does it take to make the deal?,Business Reporter,,,,,,,,,,,,,,,,,,,,,,,,,,,,,,,,,,,,,0,0,0,0,0,0,0,0,,,,,,,,,,,,,,,,,,,,,,,,,,,,,,,,,,,space,1.8867804829997112,,,090419_p1,001,2019_Sep_04_0910,part1_subjective_segmentation,3.0.4,59.98780627864927,
,jobphotos/business_reporter.jpg,,What is each business person’s job title?,"How much money is at stake in the initial offer made?
",What is the name of the other industry competitor? ,With what gesture do the business partners secure the deal?,Is the deal fair?,How long does it take to make the deal?,Business Reporter,,,,,,,,,,,,,,,,,,,,,,,,,,,,,,,,,,,,,0,0,0,0,,,,,,,,,,,,,,,,,,,,,,,,,,,,,,,,,,,,,,,,,,,090419_p1,001,2019_Sep_04_0910,part1_subjective_segmentation,3.0.4,59.98780627864927,
,jobphotos/restaurant_critic.jpg,,How is the restaurant decorated?,What are the menus like?,"What does each client order?
",How do the clients like the food?,How old is the waiter?,What meal is being served?,Restaurant Critic,,,,,,,,,,,,,,,,,,,,,,,,,,,,,,,,,,,,,0,1,1,1,0,0,0,0,,,,,,,,,,,,,,,,,,,,,,,,,,,,,,,,,,,space,2.020270922999771,,,090419_p1,001,2019_Sep_04_0910,part1_subjective_segmentation,3.0.4,59.98780627864927,
,jobphotos/restaurant_critic.jpg,,How is the restaurant decorated?,What are the menus like?,"What does each client order?
",How do the clients like the food?,How old is the waiter?,What meal is being served?,Restaurant Critic,,,,,,,,,,,,,,,,,,,,,,,,,,,,,,,,,,,,,0,1,1,1,,,,,,,,,,,,,,,,,,,,,,,,,,,,,,,,,,,,,,,,,,,090419_p1,001,2019_Sep_04_0910,part1_subjective_segmentation,3.0.4,59.98780627864927,
,jobphotos/matchmaker.jpg,,What object is the initiator of the interaction holding when he/she first notices the other person?,What is the initial question that begins the conversation between the couple?,When will be the next time the couple meets and for what occasion?,"What time is it when the couple parts?
",Is the couple going to get married?,Who shows more interest?,Matchmaker,,,,,,,,,,,,,,,,,,,,,,,,,,,,,,,,,,,,,0,2,2,2,0,0,0,0,,,,,,,,,,,,,,,,,,,,,,,,,,,,,,,,,,,space,0.9512225139997099,,,090419_p1,001,2019_Sep_04_0910,part1_subjective_segmentation,3.0.4,59.98780627864927,
,jobphotos/matchmaker.jpg,,What object is the initiator of the interaction holding when he/she first notices the other person?,What is the initial question that begins the conversation between the couple?,When will be the next time the couple meets and for what occasion?,"What time is it when the couple parts?
",Is the couple going to get married?,Who shows more interest?,Matchmaker,,,,,,,,,,,,,,,,,,,,,,,,,,,,,,,,,,,,,0,2,2,2,,,,,,,,,,,,,,,,,,,,,,,,,,,,,,,,,,,,,,,,,,,090419_p1,001,2019_Sep_04_0910,part1_subjective_segmentation,3.0.4,59.98780627864927,
,jobphotos/weddingplanner.jpg,,For how long has the couple been dating?,"How many diamonds are on the ring, and what is the diamond color?","In/on what item is the ring presented?
","Who does the new fiancee text first?
",Is anyone taking pictures of the proposal?,How long does the proposal take?,Wedding Planner,,,,,,,,,,,,,,,,,,,,,,,,,,,,,,,,,,,,,0,3,3,3,0,0,0,0,,,,,,,,,,,,,,,,,,,,,,,,,,,,,,,,,,,space,1.4530940230006308,,,090419_p1,001,2019_Sep_04_0910,part1_subjective_segmentation,3.0.4,59.98780627864927,
,jobphotos/weddingplanner.jpg,,For how long has the couple been dating?,"How many diamonds are on the ring, and what is the diamond color?","In/on what item is the ring presented?
","Who does the new fiancee text first?
",Is anyone taking pictures of the proposal?,How long does the proposal take?,Wedding Planner,,,,,,,,,,,,,,,,,,,,,,,,,,,,,,,,,,,,,0,3,3,3,,,,,,,,,,,,,,,,,,,,,,,,,,,,,,,,,,,,,,,,,,,090419_p1,001,2019_Sep_04_0910,part1_subjective_segmentation,3.0.4,59.98780627864927,
,jobphotos/acem.jpg,,"When the clients arrive at the airport, how much time do they have until their flight departs?
",What is the reason for the hold-up at security?,"Toward which gate are the clients walking?
","What section and seat does each client sit in on the plane?
",Are the security guards friendly or rude?,Are the airport restrooms clean?,Airport Customer Experience Manager,,,,,,,,,,,,,,,,,,,,,,,,,,,,,,,,,,,,,0,4,4,4,0,0,0,0,,,,,,,,,,,,,,,,,,,,,,,,,,,,,,,,,,,space,1.219396372999654,,,090419_p1,001,2019_Sep_04_0910,part1_subjective_segmentation,3.0.4,59.98780627864927,
,jobphotos/acem.jpg,,"When the clients arrive at the airport, how much time do they have until their flight departs?
",What is the reason for the hold-up at security?,"Toward which gate are the clients walking?
","What section and seat does each client sit in on the plane?
",Are the security guards friendly or rude?,Are the airport restrooms clean?,Airport Customer Experience Manager,,,,,,,,,,,,,,,,,,,,,,,,,,,,,,,,,,,,,0,4,4,4,,,,,,,,,,,,,,,,,,,,,,,,,,,,,,,,,,,,,,,,,,,090419_p1,001,2019_Sep_04_0910,part1_subjective_segmentation,3.0.4,59.98780627864927,
,jobphotos/gscem.jpg,,"What is the grocery store like upon entering?
",What items do the clients pick out to buy?,"How many checkout lanes are open, and which one do the clients step into?
","How much are the groceries, and what method of payment do the clients use?
",How long does it take for the cashier to scan all of the customers’ groceries?,What type of grocery bags do the clients use?,"Grocery Store Customer Experience Manager
",,,,,,,,,,,,,,,,,,,,,,,,,,,,,,,,,,,,,0,5,5,5,0,0,0,0,,,,,,,,,,,,,,,,,,,,,,,,,,,,,,,,,,,space,0.9862299900005382,,,090419_p1,001,2019_Sep_04_0910,part1_subjective_segmentation,3.0.4,59.98780627864927,
,jobphotos/gscem.jpg,,"What is the grocery store like upon entering?
",What items do the clients pick out to buy?,"How many checkout lanes are open, and which one do the clients step into?
","How much are the groceries, and what method of payment do the clients use?
",How long does it take for the cashier to scan all of the customers’ groceries?,What type of grocery bags do the clients use?,"Grocery Store Customer Experience Manager
",,,,,,,,,,,,,,,,,,,,,,,,,,,,,,,,,,,,,0,5,5,5,,,,,,,,,,,,,,,,,,,,,,,,,,,,,,,,,,,,,,,,,,,090419_p1,001,2019_Sep_04_0910,part1_subjective_segmentation,3.0.4,59.98780627864927,
,jobphotos/dean.jpg,,"What is the lecture hall like?
","What class are the students in, and what is the day’s lecture about?
","What is something taught in lecture?
","What is the next assessment/assignment for the class, and when is it scheduled/due?",Are the students paying attention?,Are the desks comfortable?,Dean of Academic Studies,,,,,,,,,,,,,,,,,,,,,,,,,,,,,,,,,,,,,0,6,6,6,0,0,0,0,,,,,,,,,,,,,,,,,,,,,,,,,,,,,,,,,,,space,1.2198744750003243,,,090419_p1,001,2019_Sep_04_0910,part1_subjective_segmentation,3.0.4,59.98780627864927,
,jobphotos/dean.jpg,,"What is the lecture hall like?
","What class are the students in, and what is the day’s lecture about?
","What is something taught in lecture?
","What is the next assessment/assignment for the class, and when is it scheduled/due?",Are the students paying attention?,Are the desks comfortable?,Dean of Academic Studies,,,,,,,,,,,,,,,,,,,,,,,,,,,,,,,,,,,,,0,6,6,6,,,,,,,,,,,,,,,,,,,,,,,,,,,,,,,,,,,,,,,,,,,090419_p1,001,2019_Sep_04_0910,part1_subjective_segmentation,3.0.4,59.98780627864927,
,jobphotos/couples.jpg,,For how long has the initiator of the breakup been thinking about breaking up with his/her partner?,"What is the initial reason stated by the initiator for why he/she is breaking up?
","Does the person who is being broken up with want to break up, and what’s the reason stated by the person being broken up with that he/she does or does not want to break up?
",Who wants what items back as a result of the breakup?,Does the person being broken up with expect that this is coming?,Who witnesses the breakup?,"Couples Therapist
",,,,,,,,,,,,,,,,,,,,,,,,,,,,,,,,,,,,,0,7,7,7,0,0,0,0,,,,,,,,,,,,,,,,,,,,,,,,,,,,,,,,,,,space,1.1529616529987834,,,090419_p1,001,2019_Sep_04_0910,part1_subjective_segmentation,3.0.4,59.98780627864927,
,jobphotos/couples.jpg,,For how long has the initiator of the breakup been thinking about breaking up with his/her partner?,"What is the initial reason stated by the initiator for why he/she is breaking up?
","Does the person who is being broken up with want to break up, and what’s the reason stated by the person being broken up with that he/she does or does not want to break up?
",Who wants what items back as a result of the breakup?,Does the person being broken up with expect that this is coming?,Who witnesses the breakup?,"Couples Therapist
",,,,,,,,,,,,,,,,,,,,,,,,,,,,,,,,,,,,,0,7,7,7,,,,,,,,,,,,,,,,,,,,,,,,,,,,,,,,,,,,,,,,,,,090419_p1,001,2019_Sep_04_0910,part1_subjective_segmentation,3.0.4,59.98780627864927,
Great job! You’ve finished the quizzes and Part 1. Please notify the researcher that you have finished. ,,,,,,,,,,,,,,,,,,,,,,,,,,,,,,,,,,,,,,,,,,,,,,,,,,,,,,0,0,0,0,,,space,37.20621853500052,,,,,,,,,,,,,,,,,,,,,,,,,,,,,,,090419_p1,001,2019_Sep_04_0910,part1_subjective_segmentation,3.0.4,59.98780627864927,
Let's begin Part 2! ,,,,,,,,,,,,,,,,,,,,,,,,,,,,,,,,,,,,,,,,,,,,,,,,,,,,,,0,1,1,1,,,space,2.386497404999318,,,,,,,,,,,,,,,,,,,,,,,,,,,,,,,090419_p1,001,2019_Sep_04_0910,part1_subjective_segmentation,3.0.4,59.98780627864927,
"You are about to begin the second part of the experiment, where you will listen to the short stories. ",,,,,,,,,,,,,,,,,,,,,,,,,,,,,,,,,,,,,,,,,,,,,,,,,,,,,,0,2,2,2,,,space,3.153231764999873,,,,,,,,,,,,,,,,,,,,,,,,,,,,,,,090419_p1,001,2019_Sep_04_0910,part1_subjective_segmentation,3.0.4,59.98780627864927,
"As a reminder, you'll be assigned a perspective and given the corresponding quiz before each story. ",,,,,,,,,,,,,,,,,,,,,,,,,,,,,,,,,,,,,,,,,,,,,,,,,,,,,,0,3,3,3,,,space,6.584508507999999,,,,,,,,,,,,,,,,,,,,,,,,,,,,,,,090419_p1,001,2019_Sep_04_0910,part1_subjective_segmentation,3.0.4,59.98780627864927,
"The stories will be presented to you sentence by sentence, such that you will listen to each sentence individually.",,,,,,,,,,,,,,,,,,,,,,,,,,,,,,,,,,,,,,,,,,,,,,,,,,,,,,0,4,4,4,,,space,5.720190418000129,,,,,,,,,,,,,,,,,,,,,,,,,,,,,,,090419_p1,001,2019_Sep_04_0910,part1_subjective_segmentation,3.0.4,59.98780627864927,
"IMPORTANT! While listening to each story, you will additionally have to make a judgement about each sentence in order to advance to the next sentence. ",,,,,,,,,,,,,,,,,,,,,,,,,,,,,,,,,,,,,,,,,,,,,,,,,,,,,,0,5,5,5,,,space,9.537088623001182,,,,,,,,,,,,,,,,,,,,,,,,,,,,,,,090419_p1,001,2019_Sep_04_0910,part1_subjective_segmentation,3.0.4,59.98780627864927,
Some people feel that the stories have natural “parts.” We want you to make a judgement about when you think the story has transitioned from one “part” to another. ,,,,,,,,,,,,,,,,,,,,,,,,,,,,,,,,,,,,,,,,,,,,,,,,,,,,,,0,6,6,6,,,space,10.753946933000407,,,,,,,,,,,,,,,,,,,,,,,,,,,,,,,090419_p1,001,2019_Sep_04_0910,part1_subjective_segmentation,3.0.4,59.98780627864927,
You will press “9” if you think the sentence you just listened to has begun a new “part” of the story. ,,,,,,,,,,,,,,,,,,,,,,,,,,,,,,,,,,,,,,,,,,,,,,,,,,,,,,0,7,7,7,,,space,6.0534637500004465,,,,,,,,,,,,,,,,,,,,,,,,,,,,,,,090419_p1,001,2019_Sep_04_0910,part1_subjective_segmentation,3.0.4,59.98780627864927,
"For example, you should press “9” at the beginning of a story and when you think a different “part” in the story has begun. ",,,,,,,,,,,,,,,,,,,,,,,,,,,,,,,,,,,,,,,,,,,,,,,,,,,,,,0,8,8,8,,,space,5.869917739999437,,,,,,,,,,,,,,,,,,,,,,,,,,,,,,,090419_p1,001,2019_Sep_04_0910,part1_subjective_segmentation,3.0.4,59.98780627864927,
You will press “1” if you think the sentence was in the same “part” as the sentence that came before it. ,,,,,,,,,,,,,,,,,,,,,,,,,,,,,,,,,,,,,,,,,,,,,,,,,,,,,,0,9,9,9,,,space,10.6013964699996,,,,,,,,,,,,,,,,,,,,,,,,,,,,,,,090419_p1,001,2019_Sep_04_0910,part1_subjective_segmentation,3.0.4,59.98780627864927,
There are no “right” answers. We want to see what you think these parts are. ,,,,,,,,,,,,,,,,,,,,,,,,,,,,,,,,,,,,,,,,,,,,,,,,,,,,,,0,10,10,10,,,space,6.684443014999488,,,,,,,,,,,,,,,,,,,,,,,,,,,,,,,090419_p1,001,2019_Sep_04_0910,part1_subjective_segmentation,3.0.4,59.98780627864927,
"Once you make the decision that each sentence has begun a new part of the story or not by pressing "9" or "1", the next sentence in the story will begin to play. ",,,,,,,,,,,,,,,,,,,,,,,,,,,,,,,,,,,,,,,,,,,,,,,,,,,,,,0,11,11,11,,,space,8.886910532999536,,,,,,,,,,,,,,,,,,,,,,,,,,,,,,,090419_p1,001,2019_Sep_04_0910,part1_subjective_segmentation,3.0.4,59.98780627864927,
You will not be able to go back to previous sentences or change the judgement you made about a previous sentence. ,,,,,,,,,,,,,,,,,,,,,,,,,,,,,,,,,,,,,,,,,,,,,,,,,,,,,,0,12,12,12,,,space,6.3034382369987725,,,,,,,,,,,,,,,,,,,,,,,,,,,,,,,090419_p1,001,2019_Sep_04_0910,part1_subjective_segmentation,3.0.4,59.98780627864927,
"Please use both index fingers during the story listening, with one resting on the “1” and the other on the “9.”",,,,,,,,,,,,,,,,,,,,,,,,,,,,,,,,,,,,,,,,,,,,,,,,,,,,,,0,13,13,13,,,space,3.4033198050001374,,,,,,,,,,,,,,,,,,,,,,,,,,,,,,,090419_p1,001,2019_Sep_04_0910,part1_subjective_segmentation,3.0.4,59.98780627864927,
You will not be able to make your judgement about whether the sentence begins a new part or not until the sentence has finished playing. ,,,,,,,,,,,,,,,,,,,,,,,,,,,,,,,,,,,,,,,,,,,,,,,,,,,,,,0,14,14,14,,,space,10.303653332999602,,,,,,,,,,,,,,,,,,,,,,,,,,,,,,,090419_p1,001,2019_Sep_04_0910,part1_subjective_segmentation,3.0.4,59.98780627864927,
Questions?,,,,,,,,,,,,,,,,,,,,,,,,,,,,,,,,,,,,,,,,,,,,,,,,,,,,,,0,15,15,15,,,space,29.338331648001258,,,,,,,,,,,,,,,,,,,,,,,,,,,,,,,090419_p1,001,2019_Sep_04_0910,part1_subjective_segmentation,3.0.4,59.98780627864927,
,,,,,,,,,,,,,,,,,,,,,,,,,,,,,,,,,,,,,,,,,,,,,,,,,,,,,,,,,,,,,,,,,,,,,,,,,,,,,,,,,,,,,,,,,,space,0.5030578299993067,090419_p1,001,2019_Sep_04_0910,part1_subjective_segmentation,3.0.4,59.98780627864927,
