count,audio,instructText,trials.thisRepN,trials.thisTrialN,trials.thisN,trials.thisIndex,trials_7.thisRepN,trials_7.thisTrialN,trials_7.thisN,trials_7.thisIndex,trials_2.thisRepN,trials_2.thisTrialN,trials_2.thisN,trials_2.thisIndex,trials_3.thisRepN,trials_3.thisTrialN,trials_3.thisN,trials_3.thisIndex,trials_4.thisRepN,trials_4.thisTrialN,trials_4.thisN,trials_4.thisIndex,trials_5.thisRepN,trials_5.thisTrialN,trials_5.thisN,trials_5.thisIndex,trials_6.thisRepN,trials_6.thisTrialN,trials_6.thisN,trials_6.thisIndex,trials_8.thisRepN,trials_8.thisTrialN,trials_8.thisN,trials_8.thisIndex,order of stories,order of perspectives,participant 2 order - stories,participant 2 order  - schemas types,key_resp_8.keys,key_resp_8.rt,key_resp_5.keys,key_resp_5.rt,key_resp_7.keys,key_resp_7.rt,key_resp_15.keys,key_resp_15.rt,key_resp_14.keys,key_resp_14.rt,story_presses.keys,story_presses.rt,key_resp_16.keys,key_resp_16.rt,story time,key_resp_6.keys,key_resp_6.rt,key_resp_2.keys,key_resp_2.rt,key_resp_10.keys,key_resp_10.rt,recall,recall time,key_resp_12.keys,key_resp_12.rt,key_resp_3.keys,key_resp_3.rt,key_resp_11.keys,key_resp_11.rt,question1_answer,order of question,question2_answer,question3_answer,question4_answer,question5_answer,question6_answer,question7_answer,question8_answer,questions time,key_resp_13.keys,key_resp_13.rt,participant,session,date,expName,psychopyVersion,frameRate,
0,,,0,0,0,0,0,0,0,0,,,,,,,,,,,,,,,,,,,,,,,,,[24 21 33 11 43 42 32 14 12 13 41 23 34 22 44 31],"['Location' 'Social' 'Social' 'Location' 'Location' 'Social' 'Location'
 'Social' 'Social' 'Location' 'Location' 'Social' 'Location' 'Location'
 'Social' 'Social']",[12 13 41 23 34 22 44 31],"['Social' 'Location' 'Location' 'Social' 'Location' 'Location' 'Social'
 'Social']",space,83.22753665500022,space,3.152508510000189,space,4.6688834779997705,,,,,,,,,,,,,,,,,,,,,,,,,,,,,,,,,,,,090419_p1,001,2019_Sep_04_0934,body_behavioural,3.0.4,60.042843450477434,
0,parcelated_audio/24/24_1.aiff,,0,0,0,0,,,,,0,0,0,0,,,,,,,,,,,,,,,,,,,,,,,,,,,,,,,space,4.203998013999808,space,3.6535778020006546,9,83.20793570599926,,,,,,,,,,,,,,,,,,,,,,,,,,,,,,090419_p1,001,2019_Sep_04_0934,body_behavioural,3.0.4,60.042843450477434,
0,parcelated_audio/24/24_2.aiff,,0,0,0,0,,,,,0,1,1,1,,,,,,,,,,,,,,,,,,,,,,,,,,,,,,,,,,,9,1.6373682319990621,,,,,,,,,,,,,,,,,,,,,,,,,,,,,,090419_p1,001,2019_Sep_04_0934,body_behavioural,3.0.4,60.042843450477434,
0,parcelated_audio/24/24_3.aiff,,0,0,0,0,,,,,0,2,2,2,,,,,,,,,,,,,,,,,,,,,,,,,,,,,,,,,,,9,10.03721552999923,,,,,,,,,,,,,,,,,,,,,,,,,,,,,,090419_p1,001,2019_Sep_04_0934,body_behavioural,3.0.4,60.042843450477434,
0,parcelated_audio/24/24_4.aiff,,0,0,0,0,,,,,0,3,3,3,,,,,,,,,,,,,,,,,,,,,,,,,,,,,,,,,,,1,6.486629621998873,,,,,,,,,,,,,,,,,,,,,,,,,,,,,,090419_p1,001,2019_Sep_04_0934,body_behavioural,3.0.4,60.042843450477434,
0,parcelated_audio/24/24_5.aiff,,0,0,0,0,,,,,0,4,4,4,,,,,,,,,,,,,,,,,,,,,,,,,,,,,,,,,,,1,0.33635058399886475,,,,,,,,,,,,,,,,,,,,,,,,,,,,,,090419_p1,001,2019_Sep_04_0934,body_behavioural,3.0.4,60.042843450477434,
0,parcelated_audio/24/24_6.aiff,,0,0,0,0,,,,,0,5,5,5,,,,,,,,,,,,,,,,,,,,,,,,,,,,,,,,,,,1,1.5702867990003142,,,,,,,,,,,,,,,,,,,,,,,,,,,,,,090419_p1,001,2019_Sep_04_0934,body_behavioural,3.0.4,60.042843450477434,
0,parcelated_audio/24/24_7.aiff,,0,0,0,0,,,,,0,6,6,6,,,,,,,,,,,,,,,,,,,,,,,,,,,,,,,,,,,1,1.3669693339998048,,,,,,,,,,,,,,,,,,,,,,,,,,,,,,090419_p1,001,2019_Sep_04_0934,body_behavioural,3.0.4,60.042843450477434,
0,parcelated_audio/24/24_8.aiff,,0,0,0,0,,,,,0,7,7,7,,,,,,,,,,,,,,,,,,,,,,,,,,,,,,,,,,,1,0.40321877699898323,,,,,,,,,,,,,,,,,,,,,,,,,,,,,,090419_p1,001,2019_Sep_04_0934,body_behavioural,3.0.4,60.042843450477434,
0,parcelated_audio/24/24_9.aiff,,0,0,0,0,,,,,0,8,8,8,,,,,,,,,,,,,,,,,,,,,,,,,,,,,,,,,,,1,0.5352148649999435,,,,,,,,,,,,,,,,,,,,,,,,,,,,,,090419_p1,001,2019_Sep_04_0934,body_behavioural,3.0.4,60.042843450477434,
0,parcelated_audio/24/24_10.aiff,,0,0,0,0,,,,,0,9,9,9,,,,,,,,,,,,,,,,,,,,,,,,,,,,,,,,,,,1,6.517682349998722,,,,,,,,,,,,,,,,,,,,,,,,,,,,,,090419_p1,001,2019_Sep_04_0934,body_behavioural,3.0.4,60.042843450477434,
0,parcelated_audio/24/24_11.aiff,,0,0,0,0,,,,,0,10,10,10,,,,,,,,,,,,,,,,,,,,,,,,,,,,,,,,,,,1,0.15393677599968214,,,,,,,,,,,,,,,,,,,,,,,,,,,,,,090419_p1,001,2019_Sep_04_0934,body_behavioural,3.0.4,60.042843450477434,
0,parcelated_audio/24/24_12.aiff,,0,0,0,0,,,,,0,11,11,11,,,,,,,,,,,,,,,,,,,,,,,,,,,,,,,,,,,9,3.9871915120002086,,,,,,,,,,,,,,,,,,,,,,,,,,,,,,090419_p1,001,2019_Sep_04_0934,body_behavioural,3.0.4,60.042843450477434,
0,parcelated_audio/24/24_13.aiff,,0,0,0,0,,,,,0,12,12,12,,,,,,,,,,,,,,,,,,,,,,,,,,,,,,,,,,,1,1.0712741339993954,,,,,,,,,,,,,,,,,,,,,,,,,,,,,,090419_p1,001,2019_Sep_04_0934,body_behavioural,3.0.4,60.042843450477434,
0,parcelated_audio/24/24_14.aiff,,0,0,0,0,,,,,0,13,13,13,,,,,,,,,,,,,,,,,,,,,,,,,,,,,,,,,,,1,0.5863549870009592,,,,,,,,,,,,,,,,,,,,,,,,,,,,,,090419_p1,001,2019_Sep_04_0934,body_behavioural,3.0.4,60.042843450477434,
0,parcelated_audio/24/24_15.aiff,,0,0,0,0,,,,,0,14,14,14,,,,,,,,,,,,,,,,,,,,,,,,,,,,,,,,,,,1,0.8012018429999443,,,,,,,,,,,,,,,,,,,,,,,,,,,,,,090419_p1,001,2019_Sep_04_0934,body_behavioural,3.0.4,60.042843450477434,
0,parcelated_audio/24/24_16.aiff,,0,0,0,0,,,,,0,15,15,15,,,,,,,,,,,,,,,,,,,,,,,,,,,,,,,,,,,9,0.5867387000016606,,,,,,,,,,,,,,,,,,,,,,,,,,,,,,090419_p1,001,2019_Sep_04_0934,body_behavioural,3.0.4,60.042843450477434,
0,parcelated_audio/24/24_17.aiff,,0,0,0,0,,,,,0,16,16,16,,,,,,,,,,,,,,,,,,,,,,,,,,,,,,,,,,,9,0.41977437999958056,,,,,,,,,,,,,,,,,,,,,,,,,,,,,,090419_p1,001,2019_Sep_04_0934,body_behavioural,3.0.4,60.042843450477434,
0,parcelated_audio/24/24_18.aiff,,0,0,0,0,,,,,0,17,17,17,,,,,,,,,,,,,,,,,,,,,,,,,,,,,,,,,,,1,2.336401795999336,,,,,,,,,,,,,,,,,,,,,,,,,,,,,,090419_p1,001,2019_Sep_04_0934,body_behavioural,3.0.4,60.042843450477434,
0,parcelated_audio/24/24_19.aiff,,0,0,0,0,,,,,0,18,18,18,,,,,,,,,,,,,,,,,,,,,,,,,,,,,,,,,,,1,1.285641245000079,,,,,,,,,,,,,,,,,,,,,,,,,,,,,,090419_p1,001,2019_Sep_04_0934,body_behavioural,3.0.4,60.042843450477434,
0,parcelated_audio/24/24_20.aiff,,0,0,0,0,,,,,0,19,19,19,,,,,,,,,,,,,,,,,,,,,,,,,,,,,,,,,,,9,5.653395172999808,,,,,,,,,,,,,,,,,,,,,,,,,,,,,,090419_p1,001,2019_Sep_04_0934,body_behavioural,3.0.4,60.042843450477434,
0,parcelated_audio/24/24_21.aiff,,0,0,0,0,,,,,0,20,20,20,,,,,,,,,,,,,,,,,,,,,,,,,,,,,,,,,,,1,3.187167660000341,,,,,,,,,,,,,,,,,,,,,,,,,,,,,,090419_p1,001,2019_Sep_04_0934,body_behavioural,3.0.4,60.042843450477434,
0,parcelated_audio/24/24_22.aiff,,0,0,0,0,,,,,0,21,21,21,,,,,,,,,,,,,,,,,,,,,,,,,,,,,,,,,,,9,5.686551610000606,,,,,,,,,,,,,,,,,,,,,,,,,,,,,,090419_p1,001,2019_Sep_04_0934,body_behavioural,3.0.4,60.042843450477434,
0,parcelated_audio/24/24_23.aiff,,0,0,0,0,,,,,0,22,22,22,,,,,,,,,,,,,,,,,,,,,,,,,,,,,,,,,,,1,0.8177973829988332,,,,,,,,,,,,,,,,,,,,,,,,,,,,,,090419_p1,001,2019_Sep_04_0934,body_behavioural,3.0.4,60.042843450477434,
0,parcelated_audio/24/24_24.aiff,,0,0,0,0,,,,,0,23,23,23,,,,,,,,,,,,,,,,,,,,,,,,,,,,,,,,,,,9,4.270822602999033,,,,,,,,,,,,,,,,,,,,,,,,,,,,,,090419_p1,001,2019_Sep_04_0934,body_behavioural,3.0.4,60.042843450477434,
0,parcelated_audio/24/24_25.aiff,,0,0,0,0,,,,,0,24,24,24,,,,,,,,,,,,,,,,,,,,,,,,,,,,,,,,,,,1,0.4514804650007136,,,,,,,,,,,,,,,,,,,,,,,,,,,,,,090419_p1,001,2019_Sep_04_0934,body_behavioural,3.0.4,60.042843450477434,
0,parcelated_audio/24/24_26.aiff,,0,0,0,0,,,,,0,25,25,25,,,,,,,,,,,,,,,,,,,,,,,,,,,,,,,,,,,1,1.2525041540011443,,,,,,,,,,,,,,,,,,,,,,,,,,,,,,090419_p1,001,2019_Sep_04_0934,body_behavioural,3.0.4,60.042843450477434,
0,parcelated_audio/24/24_27.aiff,,0,0,0,0,,,,,0,26,26,26,,,,,,,,,,,,,,,,,,,,,,,,,,,,,,,,,,,9,0.7187362419990677,,,,,,,,,,,,,,,,,,,,,,,,,,,,,,090419_p1,001,2019_Sep_04_0934,body_behavioural,3.0.4,60.042843450477434,
0,parcelated_audio/24/24_28.aiff,,0,0,0,0,,,,,0,27,27,27,,,,,,,,,,,,,,,,,,,,,,,,,,,,,,,,,,,1,0.4875208119992749,,,,,,,,,,,,,,,,,,,,,,,,,,,,,,090419_p1,001,2019_Sep_04_0934,body_behavioural,3.0.4,60.042843450477434,
0,parcelated_audio/24/24_29.aiff,,0,0,0,0,,,,,0,28,28,28,,,,,,,,,,,,,,,,,,,,,,,,,,,,,,,,,,,1,0.3691022699986206,,,,,,,,,,,,,,,,,,,,,,,,,,,,,,090419_p1,001,2019_Sep_04_0934,body_behavioural,3.0.4,60.042843450477434,
0,parcelated_audio/24/24_30.aiff,,0,0,0,0,,,,,0,29,29,29,,,,,,,,,,,,,,,,,,,,,,,,,,,,,,,,,,,9,3.836356940000769,,,,,,,,,,,,,,,,,,,,,,,,,,,,,,090419_p1,001,2019_Sep_04_0934,body_behavioural,3.0.4,60.042843450477434,
0,parcelated_audio/24/24_31.aiff,,0,0,0,0,,,,,0,30,30,30,,,,,,,,,,,,,,,,,,,,,,,,,,,,,,,,,,,1,0.4532864740012883,,,,,,,,,,,,,,,,,,,,,,,,,,,,,,090419_p1,001,2019_Sep_04_0934,body_behavioural,3.0.4,60.042843450477434,
0,parcelated_audio/24/24_32.aiff,,0,0,0,0,,,,,0,31,31,31,,,,,,,,,,,,,,,,,,,,,,,,,,,,,,,,,,,9,0.6499245499999233,,,,,,,,,,,,,,,,,,,,,,,,,,,,,,090419_p1,001,2019_Sep_04_0934,body_behavioural,3.0.4,60.042843450477434,
0,,,0,0,0,0,,,,,,,,,,,,,,,,,,,,,,,,,,,,,,,,,,,,,,,,,,,,,space,3.752927946999989,,,,,,,,,,,,,,,,,,,,,,,,,,,,090419_p1,001,2019_Sep_04_0934,body_behavioural,3.0.4,60.042843450477434,
1,,,0,1,1,1,0,0,0,0,,,,,,,,,,,,,,,,,,,,,,,,,,,,,space,1.1009840499991697,space,1.437743180000325,space,1.1191426810000848,,,,,,,,,,,,,,,,,,,,,,,,,,,,,,,,,,,,090419_p1,001,2019_Sep_04_0934,body_behavioural,3.0.4,60.042843450477434,
1,parcelated_audio/21/21_1.aiff,,0,1,1,1,,,,,0,0,0,0,,,,,,,,,,,,,,,,,,,,,,,,,,,,,,,space,2.5201427320007497,space,4.054187419998925,9,1.0001382670016028,,,,,,,,,,,,,,,,,,,,,,,,,,,,,,090419_p1,001,2019_Sep_04_0934,body_behavioural,3.0.4,60.042843450477434,
1,parcelated_audio/21/21_2.aiff,,0,1,1,1,,,,,0,1,1,1,,,,,,,,,,,,,,,,,,,,,,,,,,,,,,,,,,,1,0.06911126699924353,,,,,,,,,,,,,,,,,,,,,,,,,,,,,,090419_p1,001,2019_Sep_04_0934,body_behavioural,3.0.4,60.042843450477434,
1,parcelated_audio/21/21_3.aiff,,0,1,1,1,,,,,0,2,2,2,,,,,,,,,,,,,,,,,,,,,,,,,,,,,,,,,,,1,1.3362342340005853,,,,,,,,,,,,,,,,,,,,,,,,,,,,,,090419_p1,001,2019_Sep_04_0934,body_behavioural,3.0.4,60.042843450477434,
1,parcelated_audio/21/21_4.aiff,,0,1,1,1,,,,,0,3,3,3,,,,,,,,,,,,,,,,,,,,,,,,,,,,,,,,,,,1,0.8371097349991032,,,,,,,,,,,,,,,,,,,,,,,,,,,,,,090419_p1,001,2019_Sep_04_0934,body_behavioural,3.0.4,60.042843450477434,
1,parcelated_audio/21/21_5.aiff,,0,1,1,1,,,,,0,4,4,4,,,,,,,,,,,,,,,,,,,,,,,,,,,,,,,,,,,1,2.251273330000913,,,,,,,,,,,,,,,,,,,,,,,,,,,,,,090419_p1,001,2019_Sep_04_0934,body_behavioural,3.0.4,60.042843450477434,
1,parcelated_audio/21/21_6.aiff,,0,1,1,1,,,,,0,5,5,5,,,,,,,,,,,,,,,,,,,,,,,,,,,,,,,,,,,1,0.7360035429992422,,,,,,,,,,,,,,,,,,,,,,,,,,,,,,090419_p1,001,2019_Sep_04_0934,body_behavioural,3.0.4,60.042843450477434,
1,parcelated_audio/21/21_7.aiff,,0,1,1,1,,,,,0,6,6,6,,,,,,,,,,,,,,,,,,,,,,,,,,,,,,,,,,,9,5.486265924999316,,,,,,,,,,,,,,,,,,,,,,,,,,,,,,090419_p1,001,2019_Sep_04_0934,body_behavioural,3.0.4,60.042843450477434,
1,parcelated_audio/21/21_8.aiff,,0,1,1,1,,,,,0,7,7,7,,,,,,,,,,,,,,,,,,,,,,,,,,,,,,,,,,,1,0.386066364000726,,,,,,,,,,,,,,,,,,,,,,,,,,,,,,090419_p1,001,2019_Sep_04_0934,body_behavioural,3.0.4,60.042843450477434,
1,parcelated_audio/21/21_9.aiff,,0,1,1,1,,,,,0,8,8,8,,,,,,,,,,,,,,,,,,,,,,,,,,,,,,,,,,,9,2.1688440880006965,,,,,,,,,,,,,,,,,,,,,,,,,,,,,,090419_p1,001,2019_Sep_04_0934,body_behavioural,3.0.4,60.042843450477434,
1,parcelated_audio/21/21_10.aiff,,0,1,1,1,,,,,0,9,9,9,,,,,,,,,,,,,,,,,,,,,,,,,,,,,,,,,,,1,0.7531869800004642,,,,,,,,,,,,,,,,,,,,,,,,,,,,,,090419_p1,001,2019_Sep_04_0934,body_behavioural,3.0.4,60.042843450477434,
1,parcelated_audio/21/21_11.aiff,,0,1,1,1,,,,,0,10,10,10,,,,,,,,,,,,,,,,,,,,,,,,,,,,,,,,,,,1,2.451288341999316,,,,,,,,,,,,,,,,,,,,,,,,,,,,,,090419_p1,001,2019_Sep_04_0934,body_behavioural,3.0.4,60.042843450477434,
1,parcelated_audio/21/21_12.aiff,,0,1,1,1,,,,,0,11,11,11,,,,,,,,,,,,,,,,,,,,,,,,,,,,,,,,,,,9,4.821056812999814,,,,,,,,,,,,,,,,,,,,,,,,,,,,,,090419_p1,001,2019_Sep_04_0934,body_behavioural,3.0.4,60.042843450477434,
1,parcelated_audio/21/21_13.aiff,,0,1,1,1,,,,,0,12,12,12,,,,,,,,,,,,,,,,,,,,,,,,,,,,,,,,,,,1,1.8367070799995417,,,,,,,,,,,,,,,,,,,,,,,,,,,,,,090419_p1,001,2019_Sep_04_0934,body_behavioural,3.0.4,60.042843450477434,
1,parcelated_audio/21/21_14.aiff,,0,1,1,1,,,,,0,13,13,13,,,,,,,,,,,,,,,,,,,,,,,,,,,,,,,,,,,9,0.9373629379988415,,,,,,,,,,,,,,,,,,,,,,,,,,,,,,090419_p1,001,2019_Sep_04_0934,body_behavioural,3.0.4,60.042843450477434,
1,parcelated_audio/21/21_15.aiff,,0,1,1,1,,,,,0,14,14,14,,,,,,,,,,,,,,,,,,,,,,,,,,,,,,,,,,,1,0.1024026800005231,,,,,,,,,,,,,,,,,,,,,,,,,,,,,,090419_p1,001,2019_Sep_04_0934,body_behavioural,3.0.4,60.042843450477434,
1,parcelated_audio/21/21_16.aiff,,0,1,1,1,,,,,0,15,15,15,,,,,,,,,,,,,,,,,,,,,,,,,,,,,,,,,,,1,0.9532225879993348,,,,,,,,,,,,,,,,,,,,,,,,,,,,,,090419_p1,001,2019_Sep_04_0934,body_behavioural,3.0.4,60.042843450477434,
1,parcelated_audio/21/21_17.aiff,,0,1,1,1,,,,,0,16,16,16,,,,,,,,,,,,,,,,,,,,,,,,,,,,,,,,,,,1,2.120609987001444,,,,,,,,,,,,,,,,,,,,,,,,,,,,,,090419_p1,001,2019_Sep_04_0934,body_behavioural,3.0.4,60.042843450477434,
1,parcelated_audio/21/21_18.aiff,,0,1,1,1,,,,,0,17,17,17,,,,,,,,,,,,,,,,,,,,,,,,,,,,,,,,,,,9,0.7191100440013543,,,,,,,,,,,,,,,,,,,,,,,,,,,,,,090419_p1,001,2019_Sep_04_0934,body_behavioural,3.0.4,60.042843450477434,
1,parcelated_audio/21/21_19.aiff,,0,1,1,1,,,,,0,18,18,18,,,,,,,,,,,,,,,,,,,,,,,,,,,,,,,,,,,9,7.45344859800025,,,,,,,,,,,,,,,,,,,,,,,,,,,,,,090419_p1,001,2019_Sep_04_0934,body_behavioural,3.0.4,60.042843450477434,
1,parcelated_audio/21/21_20.aiff,,0,1,1,1,,,,,0,19,19,19,,,,,,,,,,,,,,,,,,,,,,,,,,,,,,,,,,,1,1.0833532670003478,,,,,,,,,,,,,,,,,,,,,,,,,,,,,,090419_p1,001,2019_Sep_04_0934,body_behavioural,3.0.4,60.042843450477434,
1,parcelated_audio/21/21_21.aiff,,0,1,1,1,,,,,0,20,20,20,,,,,,,,,,,,,,,,,,,,,,,,,,,,,,,,,,,1,0.05200202800006082,,,,,,,,,,,,,,,,,,,,,,,,,,,,,,090419_p1,001,2019_Sep_04_0934,body_behavioural,3.0.4,60.042843450477434,
1,parcelated_audio/21/21_22.aiff,,0,1,1,1,,,,,0,21,21,21,,,,,,,,,,,,,,,,,,,,,,,,,,,,,,,,,,,9,0.01859609600069234,,,,,,,,,,,,,,,,,,,,,,,,,,,,,,090419_p1,001,2019_Sep_04_0934,body_behavioural,3.0.4,60.042843450477434,
1,parcelated_audio/21/21_23.aiff,,0,1,1,1,,,,,0,22,22,22,,,,,,,,,,,,,,,,,,,,,,,,,,,,,,,,,,,1,1.1691156279994175,,,,,,,,,,,,,,,,,,,,,,,,,,,,,,090419_p1,001,2019_Sep_04_0934,body_behavioural,3.0.4,60.042843450477434,
1,parcelated_audio/21/21_24.aiff,,0,1,1,1,,,,,0,23,23,23,,,,,,,,,,,,,,,,,,,,,,,,,,,,,,,,,,,1,0.5700216350014671,,,,,,,,,,,,,,,,,,,,,,,,,,,,,,090419_p1,001,2019_Sep_04_0934,body_behavioural,3.0.4,60.042843450477434,
1,parcelated_audio/21/21_25.aiff,,0,1,1,1,,,,,0,24,24,24,,,,,,,,,,,,,,,,,,,,,,,,,,,,,,,,,,,1,0.32021917199926975,,,,,,,,,,,,,,,,,,,,,,,,,,,,,,090419_p1,001,2019_Sep_04_0934,body_behavioural,3.0.4,60.042843450477434,
1,parcelated_audio/21/21_26.aiff,,0,1,1,1,,,,,0,25,25,25,,,,,,,,,,,,,,,,,,,,,,,,,,,,,,,,,,,1,0.6685432680005761,,,,,,,,,,,,,,,,,,,,,,,,,,,,,,090419_p1,001,2019_Sep_04_0934,body_behavioural,3.0.4,60.042843450477434,
1,parcelated_audio/21/21_27.aiff,,0,1,1,1,,,,,0,26,26,26,,,,,,,,,,,,,,,,,,,,,,,,,,,,,,,,,,,1,0.03652115499971842,,,,,,,,,,,,,,,,,,,,,,,,,,,,,,090419_p1,001,2019_Sep_04_0934,body_behavioural,3.0.4,60.042843450477434,
1,parcelated_audio/21/21_28.aiff,,0,1,1,1,,,,,0,27,27,27,,,,,,,,,,,,,,,,,,,,,,,,,,,,,,,,,,,1,0.38637413900141837,,,,,,,,,,,,,,,,,,,,,,,,,,,,,,090419_p1,001,2019_Sep_04_0934,body_behavioural,3.0.4,60.042843450477434,
1,parcelated_audio/21/21_29.aiff,,0,1,1,1,,,,,0,28,28,28,,,,,,,,,,,,,,,,,,,,,,,,,,,,,,,,,,,9,0.4367189900003723,,,,,,,,,,,,,,,,,,,,,,,,,,,,,,090419_p1,001,2019_Sep_04_0934,body_behavioural,3.0.4,60.042843450477434,
1,parcelated_audio/21/21_30.aiff,,0,1,1,1,,,,,0,29,29,29,,,,,,,,,,,,,,,,,,,,,,,,,,,,,,,,,,,1,1.6677123850004136,,,,,,,,,,,,,,,,,,,,,,,,,,,,,,090419_p1,001,2019_Sep_04_0934,body_behavioural,3.0.4,60.042843450477434,
1,,,0,1,1,1,,,,,,,,,,,,,,,,,,,,,,,,,,,,,,,,,,,,,,,,,,,,,space,1.2196381199992175,,,,,,,,,,,,,,,,,,,,,,,,,,,,090419_p1,001,2019_Sep_04_0934,body_behavioural,3.0.4,60.042843450477434,
2,,,0,2,2,2,0,0,0,0,,,,,,,,,,,,,,,,,,,,,,,,,,,,,space,1.252535858000556,space,0.6198513049985195,space,0.9213446439989639,,,,,,,,,,,,,,,,,,,,,,,,,,,,,,,,,,,,090419_p1,001,2019_Sep_04_0934,body_behavioural,3.0.4,60.042843450477434,
2,parcelated_audio/33/33_1.aiff,,0,2,2,2,,,,,0,0,0,0,,,,,,,,,,,,,,,,,,,,,,,,,,,,,,,space,0.86928986500061,space,2.75262008000027,9,0.4015942879996146,,,,,,,,,,,,,,,,,,,,,,,,,,,,,,090419_p1,001,2019_Sep_04_0934,body_behavioural,3.0.4,60.042843450477434,
2,parcelated_audio/33/33_2.aiff,,0,2,2,2,,,,,0,1,1,1,,,,,,,,,,,,,,,,,,,,,,,,,,,,,,,,,,,1,0.05274576800002251,,,,,,,,,,,,,,,,,,,,,,,,,,,,,,090419_p1,001,2019_Sep_04_0934,body_behavioural,3.0.4,60.042843450477434,
2,parcelated_audio/33/33_3.aiff,,0,2,2,2,,,,,0,2,2,2,,,,,,,,,,,,,,,,,,,,,,,,,,,,,,,,,,,1,0.8509790930002055,,,,,,,,,,,,,,,,,,,,,,,,,,,,,,090419_p1,001,2019_Sep_04_0934,body_behavioural,3.0.4,60.042843450477434,
2,parcelated_audio/33/33_4.aiff,,0,2,2,2,,,,,0,3,3,3,,,,,,,,,,,,,,,,,,,,,,,,,,,,,,,,,,,1,0.8038455080004496,,,,,,,,,,,,,,,,,,,,,,,,,,,,,,090419_p1,001,2019_Sep_04_0934,body_behavioural,3.0.4,60.042843450477434,
2,parcelated_audio/33/33_5.aiff,,0,2,2,2,,,,,0,4,4,4,,,,,,,,,,,,,,,,,,,,,,,,,,,,,,,,,,,1,0.7536037570007466,,,,,,,,,,,,,,,,,,,,,,,,,,,,,,090419_p1,001,2019_Sep_04_0934,body_behavioural,3.0.4,60.042843450477434,
2,parcelated_audio/33/33_6.aiff,,0,2,2,2,,,,,0,5,5,5,,,,,,,,,,,,,,,,,,,,,,,,,,,,,,,,,,,1,0.7333446819993696,,,,,,,,,,,,,,,,,,,,,,,,,,,,,,090419_p1,001,2019_Sep_04_0934,body_behavioural,3.0.4,60.042843450477434,
2,parcelated_audio/33/33_7.aiff,,0,2,2,2,,,,,0,6,6,6,,,,,,,,,,,,,,,,,,,,,,,,,,,,,,,,,,,1,5.537563224001133,,,,,,,,,,,,,,,,,,,,,,,,,,,,,,090419_p1,001,2019_Sep_04_0934,body_behavioural,3.0.4,60.042843450477434,
2,parcelated_audio/33/33_8.aiff,,0,2,2,2,,,,,0,7,7,7,,,,,,,,,,,,,,,,,,,,,,,,,,,,,,,,,,,9,2.602419970000483,,,,,,,,,,,,,,,,,,,,,,,,,,,,,,090419_p1,001,2019_Sep_04_0934,body_behavioural,3.0.4,60.042843450477434,
2,parcelated_audio/33/33_9.aiff,,0,2,2,2,,,,,0,8,8,8,,,,,,,,,,,,,,,,,,,,,,,,,,,,,,,,,,,1,0.4193960429984145,,,,,,,,,,,,,,,,,,,,,,,,,,,,,,090419_p1,001,2019_Sep_04_0934,body_behavioural,3.0.4,60.042843450477434,
2,parcelated_audio/33/33_10.aiff,,0,2,2,2,,,,,0,9,9,9,,,,,,,,,,,,,,,,,,,,,,,,,,,,,,,,,,,1,0.5199626400008128,,,,,,,,,,,,,,,,,,,,,,,,,,,,,,090419_p1,001,2019_Sep_04_0934,body_behavioural,3.0.4,60.042843450477434,
2,parcelated_audio/33/33_11.aiff,,0,2,2,2,,,,,0,10,10,10,,,,,,,,,,,,,,,,,,,,,,,,,,,,,,,,,,,1,1.6525399550009752,,,,,,,,,,,,,,,,,,,,,,,,,,,,,,090419_p1,001,2019_Sep_04_0934,body_behavioural,3.0.4,60.042843450477434,
2,parcelated_audio/33/33_12.aiff,,0,2,2,2,,,,,0,11,11,11,,,,,,,,,,,,,,,,,,,,,,,,,,,,,,,,,,,1,0.40325598000163154,,,,,,,,,,,,,,,,,,,,,,,,,,,,,,090419_p1,001,2019_Sep_04_0934,body_behavioural,3.0.4,60.042843450477434,
2,parcelated_audio/33/33_13.aiff,,0,2,2,2,,,,,0,12,12,12,,,,,,,,,,,,,,,,,,,,,,,,,,,,,,,,,,,1,0.618984802000341,,,,,,,,,,,,,,,,,,,,,,,,,,,,,,090419_p1,001,2019_Sep_04_0934,body_behavioural,3.0.4,60.042843450477434,
2,parcelated_audio/33/33_14.aiff,,0,2,2,2,,,,,0,13,13,13,,,,,,,,,,,,,,,,,,,,,,,,,,,,,,,,,,,1,0.1373615369993786,,,,,,,,,,,,,,,,,,,,,,,,,,,,,,090419_p1,001,2019_Sep_04_0934,body_behavioural,3.0.4,60.042843450477434,
2,parcelated_audio/33/33_15.aiff,,0,2,2,2,,,,,0,14,14,14,,,,,,,,,,,,,,,,,,,,,,,,,,,,,,,,,,,9,6.7870598130011786,,,,,,,,,,,,,,,,,,,,,,,,,,,,,,090419_p1,001,2019_Sep_04_0934,body_behavioural,3.0.4,60.042843450477434,
2,parcelated_audio/33/33_16.aiff,,0,2,2,2,,,,,0,15,15,15,,,,,,,,,,,,,,,,,,,,,,,,,,,,,,,,,,,1,1.3030438260011579,,,,,,,,,,,,,,,,,,,,,,,,,,,,,,090419_p1,001,2019_Sep_04_0934,body_behavioural,3.0.4,60.042843450477434,
2,parcelated_audio/33/33_17.aiff,,0,2,2,2,,,,,0,16,16,16,,,,,,,,,,,,,,,,,,,,,,,,,,,,,,,,,,,1,0.4686272880007891,,,,,,,,,,,,,,,,,,,,,,,,,,,,,,090419_p1,001,2019_Sep_04_0934,body_behavioural,3.0.4,60.042843450477434,
2,parcelated_audio/33/33_18.aiff,,0,2,2,2,,,,,0,17,17,17,,,,,,,,,,,,,,,,,,,,,,,,,,,,,,,,,,,1,1.7356962720004958,,,,,,,,,,,,,,,,,,,,,,,,,,,,,,090419_p1,001,2019_Sep_04_0934,body_behavioural,3.0.4,60.042843450477434,
2,parcelated_audio/33/33_19.aiff,,0,2,2,2,,,,,0,18,18,18,,,,,,,,,,,,,,,,,,,,,,,,,,,,,,,,,,,9,0.4029264159999002,,,,,,,,,,,,,,,,,,,,,,,,,,,,,,090419_p1,001,2019_Sep_04_0934,body_behavioural,3.0.4,60.042843450477434,
2,parcelated_audio/33/33_20.aiff,,0,2,2,2,,,,,0,19,19,19,,,,,,,,,,,,,,,,,,,,,,,,,,,,,,,,,,,1,0.3518589100003737,,,,,,,,,,,,,,,,,,,,,,,,,,,,,,090419_p1,001,2019_Sep_04_0934,body_behavioural,3.0.4,60.042843450477434,
2,parcelated_audio/33/33_21.aiff,,0,2,2,2,,,,,0,20,20,20,,,,,,,,,,,,,,,,,,,,,,,,,,,,,,,,,,,1,0.5500091670000984,,,,,,,,,,,,,,,,,,,,,,,,,,,,,,090419_p1,001,2019_Sep_04_0934,body_behavioural,3.0.4,60.042843450477434,
2,parcelated_audio/33/33_22.aiff,,0,2,2,2,,,,,0,21,21,21,,,,,,,,,,,,,,,,,,,,,,,,,,,,,,,,,,,1,0.6688853460000246,,,,,,,,,,,,,,,,,,,,,,,,,,,,,,090419_p1,001,2019_Sep_04_0934,body_behavioural,3.0.4,60.042843450477434,
2,parcelated_audio/33/33_23.aiff,,0,2,2,2,,,,,0,22,22,22,,,,,,,,,,,,,,,,,,,,,,,,,,,,,,,,,,,9,2.0706726429998525,,,,,,,,,,,,,,,,,,,,,,,,,,,,,,090419_p1,001,2019_Sep_04_0934,body_behavioural,3.0.4,60.042843450477434,
2,parcelated_audio/33/33_24.aiff,,0,2,2,2,,,,,0,23,23,23,,,,,,,,,,,,,,,,,,,,,,,,,,,,,,,,,,,1,1.5696729899991624,,,,,,,,,,,,,,,,,,,,,,,,,,,,,,090419_p1,001,2019_Sep_04_0934,body_behavioural,3.0.4,60.042843450477434,
2,parcelated_audio/33/33_25.aiff,,0,2,2,2,,,,,0,24,24,24,,,,,,,,,,,,,,,,,,,,,,,,,,,,,,,,,,,9,0.7203658420003194,,,,,,,,,,,,,,,,,,,,,,,,,,,,,,090419_p1,001,2019_Sep_04_0934,body_behavioural,3.0.4,60.042843450477434,
2,parcelated_audio/33/33_26.aiff,,0,2,2,2,,,,,0,25,25,25,,,,,,,,,,,,,,,,,,,,,,,,,,,,,,,,,,,1,0.736363165999137,,,,,,,,,,,,,,,,,,,,,,,,,,,,,,090419_p1,001,2019_Sep_04_0934,body_behavioural,3.0.4,60.042843450477434,
2,parcelated_audio/33/33_27.aiff,,0,2,2,2,,,,,0,26,26,26,,,,,,,,,,,,,,,,,,,,,,,,,,,,,,,,,,,1,1.053042961000756,,,,,,,,,,,,,,,,,,,,,,,,,,,,,,090419_p1,001,2019_Sep_04_0934,body_behavioural,3.0.4,60.042843450477434,
2,parcelated_audio/33/33_28.aiff,,0,2,2,2,,,,,0,27,27,27,,,,,,,,,,,,,,,,,,,,,,,,,,,,,,,,,,,9,0.5524450719985907,,,,,,,,,,,,,,,,,,,,,,,,,,,,,,090419_p1,001,2019_Sep_04_0934,body_behavioural,3.0.4,60.042843450477434,
2,parcelated_audio/33/33_29.aiff,,0,2,2,2,,,,,0,28,28,28,,,,,,,,,,,,,,,,,,,,,,,,,,,,,,,,,,,1,1.002981711000757,,,,,,,,,,,,,,,,,,,,,,,,,,,,,,090419_p1,001,2019_Sep_04_0934,body_behavioural,3.0.4,60.042843450477434,
2,parcelated_audio/33/33_30.aiff,,0,2,2,2,,,,,0,29,29,29,,,,,,,,,,,,,,,,,,,,,,,,,,,,,,,,,,,1,2.5365328269999736,,,,,,,,,,,,,,,,,,,,,,,,,,,,,,090419_p1,001,2019_Sep_04_0934,body_behavioural,3.0.4,60.042843450477434,
2,parcelated_audio/33/33_31.aiff,,0,2,2,2,,,,,0,30,30,30,,,,,,,,,,,,,,,,,,,,,,,,,,,,,,,,,,,9,0.7039345299999695,,,,,,,,,,,,,,,,,,,,,,,,,,,,,,090419_p1,001,2019_Sep_04_0934,body_behavioural,3.0.4,60.042843450477434,
2,parcelated_audio/33/33_32.aiff,,0,2,2,2,,,,,0,31,31,31,,,,,,,,,,,,,,,,,,,,,,,,,,,,,,,,,,,1,0.7359217779994651,,,,,,,,,,,,,,,,,,,,,,,,,,,,,,090419_p1,001,2019_Sep_04_0934,body_behavioural,3.0.4,60.042843450477434,
2,,,0,2,2,2,,,,,,,,,,,,,,,,,,,,,,,,,,,,,,,,,,,,,,,,,,,,,space,1.35374885300007,,,,,,,,,,,,,,,,,,,,,,,,,,,,090419_p1,001,2019_Sep_04_0934,body_behavioural,3.0.4,60.042843450477434,
3,,,0,3,3,3,0,0,0,0,,,,,,,,,,,,,,,,,,,,,,,,,,,,,space,0.9700251350004692,space,0.6533468549987447,space,0.8518861390002712,,,,,,,,,,,,,,,,,,,,,,,,,,,,,,,,,,,,090419_p1,001,2019_Sep_04_0934,body_behavioural,3.0.4,60.042843450477434,
3,parcelated_audio/11/11_1.aiff,,0,3,3,3,,,,,0,0,0,0,,,,,,,,,,,,,,,,,,,,,,,,,,,,,,,space,2.1366859449990443,space,1.1034320319995459,9,1.403405452001607,,,,,,,,,,,,,,,,,,,,,,,,,,,,,,090419_p1,001,2019_Sep_04_0934,body_behavioural,3.0.4,60.042843450477434,
3,parcelated_audio/11/11_2.aiff,,0,3,3,3,,,,,0,1,1,1,,,,,,,,,,,,,,,,,,,,,,,,,,,,,,,,,,,1,0.8035098599993944,,,,,,,,,,,,,,,,,,,,,,,,,,,,,,090419_p1,001,2019_Sep_04_0934,body_behavioural,3.0.4,60.042843450477434,
3,parcelated_audio/11/11_3.aiff,,0,3,3,3,,,,,0,2,2,2,,,,,,,,,,,,,,,,,,,,,,,,,,,,,,,,,,,1,0.5028772999994544,,,,,,,,,,,,,,,,,,,,,,,,,,,,,,090419_p1,001,2019_Sep_04_0934,body_behavioural,3.0.4,60.042843450477434,
3,parcelated_audio/11/11_4.aiff,,0,3,3,3,,,,,0,3,3,3,,,,,,,,,,,,,,,,,,,,,,,,,,,,,,,,,,,1,1.5867106950008747,,,,,,,,,,,,,,,,,,,,,,,,,,,,,,090419_p1,001,2019_Sep_04_0934,body_behavioural,3.0.4,60.042843450477434,
3,parcelated_audio/11/11_5.aiff,,0,3,3,3,,,,,0,4,4,4,,,,,,,,,,,,,,,,,,,,,,,,,,,,,,,,,,,1,2.1525861049995,,,,,,,,,,,,,,,,,,,,,,,,,,,,,,090419_p1,001,2019_Sep_04_0934,body_behavioural,3.0.4,60.042843450477434,
3,parcelated_audio/11/11_6.aiff,,0,3,3,3,,,,,0,5,5,5,,,,,,,,,,,,,,,,,,,,,,,,,,,,,,,,,,,1,1.353224844999204,,,,,,,,,,,,,,,,,,,,,,,,,,,,,,090419_p1,001,2019_Sep_04_0934,body_behavioural,3.0.4,60.042843450477434,
3,parcelated_audio/11/11_7.aiff,,0,3,3,3,,,,,0,6,6,6,,,,,,,,,,,,,,,,,,,,,,,,,,,,,,,,,,,1,0.7357877400008874,,,,,,,,,,,,,,,,,,,,,,,,,,,,,,090419_p1,001,2019_Sep_04_0934,body_behavioural,3.0.4,60.042843450477434,
3,parcelated_audio/11/11_8.aiff,,0,3,3,3,,,,,0,7,7,7,,,,,,,,,,,,,,,,,,,,,,,,,,,,,,,,,,,1,0.669350944001053,,,,,,,,,,,,,,,,,,,,,,,,,,,,,,090419_p1,001,2019_Sep_04_0934,body_behavioural,3.0.4,60.042843450477434,
3,parcelated_audio/11/11_9.aiff,,0,3,3,3,,,,,0,8,8,8,,,,,,,,,,,,,,,,,,,,,,,,,,,,,,,,,,,1,1.6670082500004355,,,,,,,,,,,,,,,,,,,,,,,,,,,,,,090419_p1,001,2019_Sep_04_0934,body_behavioural,3.0.4,60.042843450477434,
3,parcelated_audio/11/11_10.aiff,,0,3,3,3,,,,,0,9,9,9,,,,,,,,,,,,,,,,,,,,,,,,,,,,,,,,,,,1,0.7836007599998993,,,,,,,,,,,,,,,,,,,,,,,,,,,,,,090419_p1,001,2019_Sep_04_0934,body_behavioural,3.0.4,60.042843450477434,
3,parcelated_audio/11/11_11.aiff,,0,3,3,3,,,,,0,10,10,10,,,,,,,,,,,,,,,,,,,,,,,,,,,,,,,,,,,1,0.18567203700149548,,,,,,,,,,,,,,,,,,,,,,,,,,,,,,090419_p1,001,2019_Sep_04_0934,body_behavioural,3.0.4,60.042843450477434,
3,parcelated_audio/11/11_12.aiff,,0,3,3,3,,,,,0,11,11,11,,,,,,,,,,,,,,,,,,,,,,,,,,,,,,,,,,,1,5.603570266001043,,,,,,,,,,,,,,,,,,,,,,,,,,,,,,090419_p1,001,2019_Sep_04_0934,body_behavioural,3.0.4,60.042843450477434,
3,parcelated_audio/11/11_13.aiff,,0,3,3,3,,,,,0,12,12,12,,,,,,,,,,,,,,,,,,,,,,,,,,,,,,,,,,,1,0.4186134960000345,,,,,,,,,,,,,,,,,,,,,,,,,,,,,,090419_p1,001,2019_Sep_04_0934,body_behavioural,3.0.4,60.042843450477434,
3,parcelated_audio/11/11_14.aiff,,0,3,3,3,,,,,0,13,13,13,,,,,,,,,,,,,,,,,,,,,,,,,,,,,,,,,,,1,1.2528190619996167,,,,,,,,,,,,,,,,,,,,,,,,,,,,,,090419_p1,001,2019_Sep_04_0934,body_behavioural,3.0.4,60.042843450477434,
3,parcelated_audio/11/11_15.aiff,,0,3,3,3,,,,,0,14,14,14,,,,,,,,,,,,,,,,,,,,,,,,,,,,,,,,,,,9,9.021275724999214,,,,,,,,,,,,,,,,,,,,,,,,,,,,,,090419_p1,001,2019_Sep_04_0934,body_behavioural,3.0.4,60.042843450477434,
3,parcelated_audio/11/11_16.aiff,,0,3,3,3,,,,,0,15,15,15,,,,,,,,,,,,,,,,,,,,,,,,,,,,,,,,,,,1,0.30255632199987303,,,,,,,,,,,,,,,,,,,,,,,,,,,,,,090419_p1,001,2019_Sep_04_0934,body_behavioural,3.0.4,60.042843450477434,
3,parcelated_audio/11/11_17.aiff,,0,3,3,3,,,,,0,16,16,16,,,,,,,,,,,,,,,,,,,,,,,,,,,,,,,,,,,1,0.5328340050000406,,,,,,,,,,,,,,,,,,,,,,,,,,,,,,090419_p1,001,2019_Sep_04_0934,body_behavioural,3.0.4,60.042843450477434,
3,parcelated_audio/11/11_18.aiff,,0,3,3,3,,,,,0,17,17,17,,,,,,,,,,,,,,,,,,,,,,,,,,,,,,,,,,,1,0.502829749000739,,,,,,,,,,,,,,,,,,,,,,,,,,,,,,090419_p1,001,2019_Sep_04_0934,body_behavioural,3.0.4,60.042843450477434,
3,parcelated_audio/11/11_19.aiff,,0,3,3,3,,,,,0,18,18,18,,,,,,,,,,,,,,,,,,,,,,,,,,,,,,,,,,,1,1.401434520001203,,,,,,,,,,,,,,,,,,,,,,,,,,,,,,090419_p1,001,2019_Sep_04_0934,body_behavioural,3.0.4,60.042843450477434,
3,parcelated_audio/11/11_20.aiff,,0,3,3,3,,,,,0,19,19,19,,,,,,,,,,,,,,,,,,,,,,,,,,,,,,,,,,,9,1.151602694999383,,,,,,,,,,,,,,,,,,,,,,,,,,,,,,090419_p1,001,2019_Sep_04_0934,body_behavioural,3.0.4,60.042843450477434,
3,parcelated_audio/11/11_21.aiff,,0,3,3,3,,,,,0,20,20,20,,,,,,,,,,,,,,,,,,,,,,,,,,,,,,,,,,,9,3.820915635000347,,,,,,,,,,,,,,,,,,,,,,,,,,,,,,090419_p1,001,2019_Sep_04_0934,body_behavioural,3.0.4,60.042843450477434,
3,parcelated_audio/11/11_22.aiff,,0,3,3,3,,,,,0,21,21,21,,,,,,,,,,,,,,,,,,,,,,,,,,,,,,,,,,,1,0.70292609200078,,,,,,,,,,,,,,,,,,,,,,,,,,,,,,090419_p1,001,2019_Sep_04_0934,body_behavioural,3.0.4,60.042843450477434,
3,parcelated_audio/11/11_23.aiff,,0,3,3,3,,,,,0,22,22,22,,,,,,,,,,,,,,,,,,,,,,,,,,,,,,,,,,,1,0.23601589999998396,,,,,,,,,,,,,,,,,,,,,,,,,,,,,,090419_p1,001,2019_Sep_04_0934,body_behavioural,3.0.4,60.042843450477434,
3,parcelated_audio/11/11_24.aiff,,0,3,3,3,,,,,0,23,23,23,,,,,,,,,,,,,,,,,,,,,,,,,,,,,,,,,,,1,0.5022695229999954,,,,,,,,,,,,,,,,,,,,,,,,,,,,,,090419_p1,001,2019_Sep_04_0934,body_behavioural,3.0.4,60.042843450477434,
3,parcelated_audio/11/11_25.aiff,,0,3,3,3,,,,,0,24,24,24,,,,,,,,,,,,,,,,,,,,,,,,,,,,,,,,,,,1,0.6706156719992578,,,,,,,,,,,,,,,,,,,,,,,,,,,,,,090419_p1,001,2019_Sep_04_0934,body_behavioural,3.0.4,60.042843450477434,
3,parcelated_audio/11/11_26.aiff,,0,3,3,3,,,,,0,25,25,25,,,,,,,,,,,,,,,,,,,,,,,,,,,,,,,,,,,1,1.1175532920005935,,,,,,,,,,,,,,,,,,,,,,,,,,,,,,090419_p1,001,2019_Sep_04_0934,body_behavioural,3.0.4,60.042843450477434,
3,parcelated_audio/11/11_27.aiff,,0,3,3,3,,,,,0,26,26,26,,,,,,,,,,,,,,,,,,,,,,,,,,,,,,,,,,,1,0.6541058120001253,,,,,,,,,,,,,,,,,,,,,,,,,,,,,,090419_p1,001,2019_Sep_04_0934,body_behavioural,3.0.4,60.042843450477434,
3,parcelated_audio/11/11_28.aiff,,0,3,3,3,,,,,0,27,27,27,,,,,,,,,,,,,,,,,,,,,,,,,,,,,,,,,,,1,0.586980219999532,,,,,,,,,,,,,,,,,,,,,,,,,,,,,,090419_p1,001,2019_Sep_04_0934,body_behavioural,3.0.4,60.042843450477434,
3,parcelated_audio/11/11_29.aiff,,0,3,3,3,,,,,0,28,28,28,,,,,,,,,,,,,,,,,,,,,,,,,,,,,,,,,,,1,1.2541105130003416,,,,,,,,,,,,,,,,,,,,,,,,,,,,,,090419_p1,001,2019_Sep_04_0934,body_behavioural,3.0.4,60.042843450477434,
3,parcelated_audio/11/11_30.aiff,,0,3,3,3,,,,,0,29,29,29,,,,,,,,,,,,,,,,,,,,,,,,,,,,,,,,,,,1,0.5037692749992857,,,,,,,,,,,,,,,,,,,,,,,,,,,,,,090419_p1,001,2019_Sep_04_0934,body_behavioural,3.0.4,60.042843450477434,
3,parcelated_audio/11/11_31.aiff,,0,3,3,3,,,,,0,30,30,30,,,,,,,,,,,,,,,,,,,,,,,,,,,,,,,,,,,1,5.736712036999961,,,,,,,,,,,,,,,,,,,,,,,,,,,,,,090419_p1,001,2019_Sep_04_0934,body_behavioural,3.0.4,60.042843450477434,
3,parcelated_audio/11/11_32.aiff,,0,3,3,3,,,,,0,31,31,31,,,,,,,,,,,,,,,,,,,,,,,,,,,,,,,,,,,9,4.902819254999486,,,,,,,,,,,,,,,,,,,,,,,,,,,,,,090419_p1,001,2019_Sep_04_0934,body_behavioural,3.0.4,60.042843450477434,
3,parcelated_audio/11/11_33.aiff,,0,3,3,3,,,,,0,32,32,32,,,,,,,,,,,,,,,,,,,,,,,,,,,,,,,,,,,1,0.3703589300002932,,,,,,,,,,,,,,,,,,,,,,,,,,,,,,090419_p1,001,2019_Sep_04_0934,body_behavioural,3.0.4,60.042843450477434,
3,parcelated_audio/11/11_34.aiff,,0,3,3,3,,,,,0,33,33,33,,,,,,,,,,,,,,,,,,,,,,,,,,,,,,,,,,,1,0.36954197399973054,,,,,,,,,,,,,,,,,,,,,,,,,,,,,,090419_p1,001,2019_Sep_04_0934,body_behavioural,3.0.4,60.042843450477434,
3,parcelated_audio/11/11_35.aiff,,0,3,3,3,,,,,0,34,34,34,,,,,,,,,,,,,,,,,,,,,,,,,,,,,,,,,,,1,0.4195308229991497,,,,,,,,,,,,,,,,,,,,,,,,,,,,,,090419_p1,001,2019_Sep_04_0934,body_behavioural,3.0.4,60.042843450477434,
3,parcelated_audio/11/11_36.aiff,,0,3,3,3,,,,,0,35,35,35,,,,,,,,,,,,,,,,,,,,,,,,,,,,,,,,,,,1,0.735427797999364,,,,,,,,,,,,,,,,,,,,,,,,,,,,,,090419_p1,001,2019_Sep_04_0934,body_behavioural,3.0.4,60.042843450477434,
3,parcelated_audio/11/11_37.aiff,,0,3,3,3,,,,,0,36,36,36,,,,,,,,,,,,,,,,,,,,,,,,,,,,,,,,,,,1,0.17085901199970976,,,,,,,,,,,,,,,,,,,,,,,,,,,,,,090419_p1,001,2019_Sep_04_0934,body_behavioural,3.0.4,60.042843450477434,
3,parcelated_audio/11/11_38.aiff,,0,3,3,3,,,,,0,37,37,37,,,,,,,,,,,,,,,,,,,,,,,,,,,,,,,,,,,1,0.4530936669998482,,,,,,,,,,,,,,,,,,,,,,,,,,,,,,090419_p1,001,2019_Sep_04_0934,body_behavioural,3.0.4,60.042843450477434,
3,parcelated_audio/11/11_39.aiff,,0,3,3,3,,,,,0,38,38,38,,,,,,,,,,,,,,,,,,,,,,,,,,,,,,,,,,,1,2.36938076899969,,,,,,,,,,,,,,,,,,,,,,,,,,,,,,090419_p1,001,2019_Sep_04_0934,body_behavioural,3.0.4,60.042843450477434,
3,parcelated_audio/11/11_40.aiff,,0,3,3,3,,,,,0,39,39,39,,,,,,,,,,,,,,,,,,,,,,,,,,,,,,,,,,,9,2.352879373000178,,,,,,,,,,,,,,,,,,,,,,,,,,,,,,090419_p1,001,2019_Sep_04_0934,body_behavioural,3.0.4,60.042843450477434,
3,parcelated_audio/11/11_41.aiff,,0,3,3,3,,,,,0,40,40,40,,,,,,,,,,,,,,,,,,,,,,,,,,,,,,,,,,,1,0.9355113660003553,,,,,,,,,,,,,,,,,,,,,,,,,,,,,,090419_p1,001,2019_Sep_04_0934,body_behavioural,3.0.4,60.042843450477434,
3,,,0,3,3,3,,,,,,,,,,,,,,,,,,,,,,,,,,,,,,,,,,,,,,,,,,,,,space,5.068296699999337,,,,,,,,,,,,,,,,,,,,,,,,,,,,090419_p1,001,2019_Sep_04_0934,body_behavioural,3.0.4,60.042843450477434,
4,,,0,4,4,4,0,0,0,0,,,,,,,,,,,,,,,,,,,,,,,,,,,,,space,1.0857536180010356,space,1.2377398529988568,space,0.7367193650006811,,,,,,,,,,,,,,,,,,,,,,,,,,,,,,,,,,,,090419_p1,001,2019_Sep_04_0934,body_behavioural,3.0.4,60.042843450477434,
4,parcelated_audio/43/43_1.aiff,,0,4,4,4,,,,,0,0,0,0,,,,,,,,,,,,,,,,,,,,,,,,,,,,,,,space,0.6531121250009164,space,1.6879346810001152,1,0.7851922820009349,,,,,,,,,,,,,,,,,,,,,,,,,,,,,,090419_p1,001,2019_Sep_04_0934,body_behavioural,3.0.4,60.042843450477434,
4,parcelated_audio/43/43_2.aiff,,0,4,4,4,,,,,0,1,1,1,,,,,,,,,,,,,,,,,,,,,,,,,,,,,,,,,,,1,3.069721236000987,,,,,,,,,,,,,,,,,,,,,,,,,,,,,,090419_p1,001,2019_Sep_04_0934,body_behavioural,3.0.4,60.042843450477434,
4,parcelated_audio/43/43_3.aiff,,0,4,4,4,,,,,0,2,2,2,,,,,,,,,,,,,,,,,,,,,,,,,,,,,,,,,,,1,0.46901184899979853,,,,,,,,,,,,,,,,,,,,,,,,,,,,,,090419_p1,001,2019_Sep_04_0934,body_behavioural,3.0.4,60.042843450477434,
4,parcelated_audio/43/43_4.aiff,,0,4,4,4,,,,,0,3,3,3,,,,,,,,,,,,,,,,,,,,,,,,,,,,,,,,,,,9,1.4199310860003607,,,,,,,,,,,,,,,,,,,,,,,,,,,,,,090419_p1,001,2019_Sep_04_0934,body_behavioural,3.0.4,60.042843450477434,
4,parcelated_audio/43/43_5.aiff,,0,4,4,4,,,,,0,4,4,4,,,,,,,,,,,,,,,,,,,,,,,,,,,,,,,,,,,1,0.3694180890015559,,,,,,,,,,,,,,,,,,,,,,,,,,,,,,090419_p1,001,2019_Sep_04_0934,body_behavioural,3.0.4,60.042843450477434,
4,parcelated_audio/43/43_6.aiff,,0,4,4,4,,,,,0,5,5,5,,,,,,,,,,,,,,,,,,,,,,,,,,,,,,,,,,,1,1.702847398000813,,,,,,,,,,,,,,,,,,,,,,,,,,,,,,090419_p1,001,2019_Sep_04_0934,body_behavioural,3.0.4,60.042843450477434,
4,parcelated_audio/43/43_7.aiff,,0,4,4,4,,,,,0,6,6,6,,,,,,,,,,,,,,,,,,,,,,,,,,,,,,,,,,,1,1.8026951329993608,,,,,,,,,,,,,,,,,,,,,,,,,,,,,,090419_p1,001,2019_Sep_04_0934,body_behavioural,3.0.4,60.042843450477434,
4,parcelated_audio/43/43_8.aiff,,0,4,4,4,,,,,0,7,7,7,,,,,,,,,,,,,,,,,,,,,,,,,,,,,,,,,,,1,1.5193147990012221,,,,,,,,,,,,,,,,,,,,,,,,,,,,,,090419_p1,001,2019_Sep_04_0934,body_behavioural,3.0.4,60.042843450477434,
4,parcelated_audio/43/43_9.aiff,,0,4,4,4,,,,,0,8,8,8,,,,,,,,,,,,,,,,,,,,,,,,,,,,,,,,,,,1,0.821180747998369,,,,,,,,,,,,,,,,,,,,,,,,,,,,,,090419_p1,001,2019_Sep_04_0934,body_behavioural,3.0.4,60.042843450477434,
4,parcelated_audio/43/43_10.aiff,,0,4,4,4,,,,,0,9,9,9,,,,,,,,,,,,,,,,,,,,,,,,,,,,,,,,,,,1,0.5865054949990736,,,,,,,,,,,,,,,,,,,,,,,,,,,,,,090419_p1,001,2019_Sep_04_0934,body_behavioural,3.0.4,60.042843450477434,
4,parcelated_audio/43/43_11.aiff,,0,4,4,4,,,,,0,10,10,10,,,,,,,,,,,,,,,,,,,,,,,,,,,,,,,,,,,1,0.37070850000054634,,,,,,,,,,,,,,,,,,,,,,,,,,,,,,090419_p1,001,2019_Sep_04_0934,body_behavioural,3.0.4,60.042843450477434,
4,parcelated_audio/43/43_12.aiff,,0,4,4,4,,,,,0,11,11,11,,,,,,,,,,,,,,,,,,,,,,,,,,,,,,,,,,,9,0.4027442009992228,,,,,,,,,,,,,,,,,,,,,,,,,,,,,,090419_p1,001,2019_Sep_04_0934,body_behavioural,3.0.4,60.042843450477434,
4,parcelated_audio/43/43_13.aiff,,0,4,4,4,,,,,0,12,12,12,,,,,,,,,,,,,,,,,,,,,,,,,,,,,,,,,,,1,0.38720603000001574,,,,,,,,,,,,,,,,,,,,,,,,,,,,,,090419_p1,001,2019_Sep_04_0934,body_behavioural,3.0.4,60.042843450477434,
4,parcelated_audio/43/43_14.aiff,,0,4,4,4,,,,,0,13,13,13,,,,,,,,,,,,,,,,,,,,,,,,,,,,,,,,,,,1,0.3368820499999856,,,,,,,,,,,,,,,,,,,,,,,,,,,,,,090419_p1,001,2019_Sep_04_0934,body_behavioural,3.0.4,60.042843450477434,
4,parcelated_audio/43/43_15.aiff,,0,4,4,4,,,,,0,14,14,14,,,,,,,,,,,,,,,,,,,,,,,,,,,,,,,,,,,1,1.0524557150001783,,,,,,,,,,,,,,,,,,,,,,,,,,,,,,090419_p1,001,2019_Sep_04_0934,body_behavioural,3.0.4,60.042843450477434,
4,parcelated_audio/43/43_16.aiff,,0,4,4,4,,,,,0,15,15,15,,,,,,,,,,,,,,,,,,,,,,,,,,,,,,,,,,,1,0.11913488399841299,,,,,,,,,,,,,,,,,,,,,,,,,,,,,,090419_p1,001,2019_Sep_04_0934,body_behavioural,3.0.4,60.042843450477434,
4,parcelated_audio/43/43_17.aiff,,0,4,4,4,,,,,0,16,16,16,,,,,,,,,,,,,,,,,,,,,,,,,,,,,,,,,,,1,0.5696346949989675,,,,,,,,,,,,,,,,,,,,,,,,,,,,,,090419_p1,001,2019_Sep_04_0934,body_behavioural,3.0.4,60.042843450477434,
4,parcelated_audio/43/43_18.aiff,,0,4,4,4,,,,,0,17,17,17,,,,,,,,,,,,,,,,,,,,,,,,,,,,,,,,,,,1,1.1192821840013494,,,,,,,,,,,,,,,,,,,,,,,,,,,,,,090419_p1,001,2019_Sep_04_0934,body_behavioural,3.0.4,60.042843450477434,
4,parcelated_audio/43/43_19.aiff,,0,4,4,4,,,,,0,18,18,18,,,,,,,,,,,,,,,,,,,,,,,,,,,,,,,,,,,9,0.23641526899882592,,,,,,,,,,,,,,,,,,,,,,,,,,,,,,090419_p1,001,2019_Sep_04_0934,body_behavioural,3.0.4,60.042843450477434,
4,parcelated_audio/43/43_20.aiff,,0,4,4,4,,,,,0,19,19,19,,,,,,,,,,,,,,,,,,,,,,,,,,,,,,,,,,,1,0.8859171929998411,,,,,,,,,,,,,,,,,,,,,,,,,,,,,,090419_p1,001,2019_Sep_04_0934,body_behavioural,3.0.4,60.042843450477434,
4,parcelated_audio/43/43_21.aiff,,0,4,4,4,,,,,0,20,20,20,,,,,,,,,,,,,,,,,,,,,,,,,,,,,,,,,,,1,0.40276865499981795,,,,,,,,,,,,,,,,,,,,,,,,,,,,,,090419_p1,001,2019_Sep_04_0934,body_behavioural,3.0.4,60.042843450477434,
4,parcelated_audio/43/43_22.aiff,,0,4,4,4,,,,,0,21,21,21,,,,,,,,,,,,,,,,,,,,,,,,,,,,,,,,,,,1,0.40058898300048895,,,,,,,,,,,,,,,,,,,,,,,,,,,,,,090419_p1,001,2019_Sep_04_0934,body_behavioural,3.0.4,60.042843450477434,
4,parcelated_audio/43/43_23.aiff,,0,4,4,4,,,,,0,22,22,22,,,,,,,,,,,,,,,,,,,,,,,,,,,,,,,,,,,1,0.5530954349997046,,,,,,,,,,,,,,,,,,,,,,,,,,,,,,090419_p1,001,2019_Sep_04_0934,body_behavioural,3.0.4,60.042843450477434,
4,parcelated_audio/43/43_24.aiff,,0,4,4,4,,,,,0,23,23,23,,,,,,,,,,,,,,,,,,,,,,,,,,,,,,,,,,,1,1.1363937870009977,,,,,,,,,,,,,,,,,,,,,,,,,,,,,,090419_p1,001,2019_Sep_04_0934,body_behavioural,3.0.4,60.042843450477434,
4,parcelated_audio/43/43_25.aiff,,0,4,4,4,,,,,0,24,24,24,,,,,,,,,,,,,,,,,,,,,,,,,,,,,,,,,,,1,0.40257492599994293,,,,,,,,,,,,,,,,,,,,,,,,,,,,,,090419_p1,001,2019_Sep_04_0934,body_behavioural,3.0.4,60.042843450477434,
4,parcelated_audio/43/43_26.aiff,,0,4,4,4,,,,,0,25,25,25,,,,,,,,,,,,,,,,,,,,,,,,,,,,,,,,,,,1,2.202523398998892,,,,,,,,,,,,,,,,,,,,,,,,,,,,,,090419_p1,001,2019_Sep_04_0934,body_behavioural,3.0.4,60.042843450477434,
4,parcelated_audio/43/43_27.aiff,,0,4,4,4,,,,,0,26,26,26,,,,,,,,,,,,,,,,,,,,,,,,,,,,,,,,,,,1,0.3529886129999795,,,,,,,,,,,,,,,,,,,,,,,,,,,,,,090419_p1,001,2019_Sep_04_0934,body_behavioural,3.0.4,60.042843450477434,
4,parcelated_audio/43/43_28.aiff,,0,4,4,4,,,,,0,27,27,27,,,,,,,,,,,,,,,,,,,,,,,,,,,,,,,,,,,1,0.051600322000012966,,,,,,,,,,,,,,,,,,,,,,,,,,,,,,090419_p1,001,2019_Sep_04_0934,body_behavioural,3.0.4,60.042843450477434,
4,parcelated_audio/43/43_29.aiff,,0,4,4,4,,,,,0,28,28,28,,,,,,,,,,,,,,,,,,,,,,,,,,,,,,,,,,,1,0.8193327249991853,,,,,,,,,,,,,,,,,,,,,,,,,,,,,,090419_p1,001,2019_Sep_04_0934,body_behavioural,3.0.4,60.042843450477434,
4,,,0,4,4,4,,,,,,,,,,,,,,,,,,,,,,,,,,,,,,,,,,,,,,,,,,,,,space,1.3206042279998655,,,,,,,,,,,,,,,,,,,,,,,,,,,,090419_p1,001,2019_Sep_04_0934,body_behavioural,3.0.4,60.042843450477434,
5,,,0,5,5,5,0,0,0,0,,,,,,,,,,,,,,,,,,,,,,,,,,,,,space,1.768918334000773,space,2.503880926999045,space,0.8013878469992051,,,,,,,,,,,,,,,,,,,,,,,,,,,,,,,,,,,,090419_p1,001,2019_Sep_04_0934,body_behavioural,3.0.4,60.042843450477434,
5,parcelated_audio/42/42_1.aiff,,0,5,5,5,,,,,0,0,0,0,,,,,,,,,,,,,,,,,,,,,,,,,,,,,,,space,2.8028116040004534,space,1.9208693680011493,9,0.4702530819995445,,,,,,,,,,,,,,,,,,,,,,,,,,,,,,090419_p1,001,2019_Sep_04_0934,body_behavioural,3.0.4,60.042843450477434,
5,parcelated_audio/42/42_2.aiff,,0,5,5,5,,,,,0,1,1,1,,,,,,,,,,,,,,,,,,,,,,,,,,,,,,,,,,,1,4.103077499999927,,,,,,,,,,,,,,,,,,,,,,,,,,,,,,090419_p1,001,2019_Sep_04_0934,body_behavioural,3.0.4,60.042843450477434,
5,parcelated_audio/42/42_3.aiff,,0,5,5,5,,,,,0,2,2,2,,,,,,,,,,,,,,,,,,,,,,,,,,,,,,,,,,,1,3.720027546998608,,,,,,,,,,,,,,,,,,,,,,,,,,,,,,090419_p1,001,2019_Sep_04_0934,body_behavioural,3.0.4,60.042843450477434,
5,parcelated_audio/42/42_4.aiff,,0,5,5,5,,,,,0,3,3,3,,,,,,,,,,,,,,,,,,,,,,,,,,,,,,,,,,,1,31.838044995998644,,,,,,,,,,,,,,,,,,,,,,,,,,,,,,090419_p1,001,2019_Sep_04_0934,body_behavioural,3.0.4,60.042843450477434,
5,parcelated_audio/42/42_5.aiff,,0,5,5,5,,,,,0,4,4,4,,,,,,,,,,,,,,,,,,,,,,,,,,,,,,,,,,,1,0.5357166760004475,,,,,,,,,,,,,,,,,,,,,,,,,,,,,,090419_p1,001,2019_Sep_04_0934,body_behavioural,3.0.4,60.042843450477434,
5,parcelated_audio/42/42_6.aiff,,0,5,5,5,,,,,0,5,5,5,,,,,,,,,,,,,,,,,,,,,,,,,,,,,,,,,,,1,1.4357395189999806,,,,,,,,,,,,,,,,,,,,,,,,,,,,,,090419_p1,001,2019_Sep_04_0934,body_behavioural,3.0.4,60.042843450477434,
5,parcelated_audio/42/42_7.aiff,,0,5,5,5,,,,,0,6,6,6,,,,,,,,,,,,,,,,,,,,,,,,,,,,,,,,,,,1,9.803289064000637,,,,,,,,,,,,,,,,,,,,,,,,,,,,,,090419_p1,001,2019_Sep_04_0934,body_behavioural,3.0.4,60.042843450477434,
5,parcelated_audio/42/42_8.aiff,,0,5,5,5,,,,,0,7,7,7,,,,,,,,,,,,,,,,,,,,,,,,,,,,,,,,,,,1,1.4874570880001556,,,,,,,,,,,,,,,,,,,,,,,,,,,,,,090419_p1,001,2019_Sep_04_0934,body_behavioural,3.0.4,60.042843450477434,
5,parcelated_audio/42/42_9.aiff,,0,5,5,5,,,,,0,8,8,8,,,,,,,,,,,,,,,,,,,,,,,,,,,,,,,,,,,1,2.385520600999371,,,,,,,,,,,,,,,,,,,,,,,,,,,,,,090419_p1,001,2019_Sep_04_0934,body_behavioural,3.0.4,60.042843450477434,
5,parcelated_audio/42/42_10.aiff,,0,5,5,5,,,,,0,9,9,9,,,,,,,,,,,,,,,,,,,,,,,,,,,,,,,,,,,1,0.4702429660010239,,,,,,,,,,,,,,,,,,,,,,,,,,,,,,090419_p1,001,2019_Sep_04_0934,body_behavioural,3.0.4,60.042843450477434,
5,parcelated_audio/42/42_11.aiff,,0,5,5,5,,,,,0,10,10,10,,,,,,,,,,,,,,,,,,,,,,,,,,,,,,,,,,,1,1.052823976999207,,,,,,,,,,,,,,,,,,,,,,,,,,,,,,090419_p1,001,2019_Sep_04_0934,body_behavioural,3.0.4,60.042843450477434,
5,parcelated_audio/42/42_12.aiff,,0,5,5,5,,,,,0,11,11,11,,,,,,,,,,,,,,,,,,,,,,,,,,,,,,,,,,,1,11.551428054999633,,,,,,,,,,,,,,,,,,,,,,,,,,,,,,090419_p1,001,2019_Sep_04_0934,body_behavioural,3.0.4,60.042843450477434,
5,parcelated_audio/42/42_13.aiff,,0,5,5,5,,,,,0,12,12,12,,,,,,,,,,,,,,,,,,,,,,,,,,,,,,,,,,,1,0.7695997390001139,,,,,,,,,,,,,,,,,,,,,,,,,,,,,,090419_p1,001,2019_Sep_04_0934,body_behavioural,3.0.4,60.042843450477434,
5,parcelated_audio/42/42_14.aiff,,0,5,5,5,,,,,0,13,13,13,,,,,,,,,,,,,,,,,,,,,,,,,,,,,,,,,,,9,0.3861144490001607,,,,,,,,,,,,,,,,,,,,,,,,,,,,,,090419_p1,001,2019_Sep_04_0934,body_behavioural,3.0.4,60.042843450477434,
5,parcelated_audio/42/42_15.aiff,,0,5,5,5,,,,,0,14,14,14,,,,,,,,,,,,,,,,,,,,,,,,,,,,,,,,,,,1,0.5537295630001609,,,,,,,,,,,,,,,,,,,,,,,,,,,,,,090419_p1,001,2019_Sep_04_0934,body_behavioural,3.0.4,60.042843450477434,
5,parcelated_audio/42/42_16.aiff,,0,5,5,5,,,,,0,15,15,15,,,,,,,,,,,,,,,,,,,,,,,,,,,,,,,,,,,1,0.8864087649999419,,,,,,,,,,,,,,,,,,,,,,,,,,,,,,090419_p1,001,2019_Sep_04_0934,body_behavioural,3.0.4,60.042843450477434,
5,parcelated_audio/42/42_17.aiff,,0,5,5,5,,,,,0,16,16,16,,,,,,,,,,,,,,,,,,,,,,,,,,,,,,,,,,,1,5.036988775998907,,,,,,,,,,,,,,,,,,,,,,,,,,,,,,090419_p1,001,2019_Sep_04_0934,body_behavioural,3.0.4,60.042843450477434,
5,parcelated_audio/42/42_18.aiff,,0,5,5,5,,,,,0,17,17,17,,,,,,,,,,,,,,,,,,,,,,,,,,,,,,,,,,,1,0.5196286000009422,,,,,,,,,,,,,,,,,,,,,,,,,,,,,,090419_p1,001,2019_Sep_04_0934,body_behavioural,3.0.4,60.042843450477434,
5,parcelated_audio/42/42_19.aiff,,0,5,5,5,,,,,0,18,18,18,,,,,,,,,,,,,,,,,,,,,,,,,,,,,,,,,,,1,2.7648782770011167,,,,,,,,,,,,,,,,,,,,,,,,,,,,,,090419_p1,001,2019_Sep_04_0934,body_behavioural,3.0.4,60.042843450477434,
5,parcelated_audio/42/42_20.aiff,,0,5,5,5,,,,,0,19,19,19,,,,,,,,,,,,,,,,,,,,,,,,,,,,,,,,,,,1,0.45378996299950813,,,,,,,,,,,,,,,,,,,,,,,,,,,,,,090419_p1,001,2019_Sep_04_0934,body_behavioural,3.0.4,60.042843450477434,
5,parcelated_audio/42/42_21.aiff,,0,5,5,5,,,,,0,20,20,20,,,,,,,,,,,,,,,,,,,,,,,,,,,,,,,,,,,1,0.40295500499996706,,,,,,,,,,,,,,,,,,,,,,,,,,,,,,090419_p1,001,2019_Sep_04_0934,body_behavioural,3.0.4,60.042843450477434,
5,parcelated_audio/42/42_22.aiff,,0,5,5,5,,,,,0,21,21,21,,,,,,,,,,,,,,,,,,,,,,,,,,,,,,,,,,,1,0.4864736079998693,,,,,,,,,,,,,,,,,,,,,,,,,,,,,,090419_p1,001,2019_Sep_04_0934,body_behavioural,3.0.4,60.042843450477434,
5,parcelated_audio/42/42_23.aiff,,0,5,5,5,,,,,0,22,22,22,,,,,,,,,,,,,,,,,,,,,,,,,,,,,,,,,,,9,1.8692909790006524,,,,,,,,,,,,,,,,,,,,,,,,,,,,,,090419_p1,001,2019_Sep_04_0934,body_behavioural,3.0.4,60.042843450477434,
5,parcelated_audio/42/42_24.aiff,,0,5,5,5,,,,,0,23,23,23,,,,,,,,,,,,,,,,,,,,,,,,,,,,,,,,,,,1,0.5701591070010181,,,,,,,,,,,,,,,,,,,,,,,,,,,,,,090419_p1,001,2019_Sep_04_0934,body_behavioural,3.0.4,60.042843450477434,
5,parcelated_audio/42/42_25.aiff,,0,5,5,5,,,,,0,24,24,24,,,,,,,,,,,,,,,,,,,,,,,,,,,,,,,,,,,1,0.4365735350002069,,,,,,,,,,,,,,,,,,,,,,,,,,,,,,090419_p1,001,2019_Sep_04_0934,body_behavioural,3.0.4,60.042843450477434,
5,parcelated_audio/42/42_26.aiff,,0,5,5,5,,,,,0,25,25,25,,,,,,,,,,,,,,,,,,,,,,,,,,,,,,,,,,,1,2.9366078219991323,,,,,,,,,,,,,,,,,,,,,,,,,,,,,,090419_p1,001,2019_Sep_04_0934,body_behavioural,3.0.4,60.042843450477434,
5,parcelated_audio/42/42_27.aiff,,0,5,5,5,,,,,0,26,26,26,,,,,,,,,,,,,,,,,,,,,,,,,,,,,,,,,,,9,6.519362810999155,,,,,,,,,,,,,,,,,,,,,,,,,,,,,,090419_p1,001,2019_Sep_04_0934,body_behavioural,3.0.4,60.042843450477434,
5,parcelated_audio/42/42_28.aiff,,0,5,5,5,,,,,0,27,27,27,,,,,,,,,,,,,,,,,,,,,,,,,,,,,,,,,,,1,0.4185691570000927,,,,,,,,,,,,,,,,,,,,,,,,,,,,,,090419_p1,001,2019_Sep_04_0934,body_behavioural,3.0.4,60.042843450477434,
5,parcelated_audio/42/42_29.aiff,,0,5,5,5,,,,,0,28,28,28,,,,,,,,,,,,,,,,,,,,,,,,,,,,,,,,,,,1,0.23640092499954335,,,,,,,,,,,,,,,,,,,,,,,,,,,,,,090419_p1,001,2019_Sep_04_0934,body_behavioural,3.0.4,60.042843450477434,
5,parcelated_audio/42/42_30.aiff,,0,5,5,5,,,,,0,29,29,29,,,,,,,,,,,,,,,,,,,,,,,,,,,,,,,,,,,1,0.18730979599968123,,,,,,,,,,,,,,,,,,,,,,,,,,,,,,090419_p1,001,2019_Sep_04_0934,body_behavioural,3.0.4,60.042843450477434,
5,parcelated_audio/42/42_31.aiff,,0,5,5,5,,,,,0,30,30,30,,,,,,,,,,,,,,,,,,,,,,,,,,,,,,,,,,,1,0.4525334900008602,,,,,,,,,,,,,,,,,,,,,,,,,,,,,,090419_p1,001,2019_Sep_04_0934,body_behavioural,3.0.4,60.042843450477434,
5,parcelated_audio/42/42_32.aiff,,0,5,5,5,,,,,0,31,31,31,,,,,,,,,,,,,,,,,,,,,,,,,,,,,,,,,,,1,0.8011881149996043,,,,,,,,,,,,,,,,,,,,,,,,,,,,,,090419_p1,001,2019_Sep_04_0934,body_behavioural,3.0.4,60.042843450477434,
5,parcelated_audio/42/42_33.aiff,,0,5,5,5,,,,,0,32,32,32,,,,,,,,,,,,,,,,,,,,,,,,,,,,,,,,,,,1,0.43670607000058226,,,,,,,,,,,,,,,,,,,,,,,,,,,,,,090419_p1,001,2019_Sep_04_0934,body_behavioural,3.0.4,60.042843450477434,
5,parcelated_audio/42/42_34.aiff,,0,5,5,5,,,,,0,33,33,33,,,,,,,,,,,,,,,,,,,,,,,,,,,,,,,,,,,1,0.5705531669991615,,,,,,,,,,,,,,,,,,,,,,,,,,,,,,090419_p1,001,2019_Sep_04_0934,body_behavioural,3.0.4,60.042843450477434,
5,parcelated_audio/42/42_35.aiff,,0,5,5,5,,,,,0,34,34,34,,,,,,,,,,,,,,,,,,,,,,,,,,,,,,,,,,,1,0.986174060999474,,,,,,,,,,,,,,,,,,,,,,,,,,,,,,090419_p1,001,2019_Sep_04_0934,body_behavioural,3.0.4,60.042843450477434,
5,,,0,5,5,5,,,,,,,,,,,,,,,,,,,,,,,,,,,,,,,,,,,,,,,,,,,,,space,1.4039866299990535,,,,,,,,,,,,,,,,,,,,,,,,,,,,090419_p1,001,2019_Sep_04_0934,body_behavioural,3.0.4,60.042843450477434,
6,,,0,6,6,6,0,0,0,0,,,,,,,,,,,,,,,,,,,,,,,,,,,,,space,1.7703042129996902,space,1.5698151249998773,space,2.2193693999997777,,,,,,,,,,,,,,,,,,,,,,,,,,,,,,,,,,,,090419_p1,001,2019_Sep_04_0934,body_behavioural,3.0.4,60.042843450477434,
6,parcelated_audio/32/32_1.aiff,,0,6,6,6,,,,,0,0,0,0,,,,,,,,,,,,,,,,,,,,,,,,,,,,,,,space,1.1370750349997252,space,3.303508517001319,9,0.5867968089987698,,,,,,,,,,,,,,,,,,,,,,,,,,,,,,090419_p1,001,2019_Sep_04_0934,body_behavioural,3.0.4,60.042843450477434,
6,parcelated_audio/32/32_2.aiff,,0,6,6,6,,,,,0,1,1,1,,,,,,,,,,,,,,,,,,,,,,,,,,,,,,,,,,,1,0.18644415000017034,,,,,,,,,,,,,,,,,,,,,,,,,,,,,,090419_p1,001,2019_Sep_04_0934,body_behavioural,3.0.4,60.042843450477434,
6,parcelated_audio/32/32_3.aiff,,0,6,6,6,,,,,0,2,2,2,,,,,,,,,,,,,,,,,,,,,,,,,,,,,,,,,,,1,0.5519783170002484,,,,,,,,,,,,,,,,,,,,,,,,,,,,,,090419_p1,001,2019_Sep_04_0934,body_behavioural,3.0.4,60.042843450477434,
6,parcelated_audio/32/32_4.aiff,,0,6,6,6,,,,,0,3,3,3,,,,,,,,,,,,,,,,,,,,,,,,,,,,,,,,,,,1,0.4025978280005802,,,,,,,,,,,,,,,,,,,,,,,,,,,,,,090419_p1,001,2019_Sep_04_0934,body_behavioural,3.0.4,60.042843450477434,
6,parcelated_audio/32/32_5.aiff,,0,6,6,6,,,,,0,4,4,4,,,,,,,,,,,,,,,,,,,,,,,,,,,,,,,,,,,1,0.5360622059997695,,,,,,,,,,,,,,,,,,,,,,,,,,,,,,090419_p1,001,2019_Sep_04_0934,body_behavioural,3.0.4,60.042843450477434,
6,parcelated_audio/32/32_6.aiff,,0,6,6,6,,,,,0,5,5,5,,,,,,,,,,,,,,,,,,,,,,,,,,,,,,,,,,,1,2.069533477000732,,,,,,,,,,,,,,,,,,,,,,,,,,,,,,090419_p1,001,2019_Sep_04_0934,body_behavioural,3.0.4,60.042843450477434,
6,parcelated_audio/32/32_7.aiff,,0,6,6,6,,,,,0,6,6,6,,,,,,,,,,,,,,,,,,,,,,,,,,,,,,,,,,,9,9.254484602999582,,,,,,,,,,,,,,,,,,,,,,,,,,,,,,090419_p1,001,2019_Sep_04_0934,body_behavioural,3.0.4,60.042843450477434,
6,parcelated_audio/32/32_8.aiff,,0,6,6,6,,,,,0,7,7,7,,,,,,,,,,,,,,,,,,,,,,,,,,,,,,,,,,,1,0.48610487199948693,,,,,,,,,,,,,,,,,,,,,,,,,,,,,,090419_p1,001,2019_Sep_04_0934,body_behavioural,3.0.4,60.042843450477434,
6,parcelated_audio/32/32_9.aiff,,0,6,6,6,,,,,0,8,8,8,,,,,,,,,,,,,,,,,,,,,,,,,,,,,,,,,,,1,0.5192583240004751,,,,,,,,,,,,,,,,,,,,,,,,,,,,,,090419_p1,001,2019_Sep_04_0934,body_behavioural,3.0.4,60.042843450477434,
6,parcelated_audio/32/32_10.aiff,,0,6,6,6,,,,,0,9,9,9,,,,,,,,,,,,,,,,,,,,,,,,,,,,,,,,,,,1,0.367899008000677,,,,,,,,,,,,,,,,,,,,,,,,,,,,,,090419_p1,001,2019_Sep_04_0934,body_behavioural,3.0.4,60.042843450477434,
6,parcelated_audio/32/32_11.aiff,,0,6,6,6,,,,,0,10,10,10,,,,,,,,,,,,,,,,,,,,,,,,,,,,,,,,,,,1,0.4200341899995692,,,,,,,,,,,,,,,,,,,,,,,,,,,,,,090419_p1,001,2019_Sep_04_0934,body_behavioural,3.0.4,60.042843450477434,
6,parcelated_audio/32/32_12.aiff,,0,6,6,6,,,,,0,11,11,11,,,,,,,,,,,,,,,,,,,,,,,,,,,,,,,,,,,1,2.452803711001252,,,,,,,,,,,,,,,,,,,,,,,,,,,,,,090419_p1,001,2019_Sep_04_0934,body_behavioural,3.0.4,60.042843450477434,
6,parcelated_audio/32/32_13.aiff,,0,6,6,6,,,,,0,12,12,12,,,,,,,,,,,,,,,,,,,,,,,,,,,,,,,,,,,1,1.0358795079991978,,,,,,,,,,,,,,,,,,,,,,,,,,,,,,090419_p1,001,2019_Sep_04_0934,body_behavioural,3.0.4,60.042843450477434,
6,parcelated_audio/32/32_14.aiff,,0,6,6,6,,,,,0,13,13,13,,,,,,,,,,,,,,,,,,,,,,,,,,,,,,,,,,,1,1.1529423360007058,,,,,,,,,,,,,,,,,,,,,,,,,,,,,,090419_p1,001,2019_Sep_04_0934,body_behavioural,3.0.4,60.042843450477434,
6,parcelated_audio/32/32_15.aiff,,0,6,6,6,,,,,0,14,14,14,,,,,,,,,,,,,,,,,,,,,,,,,,,,,,,,,,,1,1.8532440799990582,,,,,,,,,,,,,,,,,,,,,,,,,,,,,,090419_p1,001,2019_Sep_04_0934,body_behavioural,3.0.4,60.042843450477434,
6,parcelated_audio/32/32_16.aiff,,0,6,6,6,,,,,0,15,15,15,,,,,,,,,,,,,,,,,,,,,,,,,,,,,,,,,,,1,1.0199388080000062,,,,,,,,,,,,,,,,,,,,,,,,,,,,,,090419_p1,001,2019_Sep_04_0934,body_behavioural,3.0.4,60.042843450477434,
6,parcelated_audio/32/32_17.aiff,,0,6,6,6,,,,,0,16,16,16,,,,,,,,,,,,,,,,,,,,,,,,,,,,,,,,,,,9,3.2709586180008046,,,,,,,,,,,,,,,,,,,,,,,,,,,,,,090419_p1,001,2019_Sep_04_0934,body_behavioural,3.0.4,60.042843450477434,
6,parcelated_audio/32/32_18.aiff,,0,6,6,6,,,,,0,17,17,17,,,,,,,,,,,,,,,,,,,,,,,,,,,,,,,,,,,1,0.5517258620002394,,,,,,,,,,,,,,,,,,,,,,,,,,,,,,090419_p1,001,2019_Sep_04_0934,body_behavioural,3.0.4,60.042843450477434,
6,parcelated_audio/32/32_19.aiff,,0,6,6,6,,,,,0,18,18,18,,,,,,,,,,,,,,,,,,,,,,,,,,,,,,,,,,,1,0.4669477339994046,,,,,,,,,,,,,,,,,,,,,,,,,,,,,,090419_p1,001,2019_Sep_04_0934,body_behavioural,3.0.4,60.042843450477434,
6,parcelated_audio/32/32_20.aiff,,0,6,6,6,,,,,0,19,19,19,,,,,,,,,,,,,,,,,,,,,,,,,,,,,,,,,,,9,0.4840028500002518,,,,,,,,,,,,,,,,,,,,,,,,,,,,,,090419_p1,001,2019_Sep_04_0934,body_behavioural,3.0.4,60.042843450477434,
6,parcelated_audio/32/32_21.aiff,,0,6,6,6,,,,,0,20,20,20,,,,,,,,,,,,,,,,,,,,,,,,,,,,,,,,,,,1,0.4006490199990367,,,,,,,,,,,,,,,,,,,,,,,,,,,,,,090419_p1,001,2019_Sep_04_0934,body_behavioural,3.0.4,60.042843450477434,
6,parcelated_audio/32/32_22.aiff,,0,6,6,6,,,,,0,21,21,21,,,,,,,,,,,,,,,,,,,,,,,,,,,,,,,,,,,1,0.9194388249998156,,,,,,,,,,,,,,,,,,,,,,,,,,,,,,090419_p1,001,2019_Sep_04_0934,body_behavioural,3.0.4,60.042843450477434,
6,parcelated_audio/32/32_23.aiff,,0,6,6,6,,,,,0,22,22,22,,,,,,,,,,,,,,,,,,,,,,,,,,,,,,,,,,,1,1.4033881900013512,,,,,,,,,,,,,,,,,,,,,,,,,,,,,,090419_p1,001,2019_Sep_04_0934,body_behavioural,3.0.4,60.042843450477434,
6,parcelated_audio/32/32_24.aiff,,0,6,6,6,,,,,0,23,23,23,,,,,,,,,,,,,,,,,,,,,,,,,,,,,,,,,,,1,0.38621759400120936,,,,,,,,,,,,,,,,,,,,,,,,,,,,,,090419_p1,001,2019_Sep_04_0934,body_behavioural,3.0.4,60.042843450477434,
6,parcelated_audio/32/32_25.aiff,,0,6,6,6,,,,,0,24,24,24,,,,,,,,,,,,,,,,,,,,,,,,,,,,,,,,,,,1,0.3837345179999829,,,,,,,,,,,,,,,,,,,,,,,,,,,,,,090419_p1,001,2019_Sep_04_0934,body_behavioural,3.0.4,60.042843450477434,
6,parcelated_audio/32/32_26.aiff,,0,6,6,6,,,,,0,25,25,25,,,,,,,,,,,,,,,,,,,,,,,,,,,,,,,,,,,1,1.0340723250010342,,,,,,,,,,,,,,,,,,,,,,,,,,,,,,090419_p1,001,2019_Sep_04_0934,body_behavioural,3.0.4,60.042843450477434,
6,parcelated_audio/32/32_27.aiff,,0,6,6,6,,,,,0,26,26,26,,,,,,,,,,,,,,,,,,,,,,,,,,,,,,,,,,,1,0.653095960000428,,,,,,,,,,,,,,,,,,,,,,,,,,,,,,090419_p1,001,2019_Sep_04_0934,body_behavioural,3.0.4,60.042843450477434,
6,parcelated_audio/32/32_28.aiff,,0,6,6,6,,,,,0,27,27,27,,,,,,,,,,,,,,,,,,,,,,,,,,,,,,,,,,,1,0.23384106799858273,,,,,,,,,,,,,,,,,,,,,,,,,,,,,,090419_p1,001,2019_Sep_04_0934,body_behavioural,3.0.4,60.042843450477434,
6,parcelated_audio/32/32_29.aiff,,0,6,6,6,,,,,0,28,28,28,,,,,,,,,,,,,,,,,,,,,,,,,,,,,,,,,,,1,1.7165174120000302,,,,,,,,,,,,,,,,,,,,,,,,,,,,,,090419_p1,001,2019_Sep_04_0934,body_behavioural,3.0.4,60.042843450477434,
6,parcelated_audio/32/32_30.aiff,,0,6,6,6,,,,,0,29,29,29,,,,,,,,,,,,,,,,,,,,,,,,,,,,,,,,,,,1,0.3523317350009165,,,,,,,,,,,,,,,,,,,,,,,,,,,,,,090419_p1,001,2019_Sep_04_0934,body_behavioural,3.0.4,60.042843450477434,
6,parcelated_audio/32/32_31.aiff,,0,6,6,6,,,,,0,30,30,30,,,,,,,,,,,,,,,,,,,,,,,,,,,,,,,,,,,9,0.9184888179988775,,,,,,,,,,,,,,,,,,,,,,,,,,,,,,090419_p1,001,2019_Sep_04_0934,body_behavioural,3.0.4,60.042843450477434,
6,parcelated_audio/32/32_32.aiff,,0,6,6,6,,,,,0,31,31,31,,,,,,,,,,,,,,,,,,,,,,,,,,,,,,,,,,,1,0.0033082830013881903,,,,,,,,,,,,,,,,,,,,,,,,,,,,,,090419_p1,001,2019_Sep_04_0934,body_behavioural,3.0.4,60.042843450477434,
6,parcelated_audio/32/32_33.aiff,,0,6,6,6,,,,,0,32,32,32,,,,,,,,,,,,,,,,,,,,,,,,,,,,,,,,,,,1,0.35354296200057433,,,,,,,,,,,,,,,,,,,,,,,,,,,,,,090419_p1,001,2019_Sep_04_0934,body_behavioural,3.0.4,60.042843450477434,
6,,,0,6,6,6,,,,,,,,,,,,,,,,,,,,,,,,,,,,,,,,,,,,,,,,,,,,,space,1.7510055849998025,,,,,,,,,,,,,,,,,,,,,,,,,,,,090419_p1,001,2019_Sep_04_0934,body_behavioural,3.0.4,60.042843450477434,
7,,,0,7,7,7,0,0,0,0,,,,,,,,,,,,,,,,,,,,,,,,,,,,,space,2.120598491999772,space,3.336834960999113,space,0.9374720270006947,,,,,,,,,,,,,,,,,,,,,,,,,,,,,,,,,,,,090419_p1,001,2019_Sep_04_0934,body_behavioural,3.0.4,60.042843450477434,
7,parcelated_audio/14/14_1.aiff,,0,7,7,7,,,,,0,0,0,0,,,,,,,,,,,,,,,,,,,,,,,,,,,,,,,space,1.3866570829995908,space,1.6035480930004269,9,1.819201432999762,,,,,,,,,,,,,,,,,,,,,,,,,,,,,,090419_p1,001,2019_Sep_04_0934,body_behavioural,3.0.4,60.042843450477434,
7,parcelated_audio/14/14_2.aiff,,0,7,7,7,,,,,0,1,1,1,,,,,,,,,,,,,,,,,,,,,,,,,,,,,,,,,,,1,0.8859415080005419,,,,,,,,,,,,,,,,,,,,,,,,,,,,,,090419_p1,001,2019_Sep_04_0934,body_behavioural,3.0.4,60.042843450477434,
7,parcelated_audio/14/14_3.aiff,,0,7,7,7,,,,,0,2,2,2,,,,,,,,,,,,,,,,,,,,,,,,,,,,,,,,,,,1,0.4023468680006772,,,,,,,,,,,,,,,,,,,,,,,,,,,,,,090419_p1,001,2019_Sep_04_0934,body_behavioural,3.0.4,60.042843450477434,
7,parcelated_audio/14/14_4.aiff,,0,7,7,7,,,,,0,3,3,3,,,,,,,,,,,,,,,,,,,,,,,,,,,,,,,,,,,1,0.619158982000954,,,,,,,,,,,,,,,,,,,,,,,,,,,,,,090419_p1,001,2019_Sep_04_0934,body_behavioural,3.0.4,60.042843450477434,
7,parcelated_audio/14/14_5.aiff,,0,7,7,7,,,,,0,4,4,4,,,,,,,,,,,,,,,,,,,,,,,,,,,,,,,,,,,1,1.185620928001299,,,,,,,,,,,,,,,,,,,,,,,,,,,,,,090419_p1,001,2019_Sep_04_0934,body_behavioural,3.0.4,60.042843450477434,
7,parcelated_audio/14/14_6.aiff,,0,7,7,7,,,,,0,5,5,5,,,,,,,,,,,,,,,,,,,,,,,,,,,,,,,,,,,1,0.3523099159992853,,,,,,,,,,,,,,,,,,,,,,,,,,,,,,090419_p1,001,2019_Sep_04_0934,body_behavioural,3.0.4,60.042843450477434,
7,parcelated_audio/14/14_7.aiff,,0,7,7,7,,,,,0,6,6,6,,,,,,,,,,,,,,,,,,,,,,,,,,,,,,,,,,,1,0.6184396259995992,,,,,,,,,,,,,,,,,,,,,,,,,,,,,,090419_p1,001,2019_Sep_04_0934,body_behavioural,3.0.4,60.042843450477434,
7,parcelated_audio/14/14_8.aiff,,0,7,7,7,,,,,0,7,7,7,,,,,,,,,,,,,,,,,,,,,,,,,,,,,,,,,,,1,0.31986547199994675,,,,,,,,,,,,,,,,,,,,,,,,,,,,,,090419_p1,001,2019_Sep_04_0934,body_behavioural,3.0.4,60.042843450477434,
7,parcelated_audio/14/14_9.aiff,,0,7,7,7,,,,,0,8,8,8,,,,,,,,,,,,,,,,,,,,,,,,,,,,,,,,,,,1,6.9542617200004315,,,,,,,,,,,,,,,,,,,,,,,,,,,,,,090419_p1,001,2019_Sep_04_0934,body_behavioural,3.0.4,60.042843450477434,
7,parcelated_audio/14/14_10.aiff,,0,7,7,7,,,,,0,9,9,9,,,,,,,,,,,,,,,,,,,,,,,,,,,,,,,,,,,9,1.4690634690014122,,,,,,,,,,,,,,,,,,,,,,,,,,,,,,090419_p1,001,2019_Sep_04_0934,body_behavioural,3.0.4,60.042843450477434,
7,parcelated_audio/14/14_11.aiff,,0,7,7,7,,,,,0,10,10,10,,,,,,,,,,,,,,,,,,,,,,,,,,,,,,,,,,,1,0.45397113199942396,,,,,,,,,,,,,,,,,,,,,,,,,,,,,,090419_p1,001,2019_Sep_04_0934,body_behavioural,3.0.4,60.042843450477434,
7,parcelated_audio/14/14_12.aiff,,0,7,7,7,,,,,0,11,11,11,,,,,,,,,,,,,,,,,,,,,,,,,,,,,,,,,,,1,3.151756810000734,,,,,,,,,,,,,,,,,,,,,,,,,,,,,,090419_p1,001,2019_Sep_04_0934,body_behavioural,3.0.4,60.042843450477434,
7,parcelated_audio/14/14_13.aiff,,0,7,7,7,,,,,0,12,12,12,,,,,,,,,,,,,,,,,,,,,,,,,,,,,,,,,,,1,0.9700447200011695,,,,,,,,,,,,,,,,,,,,,,,,,,,,,,090419_p1,001,2019_Sep_04_0934,body_behavioural,3.0.4,60.042843450477434,
7,parcelated_audio/14/14_14.aiff,,0,7,7,7,,,,,0,13,13,13,,,,,,,,,,,,,,,,,,,,,,,,,,,,,,,,,,,9,6.33656911899925,,,,,,,,,,,,,,,,,,,,,,,,,,,,,,090419_p1,001,2019_Sep_04_0934,body_behavioural,3.0.4,60.042843450477434,
7,parcelated_audio/14/14_15.aiff,,0,7,7,7,,,,,0,14,14,14,,,,,,,,,,,,,,,,,,,,,,,,,,,,,,,,,,,1,0.4011804649999249,,,,,,,,,,,,,,,,,,,,,,,,,,,,,,090419_p1,001,2019_Sep_04_0934,body_behavioural,3.0.4,60.042843450477434,
7,parcelated_audio/14/14_16.aiff,,0,7,7,7,,,,,0,15,15,15,,,,,,,,,,,,,,,,,,,,,,,,,,,,,,,,,,,1,0.3200735299997177,,,,,,,,,,,,,,,,,,,,,,,,,,,,,,090419_p1,001,2019_Sep_04_0934,body_behavioural,3.0.4,60.042843450477434,
7,parcelated_audio/14/14_17.aiff,,0,7,7,7,,,,,0,16,16,16,,,,,,,,,,,,,,,,,,,,,,,,,,,,,,,,,,,1,0.9024054839992459,,,,,,,,,,,,,,,,,,,,,,,,,,,,,,090419_p1,001,2019_Sep_04_0934,body_behavioural,3.0.4,60.042843450477434,
7,parcelated_audio/14/14_18.aiff,,0,7,7,7,,,,,0,17,17,17,,,,,,,,,,,,,,,,,,,,,,,,,,,,,,,,,,,1,1.1865565300013259,,,,,,,,,,,,,,,,,,,,,,,,,,,,,,090419_p1,001,2019_Sep_04_0934,body_behavioural,3.0.4,60.042843450477434,
7,parcelated_audio/14/14_19.aiff,,0,7,7,7,,,,,0,18,18,18,,,,,,,,,,,,,,,,,,,,,,,,,,,,,,,,,,,1,0.7371020270002191,,,,,,,,,,,,,,,,,,,,,,,,,,,,,,090419_p1,001,2019_Sep_04_0934,body_behavioural,3.0.4,60.042843450477434,
7,parcelated_audio/14/14_20.aiff,,0,7,7,7,,,,,0,19,19,19,,,,,,,,,,,,,,,,,,,,,,,,,,,,,,,,,,,1,1.018292806998943,,,,,,,,,,,,,,,,,,,,,,,,,,,,,,090419_p1,001,2019_Sep_04_0934,body_behavioural,3.0.4,60.042843450477434,
7,parcelated_audio/14/14_21.aiff,,0,7,7,7,,,,,0,20,20,20,,,,,,,,,,,,,,,,,,,,,,,,,,,,,,,,,,,1,1.4033437069992942,,,,,,,,,,,,,,,,,,,,,,,,,,,,,,090419_p1,001,2019_Sep_04_0934,body_behavioural,3.0.4,60.042843450477434,
7,parcelated_audio/14/14_22.aiff,,0,7,7,7,,,,,0,21,21,21,,,,,,,,,,,,,,,,,,,,,,,,,,,,,,,,,,,1,1.8705677929992817,,,,,,,,,,,,,,,,,,,,,,,,,,,,,,090419_p1,001,2019_Sep_04_0934,body_behavioural,3.0.4,60.042843450477434,
7,parcelated_audio/14/14_23.aiff,,0,7,7,7,,,,,0,22,22,22,,,,,,,,,,,,,,,,,,,,,,,,,,,,,,,,,,,9,0.7686149479995947,,,,,,,,,,,,,,,,,,,,,,,,,,,,,,090419_p1,001,2019_Sep_04_0934,body_behavioural,3.0.4,60.042843450477434,
7,parcelated_audio/14/14_24.aiff,,0,7,7,7,,,,,0,23,23,23,,,,,,,,,,,,,,,,,,,,,,,,,,,,,,,,,,,1,0.5509852300001512,,,,,,,,,,,,,,,,,,,,,,,,,,,,,,090419_p1,001,2019_Sep_04_0934,body_behavioural,3.0.4,60.042843450477434,
7,parcelated_audio/14/14_25.aiff,,0,7,7,7,,,,,0,24,24,24,,,,,,,,,,,,,,,,,,,,,,,,,,,,,,,,,,,1,0.5867953480010328,,,,,,,,,,,,,,,,,,,,,,,,,,,,,,090419_p1,001,2019_Sep_04_0934,body_behavioural,3.0.4,60.042843450477434,
7,parcelated_audio/14/14_26.aiff,,0,7,7,7,,,,,0,25,25,25,,,,,,,,,,,,,,,,,,,,,,,,,,,,,,,,,,,1,1.3019181820000085,,,,,,,,,,,,,,,,,,,,,,,,,,,,,,090419_p1,001,2019_Sep_04_0934,body_behavioural,3.0.4,60.042843450477434,
7,parcelated_audio/14/14_27.aiff,,0,7,7,7,,,,,0,26,26,26,,,,,,,,,,,,,,,,,,,,,,,,,,,,,,,,,,,1,3.769759625000006,,,,,,,,,,,,,,,,,,,,,,,,,,,,,,090419_p1,001,2019_Sep_04_0934,body_behavioural,3.0.4,60.042843450477434,
7,parcelated_audio/14/14_28.aiff,,0,7,7,7,,,,,0,27,27,27,,,,,,,,,,,,,,,,,,,,,,,,,,,,,,,,,,,1,1.869725919999837,,,,,,,,,,,,,,,,,,,,,,,,,,,,,,090419_p1,001,2019_Sep_04_0934,body_behavioural,3.0.4,60.042843450477434,
7,parcelated_audio/14/14_29.aiff,,0,7,7,7,,,,,0,28,28,28,,,,,,,,,,,,,,,,,,,,,,,,,,,,,,,,,,,1,1.0040629989998706,,,,,,,,,,,,,,,,,,,,,,,,,,,,,,090419_p1,001,2019_Sep_04_0934,body_behavioural,3.0.4,60.042843450477434,
7,parcelated_audio/14/14_30.aiff,,0,7,7,7,,,,,0,29,29,29,,,,,,,,,,,,,,,,,,,,,,,,,,,,,,,,,,,1,0.4856025030003366,,,,,,,,,,,,,,,,,,,,,,,,,,,,,,090419_p1,001,2019_Sep_04_0934,body_behavioural,3.0.4,60.042843450477434,
7,parcelated_audio/14/14_31.aiff,,0,7,7,7,,,,,0,30,30,30,,,,,,,,,,,,,,,,,,,,,,,,,,,,,,,,,,,9,3.201012690000425,,,,,,,,,,,,,,,,,,,,,,,,,,,,,,090419_p1,001,2019_Sep_04_0934,body_behavioural,3.0.4,60.042843450477434,
7,parcelated_audio/14/14_32.aiff,,0,7,7,7,,,,,0,31,31,31,,,,,,,,,,,,,,,,,,,,,,,,,,,,,,,,,,,1,0.38606213399907574,,,,,,,,,,,,,,,,,,,,,,,,,,,,,,090419_p1,001,2019_Sep_04_0934,body_behavioural,3.0.4,60.042843450477434,
7,parcelated_audio/14/14_33.aiff,,0,7,7,7,,,,,0,32,32,32,,,,,,,,,,,,,,,,,,,,,,,,,,,,,,,,,,,1,0.8038779130001785,,,,,,,,,,,,,,,,,,,,,,,,,,,,,,090419_p1,001,2019_Sep_04_0934,body_behavioural,3.0.4,60.042843450477434,
7,,,0,7,7,7,,,,,,,,,,,,,,,,,,,,,,,,,,,,,,,,,,,,,,,,,,,,,space,1.8857007159986097,,,,,,,,,,,,,,,,,,,,,,,,,,,,090419_p1,001,2019_Sep_04_0934,body_behavioural,3.0.4,60.042843450477434,
,,,,,,,,,,,,,,,,,,,,,,,,,,,,,,,,,,,,,,,,,,,,,,,,,,,,,2918.3239943339995,space,2.0692348720003793,,,,,,,,,,,,,,,,,,,,,,,,,090419_p1,001,2019_Sep_04_0934,body_behavioural,3.0.4,60.042843450477434,
,,"In this next part of the experiment, please recall each story to the best of your ability.",,,,,,,,,,,,,0,0,0,0,,,,,,,,,,,,,,,,,,,,,,,,,,,,,,,,,,,,,,space,11.384478363001108,,,,,,,,,,,,,,,,,,,,,,,090419_p1,001,2019_Sep_04_0934,body_behavioural,3.0.4,60.042843450477434,
,,"You will be presented with the story title, names, the images, and a blank text box for each story.",,,,,,,,,,,,,0,1,1,1,,,,,,,,,,,,,,,,,,,,,,,,,,,,,,,,,,,,,,space,5.420325380999202,,,,,,,,,,,,,,,,,,,,,,,090419_p1,001,2019_Sep_04_0934,body_behavioural,3.0.4,60.042843450477434,
,,Describe the story indicated with as many details as you can remember in the space provided. ,,,,,,,,,,,,,0,2,2,2,,,,,,,,,,,,,,,,,,,,,,,,,,,,,,,,,,,,,,space,4.803070809999554,,,,,,,,,,,,,,,,,,,,,,,090419_p1,001,2019_Sep_04_0934,body_behavioural,3.0.4,60.042843450477434,
,,"When you are finished recalling one story, to move onto the next one, press the ‘return’ key. ",,,,,,,,,,,,,0,3,3,3,,,,,,,,,,,,,,,,,,,,,,,,,,,,,,,,,,,,,,space,5.0531491250003455,,,,,,,,,,,,,,,,,,,,,,,090419_p1,001,2019_Sep_04_0934,body_behavioural,3.0.4,60.042843450477434,
,,There is a 5 minute time limit to make your response. ,,,,,,,,,,,,,0,4,4,4,,,,,,,,,,,,,,,,,,,,,,,,,,,,,,,,,,,,,,space,2.868441509999684,,,,,,,,,,,,,,,,,,,,,,,090419_p1,001,2019_Sep_04_0934,body_behavioural,3.0.4,60.042843450477434,
,,Please note that you will not be able to capitalize any letters except for the first letter of your answer.,,,,,,,,,,,,,0,5,5,5,,,,,,,,,,,,,,,,,,,,,,,,,,,,,,,,,,,,,,space,5.01901025999905,,,,,,,,,,,,,,,,,,,,,,,090419_p1,001,2019_Sep_04_0934,body_behavioural,3.0.4,60.042843450477434,
0,,,,,,,,,,,,,,,,,,,0,0,0,0,,,,,,,,,,,,,,,,,,,,,,,,,,,,,,,,,,,,space,2.9695170359991607,,,,,,,,,,,,,,,,,,,,,090419_p1,001,2019_Sep_04_0934,body_behavioural,3.0.4,60.042843450477434,
1,,,,,,,,,,,,,,,,,,,0,1,1,1,,,,,,,,,,,,,,,,,,,,,,,,,,,,,,,,,,,,space,4.036840490000031,,,,,,,,,,,,,,,,,,,,,090419_p1,001,2019_Sep_04_0934,body_behavioural,3.0.4,60.042843450477434,
2,,,,,,,,,,,,,,,,,,,0,2,2,2,,,,,,,,,,,,,,,,,,,,,,,,,,,,,,,,,,,,space,9.619799128999148,,,,,,,,,,,,,,,,,,,,,090419_p1,001,2019_Sep_04_0934,body_behavioural,3.0.4,60.042843450477434,
3,,,,,,,,,,,,,,,,,,,0,3,3,3,,,,,,,,,,,,,,,,,,,,,,,,,,,,,,,,,,,,space,0.1330775000005815,"Thomas was dreading the break-up. with sadie, they met at a restaurant. she was very excited to see him and asked about his day. he said that he wanted to focus on his career. he ordered hamburger with no tomatoes and she ordered rubby sandwich. he continued saing that he needed tine to himself to figure things out and that she is not in his plans. she threw the sandwich and left. he took a bite of his food and it tasted bad. he wondered if it had someting to do with the food itself. he skipped the disert.   ",,,,,,,,,,,,,,,,,,,,090419_p1,001,2019_Sep_04_0934,body_behavioural,3.0.4,60.042843450477434,
4,,,,,,,,,,,,,,,,,,,0,4,4,4,,,,,,,,,,,,,,,,,,,,,,,,,,,,,,,,,,,,space,1.8533509770004457,,,,,,,,,,,,,,,,,,,,,090419_p1,001,2019_Sep_04_0934,body_behavioural,3.0.4,60.042843450477434,
5,,,,,,,,,,,,,,,,,,,0,5,5,5,,,,,,,,,,,,,,,,,,,,,,,,,,,,,,,,,,,,space,2.333278584999789,At the airport he saw a potential collision between two luggage carts one of which was operated by a woman. he prevented the insident. she was visibly disoriented and he was helping her to fing a way to her gate. they were rushing through the airport. she made it to the gate 5 min before the flight departure.  he asked for her contact info. she gave him a crumbled up business card that she found in her pocket. ,,,,,,,,,,,,,,,,,,,,090419_p1,001,2019_Sep_04_0934,body_behavioural,3.0.4,60.042843450477434,
6,,,,,,,,,,,,,,,,,,,0,6,6,6,,,,,,,,,,,,,,,,,,,,,,,,,,,,,,,,,,,,space,12.637864864000221,,,,,,,,,,,,,,,,,,,,,090419_p1,001,2019_Sep_04_0934,body_behavioural,3.0.4,60.042843450477434,
7,,,,,,,,,,,,,,,,,,,0,7,7,7,,,,,,,,,,,,,,,,,,,,,,,,,,,,,,,,,,,,space,3.787989356998878,Maria was leaving to europe and didnt want to be in a long-distance relationship with henry. it was the last day she could break-up with him.they had a lecture on aristotle .as eveyone was taking note of the professor she told henty she didnt want to be with him. he said that he didnt want to break up because he loved her. that didint change anything. as the lecture finished she asked him for het alpaka sweater back. she sked him to meet her at the dorm. ,,,,,,,,,,,,,,,,,,,,090419_p1,001,2019_Sep_04_0934,body_behavioural,3.0.4,60.042843450477434,
,,,,,,,,,,,,,,,,,,,,,,,,,,,,,,,,,,,,,,,,,,,,,,,,,,,,,,,,,,,,,5301.602976759999,space,34.153074510000806,,,,,,,,,,,,,,,,,090419_p1,001,2019_Sep_04_0934,body_behavioural,3.0.4,60.042843450477434,
,,"In this last part of the experiment, please answer 8 questions about each story.",,,,,,,,,,,,,,,,,,,,,0,0,0,0,,,,,,,,,,,,,,,,,,,,,,,,,,,,,,,,,,,,,,space,3.68791728999895,,,,,,,,,,,,,,,090419_p1,001,2019_Sep_04_0934,body_behavioural,3.0.4,60.042843450477434,
,,Some of the questions are not related to the perspective you were asked to assume.,,,,,,,,,,,,,,,,,,,,,0,1,1,1,,,,,,,,,,,,,,,,,,,,,,,,,,,,,,,,,,,,,,space,3.7705124439999054,,,,,,,,,,,,,,,090419_p1,001,2019_Sep_04_0934,body_behavioural,3.0.4,60.042843450477434,
,,"We realize that we did not tell you to think of these questions during the story, but please do your best to answer them.",,,,,,,,,,,,,,,,,,,,,0,2,2,2,,,,,,,,,,,,,,,,,,,,,,,,,,,,,,,,,,,,,,space,6.486850662000506,,,,,,,,,,,,,,,090419_p1,001,2019_Sep_04_0934,body_behavioural,3.0.4,60.042843450477434,
,,"Please answer as much as you remember, and be specific and concrete in your answers. It is best to try to be as faithful as possible to what the story actually said.
",,,,,,,,,,,,,,,,,,,,,0,3,3,3,,,,,,,,,,,,,,,,,,,,,,,,,,,,,,,,,,,,,,space,9.971027192999827,,,,,,,,,,,,,,,090419_p1,001,2019_Sep_04_0934,body_behavioural,3.0.4,60.042843450477434,
,,"When you have finished typing your answer, hit ‘return’ to submit your answer and move onto the next question. ",,,,,,,,,,,,,,,,,,,,,0,4,4,4,,,,,,,,,,,,,,,,,,,,,,,,,,,,,,,,,,,,,,space,5.903304707999268,,,,,,,,,,,,,,,090419_p1,001,2019_Sep_04_0934,body_behavioural,3.0.4,60.042843450477434,
0,,,,,,,,,,,,,,,,,,,,,,,,,,,0,0,0,0,,,,,,,,,,,,,,,,,,,,,,,,,,,,,,Exam on monday,,,,,,space,2.5521306360005838,They have been dating since their freshmen year,non-primed first,3 white diamonds,,Cousin,Old,"Chemistry, sodium and chloride",,Exam on monday,,,,090419_p1,001,2019_Sep_04_0934,body_behavioural,3.0.4,60.042843450477434,
1,,,,,,,,,,,,,,,,,,,,,,,,,,,0,1,1,1,,,,,,,,,,,,,,,,,,,,,,,,,,,,,,Mombackslash,,,,,,space,2.9533631419999438,Fancy,non-primed first,Small,,They like it a lot,2 years,White 1,Disert tray,Mombackslash,,,,090419_p1,001,2019_Sep_04_0934,body_behavioural,3.0.4,60.042843450477434,
2,,,,,,,,,,,,,,,,,,,,,,,,,,,0,2,2,2,,,,,,,,,,,,,,,,,,,,,,,,,,,,,,Opening a bottle of champagne,,,,,,space,5.602944342001138,Bright and neat,non-primed first,They pick out crackers to go with cheese,"4 are open, they get into the 2nd one",Morrison pays with a check,Representative and store manager,,,Opening a bottle of champagne,,,,090419_p1,001,2019_Sep_04_0934,body_behavioural,3.0.4,60.042843450477434,
3,,,,,,,,,,,,,,,,,,,,,,,,,,,0,3,3,3,,,,,,,,,,,,,,,,,,,,,,,,,,,,,,She doesnt eat it. he takes a bite and it tastes fishy to him,,,,,,space,2.7198102250004013,For a while,non-primed first,He needs to focus on himself and figure out next career move ,She is confused at first because she thought they were doing fine. but then she gets up and leaves himat the table,She wants her poster and cd,Booth in the back,,He orders a burger with no tomatoe and she orders  a rubby sandwich,She doesnt eat it. he takes a bite and it tastes fishy to him,,,,090419_p1,001,2019_Sep_04_0934,body_behavioural,3.0.4,60.042843450477434,
4,,,,,,,,,,,,,,,,,,,,,,,,,,,0,4,4,4,,,,,,,,,,,,,,,,,,,,,,,,,,,,,,Simon pays for carinas groceries,,,,,,space,1.4704488340012176,Deli meat,non-primed first,Isn't he cute,They will meet for dinner,Four thirty pm,Neat and lightup,Deli meat and chicken,One is open ,Simon pays for carinas groceries,,,,090419_p1,001,2019_Sep_04_0934,body_behavioural,3.0.4,60.042843450477434,
5,,,,,,,,,,,,,,,,,,,,,,,,,,,0,5,5,5,,,,,,,,,,,,,,,,,,,,,,,,,,,,,,,,,,,,space,1.0696601500003453,Luggage cart,primed first,Are you ok,N/a,5 minutes before annas flight deparure,30 min,,4,,,,,090419_p1,001,2019_Sep_04_0934,body_behavioural,3.0.4,60.042843450477434,
6,,,,,,,,,,,,,,,,,,,,,,,,,,,0,6,6,6,,,,,,,,,,,,,,,,,,,,,,,,,,,,,,Hanshake,,,,,,space,1.3189699979993748,2 hours,primed first,,4,,,"140,000",,Hanshake,,,,090419_p1,001,2019_Sep_04_0934,body_behavioural,3.0.4,60.042843450477434,
7,,,,,,,,,,,,,,,,,,,,,,,,,,,0,7,7,7,,,,,,,,,,,,,,,,,,,,,,,,,,,,,,She wants her alpaka sweater  back,,,,,,space,0.9554427380007837,Old,non-primed first,"Philosophy, the class is on aristotle",,,For a while,She doesnt want to do a long-distance relationship,He doesnt want to break up because he still loves her,She wants her alpaka sweater  back,,,,090419_p1,001,2019_Sep_04_0934,body_behavioural,3.0.4,60.042843450477434,
,,,,,,,,,,,,,,,,,,,,,,,,,,,,,,,,,,,,,,,,,,,,,,,,,,,,,,,,,,,,,,,,,,,,,,,,,,,,,6367.192015389999,space,1.035811202998957,090419_p1,001,2019_Sep_04_0934,body_behavioural,3.0.4,60.042843450477434,
,,,,,,,,,,,,,,,,,,,,,,,,,,,,,,,0,0,0,0,,,,,,,,,,,,,,,,,,,,,,,,,,,,,,,,,,,,,,,,,,,,,,090419_p1,001,2019_Sep_04_0934,body_behavioural,3.0.4,60.042843450477434,
,,,,,,,,,,,,,,,,,,,,,,,,,,,,,,,1,0,1,0,,,,,,,,,,,,,,,,,,,,,,,,,,,,,,,,,,,,,,,,,,,,,,090419_p1,001,2019_Sep_04_0934,body_behavioural,3.0.4,60.042843450477434,
,,,,,,,,,,,,,,,,,,,,,,,,,,,,,,,2,0,2,0,,,,,,,,,,,,,,,,,,,,,,,,,,,,,,,,,,,,,,,,,,,,,,090419_p1,001,2019_Sep_04_0934,body_behavioural,3.0.4,60.042843450477434,
,,,,,,,,,,,,,,,,,,,,,,,,,,,,,,,3,0,3,0,,,,,,,,,,,,,,,,,,,,,,,,,,,,,,,,,,,,,,,,,,,,,,090419_p1,001,2019_Sep_04_0934,body_behavioural,3.0.4,60.042843450477434,
,,,,,,,,,,,,,,,,,,,,,,,,,,,,,,,4,0,4,0,,,,,,,,,,,,,,,,,,,,,,,,,,,,,,,,,,,,,,,,,,,,,,090419_p1,001,2019_Sep_04_0934,body_behavioural,3.0.4,60.042843450477434,
