count,audio,instructText,trials.thisRepN,trials.thisTrialN,trials.thisN,trials.thisIndex,trials_7.thisRepN,trials_7.thisTrialN,trials_7.thisN,trials_7.thisIndex,trials_2.thisRepN,trials_2.thisTrialN,trials_2.thisN,trials_2.thisIndex,trials_3.thisRepN,trials_3.thisTrialN,trials_3.thisN,trials_3.thisIndex,trials_4.thisRepN,trials_4.thisTrialN,trials_4.thisN,trials_4.thisIndex,trials_5.thisRepN,trials_5.thisTrialN,trials_5.thisN,trials_5.thisIndex,trials_6.thisRepN,trials_6.thisTrialN,trials_6.thisN,trials_6.thisIndex,order of stories,order of perspectives,text_38.started,text_38.stopped,key_resp_8.keys,key_resp_8.rt,key_resp_8.started,key_resp_8.stopped,text_39.started,text_39.stopped,text_33.started,text_33.stopped,key_resp_5.keys,key_resp_5.rt,key_resp_5.started,key_resp_5.stopped,text_4.started,text_4.stopped,image.started,image.stopped,text_5.started,text_5.stopped,text_37.started,text_37.stopped,key_resp_7.keys,key_resp_7.rt,key_resp_7.started,key_resp_7.stopped,question1_2.started,question1_2.stopped,question2_2.started,question2_2.stopped,question3_2.started,question3_2.stopped,question4_2.started,question4_2.stopped,question5_2.started,question5_2.stopped,question6_2.started,question6_2.stopped,image_15.started,image_15.stopped,text_49.started,text_49.stopped,key_resp_15.keys,key_resp_15.rt,key_resp_15.started,key_resp_15.stopped,text_50.started,text_50.stopped,key_resp_14.keys,key_resp_14.rt,key_resp_14.started,key_resp_14.stopped,sound_1.started,sound_1.stopped,pic1.started,pic1.stopped,story_presses.keys,story_presses.rt,story_presses.started,story_presses.stopped,image_2.started,image_2.stopped,text_34.started,text_34.stopped,text_35.started,text_35.stopped,text.started,text.stopped,text_52.started,text_52.stopped,key_resp_16.keys,key_resp_16.rt,key_resp_16.started,key_resp_16.stopped,story time,text_45.started,text_45.stopped,key_resp_6.keys,key_resp_6.rt,key_resp_6.started,key_resp_6.stopped,key_resp_2.keys,key_resp_2.rt,key_resp_2.started,key_resp_2.stopped,text_6.started,text_6.stopped,text_24.started,text_24.stopped,text_41.started,text_41.stopped,key_resp_10.keys,key_resp_10.rt,key_resp_10.started,key_resp_10.stopped,text_42.started,text_42.stopped,text_51.started,text_51.stopped,recall,text_9.started,text_9.stopped,text_10.started,text_10.stopped,image_4.started,image_4.stopped,polygon.started,polygon.stopped,bottom_line.started,bottom_line.stopped,right_line_2.started,right_line_2.stopped,left_line.started,left_line.stopped,text_48.started,text_48.stopped,recall time,text_46.started,text_46.stopped,key_resp_12.keys,key_resp_12.rt,key_resp_12.started,key_resp_12.stopped,key_resp_3.keys,key_resp_3.rt,key_resp_3.started,key_resp_3.stopped,text_13.started,text_13.stopped,text_23.started,text_23.stopped,text_43.started,text_43.stopped,key_resp_11.keys,key_resp_11.rt,key_resp_11.started,key_resp_11.stopped,text_44.started,text_44.stopped,image_10.started,image_10.stopped,text_22.started,text_22.stopped,participant,session,date,expName,psychopyVersion,frameRate,
0,,,0,0,0,0,0,0,0,0,,,,,,,,,,,,,,,,,,,,,[24 33 31 11 22 42 13 44],"['Social' 'Social' 'Location' 'Social' 'Location' 'Social' 'Location'
 'Location']",14.347099270002218,None,space,17.289619420014787,14.347099270002218,None,14.347099270002218,None,31.665767886996036,None,space,1.1459765920008067,31.665767886996036,None,33.08191882201936,None,33.08191882201936,None,33.08191882201936,None,33.96559238000191,None,space,2.0628395850071684,33.96559238000191,None,36.349429252004484,None,36.349429252004484,None,36.349429252004484,None,36.349429252004484,None,36.349429252004484,None,36.349429252004484,None,36.349429252004484,None,,,,,,,,,,,,,,,,,,,,,,,,,,,,,,,,,,,,,,,,,,,,,,,,,,,,,,,,,,,,,,,,,,,,,,,,,,,,,,,,,,,,,,,,,,,,,,,,,,,,,,,,091619_p2,001,2019_Sep_16_1324,body_behavioural,3.2.1,60.326918078990694,
0,parcelated_audio/24/24_1.aiff,,0,0,0,0,,,,,0,0,0,0,,,,,,,,,,,,,,,,,,,,,,,,,,,,,,,,,73.15218806199846,None,73.15218806199846,None,73.15218806199846,None,,,,,,,,,,,,,,,,,,,,,71.65122985499329,None,space,1.426036649994785,71.65122985499329,None,73.88471147199743,None,space,1.7182004580099601,73.88471147199743,None,75.76818995070934,None,75.76941031200113,None,9,2.004554751998512,86.18550439699902,None,86.18550439699902,None,86.18550439699902,None,86.18550439699902,None,,,,,,,,,,,,,,,,,,,,,,,,,,,,,,,,,,,,,,,,,,,,,,,,,,,,,,,,,,,,,,,,,,,,,,,,,,,,,,091619_p2,001,2019_Sep_16_1324,body_behavioural,3.2.1,60.326918078990694,
0,parcelated_audio/24/24_2.aiff,,0,0,0,0,,,,,0,1,1,1,,,,,,,,,,,,,,,,,,,,,,,,,,,,,,,,,,,,,,,,,,,,,,,,,,,,,,,,,,,,,,,,,,,,,,,88.30276669070881,None,88.30247850701562,None,1,0.1457435250049457,94.62050969700795,None,94.62050969700795,None,94.62050969700795,None,94.62050969700795,None,,,,,,,,,,,,,,,,,,,,,,,,,,,,,,,,,,,,,,,,,,,,,,,,,,,,,,,,,,,,,,,,,,,,,,,,,,,,,,091619_p2,001,2019_Sep_16_1324,body_behavioural,3.2.1,60.326918078990694,
0,parcelated_audio/24/24_3.aiff,,0,0,0,0,,,,,0,2,2,2,,,,,,,,,,,,,,,,,,,,,,,,,,,,,,,,,,,,,,,,,,,,,,,,,,,,,,,,,,,,,,,,,,,,,,,94.85358886069443,None,94.85287592501845,None,1,0.2359313319902867,105.27036498999223,None,105.27036498999223,None,105.27036498999223,None,105.27036498999223,None,,,,,,,,,,,,,,,,,,,,,,,,,,,,,,,,,,,,,,,,,,,,,,,,,,,,,,,,,,,,,,,,,,,,,,,,,,,,,,091619_p2,001,2019_Sep_16_1324,body_behavioural,3.2.1,60.326918078990694,
0,parcelated_audio/24/24_4.aiff,,0,0,0,0,,,,,0,3,3,3,,,,,,,,,,,,,,,,,,,,,,,,,,,,,,,,,,,,,,,,,,,,,,,,,,,,,,,,,,,,,,,,,,,,,,,105.62049497571715,None,105.62003265001113,None,1,0.5262406179972459,112.47219421699992,None,112.47219421699992,None,112.47219421699992,None,112.47219421699992,None,,,,,,,,,,,,,,,,,,,,,,,,,,,,,,,,,,,,,,,,,,,,,,,,,,,,,,,,,,,,,,,,,,,,,,,,,,,,,,091619_p2,001,2019_Sep_16_1324,body_behavioural,3.2.1,60.326918078990694,
0,parcelated_audio/24/24_5.aiff,,0,0,0,0,,,,,0,4,4,4,,,,,,,,,,,,,,,,,,,,,,,,,,,,,,,,,,,,,,,,,,,,,,,,,,,,,,,,,,,,,,,,,,,,,,,113.08835662771307,None,113.08742109200102,None,1,0.9686733650160022,118.03773752701818,None,118.03773752701818,None,118.03773752701818,None,118.03773752701818,None,,,,,,,,,,,,,,,,,,,,,,,,,,,,,,,,,,,,,,,,,,,,,,,,,,,,,,,,,,,,,,,,,,,,,,,,,,,,,,091619_p2,001,2019_Sep_16_1324,body_behavioural,3.2.1,60.326918078990694,
0,parcelated_audio/24/24_6.aiff,,0,0,0,0,,,,,0,5,5,5,,,,,,,,,,,,,,,,,,,,,,,,,,,,,,,,,,,,,,,,,,,,,,,,,,,,,,,,,,,,,,,,,,,,,,,119.0879306207149,None,119.08851396999671,None,1,0.25085857999511063,126.5392797900131,None,126.5392797900131,None,126.5392797900131,None,126.5392797900131,None,,,,,,,,,,,,,,,,,,,,,,,,,,,,,,,,,,,,,,,,,,,,,,,,,,,,,,,,,,,,,,,,,,,,,,,,,,,,,,091619_p2,001,2019_Sep_16_1324,body_behavioural,3.2.1,60.326918078990694,
0,parcelated_audio/24/24_7.aiff,,0,0,0,0,,,,,0,6,6,6,,,,,,,,,,,,,,,,,,,,,,,,,,,,,,,,,,,,,,,,,,,,,,,,,,,,,,,,,,,,,,,,,,,,,,,126.88848684272088,None,126.88844907001476,None,1,0.2636545499844942,131.25532127000042,None,131.25532127000042,None,131.25532127000042,None,131.25532127000042,None,,,,,,,,,,,,,,,,,,,,,,,,,,,,,,,,,,,,,,,,,,,,,,,,,,,,,,,,,,,,,,,,,,,,,,,,,,,,,,091619_p2,001,2019_Sep_16_1324,body_behavioural,3.2.1,60.326918078990694,
0,parcelated_audio/24/24_8.aiff,,0,0,0,0,,,,,0,7,7,7,,,,,,,,,,,,,,,,,,,,,,,,,,,,,,,,,,,,,,,,,,,,,,,,,,,,,,,,,,,,,,,,,,,,,,,131.60527491069806,None,131.60563197001466,None,1,0.09640461599337868,137.6554943450028,None,137.6554943450028,None,137.6554943450028,None,137.6554943450028,None,,,,,,,,,,,,,,,,,,,,,,,,,,,,,,,,,,,,,,,,,,,,,,,,,,,,,,,,,,,,,,,,,,,,,,,,,,,,,,091619_p2,001,2019_Sep_16_1324,body_behavioural,3.2.1,60.326918078990694,
0,parcelated_audio/24/24_9.aiff,,0,0,0,0,,,,,0,8,8,8,,,,,,,,,,,,,,,,,,,,,,,,,,,,,,,,,,,,,,,,,,,,,,,,,,,,,,,,,,,,,,,,,,,,,,,137.83830354570236,None,137.8382131230028,None,1,0.5593655180127826,142.17275929200696,None,142.17275929200696,None,142.17275929200696,None,142.17275929200696,None,,,,,,,,,,,,,,,,,,,,,,,,,,,,,,,,,,,,,,,,,,,,,,,,,,,,,,,,,,,,,,,,,,,,,,,,,,,,,,091619_p2,001,2019_Sep_16_1324,body_behavioural,3.2.1,60.326918078990694,
0,parcelated_audio/24/24_10.aiff,,0,0,0,0,,,,,0,9,9,9,,,,,,,,,,,,,,,,,,,,,,,,,,,,,,,,,,,,,,,,,,,,,,,,,,,,,,,,,,,,,,,,,,,,,,,142.82315519269613,None,142.82297567499336,None,9,1.799864177010022,146.55648349001422,None,146.55648349001422,None,146.55648349001422,None,146.55648349001422,None,,,,,,,,,,,,,,,,,,,,,,,,,,,,,,,,,,,,,,,,,,,,,,,,,,,,,,,,,,,,,,,,,,,,,,,,,,,,,,091619_p2,001,2019_Sep_16_1324,body_behavioural,3.2.1,60.326918078990694,
0,parcelated_audio/24/24_11.aiff,,0,0,0,0,,,,,0,10,10,10,,,,,,,,,,,,,,,,,,,,,,,,,,,,,,,,,,,,,,,,,,,,,,,,,,,,,,,,,,,,,,,,,,,,,,,148.44079885070968,None,148.44020795001416,None,1,0.2748429600032978,158.52435607201187,None,158.52435607201187,None,158.52435607201187,None,158.52435607201187,None,,,,,,,,,,,,,,,,,,,,,,,,,,,,,,,,,,,,,,,,,,,,,,,,,,,,,,,,,,,,,,,,,,,,,,,,,,,,,,091619_p2,001,2019_Sep_16_1324,body_behavioural,3.2.1,60.326918078990694,
0,parcelated_audio/24/24_12.aiff,,0,0,0,0,,,,,0,11,11,11,,,,,,,,,,,,,,,,,,,,,,,,,,,,,,,,,,,,,,,,,,,,,,,,,,,,,,,,,,,,,,,,,,,,,,,158.8911607527203,None,158.8905304550135,None,1,0.25763719200040214,167.9569397130108,None,167.9569397130108,None,167.9569397130108,None,167.9569397130108,None,,,,,,,,,,,,,,,,,,,,,,,,,,,,,,,,,,,,,,,,,,,,,,,,,,,,,,,,,,,,,,,,,,,,,,,,,,,,,,091619_p2,001,2019_Sep_16_1324,body_behavioural,3.2.1,60.326918078990694,
0,parcelated_audio/24/24_13.aiff,,0,0,0,0,,,,,0,12,12,12,,,,,,,,,,,,,,,,,,,,,,,,,,,,,,,,,,,,,,,,,,,,,,,,,,,,,,,,,,,,,,,,,,,,,,,168.29082659571722,None,168.29029741699924,None,1,0.36142860699328594,172.24143448201357,None,172.24143448201357,None,172.24143448201357,None,172.24143448201357,None,,,,,,,,,,,,,,,,,,,,,,,,,,,,,,,,,,,,,,,,,,,,,,,,,,,,,,,,,,,,,,,,,,,,,,,,,,,,,,091619_p2,001,2019_Sep_16_1324,body_behavioural,3.2.1,60.326918078990694,
0,parcelated_audio/24/24_14.aiff,,0,0,0,0,,,,,0,13,13,13,,,,,,,,,,,,,,,,,,,,,,,,,,,,,,,,,,,,,,,,,,,,,,,,,,,,,,,,,,,,,,,,,,,,,,,172.6914346207137,None,172.69245430000592,None,1,0.6743021949951071,180.07529887001147,None,180.07529887001147,None,180.07529887001147,None,180.07529887001147,None,,,,,,,,,,,,,,,,,,,,,,,,,,,,,,,,,,,,,,,,,,,,,,,,,,,,,,,,,,,,,,,,,,,,,,,,,,,,,,091619_p2,001,2019_Sep_16_1324,body_behavioural,3.2.1,60.326918078990694,
0,parcelated_audio/24/24_15.aiff,,0,0,0,0,,,,,0,14,14,14,,,,,,,,,,,,,,,,,,,,,,,,,,,,,,,,,,,,,,,,,,,,,,,,,,,,,,,,,,,,,,,,,,,,,,,180.84277951072144,None,180.84200775701902,None,1,0.32810721299028955,187.37609304700163,None,187.37609304700163,None,187.37609304700163,None,187.37609304700163,None,,,,,,,,,,,,,,,,,,,,,,,,,,,,,,,,,,,,,,,,,,,,,,,,,,,,,,,,,,,,,,,,,,,,,,,,,,,,,,091619_p2,001,2019_Sep_16_1324,body_behavioural,3.2.1,60.326918078990694,
0,parcelated_audio/24/24_16.aiff,,0,0,0,0,,,,,0,15,15,15,,,,,,,,,,,,,,,,,,,,,,,,,,,,,,,,,,,,,,,,,,,,,,,,,,,,,,,,,,,,,,,,,,,,,,,187.7932296707091,None,187.79252638999606,None,1,0.41610319502069615,194.94581182999536,None,194.94581182999536,None,194.94581182999536,None,194.94581182999536,None,,,,,,,,,,,,,,,,,,,,,,,,,,,,,,,,,,,,,,,,,,,,,,,,,,,,,,,,,,,,,,,,,,,,,,,,,,,,,,091619_p2,001,2019_Sep_16_1324,body_behavioural,3.2.1,60.326918078990694,
0,parcelated_audio/24/24_17.aiff,,0,0,0,0,,,,,0,16,16,16,,,,,,,,,,,,,,,,,,,,,,,,,,,,,,,,,,,,,,,,,,,,,,,,,,,,,,,,,,,,,,,,,,,,,,,195.45995302071387,None,195.4597802819917,None,1,0.8774081850133371,201.42694647499593,None,201.42694647499593,None,201.42694647499593,None,201.42694647499593,None,,,,,,,,,,,,,,,,,,,,,,,,,,,,,,,,,,,,,,,,,,,,,,,,,,,,,,,,,,,,,,,,,,,,,,,,,,,,,,091619_p2,001,2019_Sep_16_1324,body_behavioural,3.2.1,60.326918078990694,
0,parcelated_audio/24/24_18.aiff,,0,0,0,0,,,,,0,17,17,17,,,,,,,,,,,,,,,,,,,,,,,,,,,,,,,,,,,,,,,,,,,,,,,,,,,,,,,,,,,,,,,,,,,,,,,202.39404190271452,None,202.3937298899982,None,1,1.204283758008387,210.8279759500001,None,210.8279759500001,None,210.8279759500001,None,210.8279759500001,None,,,,,,,,,,,,,,,,,,,,,,,,,,,,,,,,,,,,,,,,,,,,,,,,,,,,,,,,,,,,,,,,,,,,,,,,,,,,,,091619_p2,001,2019_Sep_16_1324,body_behavioural,3.2.1,60.326918078990694,
0,parcelated_audio/24/24_19.aiff,,0,0,0,0,,,,,0,18,18,18,,,,,,,,,,,,,,,,,,,,,,,,,,,,,,,,,,,,,,,,,,,,,,,,,,,,,,,,,,,,,,,,,,,,,,,212.1280101957178,None,212.1283553050016,None,1,0.2483450180152431,221.74545010199654,None,221.74545010199654,None,221.74545010199654,None,221.74545010199654,None,,,,,,,,,,,,,,,,,,,,,,,,,,,,,,,,,,,,,,,,,,,,,,,,,,,,,,,,,,,,,,,,,,,,,,,,,,,,,,091619_p2,001,2019_Sep_16_1324,body_behavioural,3.2.1,60.326918078990694,
0,parcelated_audio/24/24_20.aiff,,0,0,0,0,,,,,0,19,19,19,,,,,,,,,,,,,,,,,,,,,,,,,,,,,,,,,,,,,,,,,,,,,,,,,,,,,,,,,,,,,,,,,,,,,,,222.07830905571754,None,222.07872626499739,None,1,0.39272846301901154,226.545302197017,None,226.545302197017,None,226.545302197017,None,226.545302197017,None,,,,,,,,,,,,,,,,,,,,,,,,,,,,,,,,,,,,,,,,,,,,,,,,,,,,,,,,,,,,,,,,,,,,,,,,,,,,,,091619_p2,001,2019_Sep_16_1324,body_behavioural,3.2.1,60.326918078990694,
0,parcelated_audio/24/24_21.aiff,,0,0,0,0,,,,,0,20,20,20,,,,,,,,,,,,,,,,,,,,,,,,,,,,,,,,,,,,,,,,,,,,,,,,,,,,,,,,,,,,,,,,,,,,,,,227.0289689326979,None,227.0283087400021,None,1,0.2251471049967222,235.04590029199608,None,235.04590029199608,None,235.04590029199608,None,235.04590029199608,None,,,,,,,,,,,,,,,,,,,,,,,,,,,,,,,,,,,,,,,,,,,,,,,,,,,,,,,,,,,,,,,,,,,,,,,,,,,,,,091619_p2,001,2019_Sep_16_1324,body_behavioural,3.2.1,60.326918078990694,
0,parcelated_audio/24/24_22.aiff,,0,0,0,0,,,,,0,21,21,21,,,,,,,,,,,,,,,,,,,,,,,,,,,,,,,,,,,,,,,,,,,,,,,,,,,,,,,,,,,,,,,,,,,,,,,235.37883819570706,None,235.3798360520159,None,1,0.23332841499359347,245.7799606170156,None,245.7799606170156,None,245.7799606170156,None,245.7799606170156,None,,,,,,,,,,,,,,,,,,,,,,,,,,,,,,,,,,,,,,,,,,,,,,,,,,,,,,,,,,,,,,,,,,,,,,,,,,,,,,091619_p2,001,2019_Sep_16_1324,body_behavioural,3.2.1,60.326918078990694,
0,parcelated_audio/24/24_23.aiff,,0,0,0,0,,,,,0,22,22,22,,,,,,,,,,,,,,,,,,,,,,,,,,,,,,,,,,,,,,,,,,,,,,,,,,,,,,,,,,,,,,,,,,,,,,,246.09683458571962,None,246.0967277100135,None,1,0.2242188979871571,256.32978243901744,None,256.32978243901744,None,256.32978243901744,None,256.32978243901744,None,,,,,,,,,,,,,,,,,,,,,,,,,,,,,,,,,,,,,,,,,,,,,,,,,,,,,,,,,,,,,,,,,,,,,,,,,,,,,,091619_p2,001,2019_Sep_16_1324,body_behavioural,3.2.1,60.326918078990694,
0,parcelated_audio/24/24_24.aiff,,0,0,0,0,,,,,0,23,23,23,,,,,,,,,,,,,,,,,,,,,,,,,,,,,,,,,,,,,,,,,,,,,,,,,,,,,,,,,,,,,,,,,,,,,,,256.66432242471785,None,256.6634066250117,None,1,0.22883097699377686,263.23088049000944,None,263.23088049000944,None,263.23088049000944,None,263.23088049000944,None,,,,,,,,,,,,,,,,,,,,,,,,,,,,,,,,,,,,,,,,,,,,,,,,,,,,,,,,,,,,,,,,,,,,,,,,,,,,,,091619_p2,001,2019_Sep_16_1324,body_behavioural,3.2.1,60.326918078990694,
0,parcelated_audio/24/24_25.aiff,,0,0,0,0,,,,,0,24,24,24,,,,,,,,,,,,,,,,,,,,,,,,,,,,,,,,,,,,,,,,,,,,,,,,,,,,,,,,,,,,,,,,,,,,,,,263.56545083269305,None,263.56424696501927,None,1,0.3120985349814873,272.28172599500977,None,272.28172599500977,None,272.28172599500977,None,272.28172599500977,None,,,,,,,,,,,,,,,,,,,,,,,,,,,,,,,,,,,,,,,,,,,,,,,,,,,,,,,,,,,,,,,,,,,,,,,,,,,,,,091619_p2,001,2019_Sep_16_1324,body_behavioural,3.2.1,60.326918078990694,
0,parcelated_audio/24/24_26.aiff,,0,0,0,0,,,,,0,25,25,25,,,,,,,,,,,,,,,,,,,,,,,,,,,,,,,,,,,,,,,,,,,,,,,,,,,,,,,,,,,,,,,,,,,,,,,272.68224330570376,None,272.68281559000025,None,1,0.4293089299753774,279.24938933501835,None,279.24938933501835,None,279.24938933501835,None,279.24938933501835,None,,,,,,,,,,,,,,,,,,,,,,,,,,,,,,,,,,,,,,,,,,,,,,,,,,,,,,,,,,,,,,,,,,,,,,,,,,,,,,091619_p2,001,2019_Sep_16_1324,body_behavioural,3.2.1,60.326918078990694,
0,parcelated_audio/24/24_27.aiff,,0,0,0,0,,,,,0,26,26,26,,,,,,,,,,,,,,,,,,,,,,,,,,,,,,,,,,,,,,,,,,,,,,,,,,,,,,,,,,,,,,,,,,,,,,,279.76648879069546,None,279.76559051999357,None,1,0.23064610999426804,285.816165080003,None,285.816165080003,None,285.816165080003,None,285.816165080003,None,,,,,,,,,,,,,,,,,,,,,,,,,,,,,,,,,,,,,,,,,,,,,,,,,,,,,,,,,,,,,,,,,,,,,,,,,,,,,,091619_p2,001,2019_Sep_16_1324,body_behavioural,3.2.1,60.326918078990694,
0,parcelated_audio/24/24_28.aiff,,0,0,0,0,,,,,0,27,27,27,,,,,,,,,,,,,,,,,,,,,,,,,,,,,,,,,,,,,,,,,,,,,,,,,,,,,,,,,,,,,,,,,,,,,,,286.13298409270067,None,286.1339743999997,None,1,0.23774415798834525,290.63283133201185,None,290.63283133201185,None,290.63283133201185,None,290.63283133201185,None,,,,,,,,,,,,,,,,,,,,,,,,,,,,,,,,,,,,,,,,,,,,,,,,,,,,,,,,,,,,,,,,,,,,,,,,,,,,,,091619_p2,001,2019_Sep_16_1324,body_behavioural,3.2.1,60.326918078990694,
0,parcelated_audio/24/24_29.aiff,,0,0,0,0,,,,,0,28,28,28,,,,,,,,,,,,,,,,,,,,,,,,,,,,,,,,,,,,,,,,,,,,,,,,,,,,,,,,,,,,,,,,,,,,,,,290.96726344270576,None,290.96633647201816,None,9,0.7997392300167121,297.25124748199596,None,297.25124748199596,None,297.25124748199596,None,297.25124748199596,None,,,,,,,,,,,,,,,,,,,,,,,,,,,,,,,,,,,,,,,,,,,,,,,,,,,,,,,,,,,,,,,,,,,,,,,,,,,,,,091619_p2,001,2019_Sep_16_1324,body_behavioural,3.2.1,60.326918078990694,
0,parcelated_audio/24/24_30.aiff,,0,0,0,0,,,,,0,29,29,29,,,,,,,,,,,,,,,,,,,,,,,,,,,,,,,,,,,,,,,,,,,,,,,,,,,,,,,,,,,,,,,,,,,,,,,298.15137101070434,None,298.1503985199961,None,1,0.3844166549970396,304.38395177200437,None,304.38395177200437,None,304.38395177200437,None,304.38395177200437,None,,,,,,,,,,,,,,,,,,,,,,,,,,,,,,,,,,,,,,,,,,,,,,,,,,,,,,,,,,,,,,,,,,,,,,,,,,,,,,091619_p2,001,2019_Sep_16_1324,body_behavioural,3.2.1,60.326918078990694,
0,parcelated_audio/24/24_31.aiff,,0,0,0,0,,,,,0,30,30,30,,,,,,,,,,,,,,,,,,,,,,,,,,,,,,,,,,,,,,,,,,,,,,,,,,,,,,,,,,,,,,,,,,,,,,,304.868268135711,None,304.86803176501417,None,1,0.21770881197880954,311.5185742250178,None,311.5185742250178,None,311.5185742250178,None,311.5185742250178,None,,,,,,,,,,,,,,,,,,,,,,,,,,,,,,,,,,,,,,,,,,,,,,,,,,,,,,,,,,,,,,,,,,,,,,,,,,,,,,091619_p2,001,2019_Sep_16_1324,body_behavioural,3.2.1,60.326918078990694,
0,parcelated_audio/24/24_32.aiff,,0,0,0,0,,,,,0,31,31,31,,,,,,,,,,,,,,,,,,,,,,,,,,,,,,,,,,,,,,,,,,,,,,,,,,,,,,,,,,,,,,,,,,,,,,,311.8513921226928,None,311.85107408699696,None,9,0.4147890919994097,322.2684801699943,None,322.2684801699943,None,322.2684801699943,None,322.2684801699943,None,,,,,,,,,,,,,,,,,,,,,,,,,,,,,,,,,,,,,,,,,,,,,,,,,,,,,,,,,,,,,,,,,,,,,,,,,,,,,,091619_p2,001,2019_Sep_16_1324,body_behavioural,3.2.1,60.326918078990694,
0,,,0,0,0,0,,,,,,,,,,,,,,,,,,,,,,,,,,,,,,,,,,,,,,,,,,,,,,,,,,,,,,,,,,,,,,,,,,,,,,,,,,,,,,,,,,,,,,,,,,,,,322.7021914270008,None,322.7021914270008,None,space,1.9855062919959892,322.7021914270008,None,,,,,,,,,,,,,,,,,,,,,,,,,,,,,,,,,,,,,,,,,,,,,,,,,,,,,,,,,,,,,,,,,,,,,,091619_p2,001,2019_Sep_16_1324,body_behavioural,3.2.1,60.326918078990694,
1,,,0,1,1,1,0,0,0,0,,,,,,,,,,,,,,,,,,,,,,,324.71882962199743,None,space,0.5200932979932986,324.71882962199743,None,324.71882962199743,None,325.2697656270175,None,space,0.46199499801150523,325.2697656270175,None,325.81884561499464,None,325.81884561499464,None,325.81884561499464,None,326.25292704001185,None,space,0.49079991498729214,326.25292704001185,None,327.05295943201054,None,327.05295943201054,None,327.05295943201054,None,327.05295943201054,None,327.05295943201054,None,327.05295943201054,None,327.05295943201054,None,,,,,,,,,,,,,,,,,,,,,,,,,,,,,,,,,,,,,,,,,,,,,,,,,,,,,,,,,,,,,,,,,,,,,,,,,,,,,,,,,,,,,,,,,,,,,,,,,,,,,,,,091619_p2,001,2019_Sep_16_1324,body_behavioural,3.2.1,60.326918078990694,
1,,,0,1,1,1,1,0,1,0,,,,,,,,,,,,,,,,,,,,,,,,,,,,,,,,,,,,,None,None,None,None,None,None,336.9695814549923,None,space,0.45757008000509813,336.9695814549923,None,337.7367840450024,None,337.7367840450024,None,337.7367840450024,None,337.7367840450024,None,337.7367840450024,None,337.7367840450024,None,337.7367840450024,None,,,,,,,,,,,,,,,,,,,,,,,,,,,,,,,,,,,,,,,,,,,,,,,,,,,,,,,,,,,,,,,,,,,,,,,,,,,,,,,,,,,,,,,,,,,,,,,,,,,,,,,,091619_p2,001,2019_Sep_16_1324,body_behavioural,3.2.1,60.326918078990694,
1,,,0,1,1,1,2,0,2,0,,,,,,,,,,,,,,,,,,,,,,,,,,,,,,,,,,,,,None,None,None,None,None,None,344.5536991810077,None,space,0.3655921840108931,344.5536991810077,None,345.20291103000636,None,345.20291103000636,None,345.20291103000636,None,345.20291103000636,None,345.20291103000636,None,345.20291103000636,None,345.20291103000636,None,,,,,,,,,,,,,,,,,,,,,,,,,,,,,,,,,,,,,,,,,,,,,,,,,,,,,,,,,,,,,,,,,,,,,,,,,,,,,,,,,,,,,,,,,,,,,,,,,,,,,,,,091619_p2,001,2019_Sep_16_1324,body_behavioural,3.2.1,60.326918078990694,
1,,,0,1,1,1,3,0,3,0,,,,,,,,,,,,,,,,,,,,,,,,,,,,,,,,,,,,,None,None,None,None,None,None,353.50474997999845,None,space,0.5270356230030302,353.50474997999845,None,354.38837626200984,None,354.38837626200984,None,354.38837626200984,None,354.38837626200984,None,354.38837626200984,None,354.38837626200984,None,354.38837626200984,None,,,,,,,,,,,,,,,,,,,,,,,,,,,,,,,,,,,,,,,,,,,,,,,,,,,,,,,,,,,,,,,,,,,,,,,,,,,,,,,,,,,,,,,,,,,,,,,,,,,,,,,,091619_p2,001,2019_Sep_16_1324,body_behavioural,3.2.1,60.326918078990694,
1,parcelated_audio/33/33_1.aiff,,0,1,1,1,,,,,0,0,0,0,,,,,,,,,,,,,,,,,,,,,,,,,,,,,,,,,368.2891272419947,None,368.2891272419947,None,368.2891272419947,None,,,,,,,,,,,,,,,,,,,,,368.1061137999932,None,space,0.11584255300113,368.1061137999932,None,369.0554879170086,None,space,2.1152249019942246,369.0554879170086,None,371.3553216476954,None,371.355192070012,None,9,0.26550302500254475,381.2912676370179,None,381.2912676370179,None,381.2912676370179,None,381.2912676370179,None,,,,,,,,,,,,,,,,,,,,,,,,,,,,,,,,,,,,,,,,,,,,,,,,,,,,,,,,,,,,,,,,,,,,,,,,,,,,,,091619_p2,001,2019_Sep_16_1324,body_behavioural,3.2.1,60.326918078990694,
1,parcelated_audio/33/33_2.aiff,,0,1,1,1,,,,,0,1,1,1,,,,,,,,,,,,,,,,,,,,,,,,,,,,,,,,,,,,,,,,,,,,,,,,,,,,,,,,,,,,,,,,,,,,,,,381.67368132071863,None,381.6727246300143,None,1,0.18299816499347799,392.09013637999306,None,392.09013637999306,None,392.09013637999306,None,392.09013637999306,None,,,,,,,,,,,,,,,,,,,,,,,,,,,,,,,,,,,,,,,,,,,,,,,,,,,,,,,,,,,,,,,,,,,,,,,,,,,,,,091619_p2,001,2019_Sep_16_1324,body_behavioural,3.2.1,60.326918078990694,
1,parcelated_audio/33/33_3.aiff,,0,1,1,1,,,,,0,2,2,2,,,,,,,,,,,,,,,,,,,,,,,,,,,,,,,,,,,,,,,,,,,,,,,,,,,,,,,,,,,,,,,,,,,,,,,392.37351213571094,None,392.37337110500084,None,1,1.490010470006382,398.90713583500474,None,398.90713583500474,None,398.90713583500474,None,398.90713583500474,None,,,,,,,,,,,,,,,,,,,,,,,,,,,,,,,,,,,,,,,,,,,,,,,,,,,,,,,,,,,,,,,,,,,,,,,,,,,,,,091619_p2,001,2019_Sep_16_1324,body_behavioural,3.2.1,60.326918078990694,
1,parcelated_audio/33/33_4.aiff,,0,1,1,1,,,,,0,3,3,3,,,,,,,,,,,,,,,,,,,,,,,,,,,,,,,,,,,,,,,,,,,,,,,,,,,,,,,,,,,,,,,,,,,,,,,400.50836395572117,None,400.5073670599959,None,1,0.31480144697707146,404.0741991820105,None,404.0741991820105,None,404.0741991820105,None,404.0741991820105,None,,,,,,,,,,,,,,,,,,,,,,,,,,,,,,,,,,,,,,,,,,,,,,,,,,,,,,,,,,,,,,,,,,,,,,,,,,,,,,091619_p2,001,2019_Sep_16_1324,body_behavioural,3.2.1,60.326918078990694,
1,parcelated_audio/33/33_5.aiff,,0,1,1,1,,,,,0,4,4,4,,,,,,,,,,,,,,,,,,,,,,,,,,,,,,,,,,,,,,,,,,,,,,,,,,,,,,,,,,,,,,,,,,,,,,,404.49094712269437,None,404.4912869450054,None,1,0.5895718130050227,414.8916213250195,None,414.8916213250195,None,414.8916213250195,None,414.8916213250195,None,,,,,,,,,,,,,,,,,,,,,,,,,,,,,,,,,,,,,,,,,,,,,,,,,,,,,,,,,,,,,,,,,,,,,,,,,,,,,,091619_p2,001,2019_Sep_16_1324,body_behavioural,3.2.1,60.326918078990694,
1,parcelated_audio/33/33_6.aiff,,0,1,1,1,,,,,0,5,5,5,,,,,,,,,,,,,,,,,,,,,,,,,,,,,,,,,,,,,,,,,,,,,,,,,,,,,,,,,,,,,,,,,,,,,,,415.5922611007205,None,415.5916985220101,None,1,0.3761199149885215,425.9923392670171,None,425.9923392670171,None,425.9923392670171,None,425.9923392670171,None,,,,,,,,,,,,,,,,,,,,,,,,,,,,,,,,,,,,,,,,,,,,,,,,,,,,,,,,,,,,,,,,,,,,,,,,,,,,,,091619_p2,001,2019_Sep_16_1324,body_behavioural,3.2.1,60.326918078990694,
1,parcelated_audio/33/33_7.aiff,,0,1,1,1,,,,,0,6,6,6,,,,,,,,,,,,,,,,,,,,,,,,,,,,,,,,,,,,,,,,,,,,,,,,,,,,,,,,,,,,,,,,,,,,,,,426.4766128076968,None,426.4758626949915,None,9,1.113412992010126,436.89320799001143,None,436.89320799001143,None,436.89320799001143,None,436.89320799001143,None,,,,,,,,,,,,,,,,,,,,,,,,,,,,,,,,,,,,,,,,,,,,,,,,,,,,,,,,,,,,,,,,,,,,,,,,,,,,,,091619_p2,001,2019_Sep_16_1324,body_behavioural,3.2.1,60.326918078990694,
1,parcelated_audio/33/33_8.aiff,,0,1,1,1,,,,,0,7,7,7,,,,,,,,,,,,,,,,,,,,,,,,,,,,,,,,,,,,,,,,,,,,,,,,,,,,,,,,,,,,,,,,,,,,,,,438.10993456270955,None,438.11111762200017,None,1,0.3189405769808218,444.24358459500945,None,444.24358459500945,None,444.24358459500945,None,444.24358459500945,None,,,,,,,,,,,,,,,,,,,,,,,,,,,,,,,,,,,,,,,,,,,,,,,,,,,,,,,,,,,,,,,,,,,,,,,,,,,,,,091619_p2,001,2019_Sep_16_1324,body_behavioural,3.2.1,60.326918078990694,
1,parcelated_audio/33/33_9.aiff,,0,1,1,1,,,,,0,8,8,8,,,,,,,,,,,,,,,,,,,,,,,,,,,,,,,,,,,,,,,,,,,,,,,,,,,,,,,,,,,,,,,,,,,,,,,444.66061385570504,None,444.6600137719943,None,1,0.3476417209894862,448.3439700170129,None,448.3439700170129,None,448.3439700170129,None,448.3439700170129,None,,,,,,,,,,,,,,,,,,,,,,,,,,,,,,,,,,,,,,,,,,,,,,,,,,,,,,,,,,,,,,,,,,,,,,,,,,,,,,091619_p2,001,2019_Sep_16_1324,body_behavioural,3.2.1,60.326918078990694,
1,parcelated_audio/33/33_10.aiff,,0,1,1,1,,,,,0,9,9,9,,,,,,,,,,,,,,,,,,,,,,,,,,,,,,,,,,,,,,,,,,,,,,,,,,,,,,,,,,,,,,,,,,,,,,,448.7778567856964,None,448.7771764600184,None,1,0.29941663998761214,454.1279525300197,None,454.1279525300197,None,454.1279525300197,None,454.1279525300197,None,,,,,,,,,,,,,,,,,,,,,,,,,,,,,,,,,,,,,,,,,,,,,,,,,,,,,,,,,,,,,,,,,,,,,,,,,,,,,,091619_p2,001,2019_Sep_16_1324,body_behavioural,3.2.1,60.326918078990694,
1,parcelated_audio/33/33_11.aiff,,0,1,1,1,,,,,0,10,10,10,,,,,,,,,,,,,,,,,,,,,,,,,,,,,,,,,,,,,,,,,,,,,,,,,,,,,,,,,,,,,,,,,,,,,,,454.5117750256992,None,454.5111345000041,None,9,1.8027522819756996,464.92813384500914,None,464.92813384500914,None,464.92813384500914,None,464.92813384500914,None,,,,,,,,,,,,,,,,,,,,,,,,,,,,,,,,,,,,,,,,,,,,,,,,,,,,,,,,,,,,,,,,,,,,,,,,,,,,,,091619_p2,001,2019_Sep_16_1324,body_behavioural,3.2.1,60.326918078990694,
1,parcelated_audio/33/33_12.aiff,,0,1,1,1,,,,,0,11,11,11,,,,,,,,,,,,,,,,,,,,,,,,,,,,,,,,,,,,,,,,,,,,,,,,,,,,,,,,,,,,,,,,,,,,,,,466.82860960771507,None,466.8285383750044,None,1,2.5696929689729586,472.9291447720025,None,472.9291447720025,None,472.9291447720025,None,472.9291447720025,None,,,,,,,,,,,,,,,,,,,,,,,,,,,,,,,,,,,,,,,,,,,,,,,,,,,,,,,,,,,,,,,,,,,,,,,,,,,,,,091619_p2,001,2019_Sep_16_1324,body_behavioural,3.2.1,60.326918078990694,
1,parcelated_audio/33/33_13.aiff,,0,1,1,1,,,,,0,12,12,12,,,,,,,,,,,,,,,,,,,,,,,,,,,,,,,,,,,,,,,,,,,,,,,,,,,,,,,,,,,,,,,,,,,,,,,475.5962073227071,None,475.5960977119976,None,1,0.2693196309846826,482.99624403499183,None,482.99624403499183,None,482.99624403499183,None,482.99624403499183,None,,,,,,,,,,,,,,,,,,,,,,,,,,,,,,,,,,,,,,,,,,,,,,,,,,,,,,,,,,,,,,,,,,,,,,,,,,,,,,091619_p2,001,2019_Sep_16_1324,body_behavioural,3.2.1,60.326918078990694,
1,parcelated_audio/33/33_14.aiff,,0,1,1,1,,,,,0,13,13,13,,,,,,,,,,,,,,,,,,,,,,,,,,,,,,,,,,,,,,,,,,,,,,,,,,,,,,,,,,,,,,,,,,,,,,,483.3795445757074,None,483.3804054869979,None,1,1.7170224270084873,493.79758735501673,None,493.79758735501673,None,493.79758735501673,None,493.79758735501673,None,,,,,,,,,,,,,,,,,,,,,,,,,,,,,,,,,,,,,,,,,,,,,,,,,,,,,,,,,,,,,,,,,,,,,,,,,,,,,,091619_p2,001,2019_Sep_16_1324,body_behavioural,3.2.1,60.326918078990694,
1,parcelated_audio/33/33_15.aiff,,0,1,1,1,,,,,0,14,14,14,,,,,,,,,,,,,,,,,,,,,,,,,,,,,,,,,,,,,,,,,,,,,,,,,,,,,,,,,,,,,,,,,,,,,,,495.6142682007136,None,495.61376404200564,None,1,1.7689819350198377,506.031690075004,None,506.031690075004,None,506.031690075004,None,506.031690075004,None,,,,,,,,,,,,,,,,,,,,,,,,,,,,,,,,,,,,,,,,,,,,,,,,,,,,,,,,,,,,,,,,,,,,,,,,,,,,,,091619_p2,001,2019_Sep_16_1324,body_behavioural,3.2.1,60.326918078990694,
1,parcelated_audio/33/33_16.aiff,,0,1,1,1,,,,,0,15,15,15,,,,,,,,,,,,,,,,,,,,,,,,,,,,,,,,,,,,,,,,,,,,,,,,,,,,,,,,,,,,,,,,,,,,,,,507.91469637270495,None,507.91547819200787,None,9,1.330014740000479,518.331948630017,None,518.331948630017,None,518.331948630017,None,518.331948630017,None,,,,,,,,,,,,,,,,,,,,,,,,,,,,,,,,,,,,,,,,,,,,,,,,,,,,,,,,,,,,,,,,,,,,,,,,,,,,,,091619_p2,001,2019_Sep_16_1324,body_behavioural,3.2.1,60.326918078990694,
1,parcelated_audio/33/33_17.aiff,,0,1,1,1,,,,,0,16,16,16,,,,,,,,,,,,,,,,,,,,,,,,,,,,,,,,,,,,,,,,,,,,,,,,,,,,,,,,,,,,,,,,,,,,,,,519.7655103277153,None,519.7662141420005,None,1,0.3873972980072722,530.1662183350127,None,530.1662183350127,None,530.1662183350127,None,530.1662183350127,None,,,,,,,,,,,,,,,,,,,,,,,,,,,,,,,,,,,,,,,,,,,,,,,,,,,,,,,,,,,,,,,,,,,,,,,,,,,,,,091619_p2,001,2019_Sep_16_1324,body_behavioural,3.2.1,60.326918078990694,
1,parcelated_audio/33/33_18.aiff,,0,1,1,1,,,,,0,17,17,17,,,,,,,,,,,,,,,,,,,,,,,,,,,,,,,,,,,,,,,,,,,,,,,,,,,,,,,,,,,,,,,,,,,,,,,530.6663062057138,None,530.6662123200076,None,9,0.5891206200176384,539.1176794420171,None,539.1176794420171,None,539.1176794420171,None,539.1176794420171,None,,,,,,,,,,,,,,,,,,,,,,,,,,,,,,,,,,,,,,,,,,,,,,,,,,,,,,,,,,,,,,,,,,,,,,,,,,,,,,091619_p2,001,2019_Sep_16_1324,body_behavioural,3.2.1,60.326918078990694,
1,parcelated_audio/33/33_19.aiff,,0,1,1,1,,,,,0,18,18,18,,,,,,,,,,,,,,,,,,,,,,,,,,,,,,,,,,,,,,,,,,,,,,,,,,,,,,,,,,,,,,,,,,,,,,,539.8009200227185,None,539.8001003370155,None,9,0.47886259798542596,543.2172935249982,None,543.2172935249982,None,543.2172935249982,None,543.2172935249982,None,,,,,,,,,,,,,,,,,,,,,,,,,,,,,,,,,,,,,,,,,,,,,,,,,,,,,,,,,,,,,,,,,,,,,,,,,,,,,,091619_p2,001,2019_Sep_16_1324,body_behavioural,3.2.1,60.326918078990694,
1,parcelated_audio/33/33_20.aiff,,0,1,1,1,,,,,0,19,19,19,,,,,,,,,,,,,,,,,,,,,,,,,,,,,,,,,,,,,,,,,,,,,,,,,,,,,,,,,,,,,,,,,,,,,,,543.7838614606968,None,543.7844613619964,None,1,0.32001864301855676,550.6349862670177,None,550.6349862670177,None,550.6349862670177,None,550.6349862670177,None,,,,,,,,,,,,,,,,,,,,,,,,,,,,,,,,,,,,,,,,,,,,,,,,,,,,,,,,,,,,,,,,,,,,,,,,,,,,,,091619_p2,001,2019_Sep_16_1324,body_behavioural,3.2.1,60.326918078990694,
1,parcelated_audio/33/33_21.aiff,,0,1,1,1,,,,,0,20,20,20,,,,,,,,,,,,,,,,,,,,,,,,,,,,,,,,,,,,,,,,,,,,,,,,,,,,,,,,,,,,,,,,,,,,,,,551.067798927697,None,551.0677708199946,None,1,0.23853919300017878,555.1008707800065,None,555.1008707800065,None,555.1008707800065,None,555.1008707800065,None,,,,,,,,,,,,,,,,,,,,,,,,,,,,,,,,,,,,,,,,,,,,,,,,,,,,,,,,,,,,,,,,,,,,,,,,,,,,,,091619_p2,001,2019_Sep_16_1324,body_behavioural,3.2.1,60.326918078990694,
1,parcelated_audio/33/33_22.aiff,,0,1,1,1,,,,,0,21,21,21,,,,,,,,,,,,,,,,,,,,,,,,,,,,,,,,,,,,,,,,,,,,,,,,,,,,,,,,,,,,,,,,,,,,,,,555.4352151427098,None,555.4354815919942,None,1,0.2998977100069169,565.8526309920126,None,565.8526309920126,None,565.8526309920126,None,565.8526309920126,None,,,,,,,,,,,,,,,,,,,,,,,,,,,,,,,,,,,,,,,,,,,,,,,,,,,,,,,,,,,,,,,,,,,,,,,,,,,,,,091619_p2,001,2019_Sep_16_1324,body_behavioural,3.2.1,60.326918078990694,
1,parcelated_audio/33/33_23.aiff,,0,1,1,1,,,,,0,22,22,22,,,,,,,,,,,,,,,,,,,,,,,,,,,,,,,,,,,,,,,,,,,,,,,,,,,,,,,,,,,,,,,,,,,,,,,566.252270200706,None,566.2518982469919,None,1,0.07857367000542581,576.6529292500054,None,576.6529292500054,None,576.6529292500054,None,576.6529292500054,None,,,,,,,,,,,,,,,,,,,,,,,,,,,,,,,,,,,,,,,,,,,,,,,,,,,,,,,,,,,,,,,,,,,,,,,,,,,,,,091619_p2,001,2019_Sep_16_1324,body_behavioural,3.2.1,60.326918078990694,
1,parcelated_audio/33/33_24.aiff,,0,1,1,1,,,,,0,23,23,23,,,,,,,,,,,,,,,,,,,,,,,,,,,,,,,,,,,,,,,,,,,,,,,,,,,,,,,,,,,,,,,,,,,,,,,576.8198509276932,None,576.8193766220065,None,1,0.22598089001257904,583.0540078619961,None,583.0540078619961,None,583.0540078619961,None,583.0540078619961,None,,,,,,,,,,,,,,,,,,,,,,,,,,,,,,,,,,,,,,,,,,,,,,,,,,,,,,,,,,,,,,,,,,,,,,,,,,,,,,091619_p2,001,2019_Sep_16_1324,body_behavioural,3.2.1,60.326918078990694,
1,parcelated_audio/33/33_25.aiff,,0,1,1,1,,,,,0,24,24,24,,,,,,,,,,,,,,,,,,,,,,,,,,,,,,,,,,,,,,,,,,,,,,,,,,,,,,,,,,,,,,,,,,,,,,,583.3871878676961,None,583.3865397420013,None,1,0.36045914998976514,591.5711994600133,None,591.5711994600133,None,591.5711994600133,None,591.5711994600133,None,,,,,,,,,,,,,,,,,,,,,,,,,,,,,,,,,,,,,,,,,,,,,,,,,,,,,,,,,,,,,,,,,,,,,,,,,,,,,,091619_p2,001,2019_Sep_16_1324,body_behavioural,3.2.1,60.326918078990694,
1,parcelated_audio/33/33_26.aiff,,0,1,1,1,,,,,0,25,25,25,,,,,,,,,,,,,,,,,,,,,,,,,,,,,,,,,,,,,,,,,,,,,,,,,,,,,,,,,,,,,,,,,,,,,,,592.0210664327111,None,592.0216801170027,None,9,0.6204853070084937,599.0886461049959,None,599.0886461049959,None,599.0886461049959,None,599.0886461049959,None,,,,,,,,,,,,,,,,,,,,,,,,,,,,,,,,,,,,,,,,,,,,,,,,,,,,,,,,,,,,,,,,,,,,,,,,,,,,,,091619_p2,001,2019_Sep_16_1324,body_behavioural,3.2.1,60.326918078990694,
1,parcelated_audio/33/33_27.aiff,,0,1,1,1,,,,,0,26,26,26,,,,,,,,,,,,,,,,,,,,,,,,,,,,,,,,,,,,,,,,,,,,,,,,,,,,,,,,,,,,,,,,,,,,,,,599.7871835177153,None,599.7867231089913,None,9,0.1824690570065286,607.3217671450111,None,607.3217671450111,None,607.3217671450111,None,607.3217671450111,None,,,,,,,,,,,,,,,,,,,,,,,,,,,,,,,,,,,,,,,,,,,,,,,,,,,,,,,,,,,,,,,,,,,,,,,,,,,,,,091619_p2,001,2019_Sep_16_1324,body_behavioural,3.2.1,60.326918078990694,
1,parcelated_audio/33/33_28.aiff,,0,1,1,1,,,,,0,27,27,27,,,,,,,,,,,,,,,,,,,,,,,,,,,,,,,,,,,,,,,,,,,,,,,,,,,,,,,,,,,,,,,,,,,,,,,607.5892394706985,None,607.5883176400093,None,1,0.23258197199902497,613.2552515199932,None,613.2552515199932,None,613.2552515199932,None,613.2552515199932,None,,,,,,,,,,,,,,,,,,,,,,,,,,,,,,,,,,,,,,,,,,,,,,,,,,,,,,,,,,,,,,,,,,,,,,,,,,,,,,091619_p2,001,2019_Sep_16_1324,body_behavioural,3.2.1,60.326918078990694,
1,parcelated_audio/33/33_29.aiff,,0,1,1,1,,,,,0,28,28,28,,,,,,,,,,,,,,,,,,,,,,,,,,,,,,,,,,,,,,,,,,,,,,,,,,,,,,,,,,,,,,,,,,,,,,,613.5886308926944,None,613.5894409299945,None,1,0.27307331797783263,621.490111740015,None,621.490111740015,None,621.490111740015,None,621.490111740015,None,,,,,,,,,,,,,,,,,,,,,,,,,,,,,,,,,,,,,,,,,,,,,,,,,,,,,,,,,,,,,,,,,,,,,,,,,,,,,,091619_p2,001,2019_Sep_16_1324,body_behavioural,3.2.1,60.326918078990694,
1,parcelated_audio/33/33_30.aiff,,0,1,1,1,,,,,0,29,29,29,,,,,,,,,,,,,,,,,,,,,,,,,,,,,,,,,,,,,,,,,,,,,,,,,,,,,,,,,,,,,,,,,,,,,,,621.8726746057015,None,621.8738890020177,None,1,0.5209591030143201,632.3065652149962,None,632.3065652149962,None,632.3065652149962,None,632.3065652149962,None,,,,,,,,,,,,,,,,,,,,,,,,,,,,,,,,,,,,,,,,,,,,,,,,,,,,,,,,,,,,,,,,,,,,,,,,,,,,,,091619_p2,001,2019_Sep_16_1324,body_behavioural,3.2.1,60.326918078990694,
1,parcelated_audio/33/33_31.aiff,,0,1,1,1,,,,,0,30,30,30,,,,,,,,,,,,,,,,,,,,,,,,,,,,,,,,,,,,,,,,,,,,,,,,,,,,,,,,,,,,,,,,,,,,,,,632.9404665557173,None,632.9401200500142,None,1,0.524074679997284,642.6747991400189,None,642.6747991400189,None,642.6747991400189,None,642.6747991400189,None,,,,,,,,,,,,,,,,,,,,,,,,,,,,,,,,,,,,,,,,,,,,,,,,,,,,,,,,,,,,,,,,,,,,,,,,,,,,,,091619_p2,001,2019_Sep_16_1324,body_behavioural,3.2.1,60.326918078990694,
1,parcelated_audio/33/33_32.aiff,,0,1,1,1,,,,,0,31,31,31,,,,,,,,,,,,,,,,,,,,,,,,,,,,,,,,,,,,,,,,,,,,,,,,,,,,,,,,,,,,,,,,,,,,,,,643.2905582127074,None,643.2912644669996,None,1,0.21190572701743804,648.9085931250011,None,648.9085931250011,None,648.9085931250011,None,648.9085931250011,None,,,,,,,,,,,,,,,,,,,,,,,,,,,,,,,,,,,,,,,,,,,,,,,,,,,,,,,,,,,,,,,,,,,,,,,,,,,,,,091619_p2,001,2019_Sep_16_1324,body_behavioural,3.2.1,60.326918078990694,
1,,,0,1,1,1,,,,,,,,,,,,,,,,,,,,,,,,,,,,,,,,,,,,,,,,,,,,,,,,,,,,,,,,,,,,,,,,,,,,,,,,,,,,,,,,,,,,,,,,,,,,,649.1418732420134,None,649.1418732420134,None,space,1.2815686120011378,649.1418732420134,None,,,,,,,,,,,,,,,,,,,,,,,,,,,,,,,,,,,,,,,,,,,,,,,,,,,,,,,,,,,,,,,,,,,,,,091619_p2,001,2019_Sep_16_1324,body_behavioural,3.2.1,60.326918078990694,
2,,,0,2,2,2,0,0,0,0,,,,,,,,,,,,,,,,,,,,,,,650.4418136670138,None,space,0.5926204930001404,650.4418136670138,None,650.4418136670138,None,651.0588449400093,None,space,0.4995419100159779,651.0588449400093,None,651.6412499670114,None,651.6412499670114,None,651.6412499670114,None,652.2753089920152,None,space,0.6209270729741547,652.2753089920152,None,653.1583553900127,None,653.1583553900127,None,653.1583553900127,None,653.1583553900127,None,653.1583553900127,None,653.1583553900127,None,653.1583553900127,None,,,,,,,,,,,,,,,,,,,,,,,,,,,,,,,,,,,,,,,,,,,,,,,,,,,,,,,,,,,,,,,,,,,,,,,,,,,,,,,,,,,,,,,,,,,,,,,,,,,,,,,,091619_p2,001,2019_Sep_16_1324,body_behavioural,3.2.1,60.326918078990694,
2,,,0,2,2,2,1,0,1,0,,,,,,,,,,,,,,,,,,,,,,,,,,,,,,,,,,,,,None,None,None,None,None,None,664.4930859949964,None,space,0.2523915570054669,664.4930859949964,None,665.0419520410069,None,665.0419520410069,None,665.0419520410069,None,665.0419520410069,None,665.0419520410069,None,665.0419520410069,None,665.0419520410069,None,,,,,,,,,,,,,,,,,,,,,,,,,,,,,,,,,,,,,,,,,,,,,,,,,,,,,,,,,,,,,,,,,,,,,,,,,,,,,,,,,,,,,,,,,,,,,,,,,,,,,,,,091619_p2,001,2019_Sep_16_1324,body_behavioural,3.2.1,60.326918078990694,
2,,,0,2,2,2,2,0,2,0,,,,,,,,,,,,,,,,,,,,,,,,,,,,,,,,,,,,,None,None,None,None,None,None,670.4770135199942,None,space,0.4189688769984059,670.4770135199942,None,671.1604297269951,None,671.1604297269951,None,671.1604297269951,None,671.1604297269951,None,671.1604297269951,None,671.1604297269951,None,671.1604297269951,None,,,,,,,,,,,,,,,,,,,,,,,,,,,,,,,,,,,,,,,,,,,,,,,,,,,,,,,,,,,,,,,,,,,,,,,,,,,,,,,,,,,,,,,,,,,,,,,,,,,,,,,,091619_p2,001,2019_Sep_16_1324,body_behavioural,3.2.1,60.326918078990694,
2,,,0,2,2,2,3,0,3,0,,,,,,,,,,,,,,,,,,,,,,,,,,,,,,,,,,,,,None,None,None,None,None,None,686.0927603220043,None,space,0.3853719980106689,686.0927603220043,None,686.7113870769972,None,686.7113870769972,None,686.7113870769972,None,686.7113870769972,None,686.7113870769972,None,686.7113870769972,None,686.7113870769972,None,,,,,,,,,,,,,,,,,,,,,,,,,,,,,,,,,,,,,,,,,,,,,,,,,,,,,,,,,,,,,,,,,,,,,,,,,,,,,,,,,,,,,,,,,,,,,,,,,,,,,,,,091619_p2,001,2019_Sep_16_1324,body_behavioural,3.2.1,60.326918078990694,
2,,,0,2,2,2,4,0,4,0,,,,,,,,,,,,,,,,,,,,,,,,,,,,,,,,,,,,,706.2450772470038,None,706.2450772470038,None,706.2450772470038,None,706.7615807719994,None,space,0.7932614900055341,706.7615807719994,None,707.7288910520147,None,707.7288910520147,None,707.7288910520147,None,707.7288910520147,None,707.7288910520147,None,707.7288910520147,None,707.7288910520147,None,,,,,,,,,,,,,,,,,,,,,,,,,,,,,,,,,,,,,,,,,,,,,,,,,,,,,,,,,,,,,,,,,,,,,,,,,,,,,,,,,,,,,,,,,,,,,,,,,,,,,,,,091619_p2,001,2019_Sep_16_1324,body_behavioural,3.2.1,60.326918078990694,
2,,,0,2,2,2,5,0,5,0,,,,,,,,,,,,,,,,,,,,,,,,,,,,,,,,,,,,,None,None,None,None,None,None,714.0286842100031,None,space,0.5036479219852481,714.0286842100031,None,714.7793472800113,None,714.7793472800113,None,714.7793472800113,None,714.7793472800113,None,714.7793472800113,None,714.7793472800113,None,714.7793472800113,None,,,,,,,,,,,,,,,,,,,,,,,,,,,,,,,,,,,,,,,,,,,,,,,,,,,,,,,,,,,,,,,,,,,,,,,,,,,,,,,,,,,,,,,,,,,,,,,,,,,,,,,,091619_p2,001,2019_Sep_16_1324,body_behavioural,3.2.1,60.326918078990694,
2,parcelated_audio/31/31_1.aiff,,0,2,2,2,,,,,0,0,0,0,,,,,,,,,,,,,,,,,,,,,,,,,,,,,,,,,736.6310069000174,None,736.6310069000174,None,736.6310069000174,None,,,,,,,,,,,,,,,,,,,,,735.4470653549943,None,space,1.1227524249989074,735.4470653549943,None,737.3639622119954,None,space,0.7578432399895974,737.3639622119954,None,738.3139691327029,None,738.3142988600011,None,9,0.9352097770024557,746.9638803699927,None,746.9638803699927,None,746.9638803699927,None,746.9638803699927,None,,,,,,,,,,,,,,,,,,,,,,,,,,,,,,,,,,,,,,,,,,,,,,,,,,,,,,,,,,,,,,,,,,,,,,,,,,,,,,091619_p2,001,2019_Sep_16_1324,body_behavioural,3.2.1,60.326918078990694,
2,parcelated_audio/31/31_2.aiff,,0,2,2,2,,,,,0,1,1,1,,,,,,,,,,,,,,,,,,,,,,,,,,,,,,,,,,,,,,,,,,,,,,,,,,,,,,,,,,,,,,,,,,,,,,,747.9970772916946,None,747.9977753550047,None,9,0.7479555780009832,752.4486680499977,None,752.4486680499977,None,752.4486680499977,None,752.4486680499977,None,,,,,,,,,,,,,,,,,,,,,,,,,,,,,,,,,,,,,,,,,,,,,,,,,,,,,,,,,,,,,,,,,,,,,,,,,,,,,,091619_p2,001,2019_Sep_16_1324,body_behavioural,3.2.1,60.326918078990694,
2,parcelated_audio/31/31_3.aiff,,0,2,2,2,,,,,0,2,2,2,,,,,,,,,,,,,,,,,,,,,,,,,,,,,,,,,,,,,,,,,,,,,,,,,,,,,,,,,,,,,,,,,,,,,,,753.2983244907024,None,753.299089845008,None,1,0.23802810299093835,761.5508451570058,None,761.5508451570058,None,761.5508451570058,None,761.5508451570058,None,,,,,,,,,,,,,,,,,,,,,,,,,,,,,,,,,,,,,,,,,,,,,,,,,,,,,,,,,,,,,,,,,,,,,,,,,,,,,,091619_p2,001,2019_Sep_16_1324,body_behavioural,3.2.1,60.326918078990694,
2,parcelated_audio/31/31_4.aiff,,0,2,2,2,,,,,0,3,3,3,,,,,,,,,,,,,,,,,,,,,,,,,,,,,,,,,,,,,,,,,,,,,,,,,,,,,,,,,,,,,,,,,,,,,,,761.8826965027052,None,761.8824523799994,None,1,0.2941032679809723,771.9162957119988,None,771.9162957119988,None,771.9162957119988,None,771.9162957119988,None,,,,,,,,,,,,,,,,,,,,,,,,,,,,,,,,,,,,,,,,,,,,,,,,,,,,,,,,,,,,,,,,,,,,,,,,,,,,,,091619_p2,001,2019_Sep_16_1324,body_behavioural,3.2.1,60.326918078990694,
2,parcelated_audio/31/31_5.aiff,,0,2,2,2,,,,,0,4,4,4,,,,,,,,,,,,,,,,,,,,,,,,,,,,,,,,,,,,,,,,,,,,,,,,,,,,,,,,,,,,,,,,,,,,,,,772.3163030406955,None,772.3168913699919,None,1,0.17269630698137917,782.7336757600133,None,782.7336757600133,None,782.7336757600133,None,782.7336757600133,None,,,,,,,,,,,,,,,,,,,,,,,,,,,,,,,,,,,,,,,,,,,,,,,,,,,,,,,,,,,,,,,,,,,,,,,,,,,,,,091619_p2,001,2019_Sep_16_1324,body_behavioural,3.2.1,60.326918078990694,
2,parcelated_audio/31/31_6.aiff,,0,2,2,2,,,,,0,5,5,5,,,,,,,,,,,,,,,,,,,,,,,,,,,,,,,,,,,,,,,,,,,,,,,,,,,,,,,,,,,,,,,,,,,,,,,783.0006856107008,None,783.0003186649992,None,1,0.1834172020026017,788.2845669620147,None,788.2845669620147,None,788.2845669620147,None,788.2845669620147,None,,,,,,,,,,,,,,,,,,,,,,,,,,,,,,,,,,,,,,,,,,,,,,,,,,,,,,,,,,,,,,,,,,,,,,,,,,,,,,091619_p2,001,2019_Sep_16_1324,body_behavioural,3.2.1,60.326918078990694,
2,parcelated_audio/31/31_7.aiff,,0,2,2,2,,,,,0,6,6,6,,,,,,,,,,,,,,,,,,,,,,,,,,,,,,,,,,,,,,,,,,,,,,,,,,,,,,,,,,,,,,,,,,,,,,,788.5679748526978,None,788.567327502009,None,1,0.4298855969973374,793.4177987750154,None,793.4177987750154,None,793.4177987750154,None,793.4177987750154,None,,,,,,,,,,,,,,,,,,,,,,,,,,,,,,,,,,,,,,,,,,,,,,,,,,,,,,,,,,,,,,,,,,,,,,,,,,,,,,091619_p2,001,2019_Sep_16_1324,body_behavioural,3.2.1,60.326918078990694,
2,parcelated_audio/31/31_8.aiff,,0,2,2,2,,,,,0,7,7,7,,,,,,,,,,,,,,,,,,,,,,,,,,,,,,,,,,,,,,,,,,,,,,,,,,,,,,,,,,,,,,,,,,,,,,,793.951192180693,None,793.9518644199998,None,1,0.09539378300542012,802.3846962249954,None,802.3846962249954,None,802.3846962249954,None,802.3846962249954,None,,,,,,,,,,,,,,,,,,,,,,,,,,,,,,,,,,,,,,,,,,,,,,,,,,,,,,,,,,,,,,,,,,,,,,,,,,,,,,091619_p2,001,2019_Sep_16_1324,body_behavioural,3.2.1,60.326918078990694,
2,parcelated_audio/31/31_9.aiff,,0,2,2,2,,,,,0,8,8,8,,,,,,,,,,,,,,,,,,,,,,,,,,,,,,,,,,,,,,,,,,,,,,,,,,,,,,,,,,,,,,,,,,,,,,,802.5860188977182,None,802.5849780499993,None,9,0.30843281000852585,807.6353737949976,None,807.6353737949976,None,807.6353737949976,None,807.6353737949976,None,,,,,,,,,,,,,,,,,,,,,,,,,,,,,,,,,,,,,,,,,,,,,,,,,,,,,,,,,,,,,,,,,,,,,,,,,,,,,,091619_p2,001,2019_Sep_16_1324,body_behavioural,3.2.1,60.326918078990694,
2,parcelated_audio/31/31_10.aiff,,0,2,2,2,,,,,0,9,9,9,,,,,,,,,,,,,,,,,,,,,,,,,,,,,,,,,,,,,,,,,,,,,,,,,,,,,,,,,,,,,,,,,,,,,,,808.0519975927106,None,808.0520383650146,None,1,0.25813754700357094,813.5362002600159,None,813.5362002600159,None,813.5362002600159,None,813.5362002600159,None,,,,,,,,,,,,,,,,,,,,,,,,,,,,,,,,,,,,,,,,,,,,,,,,,,,,,,,,,,,,,,,,,,,,,,,,,,,,,,091619_p2,001,2019_Sep_16_1324,body_behavioural,3.2.1,60.326918078990694,
2,parcelated_audio/31/31_11.aiff,,0,2,2,2,,,,,0,10,10,10,,,,,,,,,,,,,,,,,,,,,,,,,,,,,,,,,,,,,,,,,,,,,,,,,,,,,,,,,,,,,,,,,,,,,,,813.8864381407126,None,813.8857961250178,None,9,0.27537226301501505,824.1031949369935,None,824.1031949369935,None,824.1031949369935,None,824.1031949369935,None,,,,,,,,,,,,,,,,,,,,,,,,,,,,,,,,,,,,,,,,,,,,,,,,,,,,,,,,,,,,,,,,,,,,,,,,,,,,,,091619_p2,001,2019_Sep_16_1324,body_behavioural,3.2.1,60.326918078990694,
2,parcelated_audio/31/31_12.aiff,,0,2,2,2,,,,,0,11,11,11,,,,,,,,,,,,,,,,,,,,,,,,,,,,,,,,,,,,,,,,,,,,,,,,,,,,,,,,,,,,,,,,,,,,,,,824.4703311827121,None,824.4698677500128,None,1,0.2719666679913644,829.2545367570128,None,829.2545367570128,None,829.2545367570128,None,829.2545367570128,None,,,,,,,,,,,,,,,,,,,,,,,,,,,,,,,,,,,,,,,,,,,,,,,,,,,,,,,,,,,,,,,,,,,,,,,,,,,,,,091619_p2,001,2019_Sep_16_1324,body_behavioural,3.2.1,60.326918078990694,
2,parcelated_audio/31/31_13.aiff,,0,2,2,2,,,,,0,12,12,12,,,,,,,,,,,,,,,,,,,,,,,,,,,,,,,,,,,,,,,,,,,,,,,,,,,,,,,,,,,,,,,,,,,,,,,829.6209111727163,None,829.6199427820102,None,1,0.7076405920088291,836.9374065650045,None,836.9374065650045,None,836.9374065650045,None,836.9374065650045,None,,,,,,,,,,,,,,,,,,,,,,,,,,,,,,,,,,,,,,,,,,,,,,,,,,,,,,,,,,,,,,,,,,,,,,,,,,,,,,091619_p2,001,2019_Sep_16_1324,body_behavioural,3.2.1,60.326918078990694,
2,parcelated_audio/31/31_14.aiff,,0,2,2,2,,,,,0,13,13,13,,,,,,,,,,,,,,,,,,,,,,,,,,,,,,,,,,,,,,,,,,,,,,,,,,,,,,,,,,,,,,,,,,,,,,,837.7381268607074,None,837.7384433370025,None,1,0.11903236800571904,843.854642685008,None,843.854642685008,None,843.854642685008,None,843.854642685008,None,,,,,,,,,,,,,,,,,,,,,,,,,,,,,,,,,,,,,,,,,,,,,,,,,,,,,,,,,,,,,,,,,,,,,,,,,,,,,,091619_p2,001,2019_Sep_16_1324,body_behavioural,3.2.1,60.326918078990694,
2,parcelated_audio/31/31_15.aiff,,0,2,2,2,,,,,0,14,14,14,,,,,,,,,,,,,,,,,,,,,,,,,,,,,,,,,,,,,,,,,,,,,,,,,,,,,,,,,,,,,,,,,,,,,,,844.0717090477207,None,844.0723634870083,None,1,0.34580156800802797,850.7549695899943,None,850.7549695899943,None,850.7549695899943,None,850.7549695899943,None,,,,,,,,,,,,,,,,,,,,,,,,,,,,,,,,,,,,,,,,,,,,,,,,,,,,,,,,,,,,,,,,,,,,,,,,,,,,,,091619_p2,001,2019_Sep_16_1324,body_behavioural,3.2.1,60.326918078990694,
2,parcelated_audio/31/31_16.aiff,,0,2,2,2,,,,,0,15,15,15,,,,,,,,,,,,,,,,,,,,,,,,,,,,,,,,,,,,,,,,,,,,,,,,,,,,,,,,,,,,,,,,,,,,,,,851.2056066707097,None,851.2051060319936,None,1,0.9924028450041078,857.6222135570133,None,857.6222135570133,None,857.6222135570133,None,857.6222135570133,None,,,,,,,,,,,,,,,,,,,,,,,,,,,,,,,,,,,,,,,,,,,,,,,,,,,,,,,,,,,,,,,,,,,,,,,,,,,,,,091619_p2,001,2019_Sep_16_1324,body_behavioural,3.2.1,60.326918078990694,
2,parcelated_audio/31/31_17.aiff,,0,2,2,2,,,,,0,16,16,16,,,,,,,,,,,,,,,,,,,,,,,,,,,,,,,,,,,,,,,,,,,,,,,,,,,,,,,,,,,,,,,,,,,,,,,858.7066842877044,None,858.7067644819908,None,1,0.25232579599833116,862.1400761670084,None,862.1400761670084,None,862.1400761670084,None,862.1400761670084,None,,,,,,,,,,,,,,,,,,,,,,,,,,,,,,,,,,,,,,,,,,,,,,,,,,,,,,,,,,,,,,,,,,,,,,,,,,,,,,091619_p2,001,2019_Sep_16_1324,body_behavioural,3.2.1,60.326918078990694,
2,parcelated_audio/31/31_18.aiff,,0,2,2,2,,,,,0,17,17,17,,,,,,,,,,,,,,,,,,,,,,,,,,,,,,,,,,,,,,,,,,,,,,,,,,,,,,,,,,,,,,,,,,,,,,,862.506261873708,None,862.5221108029946,None,9,0.17543567501707003,867.1227649050124,None,867.1227649050124,None,867.1227649050124,None,867.1227649050124,None,,,,,,,,,,,,,,,,,,,,,,,,,,,,,,,,,,,,,,,,,,,,,,,,,,,,,,,,,,,,,,,,,,,,,,,,,,,,,,091619_p2,001,2019_Sep_16_1324,body_behavioural,3.2.1,60.326918078990694,
2,parcelated_audio/31/31_19.aiff,,0,2,2,2,,,,,0,18,18,18,,,,,,,,,,,,,,,,,,,,,,,,,,,,,,,,,,,,,,,,,,,,,,,,,,,,,,,,,,,,,,,,,,,,,,,867.3902697707032,None,867.3894962299964,None,1,0.29035204197862186,875.5901456350111,None,875.5901456350111,None,875.5901456350111,None,875.5901456350111,None,,,,,,,,,,,,,,,,,,,,,,,,,,,,,,,,,,,,,,,,,,,,,,,,,,,,,,,,,,,,,,,,,,,,,,,,,,,,,,091619_p2,001,2019_Sep_16_1324,body_behavioural,3.2.1,60.326918078990694,
2,parcelated_audio/31/31_20.aiff,,0,2,2,2,,,,,0,19,19,19,,,,,,,,,,,,,,,,,,,,,,,,,,,,,,,,,,,,,,,,,,,,,,,,,,,,,,,,,,,,,,,,,,,,,,,875.9740165527124,None,875.9734515899909,None,1,1.0302478249941487,886.3741543420183,None,886.3741543420183,None,886.3741543420183,None,886.3741543420183,None,,,,,,,,,,,,,,,,,,,,,,,,,,,,,,,,,,,,,,,,,,,,,,,,,,,,,,,,,,,,,,,,,,,,,,,,,,,,,,091619_p2,001,2019_Sep_16_1324,body_behavioural,3.2.1,60.326918078990694,
2,parcelated_audio/31/31_21.aiff,,0,2,2,2,,,,,0,20,20,20,,,,,,,,,,,,,,,,,,,,,,,,,,,,,,,,,,,,,,,,,,,,,,,,,,,,,,,,,,,,,,,,,,,,,,,887.4910577157076,None,887.4909235149971,None,1,0.13826944699394517,897.7415347750066,None,897.7415347750066,None,897.7415347750066,None,897.7415347750066,None,,,,,,,,,,,,,,,,,,,,,,,,,,,,,,,,,,,,,,,,,,,,,,,,,,,,,,,,,,,,,,,,,,,,,,,,,,,,,,091619_p2,001,2019_Sep_16_1324,body_behavioural,3.2.1,60.326918078990694,
2,parcelated_audio/31/31_22.aiff,,0,2,2,2,,,,,0,21,21,21,,,,,,,,,,,,,,,,,,,,,,,,,,,,,,,,,,,,,,,,,,,,,,,,,,,,,,,,,,,,,,,,,,,,,,,897.9748920156941,None,897.9749898900045,None,1,0.25809064297936857,903.7085991770145,None,903.7085991770145,None,903.7085991770145,None,903.7085991770145,None,,,,,,,,,,,,,,,,,,,,,,,,,,,,,,,,,,,,,,,,,,,,,,,,,,,,,,,,,,,,,,,,,,,,,,,,,,,,,,091619_p2,001,2019_Sep_16_1324,body_behavioural,3.2.1,60.326918078990694,
2,parcelated_audio/31/31_23.aiff,,0,2,2,2,,,,,0,22,22,22,,,,,,,,,,,,,,,,,,,,,,,,,,,,,,,,,,,,,,,,,,,,,,,,,,,,,,,,,,,,,,,,,,,,,,,904.0590319907147,None,904.0578709120164,None,1,0.4726359320047777,908.6597552150197,None,908.6597552150197,None,908.6597552150197,None,908.6597552150197,None,,,,,,,,,,,,,,,,,,,,,,,,,,,,,,,,,,,,,,,,,,,,,,,,,,,,,,,,,,,,,,,,,,,,,,,,,,,,,,091619_p2,001,2019_Sep_16_1324,body_behavioural,3.2.1,60.326918078990694,
2,parcelated_audio/31/31_24.aiff,,0,2,2,2,,,,,0,23,23,23,,,,,,,,,,,,,,,,,,,,,,,,,,,,,,,,,,,,,,,,,,,,,,,,,,,,,,,,,,,,,,,,,,,,,,,909.2262275327026,None,909.2256262750016,None,1,0.5828097049961798,916.0929532900045,None,916.0929532900045,None,916.0929532900045,None,916.0929532900045,None,,,,,,,,,,,,,,,,,,,,,,,,,,,,,,,,,,,,,,,,,,,,,,,,,,,,,,,,,,,,,,,,,,,,,,,,,,,,,,091619_p2,001,2019_Sep_16_1324,body_behavioural,3.2.1,60.326918078990694,
2,parcelated_audio/31/31_25.aiff,,0,2,2,2,,,,,0,24,24,24,,,,,,,,,,,,,,,,,,,,,,,,,,,,,,,,,,,,,,,,,,,,,,,,,,,,,,,,,,,,,,,,,,,,,,,916.7764465727174,None,916.7769422570127,None,1,0.7718840250163339,927.1769575150101,None,927.1769575150101,None,927.1769575150101,None,927.1769575150101,None,,,,,,,,,,,,,,,,,,,,,,,,,,,,,,,,,,,,,,,,,,,,,,,,,,,,,,,,,,,,,,,,,,,,,,,,,,,,,,091619_p2,001,2019_Sep_16_1324,body_behavioural,3.2.1,60.326918078990694,
2,parcelated_audio/31/31_26.aiff,,0,2,2,2,,,,,0,25,25,25,,,,,,,,,,,,,,,,,,,,,,,,,,,,,,,,,,,,,,,,,,,,,,,,,,,,,,,,,,,,,,,,,,,,,,,928.0443747357145,None,928.0436118119978,None,1,0.21547409502090886,935.5610758020193,None,935.5610758020193,None,935.5610758020193,None,935.5610758020193,None,,,,,,,,,,,,,,,,,,,,,,,,,,,,,,,,,,,,,,,,,,,,,,,,,,,,,,,,,,,,,,,,,,,,,,,,,,,,,,091619_p2,001,2019_Sep_16_1324,body_behavioural,3.2.1,60.326918078990694,
2,parcelated_audio/31/31_27.aiff,,0,2,2,2,,,,,0,26,26,26,,,,,,,,,,,,,,,,,,,,,,,,,,,,,,,,,,,,,,,,,,,,,,,,,,,,,,,,,,,,,,,,,,,,,,,935.8776021907194,None,935.8780807900184,None,1,0.2548971500073094,940.229216347012,None,940.229216347012,None,940.229216347012,None,940.229216347012,None,,,,,,,,,,,,,,,,,,,,,,,,,,,,,,,,,,,,,,,,,,,,,,,,,,,,,,,,,,,,,,,,,,,,,,,,,,,,,,091619_p2,001,2019_Sep_16_1324,body_behavioural,3.2.1,60.326918078990694,
2,parcelated_audio/31/31_28.aiff,,0,2,2,2,,,,,0,27,27,27,,,,,,,,,,,,,,,,,,,,,,,,,,,,,,,,,,,,,,,,,,,,,,,,,,,,,,,,,,,,,,,,,,,,,,,940.5785170957184,None,940.5784343120176,None,1,0.7786504150135443,945.5783471750037,None,945.5783471750037,None,945.5783471750037,None,945.5783471750037,None,,,,,,,,,,,,,,,,,,,,,,,,,,,,,,,,,,,,,,,,,,,,,,,,,,,,,,,,,,,,,,,,,,,,,,,,,,,,,,091619_p2,001,2019_Sep_16_1324,body_behavioural,3.2.1,60.326918078990694,
2,parcelated_audio/31/31_29.aiff,,0,2,2,2,,,,,0,28,28,28,,,,,,,,,,,,,,,,,,,,,,,,,,,,,,,,,,,,,,,,,,,,,,,,,,,,,,,,,,,,,,,,,,,,,,,946.4453346407187,None,946.4447962870181,None,1,0.33441964999656193,950.7785154650046,None,950.7785154650046,None,950.7785154650046,None,950.7785154650046,None,,,,,,,,,,,,,,,,,,,,,,,,,,,,,,,,,,,,,,,,,,,,,,,,,,,,,,,,,,,,,,,,,,,,,,,,,,,,,,091619_p2,001,2019_Sep_16_1324,body_behavioural,3.2.1,60.326918078990694,
2,parcelated_audio/31/31_30.aiff,,0,2,2,2,,,,,0,29,29,29,,,,,,,,,,,,,,,,,,,,,,,,,,,,,,,,,,,,,,,,,,,,,,,,,,,,,,,,,,,,,,,,,,,,,,,951.2293198227213,None,951.228380777,None,1,1.179318417009199,954.9625342130021,None,954.9625342130021,None,954.9625342130021,None,954.9625342130021,None,,,,,,,,,,,,,,,,,,,,,,,,,,,,,,,,,,,,,,,,,,,,,,,,,,,,,,,,,,,,,,,,,,,,,,,,,,,,,,091619_p2,001,2019_Sep_16_1324,body_behavioural,3.2.1,60.326918078990694,
2,parcelated_audio/31/31_31.aiff,,0,2,2,2,,,,,0,30,30,30,,,,,,,,,,,,,,,,,,,,,,,,,,,,,,,,,,,,,,,,,,,,,,,,,,,,,,,,,,,,,,,,,,,,,,,956.2456736326945,None,956.2458690020139,None,1,0.24550445799832232,962.195939547004,None,962.195939547004,None,962.195939547004,None,962.195939547004,None,,,,,,,,,,,,,,,,,,,,,,,,,,,,,,,,,,,,,,,,,,,,,,,,,,,,,,,,,,,,,,,,,,,,,,,,,,,,,,091619_p2,001,2019_Sep_16_1324,body_behavioural,3.2.1,60.326918078990694,
2,parcelated_audio/31/31_32.aiff,,0,2,2,2,,,,,0,31,31,31,,,,,,,,,,,,,,,,,,,,,,,,,,,,,,,,,,,,,,,,,,,,,,,,,,,,,,,,,,,,,,,,,,,,,,,962.5300907307043,None,962.5291115799919,None,1,0.3380821500031743,972.496870789997,None,972.496870789997,None,972.496870789997,None,972.496870789997,None,,,,,,,,,,,,,,,,,,,,,,,,,,,,,,,,,,,,,,,,,,,,,,,,,,,,,,,,,,,,,,,,,,,,,,,,,,,,,,091619_p2,001,2019_Sep_16_1324,body_behavioural,3.2.1,60.326918078990694,
2,parcelated_audio/31/31_33.aiff,,0,2,2,2,,,,,0,32,32,32,,,,,,,,,,,,,,,,,,,,,,,,,,,,,,,,,,,,,,,,,,,,,,,,,,,,,,,,,,,,,,,,,,,,,,,972.9464597727143,None,972.9469096370158,None,1,0.2723297549819108,981.2973518219951,None,981.2973518219951,None,981.2973518219951,None,981.2973518219951,None,,,,,,,,,,,,,,,,,,,,,,,,,,,,,,,,,,,,,,,,,,,,,,,,,,,,,,,,,,,,,,,,,,,,,,,,,,,,,,091619_p2,001,2019_Sep_16_1324,body_behavioural,3.2.1,60.326918078990694,
2,parcelated_audio/31/31_34.aiff,,0,2,2,2,,,,,0,33,33,33,,,,,,,,,,,,,,,,,,,,,,,,,,,,,,,,,,,,,,,,,,,,,,,,,,,,,,,,,,,,,,,,,,,,,,,981.6651794557198,None,981.6641732150165,None,9,0.4286880299914628,986.0313075750018,None,986.0313075750018,None,986.0313075750018,None,986.0313075750018,None,,,,,,,,,,,,,,,,,,,,,,,,,,,,,,,,,,,,,,,,,,,,,,,,,,,,,,,,,,,,,,,,,,,,,,,,,,,,,,091619_p2,001,2019_Sep_16_1324,body_behavioural,3.2.1,60.326918078990694,
2,parcelated_audio/31/31_35.aiff,,0,2,2,2,,,,,0,34,34,34,,,,,,,,,,,,,,,,,,,,,,,,,,,,,,,,,,,,,,,,,,,,,,,,,,,,,,,,,,,,,,,,,,,,,,,986.5476367427124,None,986.5477092119982,None,1,0.3100688330014236,992.2815364770067,None,992.2815364770067,None,992.2815364770067,None,992.2815364770067,None,,,,,,,,,,,,,,,,,,,,,,,,,,,,,,,,,,,,,,,,,,,,,,,,,,,,,,,,,,,,,,,,,,,,,,,,,,,,,,091619_p2,001,2019_Sep_16_1324,body_behavioural,3.2.1,60.326918078990694,
2,parcelated_audio/31/31_36.aiff,,0,2,2,2,,,,,0,35,35,35,,,,,,,,,,,,,,,,,,,,,,,,,,,,,,,,,,,,,,,,,,,,,,,,,,,,,,,,,,,,,,,,,,,,,,,992.6823649027007,None,992.681541989994,None,1,0.27020104200346395,998.9657724350109,None,998.9657724350109,None,998.9657724350109,None,998.9657724350109,None,,,,,,,,,,,,,,,,,,,,,,,,,,,,,,,,,,,,,,,,,,,,,,,,,,,,,,,,,,,,,,,,,,,,,,,,,,,,,,091619_p2,001,2019_Sep_16_1324,body_behavioural,3.2.1,60.326918078990694,
2,,,0,2,2,2,,,,,,,,,,,,,,,,,,,,,,,,,,,,,,,,,,,,,,,,,,,,,,,,,,,,,,,,,,,,,,,,,,,,,,,,,,,,,,,,,,,,,,,,,,,,,999.2658489450114,None,999.2658489450114,None,space,0.6419985679967795,999.2658489450114,None,,,,,,,,,,,,,,,,,,,,,,,,,,,,,,,,,,,,,,,,,,,,,,,,,,,,,,,,,,,,,,,,,,,,,,091619_p2,001,2019_Sep_16_1324,body_behavioural,3.2.1,60.326918078990694,
3,,,0,3,3,3,0,0,0,0,,,,,,,,,,,,,,,,,,,,,,,999.9327939900104,None,space,0.6358377319993451,999.9327939900104,None,999.9327939900104,None,1000.599791804998,None,space,0.5259811299911235,1000.599791804998,None,1001.2152898850036,None,1001.2152898850036,None,1001.2152898850036,None,1001.7652678950108,None,space,0.5154483699880075,1001.7652678950108,None,1002.6492674100155,None,1002.6492674100155,None,1002.6492674100155,None,1002.6492674100155,None,1002.6492674100155,None,1002.6492674100155,None,1002.6492674100155,None,,,,,,,,,,,,,,,,,,,,,,,,,,,,,,,,,,,,,,,,,,,,,,,,,,,,,,,,,,,,,,,,,,,,,,,,,,,,,,,,,,,,,,,,,,,,,,,,,,,,,,,,091619_p2,001,2019_Sep_16_1324,body_behavioural,3.2.1,60.326918078990694,
3,parcelated_audio/11/11_1.aiff,,0,3,3,3,,,,,0,0,0,0,,,,,,,,,,,,,,,,,,,,,,,,,,,,,,,,,1020.7834912620019,None,1020.7834912620019,None,1020.7834912620019,None,,,,,,,,,,,,,,,,,,,,,1020.1335112719971,None,space,0.5815577570174355,1020.1335112719971,None,1021.5335467749974,None,space,0.7969174699974246,1021.5335467749974,None,1022.4505567057146,None,1022.4503131750098,None,9,1.376583188015502,1032.8676998850133,None,1032.8676998850133,None,1032.8676998850133,None,1032.8676998850133,None,,,,,,,,,,,,,,,,,,,,,,,,,,,,,,,,,,,,,,,,,,,,,,,,,,,,,,,,,,,,,,,,,,,,,,,,,,,,,,091619_p2,001,2019_Sep_16_1324,body_behavioural,3.2.1,60.326918078990694,
3,parcelated_audio/11/11_2.aiff,,0,3,3,3,,,,,0,1,1,1,,,,,,,,,,,,,,,,,,,,,,,,,,,,,,,,,,,,,,,,,,,,,,,,,,,,,,,,,,,,,,,,,,,,,,,1034.3347491007094,None,1034.3351211750123,None,1,0.8271993300004397,1038.784608440008,None,1038.784608440008,None,1038.784608440008,None,1038.784608440008,None,,,,,,,,,,,,,,,,,,,,,,,,,,,,,,,,,,,,,,,,,,,,,,,,,,,,,,,,,,,,,,,,,,,,,,,,,,,,,,091619_p2,001,2019_Sep_16_1324,body_behavioural,3.2.1,60.326918078990694,
3,parcelated_audio/11/11_3.aiff,,0,3,3,3,,,,,0,2,2,2,,,,,,,,,,,,,,,,,,,,,,,,,,,,,,,,,,,,,,,,,,,,,,,,,,,,,,,,,,,,,,,,,,,,,,,1039.7183934027066,None,1039.7181131399993,None,1,2.2120885899930727,1044.7181541419995,None,1044.7181541419995,None,1044.7181541419995,None,1044.7181541419995,None,,,,,,,,,,,,,,,,,,,,,,,,,,,,,,,,,,,,,,,,,,,,,,,,,,,,,,,,,,,,,,,,,,,,,,,,,,,,,,091619_p2,001,2019_Sep_16_1324,body_behavioural,3.2.1,60.326918078990694,
3,parcelated_audio/11/11_4.aiff,,0,3,3,3,,,,,0,3,3,3,,,,,,,,,,,,,,,,,,,,,,,,,,,,,,,,,,,,,,,,,,,,,,,,,,,,,,,,,,,,,,,,,,,,,,,1047.0191354726935,None,1047.0194167449954,None,1,0.09510850301012397,1056.1026829369948,None,1056.1026829369948,None,1056.1026829369948,None,1056.1026829369948,None,,,,,,,,,,,,,,,,,,,,,,,,,,,,,,,,,,,,,,,,,,,,,,,,,,,,,,,,,,,,,,,,,,,,,,,,,,,,,,091619_p2,001,2019_Sep_16_1324,body_behavioural,3.2.1,60.326918078990694,
3,parcelated_audio/11/11_5.aiff,,0,3,3,3,,,,,0,4,4,4,,,,,,,,,,,,,,,,,,,,,,,,,,,,,,,,,,,,,,,,,,,,,,,,,,,,,,,,,,,,,,,,,,,,,,,1056.2864498327049,None,1056.286878970015,None,1,0.31377392800641246,1062.0194019449991,None,1062.0194019449991,None,1062.0194019449991,None,1062.0194019449991,None,,,,,,,,,,,,,,,,,,,,,,,,,,,,,,,,,,,,,,,,,,,,,,,,,,,,,,,,,,,,,,,,,,,,,,,,,,,,,,091619_p2,001,2019_Sep_16_1324,body_behavioural,3.2.1,60.326918078990694,
3,parcelated_audio/11/11_6.aiff,,0,3,3,3,,,,,0,5,5,5,,,,,,,,,,,,,,,,,,,,,,,,,,,,,,,,,,,,,,,,,,,,,,,,,,,,,,,,,,,,,,,,,,,,,,,1062.4193547527043,None,1062.420571369992,None,1,0.2935411079961341,1066.9866305970063,None,1066.9866305970063,None,1066.9866305970063,None,1066.9866305970063,None,,,,,,,,,,,,,,,,,,,,,,,,,,,,,,,,,,,,,,,,,,,,,,,,,,,,,,,,,,,,,,,,,,,,,,,,,,,,,,091619_p2,001,2019_Sep_16_1324,body_behavioural,3.2.1,60.326918078990694,
3,parcelated_audio/11/11_7.aiff,,0,3,3,3,,,,,0,6,6,6,,,,,,,,,,,,,,,,,,,,,,,,,,,,,,,,,,,,,,,,,,,,,,,,,,,,,,,,,,,,,,,,,,,,,,,1067.3707675877172,None,1067.3703040270193,None,9,0.2831234269833658,1073.9037491570052,None,1073.9037491570052,None,1073.9037491570052,None,1073.9037491570052,None,,,,,,,,,,,,,,,,,,,,,,,,,,,,,,,,,,,,,,,,,,,,,,,,,,,,,,,,,,,,,,,,,,,,,,,,,,,,,,091619_p2,001,2019_Sep_16_1324,body_behavioural,3.2.1,60.326918078990694,
3,parcelated_audio/11/11_8.aiff,,0,3,3,3,,,,,0,7,7,7,,,,,,,,,,,,,,,,,,,,,,,,,,,,,,,,,,,,,,,,,,,,,,,,,,,,,,,,,,,,,,,,,,,,,,,1074.2709486577164,None,1074.2703393269912,None,1,0.3650817879824899,1080.019788598991,None,1080.019788598991,None,1080.019788598991,None,1080.019788598991,None,,,,,,,,,,,,,,,,,,,,,,,,,,,,,,,,,,,,,,,,,,,,,,,,,,,,,,,,,,,,,,,,,,,,,,,,,,,,,,091619_p2,001,2019_Sep_16_1324,body_behavioural,3.2.1,60.326918078990694,
3,parcelated_audio/11/11_9.aiff,,0,3,3,3,,,,,0,8,8,8,,,,,,,,,,,,,,,,,,,,,,,,,,,,,,,,,,,,,,,,,,,,,,,,,,,,,,,,,,,,,,,,,,,,,,,1080.4699596366931,None,1080.4708695599984,None,1,0.45046500200987794,1084.754446720006,None,1084.754446720006,None,1084.754446720006,None,1084.754446720006,None,,,,,,,,,,,,,,,,,,,,,,,,,,,,,,,,,,,,,,,,,,,,,,,,,,,,,,,,,,,,,,,,,,,,,,,,,,,,,,091619_p2,001,2019_Sep_16_1324,body_behavioural,3.2.1,60.326918078990694,
3,parcelated_audio/11/11_10.aiff,,0,3,3,3,,,,,0,9,9,9,,,,,,,,,,,,,,,,,,,,,,,,,,,,,,,,,,,,,,,,,,,,,,,,,,,,,,,,,,,,,,,,,,,,,,,1085.305139950718,None,1085.305028294999,None,9,0.17772510001668707,1089.8720274149964,None,1089.8720274149964,None,1089.8720274149964,None,1089.8720274149964,None,,,,,,,,,,,,,,,,,,,,,,,,,,,,,,,,,,,,,,,,,,,,,,,,,,,,,,,,,,,,,,,,,,,,,,,,,,,,,,091619_p2,001,2019_Sep_16_1324,body_behavioural,3.2.1,60.326918078990694,
3,parcelated_audio/11/11_11.aiff,,0,3,3,3,,,,,0,10,10,10,,,,,,,,,,,,,,,,,,,,,,,,,,,,,,,,,,,,,,,,,,,,,,,,,,,,,,,,,,,,,,,,,,,,,,,1090.1385441657126,None,1090.1390914900112,None,1,0.23260417499113828,1093.3050476920034,None,1093.3050476920034,None,1093.3050476920034,None,1093.3050476920034,None,,,,,,,,,,,,,,,,,,,,,,,,,,,,,,,,,,,,,,,,,,,,,,,,,,,,,,,,,,,,,,,,,,,,,,,,,,,,,,091619_p2,001,2019_Sep_16_1324,body_behavioural,3.2.1,60.326918078990694,
3,parcelated_audio/11/11_12.aiff,,0,3,3,3,,,,,0,11,11,11,,,,,,,,,,,,,,,,,,,,,,,,,,,,,,,,,,,,,,,,,,,,,,,,,,,,,,,,,,,,,,,,,,,,,,,1093.6224863157054,None,1093.6218453650072,None,1,0.5206127669953275,1096.438674970006,None,1096.438674970006,None,1096.438674970006,None,1096.438674970006,None,,,,,,,,,,,,,,,,,,,,,,,,,,,,,,,,,,,,,,,,,,,,,,,,,,,,,,,,,,,,,,,,,,,,,,,,,,,,,,091619_p2,001,2019_Sep_16_1324,body_behavioural,3.2.1,60.326918078990694,
3,parcelated_audio/11/11_13.aiff,,0,3,3,3,,,,,0,12,12,12,,,,,,,,,,,,,,,,,,,,,,,,,,,,,,,,,,,,,,,,,,,,,,,,,,,,,,,,,,,,,,,,,,,,,,,1097.055503820718,None,1097.0559572720085,None,1,0.6638670599786565,1100.3547313229938,None,1100.3547313229938,None,1100.3547313229938,None,1100.3547313229938,None,,,,,,,,,,,,,,,,,,,,,,,,,,,,,,,,,,,,,,,,,,,,,,,,,,,,,,,,,,,,,,,,,,,,,,,,,,,,,,091619_p2,001,2019_Sep_16_1324,body_behavioural,3.2.1,60.326918078990694,
3,parcelated_audio/11/11_14.aiff,,0,3,3,3,,,,,0,13,13,13,,,,,,,,,,,,,,,,,,,,,,,,,,,,,,,,,,,,,,,,,,,,,,,,,,,,,,,,,,,,,,,,,,,,,,,1101.1067597007,None,1101.105957790016,None,1,0.9288730370171834,1103.7892133599962,None,1103.7892133599962,None,1103.7892133599962,None,1103.7892133599962,None,,,,,,,,,,,,,,,,,,,,,,,,,,,,,,,,,,,,,,,,,,,,,,,,,,,,,,,,,,,,,,,,,,,,,,,,,,,,,,091619_p2,001,2019_Sep_16_1324,body_behavioural,3.2.1,60.326918078990694,
3,parcelated_audio/11/11_15.aiff,,0,3,3,3,,,,,0,14,14,14,,,,,,,,,,,,,,,,,,,,,,,,,,,,,,,,,,,,,,,,,,,,,,,,,,,,,,,,,,,,,,,,,,,,,,,1104.805980730694,None,1104.8063228100073,None,9,0.34556395999970846,1115.2075645450095,None,1115.2075645450095,None,1115.2075645450095,None,1115.2075645450095,None,,,,,,,,,,,,,,,,,,,,,,,,,,,,,,,,,,,,,,,,,,,,,,,,,,,,,,,,,,,,,,,,,,,,,,,,,,,,,,091619_p2,001,2019_Sep_16_1324,body_behavioural,3.2.1,60.326918078990694,
3,parcelated_audio/11/11_16.aiff,,0,3,3,3,,,,,0,15,15,15,,,,,,,,,,,,,,,,,,,,,,,,,,,,,,,,,,,,,,,,,,,,,,,,,,,,,,,,,,,,,,,,,,,,,,,1115.6406531957123,None,1115.639797180018,None,1,0.416122019989416,1118.6240754699975,None,1118.6240754699975,None,1118.6240754699975,None,1118.6240754699975,None,,,,,,,,,,,,,,,,,,,,,,,,,,,,,,,,,,,,,,,,,,,,,,,,,,,,,,,,,,,,,,,,,,,,,,,,,,,,,,091619_p2,001,2019_Sep_16_1324,body_behavioural,3.2.1,60.326918078990694,
3,parcelated_audio/11/11_17.aiff,,0,3,3,3,,,,,0,16,16,16,,,,,,,,,,,,,,,,,,,,,,,,,,,,,,,,,,,,,,,,,,,,,,,,,,,,,,,,,,,,,,,,,,,,,,,1119.1236511427064,None,1119.1236774050049,None,1,0.3539321669959463,1126.0906806620187,None,1126.0906806620187,None,1126.0906806620187,None,1126.0906806620187,None,,,,,,,,,,,,,,,,,,,,,,,,,,,,,,,,,,,,,,,,,,,,,,,,,,,,,,,,,,,,,,,,,,,,,,,,,,,,,,091619_p2,001,2019_Sep_16_1324,body_behavioural,3.2.1,60.326918078990694,
3,parcelated_audio/11/11_18.aiff,,0,3,3,3,,,,,0,17,17,17,,,,,,,,,,,,,,,,,,,,,,,,,,,,,,,,,,,,,,,,,,,,,,,,,,,,,,,,,,,,,,,,,,,,,,,1126.5416755006968,None,1126.5417168220156,None,1,0.3199865619826596,1134.0085981320008,None,1134.0085981320008,None,1134.0085981320008,None,1134.0085981320008,None,,,,,,,,,,,,,,,,,,,,,,,,,,,,,,,,,,,,,,,,,,,,,,,,,,,,,,,,,,,,,,,,,,,,,,,,,,,,,,091619_p2,001,2019_Sep_16_1324,body_behavioural,3.2.1,60.326918078990694,
3,parcelated_audio/11/11_19.aiff,,0,3,3,3,,,,,0,18,18,18,,,,,,,,,,,,,,,,,,,,,,,,,,,,,,,,,,,,,,,,,,,,,,,,,,,,,,,,,,,,,,,,,,,,,,,1134.4248082976933,None,1134.424878573016,None,9,0.4743694200005848,1138.9922608300112,None,1138.9922608300112,None,1138.9922608300112,None,1138.9922608300112,None,,,,,,,,,,,,,,,,,,,,,,,,,,,,,,,,,,,,,,,,,,,,,,,,,,,,,,,,,,,,,,,,,,,,,,,,,,,,,,091619_p2,001,2019_Sep_16_1324,body_behavioural,3.2.1,60.326918078990694,
3,parcelated_audio/11/11_20.aiff,,0,3,3,3,,,,,0,19,19,19,,,,,,,,,,,,,,,,,,,,,,,,,,,,,,,,,,,,,,,,,,,,,,,,,,,,,,,,,,,,,,,,,,,,,,,1139.559090845703,None,1139.5583298800047,None,1,0.08015360697754659,1144.492408154998,None,1144.492408154998,None,1144.492408154998,None,1144.492408154998,None,,,,,,,,,,,,,,,,,,,,,,,,,,,,,,,,,,,,,,,,,,,,,,,,,,,,,,,,,,,,,,,,,,,,,,,,,,,,,,091619_p2,001,2019_Sep_16_1324,body_behavioural,3.2.1,60.326918078990694,
3,parcelated_audio/11/11_21.aiff,,0,3,3,3,,,,,0,20,20,20,,,,,,,,,,,,,,,,,,,,,,,,,,,,,,,,,,,,,,,,,,,,,,,,,,,,,,,,,,,,,,,,,,,,,,,1144.6416850556939,None,1144.6410226930166,None,1,0.02226081199478358,1153.3925667970034,None,1153.3925667970034,None,1153.3925667970034,None,1153.3925667970034,None,,,,,,,,,,,,,,,,,,,,,,,,,,,,,,,,,,,,,,,,,,,,,,,,,,,,,,,,,,,,,,,,,,,,,,,,,,,,,,091619_p2,001,2019_Sep_16_1324,body_behavioural,3.2.1,60.326918078990694,
3,parcelated_audio/11/11_22.aiff,,0,3,3,3,,,,,0,21,21,21,,,,,,,,,,,,,,,,,,,,,,,,,,,,,,,,,,,,,,,,,,,,,,,,,,,,,,,,,,,,,,,,,,,,,,,1153.5094655726948,None,1153.5097400450031,None,1,0.3199949399859179,1156.8095875100116,None,1156.8095875100116,None,1156.8095875100116,None,1156.8095875100116,None,,,,,,,,,,,,,,,,,,,,,,,,,,,,,,,,,,,,,,,,,,,,,,,,,,,,,,,,,,,,,,,,,,,,,,,,,,,,,,091619_p2,001,2019_Sep_16_1324,body_behavioural,3.2.1,60.326918078990694,
3,parcelated_audio/11/11_23.aiff,,0,3,3,3,,,,,0,22,22,22,,,,,,,,,,,,,,,,,,,,,,,,,,,,,,,,,,,,,,,,,,,,,,,,,,,,,,,,,,,,,,,,,,,,,,,1157.226888150713,None,1157.2261147850077,None,1,0.5974183920188807,1161.993346310017,None,1161.993346310017,None,1161.993346310017,None,1161.993346310017,None,,,,,,,,,,,,,,,,,,,,,,,,,,,,,,,,,,,,,,,,,,,,,,,,,,,,,,,,,,,,,,,,,,,,,,,,,,,,,,091619_p2,001,2019_Sep_16_1324,body_behavioural,3.2.1,60.326918078990694,
3,parcelated_audio/11/11_24.aiff,,0,3,3,3,,,,,0,23,23,23,,,,,,,,,,,,,,,,,,,,,,,,,,,,,,,,,,,,,,,,,,,,,,,,,,,,,,,,,,,,,,,,,,,,,,,1162.677070352694,None,1162.6764759049984,None,1,0.9675543320190627,1166.2934063599969,None,1166.2934063599969,None,1166.2934063599969,None,1166.2934063599969,None,,,,,,,,,,,,,,,,,,,,,,,,,,,,,,,,,,,,,,,,,,,,,,,,,,,,,,,,,,,,,,,,,,,,,,,,,,,,,,091619_p2,001,2019_Sep_16_1324,body_behavioural,3.2.1,60.326918078990694,
3,parcelated_audio/11/11_25.aiff,,0,3,3,3,,,,,0,24,24,24,,,,,,,,,,,,,,,,,,,,,,,,,,,,,,,,,,,,,,,,,,,,,,,,,,,,,,,,,,,,,,,,,,,,,,,1167.3439532527204,None,1167.3437764669943,None,9,0.21878385698073544,1172.0610879150045,None,1172.0610879150045,None,1172.0610879150045,None,1172.0610879150045,None,,,,,,,,,,,,,,,,,,,,,,,,,,,,,,,,,,,,,,,,,,,,,,,,,,,,,,,,,,,,,,,,,,,,,,,,,,,,,,091619_p2,001,2019_Sep_16_1324,body_behavioural,3.2.1,60.326918078990694,
3,parcelated_audio/11/11_26.aiff,,0,3,3,3,,,,,0,25,25,25,,,,,,,,,,,,,,,,,,,,,,,,,,,,,,,,,,,,,,,,,,,,,,,,,,,,,,,,,,,,,,,,,,,,,,,1172.3774732507095,None,1172.377117755008,None,1,0.2630804520158563,1177.3605553520028,None,1177.3605553520028,None,1177.3605553520028,None,1177.3605553520028,None,,,,,,,,,,,,,,,,,,,,,,,,,,,,,,,,,,,,,,,,,,,,,,,,,,,,,,,,,,,,,,,,,,,,,,,,,,,,,,091619_p2,001,2019_Sep_16_1324,body_behavioural,3.2.1,60.326918078990694,
3,parcelated_audio/11/11_27.aiff,,0,3,3,3,,,,,0,26,26,26,,,,,,,,,,,,,,,,,,,,,,,,,,,,,,,,,,,,,,,,,,,,,,,,,,,,,,,,,,,,,,,,,,,,,,,1177.7110395527066,None,1177.7109236970136,None,1,0.2406844020006247,1181.6773029250035,None,1181.6773029250035,None,1181.6773029250035,None,1181.6773029250035,None,,,,,,,,,,,,,,,,,,,,,,,,,,,,,,,,,,,,,,,,,,,,,,,,,,,,,,,,,,,,,,,,,,,,,,,,,,,,,,091619_p2,001,2019_Sep_16_1324,body_behavioural,3.2.1,60.326918078990694,
3,parcelated_audio/11/11_28.aiff,,0,3,3,3,,,,,0,27,27,27,,,,,,,,,,,,,,,,,,,,,,,,,,,,,,,,,,,,,,,,,,,,,,,,,,,,,,,,,,,,,,,,,,,,,,,1182.0113524057174,None,1182.0119505600014,None,1,0.2732023720163852,1185.4114534520195,None,1185.4114534520195,None,1185.4114534520195,None,1185.4114534520195,None,,,,,,,,,,,,,,,,,,,,,,,,,,,,,,,,,,,,,,,,,,,,,,,,,,,,,,,,,,,,,,,,,,,,,,,,,,,,,,091619_p2,001,2019_Sep_16_1324,body_behavioural,3.2.1,60.326918078990694,
3,parcelated_audio/11/11_29.aiff,,0,3,3,3,,,,,0,28,28,28,,,,,,,,,,,,,,,,,,,,,,,,,,,,,,,,,,,,,,,,,,,,,,,,,,,,,,,,,,,,,,,,,,,,,,,1185.7784335557167,None,1185.7781505500025,None,1,0.26791174500249326,1189.9285641850147,None,1189.9285641850147,None,1189.9285641850147,None,1189.9285641850147,None,,,,,,,,,,,,,,,,,,,,,,,,,,,,,,,,,,,,,,,,,,,,,,,,,,,,,,,,,,,,,,,,,,,,,,,,,,,,,,091619_p2,001,2019_Sep_16_1324,body_behavioural,3.2.1,60.326918078990694,
3,parcelated_audio/11/11_30.aiff,,0,3,3,3,,,,,0,29,29,29,,,,,,,,,,,,,,,,,,,,,,,,,,,,,,,,,,,,,,,,,,,,,,,,,,,,,,,,,,,,,,,,,,,,,,,1190.2787339756992,None,1190.278406516998,None,1,0.20439171098405495,1194.7788270550082,None,1194.7788270550082,None,1194.7788270550082,None,1194.7788270550082,None,,,,,,,,,,,,,,,,,,,,,,,,,,,,,,,,,,,,,,,,,,,,,,,,,,,,,,,,,,,,,,,,,,,,,,,,,,,,,,091619_p2,001,2019_Sep_16_1324,body_behavioural,3.2.1,60.326918078990694,
3,parcelated_audio/11/11_31.aiff,,0,3,3,3,,,,,0,30,30,30,,,,,,,,,,,,,,,,,,,,,,,,,,,,,,,,,,,,,,,,,,,,,,,,,,,,,,,,,,,,,,,,,,,,,,,1195.0788788606965,None,1195.079384762008,None,1,0.47219821202452295,1199.9288974970113,None,1199.9288974970113,None,1199.9288974970113,None,1199.9288974970113,None,,,,,,,,,,,,,,,,,,,,,,,,,,,,,,,,,,,,,,,,,,,,,,,,,,,,,,,,,,,,,,,,,,,,,,,,,,,,,,091619_p2,001,2019_Sep_16_1324,body_behavioural,3.2.1,60.326918078990694,
3,parcelated_audio/11/11_32.aiff,,0,3,3,3,,,,,0,31,31,31,,,,,,,,,,,,,,,,,,,,,,,,,,,,,,,,,,,,,,,,,,,,,,,,,,,,,,,,,,,,,,,,,,,,,,,1200.4959857027075,None,1200.4964069820126,None,1,0.9651416350097861,1204.5469149970158,None,1204.5469149970158,None,1204.5469149970158,None,1204.5469149970158,None,,,,,,,,,,,,,,,,,,,,,,,,,,,,,,,,,,,,,,,,,,,,,,,,,,,,,,,,,,,,,,,,,,,,,,,,,,,,,,091619_p2,001,2019_Sep_16_1324,body_behavioural,3.2.1,60.326918078990694,
3,parcelated_audio/11/11_33.aiff,,0,3,3,3,,,,,0,32,32,32,,,,,,,,,,,,,,,,,,,,,,,,,,,,,,,,,,,,,,,,,,,,,,,,,,,,,,,,,,,,,,,,,,,,,,,1205.5801856606936,None,1205.5804737849976,None,1,0.4688177979842294,1208.0962270910095,None,1208.0962270910095,None,1208.0962270910095,None,1208.0962270910095,None,,,,,,,,,,,,,,,,,,,,,,,,,,,,,,,,,,,,,,,,,,,,,,,,,,,,,,,,,,,,,,,,,,,,,,,,,,,,,,091619_p2,001,2019_Sep_16_1324,body_behavioural,3.2.1,60.326918078990694,
3,parcelated_audio/11/11_34.aiff,,0,3,3,3,,,,,0,33,33,33,,,,,,,,,,,,,,,,,,,,,,,,,,,,,,,,,,,,,,,,,,,,,,,,,,,,,,,,,,,,,,,,,,,,,,,1208.6464338077144,None,1208.6465203230036,None,1,0.23910823799087666,1211.9633780720178,None,1211.9633780720178,None,1211.9633780720178,None,1211.9633780720178,None,,,,,,,,,,,,,,,,,,,,,,,,,,,,,,,,,,,,,,,,,,,,,,,,,,,,,,,,,,,,,,,,,,,,,,,,,,,,,,091619_p2,001,2019_Sep_16_1324,body_behavioural,3.2.1,60.326918078990694,
3,parcelated_audio/11/11_35.aiff,,0,3,3,3,,,,,0,34,34,34,,,,,,,,,,,,,,,,,,,,,,,,,,,,,,,,,,,,,,,,,,,,,,,,,,,,,,,,,,,,,,,,,,,,,,,1212.2975070157058,None,1212.2965367370052,None,1,0.2903688950173091,1216.6303463770018,None,1216.6303463770018,None,1216.6303463770018,None,1216.6303463770018,None,,,,,,,,,,,,,,,,,,,,,,,,,,,,,,,,,,,,,,,,,,,,,,,,,,,,,,,,,,,,,,,,,,,,,,,,,,,,,,091619_p2,001,2019_Sep_16_1324,body_behavioural,3.2.1,60.326918078990694,
3,parcelated_audio/11/11_36.aiff,,0,3,3,3,,,,,0,35,35,35,,,,,,,,,,,,,,,,,,,,,,,,,,,,,,,,,,,,,,,,,,,,,,,,,,,,,,,,,,,,,,,,,,,,,,,1217.0304348127188,None,1217.0311905250128,None,9,0.284130224987166,1226.0155702320044,None,1226.0155702320044,None,1226.0155702320044,None,1226.0155702320044,None,,,,,,,,,,,,,,,,,,,,,,,,,,,,,,,,,,,,,,,,,,,,,,,,,,,,,,,,,,,,,,,,,,,,,,,,,,,,,,091619_p2,001,2019_Sep_16_1324,body_behavioural,3.2.1,60.326918078990694,
3,parcelated_audio/11/11_37.aiff,,0,3,3,3,,,,,0,36,36,36,,,,,,,,,,,,,,,,,,,,,,,,,,,,,,,,,,,,,,,,,,,,,,,,,,,,,,,,,,,,,,,,,,,,,,,1226.3977921727142,None,1226.397626029997,None,1,0.7382309380045626,1230.5480258100142,None,1230.5480258100142,None,1230.5480258100142,None,1230.5480258100142,None,,,,,,,,,,,,,,,,,,,,,,,,,,,,,,,,,,,,,,,,,,,,,,,,,,,,,,,,,,,,,,,,,,,,,,,,,,,,,,091619_p2,001,2019_Sep_16_1324,body_behavioural,3.2.1,60.326918078990694,
3,parcelated_audio/11/11_38.aiff,,0,3,3,3,,,,,0,37,37,37,,,,,,,,,,,,,,,,,,,,,,,,,,,,,,,,,,,,,,,,,,,,,,,,,,,,,,,,,,,,,,,,,,,,,,,1231.381133165714,None,1231.3821122400113,None,1,1.2073005429992918,1237.4994765500014,None,1237.4994765500014,None,1237.4994765500014,None,1237.4994765500014,None,,,,,,,,,,,,,,,,,,,,,,,,,,,,,,,,,,,,,,,,,,,,,,,,,,,,,,,,,,,,,,,,,,,,,,,,,,,,,,091619_p2,001,2019_Sep_16_1324,body_behavioural,3.2.1,60.326918078990694,
3,parcelated_audio/11/11_39.aiff,,0,3,3,3,,,,,0,38,38,38,,,,,,,,,,,,,,,,,,,,,,,,,,,,,,,,,,,,,,,,,,,,,,,,,,,,,,,,,,,,,,,,,,,,,,,1238.7989766107144,None,1238.7981435650145,None,1,2.0371881969913375,1243.9827446700074,None,1243.9827446700074,None,1243.9827446700074,None,1243.9827446700074,None,,,,,,,,,,,,,,,,,,,,,,,,,,,,,,,,,,,,,,,,,,,,,,,,,,,,,,,,,,,,,,,,,,,,,,,,,,,,,,091619_p2,001,2019_Sep_16_1324,body_behavioural,3.2.1,60.326918078990694,
3,parcelated_audio/11/11_40.aiff,,0,3,3,3,,,,,0,39,39,39,,,,,,,,,,,,,,,,,,,,,,,,,,,,,,,,,,,,,,,,,,,,,,,,,,,,,,,,,,,,,,,,,,,,,,,1246.1332054607133,None,1246.1320272750163,None,1,0.33018618999631144,1251.782690312015,None,1251.782690312015,None,1251.782690312015,None,1251.782690312015,None,,,,,,,,,,,,,,,,,,,,,,,,,,,,,,,,,,,,,,,,,,,,,,,,,,,,,,,,,,,,,,,,,,,,,,,,,,,,,,091619_p2,001,2019_Sep_16_1324,body_behavioural,3.2.1,60.326918078990694,
3,parcelated_audio/11/11_41.aiff,,0,3,3,3,,,,,0,40,40,40,,,,,,,,,,,,,,,,,,,,,,,,,,,,,,,,,,,,,,,,,,,,,,,,,,,,,,,,,,,,,,,,,,,,,,,1252.1996393227105,None,1252.2000672770082,None,1,0.5228309970116243,1258.3505429500074,None,1258.3505429500074,None,1258.3505429500074,None,1258.3505429500074,None,,,,,,,,,,,,,,,,,,,,,,,,,,,,,,,,,,,,,,,,,,,,,,,,,,,,,,,,,,,,,,,,,,,,,,,,,,,,,,091619_p2,001,2019_Sep_16_1324,body_behavioural,3.2.1,60.326918078990694,
3,,,0,3,3,3,,,,,,,,,,,,,,,,,,,,,,,,,,,,,,,,,,,,,,,,,,,,,,,,,,,,,,,,,,,,,,,,,,,,,,,,,,,,,,,,,,,,,,,,,,,,,1258.9170378019917,None,1258.9170378019917,None,space,1.49834546999773,1258.9170378019917,None,,,,,,,,,,,,,,,,,,,,,,,,,,,,,,,,,,,,,,,,,,,,,,,,,,,,,,,,,,,,,,,,,,,,,,091619_p2,001,2019_Sep_16_1324,body_behavioural,3.2.1,60.326918078990694,
4,,,0,4,4,4,0,0,0,0,,,,,,,,,,,,,,,,,,,,,,,1260.4335732019972,None,space,0.4684771700121928,1260.4335732019972,None,1260.4335732019972,None,1260.9331658619922,None,space,0.439924485021038,1260.9331658619922,None,1261.466707870015,None,1261.466707870015,None,1261.466707870015,None,1263.2334692949953,None,space,0.5325942320050672,1263.2334692949953,None,1264.0678007820097,None,1264.0678007820097,None,1264.0678007820097,None,1264.0678007820097,None,1264.0678007820097,None,1264.0678007820097,None,1264.0678007820097,None,,,,,,,,,,,,,,,,,,,,,,,,,,,,,,,,,,,,,,,,,,,,,,,,,,,,,,,,,,,,,,,,,,,,,,,,,,,,,,,,,,,,,,,,,,,,,,,,,,,,,,,,091619_p2,001,2019_Sep_16_1324,body_behavioural,3.2.1,60.326918078990694,
4,,,0,4,4,4,1,0,1,0,,,,,,,,,,,,,,,,,,,,,,,,,,,,,,,,,,,,,1271.9507287720044,None,1271.9507287720044,None,1271.9507287720044,None,1272.2674838149978,None,space,0.2754727080173325,1272.2674838149978,None,1272.801713199995,None,1272.801713199995,None,1272.801713199995,None,1272.801713199995,None,1272.801713199995,None,1272.801713199995,None,1272.801713199995,None,,,,,,,,,,,,,,,,,,,,,,,,,,,,,,,,,,,,,,,,,,,,,,,,,,,,,,,,,,,,,,,,,,,,,,,,,,,,,,,,,,,,,,,,,,,,,,,,,,,,,,,,091619_p2,001,2019_Sep_16_1324,body_behavioural,3.2.1,60.326918078990694,
4,parcelated_audio/22/22_1.aiff,,0,4,4,4,,,,,0,0,0,0,,,,,,,,,,,,,,,,,,,,,,,,,,,,,,,,,1290.552891911997,None,1290.552891911997,None,1290.552891911997,None,,,,,,,,,,,,,,,,,,,,,1289.8359477549966,None,space,0.6457680429739412,1289.8359477549966,None,1291.1362311150006,None,space,0.7610940019949339,1291.1362311150006,None,1292.0531246156984,None,1292.0520245849912,None,9,2.598101568000857,1302.469570862013,None,1302.469570862013,None,1302.469570862013,None,1302.469570862013,None,,,,,,,,,,,,,,,,,,,,,,,,,,,,,,,,,,,,,,,,,,,,,,,,,,,,,,,,,,,,,,,,,,,,,,,,,,,,,,091619_p2,001,2019_Sep_16_1324,body_behavioural,3.2.1,60.326918078990694,
4,parcelated_audio/22/22_2.aiff,,0,4,4,4,,,,,0,1,1,1,,,,,,,,,,,,,,,,,,,,,,,,,,,,,,,,,,,,,,,,,,,,,,,,,,,,,,,,,,,,,,,,,,,,,,,1305.1696898257155,None,1305.170818284998,None,1,0.3265444269927684,1311.4366976250021,None,1311.4366976250021,None,1311.4366976250021,None,1311.4366976250021,None,,,,,,,,,,,,,,,,,,,,,,,,,,,,,,,,,,,,,,,,,,,,,,,,,,,,,,,,,,,,,,,,,,,,,,,,,,,,,,091619_p2,001,2019_Sep_16_1324,body_behavioural,3.2.1,60.326918078990694,
4,parcelated_audio/22/22_3.aiff,,0,4,4,4,,,,,0,2,2,2,,,,,,,,,,,,,,,,,,,,,,,,,,,,,,,,,,,,,,,,,,,,,,,,,,,,,,,,,,,,,,,,,,,,,,,1311.8701898476952,None,1311.8701436700067,None,1,1.2675336719839834,1322.2875747150101,None,1322.2875747150101,None,1322.2875747150101,None,1322.2875747150101,None,,,,,,,,,,,,,,,,,,,,,,,,,,,,,,,,,,,,,,,,,,,,,,,,,,,,,,,,,,,,,,,,,,,,,,,,,,,,,,091619_p2,001,2019_Sep_16_1324,body_behavioural,3.2.1,60.326918078990694,
4,parcelated_audio/22/22_4.aiff,,0,4,4,4,,,,,0,3,3,3,,,,,,,,,,,,,,,,,,,,,,,,,,,,,,,,,,,,,,,,,,,,,,,,,,,,,,,,,,,,,,,,,,,,,,,1323.6711505806975,None,1323.6709657169995,None,9,0.62109202001011,1334.0893505100103,None,1334.0893505100103,None,1334.0893505100103,None,1334.0893505100103,None,,,,,,,,,,,,,,,,,,,,,,,,,,,,,,,,,,,,,,,,,,,,,,,,,,,,,,,,,,,,,,,,,,,,,,,,,,,,,,091619_p2,001,2019_Sep_16_1324,body_behavioural,3.2.1,60.326918078990694,
4,parcelated_audio/22/22_5.aiff,,0,4,4,4,,,,,0,4,4,4,,,,,,,,,,,,,,,,,,,,,,,,,,,,,,,,,,,,,,,,,,,,,,,,,,,,,,,,,,,,,,,,,,,,,,,1334.8228239527175,None,1334.8227029120026,None,1,0.28213322497322224,1340.738868059998,None,1340.738868059998,None,1340.738868059998,None,1340.738868059998,None,,,,,,,,,,,,,,,,,,,,,,,,,,,,,,,,,,,,,,,,,,,,,,,,,,,,,,,,,,,,,,,,,,,,,,,,,,,,,,091619_p2,001,2019_Sep_16_1324,body_behavioural,3.2.1,60.326918078990694,
4,parcelated_audio/22/22_6.aiff,,0,4,4,4,,,,,0,5,5,5,,,,,,,,,,,,,,,,,,,,,,,,,,,,,,,,,,,,,,,,,,,,,,,,,,,,,,,,,,,,,,,,,,,,,,,1341.1221692107006,None,1341.1221000420046,None,1,0.788124205020722,1350.3068768520025,None,1350.3068768520025,None,1350.3068768520025,None,1350.3068768520025,None,,,,,,,,,,,,,,,,,,,,,,,,,,,,,,,,,,,,,,,,,,,,,,,,,,,,,,,,,,,,,,,,,,,,,,,,,,,,,,091619_p2,001,2019_Sep_16_1324,body_behavioural,3.2.1,60.326918078990694,
4,parcelated_audio/22/22_7.aiff,,0,4,4,4,,,,,0,6,6,6,,,,,,,,,,,,,,,,,,,,,,,,,,,,,,,,,,,,,,,,,,,,,,,,,,,,,,,,,,,,,,,,,,,,,,,1351.1900274307204,None,1351.189437027002,None,1,0.37561649997951463,1356.1731380870042,None,1356.1731380870042,None,1356.1731380870042,None,1356.1731380870042,None,,,,,,,,,,,,,,,,,,,,,,,,,,,,,,,,,,,,,,,,,,,,,,,,,,,,,,,,,,,,,,,,,,,,,,,,,,,,,,091619_p2,001,2019_Sep_16_1324,body_behavioural,3.2.1,60.326918078990694,
4,parcelated_audio/22/22_8.aiff,,0,4,4,4,,,,,0,7,7,7,,,,,,,,,,,,,,,,,,,,,,,,,,,,,,,,,,,,,,,,,,,,,,,,,,,,,,,,,,,,,,,,,,,,,,,1356.6400421207159,None,1356.6405353970185,None,1,1.1005037669965532,1360.1568831299955,None,1360.1568831299955,None,1360.1568831299955,None,1360.1568831299955,None,,,,,,,,,,,,,,,,,,,,,,,,,,,,,,,,,,,,,,,,,,,,,,,,,,,,,,,,,,,,,,,,,,,,,,,,,,,,,,091619_p2,001,2019_Sep_16_1324,body_behavioural,3.2.1,60.326918078990694,
4,parcelated_audio/22/22_9.aiff,,0,4,4,4,,,,,0,8,8,8,,,,,,,,,,,,,,,,,,,,,,,,,,,,,,,,,,,,,,,,,,,,,,,,,,,,,,,,,,,,,,,,,,,,,,,1361.3569846327096,None,1361.3569420150016,None,1,0.2505816000048071,1365.2406832500128,None,1365.2406832500128,None,1365.2406832500128,None,1365.2406832500128,None,,,,,,,,,,,,,,,,,,,,,,,,,,,,,,,,,,,,,,,,,,,,,,,,,,,,,,,,,,,,,,,,,,,,,,,,,,,,,,091619_p2,001,2019_Sep_16_1324,body_behavioural,3.2.1,60.326918078990694,
4,parcelated_audio/22/22_10.aiff,,0,4,4,4,,,,,0,9,9,9,,,,,,,,,,,,,,,,,,,,,,,,,,,,,,,,,,,,,,,,,,,,,,,,,,,,,,,,,,,,,,,,,,,,,,,1365.5913317356985,None,1365.5904501650075,None,9,0.24325248401146382,1370.3241024849995,None,1370.3241024849995,None,1370.3241024849995,None,1370.3241024849995,None,,,,,,,,,,,,,,,,,,,,,,,,,,,,,,,,,,,,,,,,,,,,,,,,,,,,,,,,,,,,,,,,,,,,,,,,,,,,,,091619_p2,001,2019_Sep_16_1324,body_behavioural,3.2.1,60.326918078990694,
4,parcelated_audio/22/22_11.aiff,,0,4,4,4,,,,,0,10,10,10,,,,,,,,,,,,,,,,,,,,,,,,,,,,,,,,,,,,,,,,,,,,,,,,,,,,,,,,,,,,,,,,,,,,,,,1370.6579675056942,None,1370.657266337017,None,1,0.2929113770078402,1377.9421004150063,None,1377.9421004150063,None,1377.9421004150063,None,1377.9421004150063,None,,,,,,,,,,,,,,,,,,,,,,,,,,,,,,,,,,,,,,,,,,,,,,,,,,,,,,,,,,,,,,,,,,,,,,,,,,,,,,091619_p2,001,2019_Sep_16_1324,body_behavioural,3.2.1,60.326918078990694,
4,parcelated_audio/22/22_12.aiff,,0,4,4,4,,,,,0,11,11,11,,,,,,,,,,,,,,,,,,,,,,,,,,,,,,,,,,,,,,,,,,,,,,,,,,,,,,,,,,,,,,,,,,,,,,,1378.341455255702,None,1378.3420529070136,None,1,0.29610300800413825,1386.0424498100183,None,1386.0424498100183,None,1386.0424498100183,None,1386.0424498100183,None,,,,,,,,,,,,,,,,,,,,,,,,,,,,,,,,,,,,,,,,,,,,,,,,,,,,,,,,,,,,,,,,,,,,,,,,,,,,,,091619_p2,001,2019_Sep_16_1324,body_behavioural,3.2.1,60.326918078990694,
4,parcelated_audio/22/22_13.aiff,,0,4,4,4,,,,,0,12,12,12,,,,,,,,,,,,,,,,,,,,,,,,,,,,,,,,,,,,,,,,,,,,,,,,,,,,,,,,,,,,,,,,,,,,,,,1386.4420177107181,None,1386.4428907420079,None,1,0.2688507979910355,1393.6934036420134,None,1393.6934036420134,None,1393.6934036420134,None,1393.6934036420134,None,,,,,,,,,,,,,,,,,,,,,,,,,,,,,,,,,,,,,,,,,,,,,,,,,,,,,,,,,,,,,,,,,,,,,,,,,,,,,,091619_p2,001,2019_Sep_16_1324,body_behavioural,3.2.1,60.326918078990694,
4,parcelated_audio/22/22_14.aiff,,0,4,4,4,,,,,0,13,13,13,,,,,,,,,,,,,,,,,,,,,,,,,,,,,,,,,,,,,,,,,,,,,,,,,,,,,,,,,,,,,,,,,,,,,,,1394.0597449027205,None,1394.05909654501,None,1,0.46125009199022315,1399.6771514950087,None,1399.6771514950087,None,1399.6771514950087,None,1399.6771514950087,None,,,,,,,,,,,,,,,,,,,,,,,,,,,,,,,,,,,,,,,,,,,,,,,,,,,,,,,,,,,,,,,,,,,,,,,,,,,,,,091619_p2,001,2019_Sep_16_1324,body_behavioural,3.2.1,60.326918078990694,
4,parcelated_audio/22/22_15.aiff,,0,4,4,4,,,,,0,14,14,14,,,,,,,,,,,,,,,,,,,,,,,,,,,,,,,,,,,,,,,,,,,,,,,,,,,,,,,,,,,,,,,,,,,,,,,1400.2272942056966,None,1400.2268314920075,None,1,0.02045942799304612,1407.99398751001,None,1407.99398751001,None,1407.99398751001,None,1407.99398751001,None,,,,,,,,,,,,,,,,,,,,,,,,,,,,,,,,,,,,,,,,,,,,,,,,,,,,,,,,,,,,,,,,,,,,,,,,,,,,,,091619_p2,001,2019_Sep_16_1324,body_behavioural,3.2.1,60.326918078990694,
4,parcelated_audio/22/22_16.aiff,,0,4,4,4,,,,,0,15,15,15,,,,,,,,,,,,,,,,,,,,,,,,,,,,,,,,,,,,,,,,,,,,,,,,,,,,,,,,,,,,,,,,,,,,,,,1408.1268867476988,None,1408.1276013950119,None,1,0.2766266329854261,1416.777504311991,None,1416.777504311991,None,1416.777504311991,None,1416.777504311991,None,,,,,,,,,,,,,,,,,,,,,,,,,,,,,,,,,,,,,,,,,,,,,,,,,,,,,,,,,,,,,,,,,,,,,,,,,,,,,,091619_p2,001,2019_Sep_16_1324,body_behavioural,3.2.1,60.326918078990694,
4,parcelated_audio/22/22_17.aiff,,0,4,4,4,,,,,0,16,16,16,,,,,,,,,,,,,,,,,,,,,,,,,,,,,,,,,,,,,,,,,,,,,,,,,,,,,,,,,,,,,,,,,,,,,,,1417.1451034006982,None,1417.144249539997,None,1,0.49350941501324996,1420.2780756099964,None,1420.2780756099964,None,1420.2780756099964,None,1420.2780756099964,None,,,,,,,,,,,,,,,,,,,,,,,,,,,,,,,,,,,,,,,,,,,,,,,,,,,,,,,,,,,,,,,,,,,,,,,,,,,,,,091619_p2,001,2019_Sep_16_1324,body_behavioural,3.2.1,60.326918078990694,
4,parcelated_audio/22/22_18.aiff,,0,4,4,4,,,,,0,17,17,17,,,,,,,,,,,,,,,,,,,,,,,,,,,,,,,,,,,,,,,,,,,,,,,,,,,,,,,,,,,,,,,,,,,,,,,1420.861397841721,None,1420.8600724790012,None,1,0.3088292949832976,1427.5948504020052,None,1427.5948504020052,None,1427.5948504020052,None,1427.5948504020052,None,,,,,,,,,,,,,,,,,,,,,,,,,,,,,,,,,,,,,,,,,,,,,,,,,,,,,,,,,,,,,,,,,,,,,,,,,,,,,,091619_p2,001,2019_Sep_16_1324,body_behavioural,3.2.1,60.326918078990694,
4,parcelated_audio/22/22_19.aiff,,0,4,4,4,,,,,0,18,18,18,,,,,,,,,,,,,,,,,,,,,,,,,,,,,,,,,,,,,,,,,,,,,,,,,,,,,,,,,,,,,,,,,,,,,,,1428.0115887777151,None,1428.012483707018,None,1,0.7091246930067427,1432.9617872119998,None,1432.9617872119998,None,1432.9617872119998,None,1432.9617872119998,None,,,,,,,,,,,,,,,,,,,,,,,,,,,,,,,,,,,,,,,,,,,,,,,,,,,,,,,,,,,,,,,,,,,,,,,,,,,,,,091619_p2,001,2019_Sep_16_1324,body_behavioural,3.2.1,60.326918078990694,
4,parcelated_audio/22/22_20.aiff,,0,4,4,4,,,,,0,19,19,19,,,,,,,,,,,,,,,,,,,,,,,,,,,,,,,,,,,,,,,,,,,,,,,,,,,,,,,,,,,,,,,,,,,,,,,1433.778992562709,None,1433.7784505900054,None,9,0.7616618000029121,1444.164178875013,None,1444.164178875013,None,1444.164178875013,None,1444.164178875013,None,,,,,,,,,,,,,,,,,,,,,,,,,,,,,,,,,,,,,,,,,,,,,,,,,,,,,,,,,,,,,,,,,,,,,,,,,,,,,,091619_p2,001,2019_Sep_16_1324,body_behavioural,3.2.1,60.326918078990694,
4,parcelated_audio/22/22_21.aiff,,0,4,4,4,,,,,0,20,20,20,,,,,,,,,,,,,,,,,,,,,,,,,,,,,,,,,,,,,,,,,,,,,,,,,,,,,,,,,,,,,,,,,,,,,,,1445.0131932227027,None,1445.0126300620032,None,1,1.2448059269809164,1447.0128592099936,None,1447.0128592099936,None,1447.0128592099936,None,1447.0128592099936,None,,,,,,,,,,,,,,,,,,,,,,,,,,,,,,,,,,,,,,,,,,,,,,,,,,,,,,,,,,,,,,,,,,,,,,,,,,,,,,091619_p2,001,2019_Sep_16_1324,body_behavioural,3.2.1,60.326918078990694,
4,parcelated_audio/22/22_22.aiff,,0,4,4,4,,,,,0,21,21,21,,,,,,,,,,,,,,,,,,,,,,,,,,,,,,,,,,,,,,,,,,,,,,,,,,,,,,,,,,,,,,,,,,,,,,,1448.3465305357036,None,1448.3460896920005,None,1,1.1337770120007917,1451.4789543350053,None,1451.4789543350053,None,1451.4789543350053,None,1451.4789543350053,None,,,,,,,,,,,,,,,,,,,,,,,,,,,,,,,,,,,,,,,,,,,,,,,,,,,,,,,,,,,,,,,,,,,,,,,,,,,,,,091619_p2,001,2019_Sep_16_1324,body_behavioural,3.2.1,60.326918078990694,
4,parcelated_audio/22/22_23.aiff,,0,4,4,4,,,,,0,22,22,22,,,,,,,,,,,,,,,,,,,,,,,,,,,,,,,,,,,,,,,,,,,,,,,,,,,,,,,,,,,,,,,,,,,,,,,1452.7137530357081,None,1452.7133970819996,None,1,0.5258522850053851,1459.2145573520102,None,1459.2145573520102,None,1459.2145573520102,None,1459.2145573520102,None,,,,,,,,,,,,,,,,,,,,,,,,,,,,,,,,,,,,,,,,,,,,,,,,,,,,,,,,,,,,,,,,,,,,,,,,,,,,,,091619_p2,001,2019_Sep_16_1324,body_behavioural,3.2.1,60.326918078990694,
4,parcelated_audio/22/22_24.aiff,,0,4,4,4,,,,,0,23,23,23,,,,,,,,,,,,,,,,,,,,,,,,,,,,,,,,,,,,,,,,,,,,,,,,,,,,,,,,,,,,,,,,,,,,,,,1459.830601452713,None,1459.8299604100175,None,1,1.0910290330066346,1465.5645232520183,None,1465.5645232520183,None,1465.5645232520183,None,1465.5645232520183,None,,,,,,,,,,,,,,,,,,,,,,,,,,,,,,,,,,,,,,,,,,,,,,,,,,,,,,,,,,,,,,,,,,,,,,,,,,,,,,091619_p2,001,2019_Sep_16_1324,body_behavioural,3.2.1,60.326918078990694,
4,parcelated_audio/22/22_25.aiff,,0,4,4,4,,,,,0,24,24,24,,,,,,,,,,,,,,,,,,,,,,,,,,,,,,,,,,,,,,,,,,,,,,,,,,,,,,,,,,,,,,,,,,,,,,,1466.764787497706,None,1466.764325391996,None,1,2.3138440230104607,1477.1658347299963,None,1477.1658347299963,None,1477.1658347299963,None,1477.1658347299963,None,,,,,,,,,,,,,,,,,,,,,,,,,,,,,,,,,,,,,,,,,,,,,,,,,,,,,,,,,,,,,,,,,,,,,,,,,,,,,,091619_p2,001,2019_Sep_16_1324,body_behavioural,3.2.1,60.326918078990694,
4,parcelated_audio/22/22_26.aiff,,0,4,4,4,,,,,0,25,25,25,,,,,,,,,,,,,,,,,,,,,,,,,,,,,,,,,,,,,,,,,,,,,,,,,,,,,,,,,,,,,,,,,,,,,,,1479.5643500156962,None,1479.5645005810075,None,1,2.423352917016018,1486.2997699349944,None,1486.2997699349944,None,1486.2997699349944,None,1486.2997699349944,None,,,,,,,,,,,,,,,,,,,,,,,,,,,,,,,,,,,,,,,,,,,,,,,,,,,,,,,,,,,,,,,,,,,,,,,,,,,,,,091619_p2,001,2019_Sep_16_1324,body_behavioural,3.2.1,60.326918078990694,
4,parcelated_audio/22/22_27.aiff,,0,4,4,4,,,,,0,26,26,26,,,,,,,,,,,,,,,,,,,,,,,,,,,,,,,,,,,,,,,,,,,,,,,,,,,,,,,,,,,,,,,,,,,,,,,1488.8154814707027,None,1488.815797421994,None,9,0.17028595300507732,1493.2170594499912,None,1493.2170594499912,None,1493.2170594499912,None,1493.2170594499912,None,,,,,,,,,,,,,,,,,,,,,,,,,,,,,,,,,,,,,,,,,,,,,,,,,,,,,,,,,,,,,,,,,,,,,,,,,,,,,,091619_p2,001,2019_Sep_16_1324,body_behavioural,3.2.1,60.326918078990694,
4,parcelated_audio/22/22_28.aiff,,0,4,4,4,,,,,0,27,27,27,,,,,,,,,,,,,,,,,,,,,,,,,,,,,,,,,,,,,,,,,,,,,,,,,,,,,,,,,,,,,,,,,,,,,,,1493.4995294626947,None,1493.4993547420017,None,1,0.3214214780018665,1499.2333072570036,None,1499.2333072570036,None,1499.2333072570036,None,1499.2333072570036,None,,,,,,,,,,,,,,,,,,,,,,,,,,,,,,,,,,,,,,,,,,,,,,,,,,,,,,,,,,,,,,,,,,,,,,,,,,,,,,091619_p2,001,2019_Sep_16_1324,body_behavioural,3.2.1,60.326918078990694,
4,parcelated_audio/22/22_29.aiff,,0,4,4,4,,,,,0,28,28,28,,,,,,,,,,,,,,,,,,,,,,,,,,,,,,,,,,,,,,,,,,,,,,,,,,,,,,,,,,,,,,,,,,,,,,,1499.649769605699,None,1499.6497959050175,None,1,0.2678307250025682,1505.3501296600152,None,1505.3501296600152,None,1505.3501296600152,None,1505.3501296600152,None,,,,,,,,,,,,,,,,,,,,,,,,,,,,,,,,,,,,,,,,,,,,,,,,,,,,,,,,,,,,,,,,,,,,,,,,,,,,,,091619_p2,001,2019_Sep_16_1324,body_behavioural,3.2.1,60.326918078990694,
4,parcelated_audio/22/22_30.aiff,,0,4,4,4,,,,,0,29,29,29,,,,,,,,,,,,,,,,,,,,,,,,,,,,,,,,,,,,,,,,,,,,,,,,,,,,,,,,,,,,,,,,,,,,,,,1505.7343661107093,None,1505.7334455749951,None,1,0.6841205319797155,1508.4160305410041,None,1508.4160305410041,None,1508.4160305410041,None,1508.4160305410041,None,,,,,,,,,,,,,,,,,,,,,,,,,,,,,,,,,,,,,,,,,,,,,,,,,,,,,,,,,,,,,,,,,,,,,,,,,,,,,,091619_p2,001,2019_Sep_16_1324,body_behavioural,3.2.1,60.326918078990694,
4,parcelated_audio/22/22_31.aiff,,0,4,4,4,,,,,0,30,30,30,,,,,,,,,,,,,,,,,,,,,,,,,,,,,,,,,,,,,,,,,,,,,,,,,,,,,,,,,,,,,,,,,,,,,,,1509.1847933857148,None,1509.184054220008,None,1,0.14026142499642447,1514.3340754700184,None,1514.3340754700184,None,1514.3340754700184,None,1514.3340754700184,None,,,,,,,,,,,,,,,,,,,,,,,,,,,,,,,,,,,,,,,,,,,,,,,,,,,,,,,,,,,,,,,,,,,,,,,,,,,,,,091619_p2,001,2019_Sep_16_1324,body_behavioural,3.2.1,60.326918078990694,
4,parcelated_audio/22/22_32.aiff,,0,4,4,4,,,,,0,31,31,31,,,,,,,,,,,,,,,,,,,,,,,,,,,,,,,,,,,,,,,,,,,,,,,,,,,,,,,,,,,,,,,,,,,,,,,1514.5842209527123,None,1514.5841019950167,None,1,0.28060994498082437,1520.9012498520024,None,1520.9012498520024,None,1520.9012498520024,None,1520.9012498520024,None,,,,,,,,,,,,,,,,,,,,,,,,,,,,,,,,,,,,,,,,,,,,,,,,,,,,,,,,,,,,,,,,,,,,,,,,,,,,,,091619_p2,001,2019_Sep_16_1324,body_behavioural,3.2.1,60.326918078990694,
4,parcelated_audio/22/22_33.aiff,,0,4,4,4,,,,,0,32,32,32,,,,,,,,,,,,,,,,,,,,,,,,,,,,,,,,,,,,,,,,,,,,,,,,,,,,,,,,,,,,,,,,,,,,,,,1521.268228615701,None,1521.2687561119965,None,1,0.20998970000073314,1525.7014790819958,None,1525.7014790819958,None,1525.7014790819958,None,1525.7014790819958,None,,,,,,,,,,,,,,,,,,,,,,,,,,,,,,,,,,,,,,,,,,,,,,,,,,,,,,,,,,,,,,,,,,,,,,,,,,,,,,091619_p2,001,2019_Sep_16_1324,body_behavioural,3.2.1,60.326918078990694,
4,parcelated_audio/22/22_34.aiff,,0,4,4,4,,,,,0,33,33,33,,,,,,,,,,,,,,,,,,,,,,,,,,,,,,,,,,,,,,,,,,,,,,,,,,,,,,,,,,,,,,,,,,,,,,,1526.0186984457046,None,1526.0183517650003,None,1,1.380130845005624,1534.0354556050152,None,1534.0354556050152,None,1534.0354556050152,None,1534.0354556050152,None,,,,,,,,,,,,,,,,,,,,,,,,,,,,,,,,,,,,,,,,,,,,,,,,,,,,,,,,,,,,,,,,,,,,,,,,,,,,,,091619_p2,001,2019_Sep_16_1324,body_behavioural,3.2.1,60.326918078990694,
4,parcelated_audio/22/22_35.aiff,,0,4,4,4,,,,,0,34,34,34,,,,,,,,,,,,,,,,,,,,,,,,,,,,,,,,,,,,,,,,,,,,,,,,,,,,,,,,,,,,,,,,,,,,,,,1535.5185465627087,None,1535.5200233570067,None,9,0.08768716201302595,1543.0194970020093,None,1543.0194970020093,None,1543.0194970020093,None,1543.0194970020093,None,,,,,,,,,,,,,,,,,,,,,,,,,,,,,,,,,,,,,,,,,,,,,,,,,,,,,,,,,,,,,,,,,,,,,,,,,,,,,,091619_p2,001,2019_Sep_16_1324,body_behavioural,3.2.1,60.326918078990694,
4,parcelated_audio/22/22_36.aiff,,0,4,4,4,,,,,0,35,35,35,,,,,,,,,,,,,,,,,,,,,,,,,,,,,,,,,,,,,,,,,,,,,,,,,,,,,,,,,,,,,,,,,,,,,,,1543.2192176157055,None,1543.220377887017,None,1,0.5020961719856132,1553.6202237750113,None,1553.6202237750113,None,1553.6202237750113,None,1553.6202237750113,None,,,,,,,,,,,,,,,,,,,,,,,,,,,,,,,,,,,,,,,,,,,,,,,,,,,,,,,,,,,,,,,,,,,,,,,,,,,,,,091619_p2,001,2019_Sep_16_1324,body_behavioural,3.2.1,60.326918078990694,
4,parcelated_audio/22/22_37.aiff,,0,4,4,4,,,,,0,36,36,36,,,,,,,,,,,,,,,,,,,,,,,,,,,,,,,,,,,,,,,,,,,,,,,,,,,,,,,,,,,,,,,,,,,,,,,1554.2204817927063,None,1554.2202030300105,None,1,0.23119788197800517,1561.3873809350189,None,1561.3873809350189,None,1561.3873809350189,None,1561.3873809350189,None,,,,,,,,,,,,,,,,,,,,,,,,,,,,,,,,,,,,,,,,,,,,,,,,,,,,,,,,,,,,,,,,,,,,,,,,,,,,,,091619_p2,001,2019_Sep_16_1324,body_behavioural,3.2.1,60.326918078990694,
4,,,0,4,4,4,,,,,,,,,,,,,,,,,,,,,,,,,,,,,,,,,,,,,,,,,,,,,,,,,,,,,,,,,,,,,,,,,,,,,,,,,,,,,,,,,,,,,,,,,,,,,1561.6543635400012,None,1561.6543635400012,None,space,0.8910669779870659,1561.6543635400012,None,,,,,,,,,,,,,,,,,,,,,,,,,,,,,,,,,,,,,,,,,,,,,,,,,,,,,,,,,,,,,,,,,,,,,,091619_p2,001,2019_Sep_16_1324,body_behavioural,3.2.1,60.326918078990694,
5,,,0,5,5,5,0,0,0,0,,,,,,,,,,,,,,,,,,,,,,,1562.5872083450085,None,space,1.242165996984113,1562.5872083450085,None,1562.5872083450085,None,1563.8542242670082,None,space,0.8081940700067207,1563.8542242670082,None,1564.7542426520085,None,1564.7542426520085,None,1564.7542426520085,None,1566.5546972400043,None,space,2.395571225002641,1566.5546972400043,None,1569.2717249520065,None,1569.2717249520065,None,1569.2717249520065,None,1569.2717249520065,None,1569.2717249520065,None,1569.2717249520065,None,1569.2717249520065,None,,,,,,,,,,,,,,,,,,,,,,,,,,,,,,,,,,,,,,,,,,,,,,,,,,,,,,,,,,,,,,,,,,,,,,,,,,,,,,,,,,,,,,,,,,,,,,,,,,,,,,,,091619_p2,001,2019_Sep_16_1324,body_behavioural,3.2.1,60.326918078990694,
5,parcelated_audio/42/42_1.aiff,,0,5,5,5,,,,,0,0,0,0,,,,,,,,,,,,,,,,,,,,,,,,,,,,,,,,,1585.1390183019976,None,1585.1390183019976,None,1585.1390183019976,None,,,,,,,,,,,,,,,,,,,,,1583.9562632850138,None,space,1.1065119129780214,1583.9562632850138,None,1585.5890263970068,None,space,0.6597667919995729,1585.5890263970068,None,1586.372507985719,None,1586.3723728350014,None,9,0.15242327697342262,1594.7400334400008,None,1594.7400334400008,None,1594.7400334400008,None,1594.7400334400008,None,,,,,,,,,,,,,,,,,,,,,,,,,,,,,,,,,,,,,,,,,,,,,,,,,,,,,,,,,,,,,,,,,,,,,,,,,,,,,,091619_p2,001,2019_Sep_16_1324,body_behavioural,3.2.1,60.326918078990694,
5,parcelated_audio/42/42_2.aiff,,0,5,5,5,,,,,0,1,1,1,,,,,,,,,,,,,,,,,,,,,,,,,,,,,,,,,,,,,,,,,,,,,,,,,,,,,,,,,,,,,,,,,,,,,,,1595.006435020719,None,1595.007014730014,None,1,0.6653164330055006,1605.4237329350144,None,1605.4237329350144,None,1605.4237329350144,None,1605.4237329350144,None,,,,,,,,,,,,,,,,,,,,,,,,,,,,,,,,,,,,,,,,,,,,,,,,,,,,,,,,,,,,,,,,,,,,,,,,,,,,,,091619_p2,001,2019_Sep_16_1324,body_behavioural,3.2.1,60.326918078990694,
5,parcelated_audio/42/42_3.aiff,,0,5,5,5,,,,,0,2,2,2,,,,,,,,,,,,,,,,,,,,,,,,,,,,,,,,,,,,,,,,,,,,,,,,,,,,,,,,,,,,,,,,,,,,,,,1606.1905139556998,None,1606.1907942100079,None,1,1.3176010970200878,1616.4745611750113,None,1616.4745611750113,None,1616.4745611750113,None,1616.4745611750113,None,,,,,,,,,,,,,,,,,,,,,,,,,,,,,,,,,,,,,,,,,,,,,,,,,,,,,,,,,,,,,,,,,,,,,,,,,,,,,,091619_p2,001,2019_Sep_16_1324,body_behavioural,3.2.1,60.326918078990694,
5,parcelated_audio/42/42_4.aiff,,0,5,5,5,,,,,0,3,3,3,,,,,,,,,,,,,,,,,,,,,,,,,,,,,,,,,,,,,,,,,,,,,,,,,,,,,,,,,,,,,,,,,,,,,,,1617.908773712706,None,1617.9079544050037,None,9,2.3417156980140135,1628.3254231770115,None,1628.3254231770115,None,1628.3254231770115,None,1628.3254231770115,None,,,,,,,,,,,,,,,,,,,,,,,,,,,,,,,,,,,,,,,,,,,,,,,,,,,,,,,,,,,,,,,,,,,,,,,,,,,,,,091619_p2,001,2019_Sep_16_1324,body_behavioural,3.2.1,60.326918078990694,
5,parcelated_audio/42/42_5.aiff,,0,5,5,5,,,,,0,4,4,4,,,,,,,,,,,,,,,,,,,,,,,,,,,,,,,,,,,,,,,,,,,,,,,,,,,,,,,,,,,,,,,,,,,,,,,1630.7595213007094,None,1630.7588257350144,None,1,0.7556120720109902,1641.1770797200152,None,1641.1770797200152,None,1641.1770797200152,None,1641.1770797200152,None,,,,,,,,,,,,,,,,,,,,,,,,,,,,,,,,,,,,,,,,,,,,,,,,,,,,,,,,,,,,,,,,,,,,,,,,,,,,,,091619_p2,001,2019_Sep_16_1324,body_behavioural,3.2.1,60.326918078990694,
5,parcelated_audio/42/42_6.aiff,,0,5,5,5,,,,,0,5,5,5,,,,,,,,,,,,,,,,,,,,,,,,,,,,,,,,,,,,,,,,,,,,,,,,,,,,,,,,,,,,,,,,,,,,,,,1642.0267685556987,None,1642.0261379820004,None,1,0.6697690000000875,1648.510350002005,None,1648.510350002005,None,1648.510350002005,None,1648.510350002005,None,,,,,,,,,,,,,,,,,,,,,,,,,,,,,,,,,,,,,,,,,,,,,,,,,,,,,,,,,,,,,,,,,,,,,,,,,,,,,,091619_p2,001,2019_Sep_16_1324,body_behavioural,3.2.1,60.326918078990694,
5,parcelated_audio/42/42_7.aiff,,0,5,5,5,,,,,0,6,6,6,,,,,,,,,,,,,,,,,,,,,,,,,,,,,,,,,,,,,,,,,,,,,,,,,,,,,,,,,,,,,,,,,,,,,,,1649.2774761827109,None,1649.2768085720018,None,1,0.8476089179748669,1654.4610756300099,None,1654.4610756300099,None,1654.4610756300099,None,1654.4610756300099,None,,,,,,,,,,,,,,,,,,,,,,,,,,,,,,,,,,,,,,,,,,,,,,,,,,,,,,,,,,,,,,,,,,,,,,,,,,,,,,091619_p2,001,2019_Sep_16_1324,body_behavioural,3.2.1,60.326918078990694,
5,parcelated_audio/42/42_8.aiff,,0,5,5,5,,,,,0,7,7,7,,,,,,,,,,,,,,,,,,,,,,,,,,,,,,,,,,,,,,,,,,,,,,,,,,,,,,,,,,,,,,,,,,,,,,,1655.3943629126966,None,1655.393834862014,None,1,0.1580824700067751,1658.5441676519986,None,1658.5441676519986,None,1658.5441676519986,None,1658.5441676519986,None,,,,,,,,,,,,,,,,,,,,,,,,,,,,,,,,,,,,,,,,,,,,,,,,,,,,,,,,,,,,,,,,,,,,,,,,,,,,,,091619_p2,001,2019_Sep_16_1324,body_behavioural,3.2.1,60.326918078990694,
5,parcelated_audio/42/42_9.aiff,,0,5,5,5,,,,,0,8,8,8,,,,,,,,,,,,,,,,,,,,,,,,,,,,,,,,,,,,,,,,,,,,,,,,,,,,,,,,,,,,,,,,,,,,,,,1658.8119159557186,None,1658.810731436999,None,1,0.3423187330190558,1667.3446568319923,None,1667.3446568319923,None,1667.3446568319923,None,1667.3446568319923,None,,,,,,,,,,,,,,,,,,,,,,,,,,,,,,,,,,,,,,,,,,,,,,,,,,,,,,,,,,,,,,,,,,,,,,,,,,,,,,091619_p2,001,2019_Sep_16_1324,body_behavioural,3.2.1,60.326918078990694,
5,parcelated_audio/42/42_10.aiff,,0,5,5,5,,,,,0,9,9,9,,,,,,,,,,,,,,,,,,,,,,,,,,,,,,,,,,,,,,,,,,,,,,,,,,,,,,,,,,,,,,,,,,,,,,,1667.7948182857158,None,1667.7945558020147,None,1,0.24192531500011683,1672.111617025017,None,1672.111617025017,None,1672.111617025017,None,1672.111617025017,None,,,,,,,,,,,,,,,,,,,,,,,,,,,,,,,,,,,,,,,,,,,,,,,,,,,,,,,,,,,,,,,,,,,,,,,,,,,,,,091619_p2,001,2019_Sep_16_1324,body_behavioural,3.2.1,60.326918078990694,
5,parcelated_audio/42/42_11.aiff,,0,5,5,5,,,,,0,10,10,10,,,,,,,,,,,,,,,,,,,,,,,,,,,,,,,,,,,,,,,,,,,,,,,,,,,,,,,,,,,,,,,,,,,,,,,1672.4461923277208,None,1672.4456197420077,None,1,0.35498019302031025,1677.4453509300074,None,1677.4453509300074,None,1677.4453509300074,None,1677.4453509300074,None,,,,,,,,,,,,,,,,,,,,,,,,,,,,,,,,,,,,,,,,,,,,,,,,,,,,,,,,,,,,,,,,,,,,,,,,,,,,,,091619_p2,001,2019_Sep_16_1324,body_behavioural,3.2.1,60.326918078990694,
5,parcelated_audio/42/42_12.aiff,,0,5,5,5,,,,,0,11,11,11,,,,,,,,,,,,,,,,,,,,,,,,,,,,,,,,,,,,,,,,,,,,,,,,,,,,,,,,,,,,,,,,,,,,,,,1677.8963577577174,None,1677.8964313920005,None,1,0.3710243530222215,1683.8625062020146,None,1683.8625062020146,None,1683.8625062020146,None,1683.8625062020146,None,,,,,,,,,,,,,,,,,,,,,,,,,,,,,,,,,,,,,,,,,,,,,,,,,,,,,,,,,,,,,,,,,,,,,,,,,,,,,,091619_p2,001,2019_Sep_16_1324,body_behavioural,3.2.1,60.326918078990694,
5,parcelated_audio/42/42_13.aiff,,0,5,5,5,,,,,0,12,12,12,,,,,,,,,,,,,,,,,,,,,,,,,,,,,,,,,,,,,,,,,,,,,,,,,,,,,,,,,,,,,,,,,,,,,,,1684.3292541556962,None,1684.3291842199978,None,9,0.2488934500142932,1691.4796446720138,None,1691.4796446720138,None,1691.4796446720138,None,1691.4796446720138,None,,,,,,,,,,,,,,,,,,,,,,,,,,,,,,,,,,,,,,,,,,,,,,,,,,,,,,,,,,,,,,,,,,,,,,,,,,,,,,091619_p2,001,2019_Sep_16_1324,body_behavioural,3.2.1,60.326918078990694,
5,parcelated_audio/42/42_14.aiff,,0,5,5,5,,,,,0,13,13,13,,,,,,,,,,,,,,,,,,,,,,,,,,,,,,,,,,,,,,,,,,,,,,,,,,,,,,,,,,,,,,,,,,,,,,,1691.813836277704,None,1691.812811180018,None,1,0.29968444001860917,1696.5137839119998,None,1696.5137839119998,None,1696.5137839119998,None,1696.5137839119998,None,,,,,,,,,,,,,,,,,,,,,,,,,,,,,,,,,,,,,,,,,,,,,,,,,,,,,,,,,,,,,,,,,,,,,,,,,,,,,,091619_p2,001,2019_Sep_16_1324,body_behavioural,3.2.1,60.326918078990694,
5,parcelated_audio/42/42_15.aiff,,0,5,5,5,,,,,0,14,14,14,,,,,,,,,,,,,,,,,,,,,,,,,,,,,,,,,,,,,,,,,,,,,,,,,,,,,,,,,,,,,,,,,,,,,,,1696.8971205357025,None,1696.8968921250198,None,9,1.353353390994016,1702.7470626450086,None,1702.7470626450086,None,1702.7470626450086,None,1702.7470626450086,None,,,,,,,,,,,,,,,,,,,,,,,,,,,,,,,,,,,,,,,,,,,,,,,,,,,,,,,,,,,,,,,,,,,,,,,,,,,,,,091619_p2,001,2019_Sep_16_1324,body_behavioural,3.2.1,60.326918078990694,
5,parcelated_audio/42/42_16.aiff,,0,5,5,5,,,,,0,15,15,15,,,,,,,,,,,,,,,,,,,,,,,,,,,,,,,,,,,,,,,,,,,,,,,,,,,,,,,,,,,,,,,,,,,,,,,1704.1976447227148,None,1704.1968168019957,None,1,0.17734426198876463,1709.7644119269971,None,1709.7644119269971,None,1709.7644119269971,None,1709.7644119269971,None,,,,,,,,,,,,,,,,,,,,,,,,,,,,,,,,,,,,,,,,,,,,,,,,,,,,,,,,,,,,,,,,,,,,,,,,,,,,,,091619_p2,001,2019_Sep_16_1324,body_behavioural,3.2.1,60.326918078990694,
