count,audio,instructText,trials.thisRepN,trials.thisTrialN,trials.thisN,trials.thisIndex,trials_7.thisRepN,trials_7.thisTrialN,trials_7.thisN,trials_7.thisIndex,trials_2.thisRepN,trials_2.thisTrialN,trials_2.thisN,trials_2.thisIndex,trials_3.thisRepN,trials_3.thisTrialN,trials_3.thisN,trials_3.thisIndex,trials_4.thisRepN,trials_4.thisTrialN,trials_4.thisN,trials_4.thisIndex,order of stories,order of perspectives,text_38.started,text_38.stopped,key_resp_8.keys,key_resp_8.rt,key_resp_8.started,key_resp_8.stopped,text_39.started,text_39.stopped,text_33.started,text_33.stopped,key_resp_5.keys,key_resp_5.rt,key_resp_5.started,key_resp_5.stopped,text_4.started,text_4.stopped,image.started,image.stopped,text_5.started,text_5.stopped,text_37.started,text_37.stopped,key_resp_7.keys,key_resp_7.rt,key_resp_7.started,key_resp_7.stopped,question1_2.started,question1_2.stopped,question2_2.started,question2_2.stopped,question3_2.started,question3_2.stopped,question4_2.started,question4_2.stopped,question5_2.started,question5_2.stopped,question6_2.started,question6_2.stopped,image_15.started,image_15.stopped,text_49.started,text_49.stopped,key_resp_15.keys,key_resp_15.rt,key_resp_15.started,key_resp_15.stopped,text_50.started,text_50.stopped,key_resp_14.keys,key_resp_14.rt,key_resp_14.started,key_resp_14.stopped,sound_1.started,sound_1.stopped,pic1.started,pic1.stopped,story_presses.keys,story_presses.rt,story_presses.started,story_presses.stopped,image_2.started,image_2.stopped,text_34.started,text_34.stopped,text_35.started,text_35.stopped,text.started,text.stopped,text_52.started,text_52.stopped,key_resp_16.keys,key_resp_16.rt,key_resp_16.started,key_resp_16.stopped,story time,text_45.started,text_45.stopped,key_resp_6.keys,key_resp_6.rt,key_resp_6.started,key_resp_6.stopped,key_resp_2.keys,key_resp_2.rt,key_resp_2.started,key_resp_2.stopped,text_6.started,text_6.stopped,text_24.started,text_24.stopped,text_41.started,text_41.stopped,key_resp_10.keys,key_resp_10.rt,key_resp_10.started,key_resp_10.stopped,text_42.started,text_42.stopped,text_51.started,text_51.stopped,recall,text_9.started,text_9.stopped,text_10.started,text_10.stopped,image_4.started,image_4.stopped,polygon.started,polygon.stopped,bottom_line.started,bottom_line.stopped,right_line_2.started,right_line_2.stopped,left_line.started,left_line.stopped,text_48.started,text_48.stopped,recall time,participant,session,date,expName,psychopyVersion,frameRate,
0,,,0,0,0,0,0,0,0,0,,,,,,,,,,,,,[44 22 14 43 21 31 13 32],"['Location' 'Social' 'Social' 'Social' 'Location' 'Social' 'Location'
 'Location']",14.497789405984804,None,space,34.11977053998271,14.497789405984804,None,14.497789405984804,None,48.64930053599528,None,space,2.0998338450153824,48.64930053599528,None,51.00038246597978,None,51.00038246597978,None,51.00038246597978,None,52.849837485991884,None,space,3.7430022829794325,52.849837485991884,None,56.88452347597922,None,56.88452347597922,None,56.88452347597922,None,56.88452347597922,None,56.88452347597922,None,56.88452347597922,None,56.88452347597922,None,,,,,,,,,,,,,,,,,,,,,,,,,,,,,,,,,,,,,,,,,,,,,,,,,,,,,,,,,,,,,,,,,,,,,,,,,,,,,,091819_p2,001,2019_Sep_18_1531,body_behavioural,3.2.1,59.78447266931412,
0,,,0,0,0,0,1,0,1,0,,,,,,,,,,,,,,,,,,,,,,,,,,,,,69.2681799029815,None,69.2681799029815,None,69.2681799029815,None,70.0181847459753,None,space,4.917482254997594,70.0181847459753,None,75.20229148099315,None,75.20229148099315,None,75.20229148099315,None,75.20229148099315,None,75.20229148099315,None,75.20229148099315,None,75.20229148099315,None,,,,,,,,,,,,,,,,,,,,,,,,,,,,,,,,,,,,,,,,,,,,,,,,,,,,,,,,,,,,,,,,,,,,,,,,,,,,,,091819_p2,001,2019_Sep_18_1531,body_behavioural,3.2.1,59.78447266931412,
0,parcelated_audio/44/44_1.aiff,,0,0,0,0,,,,,0,0,0,0,,,,,,,,,,,,,,,,,,,,,,,,,95.38712925298023,None,95.38712925298023,None,95.38712925298023,None,,,,,,,,,,,,,,,,,,,,,93.60316067299573,None,space,1.706722759990953,93.60316067299573,None,96.25336605097982,None,space,2.000209839985473,96.25336605097982,None,98.37012836417416,None,98.37025856599212,None,9,2.093055395002011,106.28828311097459,None,106.28828311097459,None,106.28828311097459,None,106.28828311097459,None,,,,,,,,,,,,,,,,,,,,,,,,,,,,,,,,,,,,,,,,,,,,,,,,,,,,091819_p2,001,2019_Sep_18_1531,body_behavioural,3.2.1,59.78447266931412,
0,parcelated_audio/44/44_2.aiff,,0,0,0,0,,,,,0,1,1,1,,,,,,,,,,,,,,,,,,,,,,,,,,,,,,,,,,,,,,,,,,,,,,,,,,,,,,,,,,,,,,,108.4880579091725,None,108.48753705597483,None,9,1.0332792599801905,116.40582907799399,None,116.40582907799399,None,116.40582907799399,None,116.40582907799399,None,,,,,,,,,,,,,,,,,,,,,,,,,,,,,,,,,,,,,,,,,,,,,,,,,,,,091819_p2,001,2019_Sep_18_1531,body_behavioural,3.2.1,59.78447266931412,
0,parcelated_audio/44/44_3.aiff,,0,0,0,0,,,,,0,2,2,2,,,,,,,,,,,,,,,,,,,,,,,,,,,,,,,,,,,,,,,,,,,,,,,,,,,,,,,,,,,,,,,117.52190493118833,None,117.52156729297712,None,9,5.920431179984007,122.95632445599767,None,122.95632445599767,None,122.95632445599767,None,122.95632445599767,None,,,,,,,,,,,,,,,,,,,,,,,,,,,,,,,,,,,,,,,,,,,,,,,,,,,,091819_p2,001,2019_Sep_18_1531,body_behavioural,3.2.1,59.78447266931412,
0,parcelated_audio/44/44_4.aiff,,0,0,0,0,,,,,0,3,3,3,,,,,,,,,,,,,,,,,,,,,,,,,,,,,,,,,,,,,,,,,,,,,,,,,,,,,,,,,,,,,,,128.97284608618355,None,128.97309896099614,None,9,3.2683710379933473,134.039369555976,None,134.039369555976,None,134.039369555976,None,134.039369555976,None,,,,,,,,,,,,,,,,,,,,,,,,,,,,,,,,,,,,,,,,,,,,,,,,,,,,091819_p2,001,2019_Sep_18_1531,body_behavioural,3.2.1,59.78447266931412,
0,parcelated_audio/44/44_5.aiff,,0,0,0,0,,,,,0,4,4,4,,,,,,,,,,,,,,,,,,,,,,,,,,,,,,,,,,,,,,,,,,,,,,,,,,,,,,,,,,,,,,,137.40692317618522,None,137.40679041598924,None,1,1.145675259991549,143.60790814098436,None,143.60790814098436,None,143.60790814098436,None,143.60790814098436,None,,,,,,,,,,,,,,,,,,,,,,,,,,,,,,,,,,,,,,,,,,,,,,,,,,,,091819_p2,001,2019_Sep_18_1531,body_behavioural,3.2.1,59.78447266931412,
0,parcelated_audio/44/44_6.aiff,,0,0,0,0,,,,,0,5,5,5,,,,,,,,,,,,,,,,,,,,,,,,,,,,,,,,,,,,,,,,,,,,,,,,,,,,,,,,,,,,,,,144.84062703619128,None,144.8410808959743,None,1,0.45102231501368806,151.7913953079842,None,151.7913953079842,None,151.7913953079842,None,151.7913953079842,None,,,,,,,,,,,,,,,,,,,,,,,,,,,,,,,,,,,,,,,,,,,,,,,,,,,,091819_p2,001,2019_Sep_18_1531,body_behavioural,3.2.1,59.78447266931412,
0,parcelated_audio/44/44_7.aiff,,0,0,0,0,,,,,0,6,6,6,,,,,,,,,,,,,,,,,,,,,,,,,,,,,,,,,,,,,,,,,,,,,,,,,,,,,,,,,,,,,,,152.3411869841977,None,152.34181044297293,None,1,0.45145977300126106,158.3577170429926,None,158.3577170429926,None,158.3577170429926,None,158.3577170429926,None,,,,,,,,,,,,,,,,,,,,,,,,,,,,,,,,,,,,,,,,,,,,,,,,,,,,091819_p2,001,2019_Sep_18_1531,body_behavioural,3.2.1,59.78447266931412,
0,parcelated_audio/44/44_8.aiff,,0,0,0,0,,,,,0,7,7,7,,,,,,,,,,,,,,,,,,,,,,,,,,,,,,,,,,,,,,,,,,,,,,,,,,,,,,,,,,,,,,,158.90865107618737,None,158.90771344298264,None,1,0.358383402985055,163.14141539597767,None,163.14141539597767,None,163.14141539597767,None,163.14141539597767,None,,,,,,,,,,,,,,,,,,,,,,,,,,,,,,,,,,,,,,,,,,,,,,,,,,,,091819_p2,001,2019_Sep_18_1531,body_behavioural,3.2.1,59.78447266931412,
0,parcelated_audio/44/44_9.aiff,,0,0,0,0,,,,,0,8,8,8,,,,,,,,,,,,,,,,,,,,,,,,,,,,,,,,,,,,,,,,,,,,,,,,,,,,,,,,,,,,,,,163.59204054919536,None,163.59134244298912,None,1,0.36788877699291334,167.29242722099298,None,167.29242722099298,None,167.29242722099298,None,167.29242722099298,None,,,,,,,,,,,,,,,,,,,,,,,,,,,,,,,,,,,,,,,,,,,,,,,,,,,,091819_p2,001,2019_Sep_18_1531,body_behavioural,3.2.1,59.78447266931412,
0,parcelated_audio/44/44_10.aiff,,0,0,0,0,,,,,0,9,9,9,,,,,,,,,,,,,,,,,,,,,,,,,,,,,,,,,,,,,,,,,,,,,,,,,,,,,,,,,,,,,,,167.75901134919258,None,167.75921291598934,None,1,0.5710164310003165,175.67608663797728,None,175.67608663797728,None,175.67608663797728,None,175.67608663797728,None,,,,,,,,,,,,,,,,,,,,,,,,,,,,,,,,,,,,,,,,,,,,,,,,,,,,091819_p2,001,2019_Sep_18_1531,body_behavioural,3.2.1,59.78447266931412,
0,parcelated_audio/44/44_11.aiff,,0,0,0,0,,,,,0,10,10,10,,,,,,,,,,,,,,,,,,,,,,,,,,,,,,,,,,,,,,,,,,,,,,,,,,,,,,,,,,,,,,,176.34271657619973,None,176.34226763097104,None,1,2.4028329130087513,179.87584744297783,None,179.87584744297783,None,179.87584744297783,None,179.87584744297783,None,,,,,,,,,,,,,,,,,,,,,,,,,,,,,,,,,,,,,,,,,,,,,,,,,,,,091819_p2,001,2019_Sep_18_1531,body_behavioural,3.2.1,59.78447266931412,
0,parcelated_audio/44/44_12.aiff,,0,0,0,0,,,,,0,11,11,11,,,,,,,,,,,,,,,,,,,,,,,,,,,,,,,,,,,,,,,,,,,,,,,,,,,,,,,,,,,,,,,182.37664521117694,None,182.37680822599214,None,1,2.422621364996303,190.29386094299844,None,190.29386094299844,None,190.29386094299844,None,190.29386094299844,None,,,,,,,,,,,,,,,,,,,,,,,,,,,,,,,,,,,,,,,,,,,,,,,,,,,,091819_p2,001,2019_Sep_18_1531,body_behavioural,3.2.1,59.78447266931412,
0,parcelated_audio/44/44_13.aiff,,0,0,0,0,,,,,0,12,12,12,,,,,,,,,,,,,,,,,,,,,,,,,,,,,,,,,,,,,,,,,,,,,,,,,,,,,,,,,,,,,,,192.81004691617562,None,192.8107326409954,None,9,0.08923030502046458,199.9606878629711,None,199.9606878629711,None,199.9606878629711,None,199.9606878629711,None,,,,,,,,,,,,,,,,,,,,,,,,,,,,,,,,,,,,,,,,,,,,,,,,,,,,091819_p2,001,2019_Sep_18_1531,body_behavioural,3.2.1,59.78447266931412,
0,parcelated_audio/44/44_14.aiff,,0,0,0,0,,,,,0,13,13,13,,,,,,,,,,,,,,,,,,,,,,,,,,,,,,,,,,,,,,,,,,,,,,,,,,,,,,,,,,,,,,,200.16112022417946,None,200.16059078098624,None,1,0.6454972880019341,206.44431527299457,None,206.44431527299457,None,206.44431527299457,None,206.44431527299457,None,,,,,,,,,,,,,,,,,,,,,,,,,,,,,,,,,,,,,,,,,,,,,,,,,,,,091819_p2,001,2019_Sep_18_1531,body_behavioural,3.2.1,59.78447266931412,
0,parcelated_audio/44/44_15.aiff,,0,0,0,0,,,,,0,14,14,14,,,,,,,,,,,,,,,,,,,,,,,,,,,,,,,,,,,,,,,,,,,,,,,,,,,,,,,,,,,,,,,207.1777588591969,None,207.177625368,None,1,1.518365197989624,211.24484035599744,None,211.24484035599744,None,211.24484035599744,None,211.24484035599744,None,,,,,,,,,,,,,,,,,,,,,,,,,,,,,,,,,,,,,,,,,,,,,,,,,,,,091819_p2,001,2019_Sep_18_1531,body_behavioural,3.2.1,59.78447266931412,
0,parcelated_audio/44/44_16.aiff,,0,0,0,0,,,,,0,15,15,15,,,,,,,,,,,,,,,,,,,,,,,,,,,,,,,,,,,,,,,,,,,,,,,,,,,,,,,,,,,,,,,212.8620152061805,None,212.86147315299604,None,1,0.2680441480188165,216.8784085259831,None,216.8784085259831,None,216.8784085259831,None,216.8784085259831,None,,,,,,,,,,,,,,,,,,,,,,,,,,,,,,,,,,,,,,,,,,,,,,,,,,,,091819_p2,001,2019_Sep_18_1531,body_behavioural,3.2.1,59.78447266931412,
0,parcelated_audio/44/44_17.aiff,,0,0,0,0,,,,,0,16,16,16,,,,,,,,,,,,,,,,,,,,,,,,,,,,,,,,,,,,,,,,,,,,,,,,,,,,,,,,,,,,,,,217.24589134120032,None,217.24486681097187,None,1,0.5857354719773866,225.1624513109855,None,225.1624513109855,None,225.1624513109855,None,225.1624513109855,None,,,,,,,,,,,,,,,,,,,,,,,,,,,,,,,,,,,,,,,,,,,,,,,,,,,,091819_p2,001,2019_Sep_18_1531,body_behavioural,3.2.1,59.78447266931412,
0,parcelated_audio/44/44_18.aiff,,0,0,0,0,,,,,0,17,17,17,,,,,,,,,,,,,,,,,,,,,,,,,,,,,,,,,,,,,,,,,,,,,,,,,,,,,,,,,,,,,,,225.8461049261852,None,225.84481581198634,None,9,0.7237871180113871,233.76374827799737,None,233.76374827799737,None,233.76374827799737,None,233.76374827799737,None,,,,,,,,,,,,,,,,,,,,,,,,,,,,,,,,,,,,,,,,,,,,,,,,,,,,091819_p2,001,2019_Sep_18_1531,body_behavioural,3.2.1,59.78447266931412,
0,parcelated_audio/44/44_19.aiff,,0,0,0,0,,,,,0,18,18,18,,,,,,,,,,,,,,,,,,,,,,,,,,,,,,,,,,,,,,,,,,,,,,,,,,,,,,,,,,,,,,,234.58000011118128,None,234.58049516097526,None,1,0.45729645699611865,242.49736549297813,None,242.49736549297813,None,242.49736549297813,None,242.49736549297813,None,,,,,,,,,,,,,,,,,,,,,,,,,,,,,,,,,,,,,,,,,,,,,,,,,,,,091819_p2,001,2019_Sep_18_1531,body_behavioural,3.2.1,59.78447266931412,
0,parcelated_audio/44/44_20.aiff,,0,0,0,0,,,,,0,19,19,19,,,,,,,,,,,,,,,,,,,,,,,,,,,,,,,,,,,,,,,,,,,,,,,,,,,,,,,,,,,,,,,243.04772987419273,None,243.04682142098318,None,1,0.8049778679851443,250.9475249829993,None,250.9475249829993,None,250.9475249829993,None,250.9475249829993,None,,,,,,,,,,,,,,,,,,,,,,,,,,,,,,,,,,,,,,,,,,,,,,,,,,,,091819_p2,001,2019_Sep_18_1531,body_behavioural,3.2.1,59.78447266931412,
0,parcelated_audio/44/44_21.aiff,,0,0,0,0,,,,,0,20,20,20,,,,,,,,,,,,,,,,,,,,,,,,,,,,,,,,,,,,,,,,,,,,,,,,,,,,,,,,,,,,,,,251.86413147418642,None,251.8649168429838,None,9,0.6639839599956758,259.76463823299855,None,259.76463823299855,None,259.76463823299855,None,259.76463823299855,None,,,,,,,,,,,,,,,,,,,,,,,,,,,,,,,,,,,,,,,,,,,,,,,,,,,,091819_p2,001,2019_Sep_18_1531,body_behavioural,3.2.1,59.78447266931412,
0,parcelated_audio/44/44_22.aiff,,0,0,0,0,,,,,0,21,21,21,,,,,,,,,,,,,,,,,,,,,,,,,,,,,,,,,,,,,,,,,,,,,,,,,,,,,,,,,,,,,,,260.5150953691802,None,260.5147444459726,None,1,3.7662629330006894,265.415486960992,None,265.415486960992,None,265.415486960992,None,265.415486960992,None,,,,,,,,,,,,,,,,,,,,,,,,,,,,,,,,,,,,,,,,,,,,,,,,,,,,091819_p2,001,2019_Sep_18_1531,body_behavioural,3.2.1,59.78447266931412,
0,parcelated_audio/44/44_23.aiff,,0,0,0,0,,,,,0,22,22,22,,,,,,,,,,,,,,,,,,,,,,,,,,,,,,,,,,,,,,,,,,,,,,,,,,,,,,,,,,,,,,,269.2819131411845,None,269.2818374459748,None,1,0.19307309499708936,275.899150422978,None,275.899150422978,None,275.899150422978,None,275.899150422978,None,,,,,,,,,,,,,,,,,,,,,,,,,,,,,,,,,,,,,,,,,,,,,,,,,,,,091819_p2,001,2019_Sep_18_1531,body_behavioural,3.2.1,59.78447266931412,
0,parcelated_audio/44/44_24.aiff,,0,0,0,0,,,,,0,23,23,23,,,,,,,,,,,,,,,,,,,,,,,,,,,,,,,,,,,,,,,,,,,,,,,,,,,,,,,,,,,,,,,276.1991605541727,None,276.1992220709799,None,9,0.6489628799899947,284.1004332829907,None,284.1004332829907,None,284.1004332829907,None,284.1004332829907,None,,,,,,,,,,,,,,,,,,,,,,,,,,,,,,,,,,,,,,,,,,,,,,,,,,,,091819_p2,001,2019_Sep_18_1531,body_behavioural,3.2.1,59.78447266931412,
0,parcelated_audio/44/44_25.aiff,,0,0,0,0,,,,,0,24,24,24,,,,,,,,,,,,,,,,,,,,,,,,,,,,,,,,,,,,,,,,,,,,,,,,,,,,,,,,,,,,,,,284.8340279241849,None,284.83311961297295,None,1,1.9960484620241914,291.13359023298835,None,291.13359023298835,None,291.13359023298835,None,291.13359023298835,None,,,,,,,,,,,,,,,,,,,,,,,,,,,,,,,,,,,,,,,,,,,,,,,,,,,,091819_p2,001,2019_Sep_18_1531,body_behavioural,3.2.1,59.78447266931412,
0,parcelated_audio/44/44_26.aiff,,0,0,0,0,,,,,0,25,25,25,,,,,,,,,,,,,,,,,,,,,,,,,,,,,,,,,,,,,,,,,,,,,,,,,,,,,,,,,,,,,,,293.217606419191,None,293.2169773009955,None,1,0.2796306500094943,298.0511620309844,None,298.0511620309844,None,298.0511620309844,None,298.0511620309844,None,,,,,,,,,,,,,,,,,,,,,,,,,,,,,,,,,,,,,,,,,,,,,,,,,,,,091819_p2,001,2019_Sep_18_1531,body_behavioural,3.2.1,59.78447266931412,
0,parcelated_audio/44/44_27.aiff,,0,0,0,0,,,,,0,26,26,26,,,,,,,,,,,,,,,,,,,,,,,,,,,,,,,,,,,,,,,,,,,,,,,,,,,,,,,,,,,,,,,298.4173807741783,None,298.41809315097635,None,1,1.3528044330014382,305.40115842598607,None,305.40115842598607,None,305.40115842598607,None,305.40115842598607,None,,,,,,,,,,,,,,,,,,,,,,,,,,,,,,,,,,,,,,,,,,,,,,,,,,,,091819_p2,001,2019_Sep_18_1531,body_behavioural,3.2.1,59.78447266931412,
0,parcelated_audio/44/44_28.aiff,,0,0,0,0,,,,,0,27,27,27,,,,,,,,,,,,,,,,,,,,,,,,,,,,,,,,,,,,,,,,,,,,,,,,,,,,,,,,,,,,,,,306.8519767161808,None,306.85135792798246,None,1,0.47908566499245353,314.76858279298176,None,314.76858279298176,None,314.76858279298176,None,314.76858279298176,None,,,,,,,,,,,,,,,,,,,,,,,,,,,,,,,,,,,,,,,,,,,,,,,,,,,,091819_p2,001,2019_Sep_18_1531,body_behavioural,3.2.1,59.78447266931412,
0,,,0,0,0,0,,,,,,,,,,,,,,,,,,,,,,,,,,,,,,,,,,,,,,,,,,,,,,,,,,,,,,,,,,,,,,,,,,,,,,,,,,,,,,,,,,,,,315.3185443659895,None,315.3185443659895,None,space,2.177684664988192,315.3185443659895,None,,,,,,,,,,,,,,,,,,,,,,,,,,,,,,,,,,,,,,,,,,,,091819_p2,001,2019_Sep_18_1531,body_behavioural,3.2.1,59.78447266931412,
1,,,0,1,1,1,0,0,0,0,,,,,,,,,,,,,,,317.5364427359891,None,space,1.1346001420170069,317.5364427359891,None,317.5364427359891,None,318.7029663529829,None,space,1.066969342995435,318.7029663529829,None,319.8688341859961,None,319.8688341859961,None,319.8688341859961,None,320.91957346798154,None,space,4.761440480011515,320.91957346798154,None,325.9699769059953,None,325.9699769059953,None,325.9699769059953,None,325.9699769059953,None,325.9699769059953,None,325.9699769059953,None,325.9699769059953,None,,,,,,,,,,,,,,,,,,,,,,,,,,,,,,,,,,,,,,,,,,,,,,,,,,,,,,,,,,,,,,,,,,,,,,,,,,,,,,091819_p2,001,2019_Sep_18_1531,body_behavioural,3.2.1,59.78447266931412,
1,parcelated_audio/22/22_1.aiff,,0,1,1,1,,,,,0,0,0,0,,,,,,,,,,,,,,,,,,,,,,,,,356.13817921097507,None,356.13817921097507,None,356.13817921097507,None,,,,,,,,,,,,,,,,,,,,,355.5381650609779,None,space,0.5218093470029999,355.5381650609779,None,357.1386462309747,None,space,1.077096477005398,357.1386462309747,None,358.3380986791919,None,358.3384055859933,None,9,0.42266627500066534,366.25555495597655,None,366.25555495597655,None,366.25555495597655,None,366.25555495597655,None,,,,,,,,,,,,,,,,,,,,,,,,,,,,,,,,,,,,,,,,,,,,,,,,,,,,091819_p2,001,2019_Sep_18_1531,body_behavioural,3.2.1,59.78447266931412,
1,parcelated_audio/22/22_2.aiff,,0,1,1,1,,,,,0,1,1,1,,,,,,,,,,,,,,,,,,,,,,,,,,,,,,,,,,,,,,,,,,,,,,,,,,,,,,,,,,,,,,,366.77183036918285,None,366.77206559097976,None,1,0.7008833319996484,373.03972103097476,None,373.03972103097476,None,373.03972103097476,None,373.03972103097476,None,,,,,,,,,,,,,,,,,,,,,,,,,,,,,,,,,,,,,,,,,,,,,,,,,,,,091819_p2,001,2019_Sep_18_1531,body_behavioural,3.2.1,59.78447266931412,
1,parcelated_audio/22/22_3.aiff,,0,1,1,1,,,,,0,2,2,2,,,,,,,,,,,,,,,,,,,,,,,,,,,,,,,,,,,,,,,,,,,,,,,,,,,,,,,,,,,,,,,373.8400958242011,None,373.83921535598347,None,1,0.6424008070025593,381.7397768079827,None,381.7397768079827,None,381.7397768079827,None,381.7397768079827,None,,,,,,,,,,,,,,,,,,,,,,,,,,,,,,,,,,,,,,,,,,,,,,,,,,,,091819_p2,001,2019_Sep_18_1531,body_behavioural,3.2.1,59.78447266931412,
1,parcelated_audio/22/22_4.aiff,,0,1,1,1,,,,,0,3,3,3,,,,,,,,,,,,,,,,,,,,,,,,,,,,,,,,,,,,,,,,,,,,,,,,,,,,,,,,,,,,,,,382.4896314911777,None,382.49003801398794,None,9,0.5185372669948265,390.4069957479951,None,390.4069957479951,None,390.4069957479951,None,390.4069957479951,None,,,,,,,,,,,,,,,,,,,,,,,,,,,,,,,,,,,,,,,,,,,,,,,,,,,,091819_p2,001,2019_Sep_18_1531,body_behavioural,3.2.1,59.78447266931412,
1,parcelated_audio/22/22_5.aiff,,0,1,1,1,,,,,0,4,4,4,,,,,,,,,,,,,,,,,,,,,,,,,,,,,,,,,,,,,,,,,,,,,,,,,,,,,,,,,,,,,,,391.02369766419287,None,391.02370259797317,None,1,0.32541734498227015,396.940845006,None,396.940845006,None,396.940845006,None,396.940845006,None,,,,,,,,,,,,,,,,,,,,,,,,,,,,,,,,,,,,,,,,,,,,,,,,,,,,091819_p2,001,2019_Sep_18_1531,body_behavioural,3.2.1,59.78447266931412,
1,parcelated_audio/22/22_6.aiff,,0,1,1,1,,,,,0,5,5,5,,,,,,,,,,,,,,,,,,,,,,,,,,,,,,,,,,,,,,,,,,,,,,,,,,,,,,,,,,,,,,,397.3741544061806,None,397.37411823598086,None,1,0.3995931549870875,405.2913271779835,None,405.2913271779835,None,405.2913271779835,None,405.2913271779835,None,,,,,,,,,,,,,,,,,,,,,,,,,,,,,,,,,,,,,,,,,,,,,,,,,,,,091819_p2,001,2019_Sep_18_1531,body_behavioural,3.2.1,59.78447266931412,
1,parcelated_audio/22/22_7.aiff,,0,1,1,1,,,,,0,6,6,6,,,,,,,,,,,,,,,,,,,,,,,,,,,,,,,,,,,,,,,,,,,,,,,,,,,,,,,,,,,,,,,405.774661109189,None,405.77489929797594,None,9,0.5739292399957776,410.74228243299876,None,410.74228243299876,None,410.74228243299876,None,410.74228243299876,None,,,,,,,,,,,,,,,,,,,,,,,,,,,,,,,,,,,,,,,,,,,,,,,,,,,,091819_p2,001,2019_Sep_18_1531,body_behavioural,3.2.1,59.78447266931412,
1,parcelated_audio/22/22_8.aiff,,0,1,1,1,,,,,0,7,7,7,,,,,,,,,,,,,,,,,,,,,,,,,,,,,,,,,,,,,,,,,,,,,,,,,,,,,,,,,,,,,,,411.40886417420114,None,411.40865977297653,None,9,0.6383691520022694,414.9257804459776,None,414.9257804459776,None,414.9257804459776,None,414.9257804459776,None,,,,,,,,,,,,,,,,,,,,,,,,,,,,,,,,,,,,,,,,,,,,,,,,,,,,091819_p2,001,2019_Sep_18_1531,body_behavioural,3.2.1,59.78447266931412,
1,parcelated_audio/22/22_9.aiff,,0,1,1,1,,,,,0,8,8,8,,,,,,,,,,,,,,,,,,,,,,,,,,,,,,,,,,,,,,,,,,,,,,,,,,,,,,,,,,,,,,,415.65922534918644,None,415.6588396759762,None,1,0.8988472399942111,419.55904140599887,None,419.55904140599887,None,419.55904140599887,None,419.55904140599887,None,,,,,,,,,,,,,,,,,,,,,,,,,,,,,,,,,,,,,,,,,,,,,,,,,,,,091819_p2,001,2019_Sep_18_1531,body_behavioural,3.2.1,59.78447266931412,
1,parcelated_audio/22/22_10.aiff,,0,1,1,1,,,,,0,9,9,9,,,,,,,,,,,,,,,,,,,,,,,,,,,,,,,,,,,,,,,,,,,,,,,,,,,,,,,,,,,,,,,420.54256150919826,None,420.5421047929849,None,1,2.004803695017472,425.29354404099286,None,425.29354404099286,None,425.29354404099286,None,425.29354404099286,None,,,,,,,,,,,,,,,,,,,,,,,,,,,,,,,,,,,,,,,,,,,,,,,,,,,,091819_p2,001,2019_Sep_18_1531,body_behavioural,3.2.1,59.78447266931412,
1,parcelated_audio/22/22_11.aiff,,0,1,1,1,,,,,0,10,10,10,,,,,,,,,,,,,,,,,,,,,,,,,,,,,,,,,,,,,,,,,,,,,,,,,,,,,,,,,,,,,,,427.3928438191826,None,427.39278626599116,None,1,0.49312988499877974,434.6767085879983,None,434.6767085879983,None,434.6767085879983,None,434.6767085879983,None,,,,,,,,,,,,,,,,,,,,,,,,,,,,,,,,,,,,,,,,,,,,,,,,,,,,091819_p2,001,2019_Sep_18_1531,body_behavioural,3.2.1,59.78447266931412,
1,parcelated_audio/22/22_12.aiff,,0,1,1,1,,,,,0,11,11,11,,,,,,,,,,,,,,,,,,,,,,,,,,,,,,,,,,,,,,,,,,,,,,,,,,,,,,,,,,,,,,,435.2601863412012,None,435.2607271859888,None,1,1.2451594000158366,442.9441352659778,None,442.9441352659778,None,442.9441352659778,None,442.9441352659778,None,,,,,,,,,,,,,,,,,,,,,,,,,,,,,,,,,,,,,,,,,,,,,,,,,,,,091819_p2,001,2019_Sep_18_1531,body_behavioural,3.2.1,59.78447266931412,
1,parcelated_audio/22/22_13.aiff,,0,1,1,1,,,,,0,12,12,12,,,,,,,,,,,,,,,,,,,,,,,,,,,,,,,,,,,,,,,,,,,,,,,,,,,,,,,,,,,,,,,444.29399854418006,None,444.2951344579924,None,1,0.5717560880002566,451.5610287859745,None,451.5610287859745,None,451.5610287859745,None,451.5610287859745,None,,,,,,,,,,,,,,,,,,,,,,,,,,,,,,,,,,,,,,,,,,,,,,,,,,,,091819_p2,001,2019_Sep_18_1531,body_behavioural,3.2.1,59.78447266931412,
1,parcelated_audio/22/22_14.aiff,,0,1,1,1,,,,,0,13,13,13,,,,,,,,,,,,,,,,,,,,,,,,,,,,,,,,,,,,,,,,,,,,,,,,,,,,,,,,,,,,,,,452.22885261617483,None,452.2279331359896,None,1,0.569265185011318,457.84494832798373,None,457.84494832798373,None,457.84494832798373,None,457.84494832798373,None,,,,,,,,,,,,,,,,,,,,,,,,,,,,,,,,,,,,,,,,,,,,,,,,,,,,091819_p2,001,2019_Sep_18_1531,body_behavioural,3.2.1,59.78447266931412,
1,parcelated_audio/22/22_15.aiff,,0,1,1,1,,,,,0,14,14,14,,,,,,,,,,,,,,,,,,,,,,,,,,,,,,,,,,,,,,,,,,,,,,,,,,,,,,,,,,,,,,,458.5121932541835,None,458.51257564799744,None,1,0.606849420000799,466.29589228797704,None,466.29589228797704,None,466.29589228797704,None,466.29589228797704,None,,,,,,,,,,,,,,,,,,,,,,,,,,,,,,,,,,,,,,,,,,,,,,,,,,,,091819_p2,001,2019_Sep_18_1531,body_behavioural,3.2.1,59.78447266931412,
1,parcelated_audio/22/22_16.aiff,,0,1,1,1,,,,,0,15,15,15,,,,,,,,,,,,,,,,,,,,,,,,,,,,,,,,,,,,,,,,,,,,,,,,,,,,,,,,,,,,,,,466.9958875761833,None,466.99616450598114,None,1,1.2798225750157144,474.913346130983,None,474.913346130983,None,474.913346130983,None,474.913346130983,None,,,,,,,,,,,,,,,,,,,,,,,,,,,,,,,,,,,,,,,,,,,,,,,,,,,,091819_p2,001,2019_Sep_18_1531,body_behavioural,3.2.1,59.78447266931412,
1,parcelated_audio/22/22_17.aiff,,0,1,1,1,,,,,0,16,16,16,,,,,,,,,,,,,,,,,,,,,,,,,,,,,,,,,,,,,,,,,,,,,,,,,,,,,,,,,,,,,,,476.27955135419614,None,476.28043286598404,None,1,1.6857372730155475,479.4130714079947,None,479.4130714079947,None,479.4130714079947,None,479.4130714079947,None,,,,,,,,,,,,,,,,,,,,,,,,,,,,,,,,,,,,,,,,,,,,,,,,,,,,091819_p2,001,2019_Sep_18_1531,body_behavioural,3.2.1,59.78447266931412,
1,parcelated_audio/22/22_18.aiff,,0,1,1,1,,,,,0,17,17,17,,,,,,,,,,,,,,,,,,,,,,,,,,,,,,,,,,,,,,,,,,,,,,,,,,,,,,,,,,,,,,,481.1964330091898,None,481.19725383099285,None,9,3.1539648630132433,487.9137552709726,None,487.9137552709726,None,487.9137552709726,None,487.9137552709726,None,,,,,,,,,,,,,,,,,,,,,,,,,,,,,,,,,,,,,,,,,,,,,,,,,,,,091819_p2,001,2019_Sep_18_1531,body_behavioural,3.2.1,59.78447266931412,
1,parcelated_audio/22/22_19.aiff,,0,1,1,1,,,,,0,18,18,18,,,,,,,,,,,,,,,,,,,,,,,,,,,,,,,,,,,,,,,,,,,,,,,,,,,,,,,,,,,,,,,491.16383994619827,None,491.16445274598664,None,1,0.43032415499328636,496.1318255059887,None,496.1318255059887,None,496.1318255059887,None,496.1318255059887,None,,,,,,,,,,,,,,,,,,,,,,,,,,,,,,,,,,,,,,,,,,,,,,,,,,,,091819_p2,001,2019_Sep_18_1531,body_behavioural,3.2.1,59.78447266931412,
1,parcelated_audio/22/22_20.aiff,,0,1,1,1,,,,,0,19,19,19,,,,,,,,,,,,,,,,,,,,,,,,,,,,,,,,,,,,,,,,,,,,,,,,,,,,,,,,,,,,,,,496.64781186420004,None,496.6485401209793,None,1,1.0171062999870628,504.549126450991,None,504.549126450991,None,504.549126450991,None,504.549126450991,None,,,,,,,,,,,,,,,,,,,,,,,,,,,,,,,,,,,,,,,,,,,,,,,,,,,,091819_p2,001,2019_Sep_18_1531,body_behavioural,3.2.1,59.78447266931412,
1,parcelated_audio/22/22_21.aiff,,0,1,1,1,,,,,0,20,20,20,,,,,,,,,,,,,,,,,,,,,,,,,,,,,,,,,,,,,,,,,,,,,,,,,,,,,,,,,,,,,,,505.64812396619817,None,505.6488040209806,None,1,2.268296280002687,507.63122518299497,None,507.63122518299497,None,507.63122518299497,None,507.63122518299497,None,,,,,,,,,,,,,,,,,,,,,,,,,,,,,,,,,,,,,,,,,,,,,,,,,,,,091819_p2,001,2019_Sep_18_1531,body_behavioural,3.2.1,59.78447266931412,
1,parcelated_audio/22/22_22.aiff,,0,1,1,1,,,,,0,21,21,21,,,,,,,,,,,,,,,,,,,,,,,,,,,,,,,,,,,,,,,,,,,,,,,,,,,,,,,,,,,,,,,509.99847369919297,None,509.99855059798574,None,1,0.7749160700186621,513.1322887159768,None,513.1322887159768,None,513.1322887159768,None,513.1322887159768,None,,,,,,,,,,,,,,,,,,,,,,,,,,,,,,,,,,,,,,,,,,,,,,,,,,,,091819_p2,001,2019_Sep_18_1531,body_behavioural,3.2.1,59.78447266931412,
1,parcelated_audio/22/22_23.aiff,,0,1,1,1,,,,,0,22,22,22,,,,,,,,,,,,,,,,,,,,,,,,,,,,,,,,,,,,,,,,,,,,,,,,,,,,,,,,,,,,,,,513.9998256841966,None,514.0002193059772,None,1,0.3870795149996411,520.5161682409816,None,520.5161682409816,None,520.5161682409816,None,520.5161682409816,None,,,,,,,,,,,,,,,,,,,,,,,,,,,,,,,,,,,,,,,,,,,,,,,,,,,,091819_p2,001,2019_Sep_18_1531,body_behavioural,3.2.1,59.78447266931412,
1,parcelated_audio/22/22_24.aiff,,0,1,1,1,,,,,0,23,23,23,,,,,,,,,,,,,,,,,,,,,,,,,,,,,,,,,,,,,,,,,,,,,,,,,,,,,,,,,,,,,,,521.0000958961784,None,520.9992894329771,None,1,1.0779636949882843,526.7331625529914,None,526.7331625529914,None,526.7331625529914,None,526.7331625529914,None,,,,,,,,,,,,,,,,,,,,,,,,,,,,,,,,,,,,,,,,,,,,,,,,,,,,091819_p2,001,2019_Sep_18_1531,body_behavioural,3.2.1,59.78447266931412,
1,parcelated_audio/22/22_25.aiff,,0,1,1,1,,,,,0,24,24,24,,,,,,,,,,,,,,,,,,,,,,,,,,,,,,,,,,,,,,,,,,,,,,,,,,,,,,,,,,,,,,,527.9004422141763,None,527.8998375479714,None,9,1.2304631400038488,535.8003546029795,None,535.8003546029795,None,535.8003546029795,None,535.8003546029795,None,,,,,,,,,,,,,,,,,,,,,,,,,,,,,,,,,,,,,,,,,,,,,,,,,,,,091819_p2,001,2019_Sep_18_1531,body_behavioural,3.2.1,59.78447266931412,
1,parcelated_audio/22/22_26.aiff,,0,1,1,1,,,,,0,25,25,25,,,,,,,,,,,,,,,,,,,,,,,,,,,,,,,,,,,,,,,,,,,,,,,,,,,,,,,,,,,,,,,537.1177693841921,None,537.1170700459916,None,1,0.5656568580016028,543.8187031559937,None,543.8187031559937,None,543.8187031559937,None,543.8187031559937,None,,,,,,,,,,,,,,,,,,,,,,,,,,,,,,,,,,,,,,,,,,,,,,,,,,,,091819_p2,001,2019_Sep_18_1531,body_behavioural,3.2.1,59.78447266931412,
1,parcelated_audio/22/22_27.aiff,,0,1,1,1,,,,,0,26,26,26,,,,,,,,,,,,,,,,,,,,,,,,,,,,,,,,,,,,,,,,,,,,,,,,,,,,,,,,,,,,,,,544.4678877841973,None,544.467103130999,None,1,0.5251304649864323,548.85156477298,None,548.85156477298,None,548.85156477298,None,548.85156477298,None,,,,,,,,,,,,,,,,,,,,,,,,,,,,,,,,,,,,,,,,,,,,,,,,,,,,091819_p2,001,2019_Sep_18_1531,body_behavioural,3.2.1,59.78447266931412,
1,parcelated_audio/22/22_28.aiff,,0,1,1,1,,,,,0,27,27,27,,,,,,,,,,,,,,,,,,,,,,,,,,,,,,,,,,,,,,,,,,,,,,,,,,,,,,,,,,,,,,,549.4844764361799,None,549.4854549809825,None,1,0.4713231970090419,555.2351056059997,None,555.2351056059997,None,555.2351056059997,None,555.2351056059997,None,,,,,,,,,,,,,,,,,,,,,,,,,,,,,,,,,,,,,,,,,,,,,,,,,,,,091819_p2,001,2019_Sep_18_1531,body_behavioural,3.2.1,59.78447266931412,
1,parcelated_audio/22/22_29.aiff,,0,1,1,1,,,,,0,28,28,28,,,,,,,,,,,,,,,,,,,,,,,,,,,,,,,,,,,,,,,,,,,,,,,,,,,,,,,,,,,,,,,555.8026987511723,None,555.8017014929792,None,1,0.6718214940046892,561.5187927409715,None,561.5187927409715,None,561.5187927409715,None,561.5187927409715,None,,,,,,,,,,,,,,,,,,,,,,,,,,,,,,,,,,,,,,,,,,,,,,,,,,,,091819_p2,001,2019_Sep_18_1531,body_behavioural,3.2.1,59.78447266931412,
1,parcelated_audio/22/22_30.aiff,,0,1,1,1,,,,,0,29,29,29,,,,,,,,,,,,,,,,,,,,,,,,,,,,,,,,,,,,,,,,,,,,,,,,,,,,,,,,,,,,,,,562.2856300341839,None,562.2852082179743,None,1,1.6995148669811897,564.9697312309872,None,564.9697312309872,None,564.9697312309872,None,564.9697312309872,None,,,,,,,,,,,,,,,,,,,,,,,,,,,,,,,,,,,,,,,,,,,,,,,,,,,,091819_p2,001,2019_Sep_18_1531,body_behavioural,3.2.1,59.78447266931412,
1,parcelated_audio/22/22_31.aiff,,0,1,1,1,,,,,0,30,30,30,,,,,,,,,,,,,,,,,,,,,,,,,,,,,,,,,,,,,,,,,,,,,,,,,,,,,,,,,,,,,,,566.7526232892008,None,566.752549790981,None,9,0.3062637929979246,571.8861689429905,None,571.8861689429905,None,571.8861689429905,None,571.8861689429905,None,,,,,,,,,,,,,,,,,,,,,,,,,,,,,,,,,,,,,,,,,,,,,,,,,,,,091819_p2,001,2019_Sep_18_1531,body_behavioural,3.2.1,59.78447266931412,
1,parcelated_audio/22/22_32.aiff,,0,1,1,1,,,,,0,31,31,31,,,,,,,,,,,,,,,,,,,,,,,,,,,,,,,,,,,,,,,,,,,,,,,,,,,,,,,,,,,,,,,572.3034737661831,None,572.3031244479935,None,1,0.3928475730062928,578.6034104029823,None,578.6034104029823,None,578.6034104029823,None,578.6034104029823,None,,,,,,,,,,,,,,,,,,,,,,,,,,,,,,,,,,,,,,,,,,,,,,,,,,,,091819_p2,001,2019_Sep_18_1531,body_behavioural,3.2.1,59.78447266931412,
1,parcelated_audio/22/22_33.aiff,,0,1,1,1,,,,,0,32,32,32,,,,,,,,,,,,,,,,,,,,,,,,,,,,,,,,,,,,,,,,,,,,,,,,,,,,,,,,,,,,,,,579.0864965091926,None,579.0861959729809,None,1,1.6426964880083688,583.5037035629794,None,583.5037035629794,None,583.5037035629794,None,583.5037035629794,None,,,,,,,,,,,,,,,,,,,,,,,,,,,,,,,,,,,,,,,,,,,,,,,,,,,,091819_p2,001,2019_Sep_18_1531,body_behavioural,3.2.1,59.78447266931412,
1,parcelated_audio/22/22_34.aiff,,0,1,1,1,,,,,0,33,33,33,,,,,,,,,,,,,,,,,,,,,,,,,,,,,,,,,,,,,,,,,,,,,,,,,,,,,,,,,,,,,,,585.2378746261995,None,585.2376946859877,None,1,0.9356363900005817,593.1223757279804,None,593.1223757279804,None,593.1223757279804,None,593.1223757279804,None,,,,,,,,,,,,,,,,,,,,,,,,,,,,,,,,,,,,,,,,,,,,,,,,,,,,091819_p2,001,2019_Sep_18_1531,body_behavioural,3.2.1,59.78447266931412,
1,parcelated_audio/22/22_35.aiff,,0,1,1,1,,,,,0,34,34,34,,,,,,,,,,,,,,,,,,,,,,,,,,,,,,,,,,,,,,,,,,,,,,,,,,,,,,,,,,,,,,,594.17102787919,None,594.1717155009974,None,9,0.6570160969858989,601.6722360509739,None,601.6722360509739,None,601.6722360509739,None,601.6722360509739,None,,,,,,,,,,,,,,,,,,,,,,,,,,,,,,,,,,,,,,,,,,,,,,,,,,,,091819_p2,001,2019_Sep_18_1531,body_behavioural,3.2.1,59.78447266931412,
1,parcelated_audio/22/22_36.aiff,,0,1,1,1,,,,,0,35,35,35,,,,,,,,,,,,,,,,,,,,,,,,,,,,,,,,,,,,,,,,,,,,,,,,,,,,,,,,,,,,,,,602.4225697711984,None,602.4214855279715,None,1,0.9557575870130677,610.3222707409877,None,610.3222707409877,None,610.3222707409877,None,610.3222707409877,None,,,,,,,,,,,,,,,,,,,,,,,,,,,,,,,,,,,,,,,,,,,,,,,,,,,,091819_p2,001,2019_Sep_18_1531,body_behavioural,3.2.1,59.78447266931412,
1,parcelated_audio/22/22_37.aiff,,0,1,1,1,,,,,0,36,36,36,,,,,,,,,,,,,,,,,,,,,,,,,,,,,,,,,,,,,,,,,,,,,,,,,,,,,,,,,,,,,,,611.3726602811832,None,611.3724584259908,None,9,0.050635186984436586,618.5398103209736,None,618.5398103209736,None,618.5398103209736,None,618.5398103209736,None,,,,,,,,,,,,,,,,,,,,,,,,,,,,,,,,,,,,,,,,,,,,,,,,,,,,091819_p2,001,2019_Sep_18_1531,body_behavioural,3.2.1,59.78447266931412,
1,,,0,1,1,1,,,,,,,,,,,,,,,,,,,,,,,,,,,,,,,,,,,,,,,,,,,,,,,,,,,,,,,,,,,,,,,,,,,,,,,,,,,,,,,,,,,,,618.6231657029712,None,618.6231657029712,None,space,1.4789081999915652,618.6231657029712,None,,,,,,,,,,,,,,,,,,,,,,,,,,,,,,,,,,,,,,,,,,,,091819_p2,001,2019_Sep_18_1531,body_behavioural,3.2.1,59.78447266931412,
2,,,0,2,2,2,0,0,0,0,,,,,,,,,,,,,,,620.123190207989,None,space,0.7668943249736913,620.123190207989,None,620.123190207989,None,620.9062189929828,None,space,0.6267481200047769,620.9062189929828,None,621.6233055529883,None,621.6233055529883,None,621.6233055529883,None,623.623958200973,None,space,0.9377815930056386,623.623958200973,None,624.9397436029976,None,624.9397436029976,None,624.9397436029976,None,624.9397436029976,None,624.9397436029976,None,624.9397436029976,None,624.9397436029976,None,,,,,,,,,,,,,,,,,,,,,,,,,,,,,,,,,,,,,,,,,,,,,,,,,,,,,,,,,,,,,,,,,,,,,,,,,,,,,,091819_p2,001,2019_Sep_18_1531,body_behavioural,3.2.1,59.78447266931412,
2,parcelated_audio/14/14_1.aiff,,0,2,2,2,,,,,0,0,0,0,,,,,,,,,,,,,,,,,,,,,,,,,653.4251403959934,None,653.4251403959934,None,653.4251403959934,None,,,,,,,,,,,,,,,,,,,,,652.491883005976,None,space,0.8574030749732628,652.491883005976,None,654.2749967529962,None,space,1.3552201569837052,654.2749967529962,None,655.758566634194,None,655.7593555479834,None,9,1.7906195819959976,662.6097471659887,None,662.6097471659887,None,662.6097471659887,None,662.6097471659887,None,,,,,,,,,,,,,,,,,,,,,,,,,,,,,,,,,,,,,,,,,,,,,,,,,,,,091819_p2,001,2019_Sep_18_1531,body_behavioural,3.2.1,59.78447266931412,
2,parcelated_audio/14/14_2.aiff,,0,2,2,2,,,,,0,1,1,1,,,,,,,,,,,,,,,,,,,,,,,,,,,,,,,,,,,,,,,,,,,,,,,,,,,,,,,,,,,,,,,664.4935803511937,None,664.4925319859758,None,1,3.0258916699967813,671.0263873109943,None,671.0263873109943,None,671.0263873109943,None,671.0263873109943,None,,,,,,,,,,,,,,,,,,,,,,,,,,,,,,,,,,,,,,,,,,,,,,,,,,,,091819_p2,001,2019_Sep_18_1531,body_behavioural,3.2.1,59.78447266931412,
2,parcelated_audio/14/14_3.aiff,,0,2,2,2,,,,,0,2,2,2,,,,,,,,,,,,,,,,,,,,,,,,,,,,,,,,,,,,,,,,,,,,,,,,,,,,,,,,,,,,,,,674.1432841491944,None,674.1437536759768,None,1,4.6887557479785755,677.8274338459887,None,677.8274338459887,None,677.8274338459887,None,677.8274338459887,None,,,,,,,,,,,,,,,,,,,,,,,,,,,,,,,,,,,,,,,,,,,,,,,,,,,,091819_p2,001,2019_Sep_18_1531,body_behavioural,3.2.1,59.78447266931412,
2,parcelated_audio/14/14_4.aiff,,0,2,2,2,,,,,0,3,3,3,,,,,,,,,,,,,,,,,,,,,,,,,,,,,,,,,,,,,,,,,,,,,,,,,,,,,,,,,,,,,,,682.6103883192002,None,682.6108354029711,None,9,4.508976664976217,690.5283674359962,None,690.5283674359962,None,690.5283674359962,None,690.5283674359962,None,,,,,,,,,,,,,,,,,,,,,,,,,,,,,,,,,,,,,,,,,,,,,,,,,,,,091819_p2,001,2019_Sep_18_1531,body_behavioural,3.2.1,59.78447266931412,
2,parcelated_audio/14/14_5.aiff,,0,2,2,2,,,,,0,4,4,4,,,,,,,,,,,,,,,,,,,,,,,,,,,,,,,,,,,,,,,,,,,,,,,,,,,,,,,,,,,,,,,695.128311004187,None,695.1288963209954,None,1,1.4517929649737198,699.9783139059728,None,699.9783139059728,None,699.9783139059728,None,699.9783139059728,None,,,,,,,,,,,,,,,,,,,,,,,,,,,,,,,,,,,,,,,,,,,,,,,,,,,,091819_p2,001,2019_Sep_18_1531,body_behavioural,3.2.1,59.78447266931412,
2,parcelated_audio/14/14_6.aiff,,0,2,2,2,,,,,0,5,5,5,,,,,,,,,,,,,,,,,,,,,,,,,,,,,,,,,,,,,,,,,,,,,,,,,,,,,,,,,,,,,,,701.52850088118,None,701.5286378859892,None,1,2.800925589981489,707.3787826729822,None,707.3787826729822,None,707.3787826729822,None,707.3787826729822,None,,,,,,,,,,,,,,,,,,,,,,,,,,,,,,,,,,,,,,,,,,,,,,,,,,,,091819_p2,001,2019_Sep_18_1531,body_behavioural,3.2.1,59.78447266931412,
2,parcelated_audio/14/14_7.aiff,,0,2,2,2,,,,,0,6,6,6,,,,,,,,,,,,,,,,,,,,,,,,,,,,,,,,,,,,,,,,,,,,,,,,,,,,,,,,,,,,,,,710.2794154211763,None,710.2798317409761,None,1,2.437179502012441,718.1966532059887,None,718.1966532059887,None,718.1966532059887,None,718.1966532059887,None,,,,,,,,,,,,,,,,,,,,,,,,,,,,,,,,,,,,,,,,,,,,,,,,,,,,091819_p2,001,2019_Sep_18_1531,body_behavioural,3.2.1,59.78447266931412,
2,parcelated_audio/14/14_8.aiff,,0,2,2,2,,,,,0,7,7,7,,,,,,,,,,,,,,,,,,,,,,,,,,,,,,,,,,,,,,,,,,,,,,,,,,,,,,,,,,,,,,,720.7295992061729,None,720.7305135029892,None,1,0.26382992998696864,725.947514525993,None,725.947514525993,None,725.947514525993,None,725.947514525993,None,,,,,,,,,,,,,,,,,,,,,,,,,,,,,,,,,,,,,,,,,,,,,,,,,,,,091819_p2,001,2019_Sep_18_1531,body_behavioural,3.2.1,59.78447266931412,
2,parcelated_audio/14/14_9.aiff,,0,2,2,2,,,,,0,8,8,8,,,,,,,,,,,,,,,,,,,,,,,,,,,,,,,,,,,,,,,,,,,,,,,,,,,,,,,,,,,,,,,726.297819126182,None,726.2974885129952,None,1,1.1459271350177005,730.0303955229756,None,730.0303955229756,None,730.0303955229756,None,730.0303955229756,None,,,,,,,,,,,,,,,,,,,,,,,,,,,,,,,,,,,,,,,,,,,,,,,,,,,,091819_p2,001,2019_Sep_18_1531,body_behavioural,3.2.1,59.78447266931412,
2,parcelated_audio/14/14_10.aiff,,0,2,2,2,,,,,0,9,9,9,,,,,,,,,,,,,,,,,,,,,,,,,,,,,,,,,,,,,,,,,,,,,,,,,,,,,,,,,,,,,,,731.2646549461817,None,731.2649157029809,None,9,1.273846946976846,739.1817704559944,None,739.1817704559944,None,739.1817704559944,None,739.1817704559944,None,,,,,,,,,,,,,,,,,,,,,,,,,,,,,,,,,,,,,,,,,,,,,,,,,,,,091819_p2,001,2019_Sep_18_1531,body_behavioural,3.2.1,59.78447266931412,
2,parcelated_audio/14/14_11.aiff,,0,2,2,2,,,,,0,10,10,10,,,,,,,,,,,,,,,,,,,,,,,,,,,,,,,,,,,,,,,,,,,,,,,,,,,,,,,,,,,,,,,740.547791761189,None,740.5478442509775,None,1,2.923170307010878,747.7483113359776,None,747.7483113359776,None,747.7483113359776,None,747.7483113359776,None,,,,,,,,,,,,,,,,,,,,,,,,,,,,,,,,,,,,,,,,,,,,,,,,,,,,091819_p2,001,2019_Sep_18_1531,body_behavioural,3.2.1,59.78447266931412,
2,parcelated_audio/14/14_12.aiff,,0,2,2,2,,,,,0,11,11,11,,,,,,,,,,,,,,,,,,,,,,,,,,,,,,,,,,,,,,,,,,,,,,,,,,,,,,,,,,,,,,,750.7821094841813,None,750.7819702309789,None,1,1.2957249100145418,758.6990243309992,None,758.6990243309992,None,758.6990243309992,None,758.6990243309992,None,,,,,,,,,,,,,,,,,,,,,,,,,,,,,,,,,,,,,,,,,,,,,,,,,,,,091819_p2,001,2019_Sep_18_1531,body_behavioural,3.2.1,59.78447266931412,
2,parcelated_audio/14/14_13.aiff,,0,2,2,2,,,,,0,12,12,12,,,,,,,,,,,,,,,,,,,,,,,,,,,,,,,,,,,,,,,,,,,,,,,,,,,,,,,,,,,,,,,760.0828860012,None,760.0824057609716,None,1,2.3424784500093665,766.1831703629869,None,766.1831703629869,None,766.1831703629869,None,766.1831703629869,None,,,,,,,,,,,,,,,,,,,,,,,,,,,,,,,,,,,,,,,,,,,,,,,,,,,,091819_p2,001,2019_Sep_18_1531,body_behavioural,3.2.1,59.78447266931412,
2,parcelated_audio/14/14_14.aiff,,0,2,2,2,,,,,0,13,13,13,,,,,,,,,,,,,,,,,,,,,,,,,,,,,,,,,,,,,,,,,,,,,,,,,,,,,,,,,,,,,,,768.6171043612005,None,768.6169073709752,None,9,2.00542900300934,775.1842544329993,None,775.1842544329993,None,775.1842544329993,None,775.1842544329993,None,,,,,,,,,,,,,,,,,,,,,,,,,,,,,,,,,,,,,,,,,,,,,,,,,,,,091819_p2,001,2019_Sep_18_1531,body_behavioural,3.2.1,59.78447266931412,
2,parcelated_audio/14/14_15.aiff,,0,2,2,2,,,,,0,14,14,14,,,,,,,,,,,,,,,,,,,,,,,,,,,,,,,,,,,,,,,,,,,,,,,,,,,,,,,,,,,,,,,777.2841369611735,None,777.2845859229856,None,1,1.0851567199861165,784.4009659659932,None,784.4009659659932,None,784.4009659659932,None,784.4009659659932,None,,,,,,,,,,,,,,,,,,,,,,,,,,,,,,,,,,,,,,,,,,,,,,,,,,,,091819_p2,001,2019_Sep_18_1531,body_behavioural,3.2.1,59.78447266931412,
2,parcelated_audio/14/14_16.aiff,,0,2,2,2,,,,,0,15,15,15,,,,,,,,,,,,,,,,,,,,,,,,,,,,,,,,,,,,,,,,,,,,,,,,,,,,,,,,,,,,,,,785.583816776186,None,785.5832234819827,None,1,0.8405371849949006,791.0179615709931,None,791.0179615709931,None,791.0179615709931,None,791.0179615709931,None,,,,,,,,,,,,,,,,,,,,,,,,,,,,,,,,,,,,,,,,,,,,,,,,,,,,091819_p2,001,2019_Sep_18_1531,body_behavioural,3.2.1,59.78447266931412,
2,parcelated_audio/14/14_17.aiff,,0,2,2,2,,,,,0,16,16,16,,,,,,,,,,,,,,,,,,,,,,,,,,,,,,,,,,,,,,,,,,,,,,,,,,,,,,,,,,,,,,,791.9522483941867,None,791.951454752998,None,1,1.6715030320046935,799.868760450976,None,799.868760450976,None,799.868760450976,None,799.868760450976,None,,,,,,,,,,,,,,,,,,,,,,,,,,,,,,,,,,,,,,,,,,,,,,,,,,,,091819_p2,001,2019_Sep_18_1531,body_behavioural,3.2.1,59.78447266931412,
2,parcelated_audio/14/14_18.aiff,,0,2,2,2,,,,,0,17,17,17,,,,,,,,,,,,,,,,,,,,,,,,,,,,,,,,,,,,,,,,,,,,,,,,,,,,,,,,,,,,,,,801.6524986261968,None,801.6520931659907,None,9,0.6134752469952218,809.5702047709783,None,809.5702047709783,None,809.5702047709783,None,809.5702047709783,None,,,,,,,,,,,,,,,,,,,,,,,,,,,,,,,,,,,,,,,,,,,,,,,,,,,,091819_p2,001,2019_Sep_18_1531,body_behavioural,3.2.1,59.78447266931412,
2,parcelated_audio/14/14_19.aiff,,0,2,2,2,,,,,0,18,18,18,,,,,,,,,,,,,,,,,,,,,,,,,,,,,,,,,,,,,,,,,,,,,,,,,,,,,,,,,,,,,,,810.2704034741794,None,810.2695894879871,None,1,1.7412030950072221,813.1361813079857,None,813.1361813079857,None,813.1361813079857,None,813.1361813079857,None,,,,,,,,,,,,,,,,,,,,,,,,,,,,,,,,,,,,,,,,,,,,,,,,,,,,091819_p2,001,2019_Sep_18_1531,body_behavioural,3.2.1,59.78447266931412,
2,parcelated_audio/14/14_20.aiff,,0,2,2,2,,,,,0,19,19,19,,,,,,,,,,,,,,,,,,,,,,,,,,,,,,,,,,,,,,,,,,,,,,,,,,,,,,,,,,,,,,,814.9699656391924,None,814.9699688709807,None,1,1.3128498680016492,817.1031531929912,None,817.1031531929912,None,817.1031531929912,None,817.1031531929912,None,,,,,,,,,,,,,,,,,,,,,,,,,,,,,,,,,,,,,,,,,,,,,,,,,,,,091819_p2,001,2019_Sep_18_1531,body_behavioural,3.2.1,59.78447266931412,
2,parcelated_audio/14/14_21.aiff,,0,2,2,2,,,,,0,20,20,20,,,,,,,,,,,,,,,,,,,,,,,,,,,,,,,,,,,,,,,,,,,,,,,,,,,,,,,,,,,,,,,818.5205807391787,None,818.5199631209834,None,9,2.2883552170242183,826.4205763779755,None,826.4205763779755,None,826.4205763779755,None,826.4205763779755,None,,,,,,,,,,,,,,,,,,,,,,,,,,,,,,,,,,,,,,,,,,,,,,,,,,,,091819_p2,001,2019_Sep_18_1531,body_behavioural,3.2.1,59.78447266931412,
2,parcelated_audio/14/14_22.aiff,,0,2,2,2,,,,,0,21,21,21,,,,,,,,,,,,,,,,,,,,,,,,,,,,,,,,,,,,,,,,,,,,,,,,,,,,,,,,,,,,,,,828.8040108791786,None,828.8048228529806,None,1,0.5409450769948307,835.137776470976,None,835.137776470976,None,835.137776470976,None,835.137776470976,None,,,,,,,,,,,,,,,,,,,,,,,,,,,,,,,,,,,,,,,,,,,,,,,,,,,,091819_p2,001,2019_Sep_18_1531,body_behavioural,3.2.1,59.78447266931412,
2,parcelated_audio/14/14_23.aiff,,0,2,2,2,,,,,0,22,22,22,,,,,,,,,,,,,,,,,,,,,,,,,,,,,,,,,,,,,,,,,,,,,,,,,,,,,,,,,,,,,,,835.7717653791944,None,835.7721094129956,None,9,1.5945943749975413,840.822485562996,None,840.822485562996,None,840.822485562996,None,840.822485562996,None,,,,,,,,,,,,,,,,,,,,,,,,,,,,,,,,,,,,,,,,,,,,,,,,,,,,091819_p2,001,2019_Sep_18_1531,body_behavioural,3.2.1,59.78447266931412,
2,parcelated_audio/14/14_24.aiff,,0,2,2,2,,,,,0,23,23,23,,,,,,,,,,,,,,,,,,,,,,,,,,,,,,,,,,,,,,,,,,,,,,,,,,,,,,,,,,,,,,,842.5043767111958,None,842.5057248409721,None,1,1.255181899992749,850.4226884429809,None,850.4226884429809,None,850.4226884429809,None,850.4226884429809,None,,,,,,,,,,,,,,,,,,,,,,,,,,,,,,,,,,,,,,,,,,,,,,,,,,,,091819_p2,001,2019_Sep_18_1531,body_behavioural,3.2.1,59.78447266931412,
2,parcelated_audio/14/14_25.aiff,,0,2,2,2,,,,,0,24,24,24,,,,,,,,,,,,,,,,,,,,,,,,,,,,,,,,,,,,,,,,,,,,,,,,,,,,,,,,,,,,,,,851.7895528711845,None,851.7888474609936,None,1,2.8060781199892517,858.439356760995,None,858.439356760995,None,858.439356760995,None,858.439356760995,None,,,,,,,,,,,,,,,,,,,,,,,,,,,,,,,,,,,,,,,,,,,,,,,,,,,,091819_p2,001,2019_Sep_18_1531,body_behavioural,3.2.1,59.78447266931412,
2,parcelated_audio/14/14_26.aiff,,0,2,2,2,,,,,0,25,25,25,,,,,,,,,,,,,,,,,,,,,,,,,,,,,,,,,,,,,,,,,,,,,,,,,,,,,,,,,,,,,,,861.3401437741879,None,861.340148030984,None,1,1.6566892080008984,863.5071889259852,None,863.5071889259852,None,863.5071889259852,None,863.5071889259852,None,,,,,,,,,,,,,,,,,,,,,,,,,,,,,,,,,,,,,,,,,,,,,,,,,,,,091819_p2,001,2019_Sep_18_1531,body_behavioural,3.2.1,59.78447266931412,
2,parcelated_audio/14/14_27.aiff,,0,2,2,2,,,,,0,26,26,26,,,,,,,,,,,,,,,,,,,,,,,,,,,,,,,,,,,,,,,,,,,,,,,,,,,,,,,,,,,,,,,865.2564346691827,None,865.256561770977,None,9,0.7794232699961867,871.2418462209753,None,871.2418462209753,None,871.2418462209753,None,871.2418462209753,None,,,,,,,,,,,,,,,,,,,,,,,,,,,,,,,,,,,,,,,,,,,,,,,,,,,,091819_p2,001,2019_Sep_18_1531,body_behavioural,3.2.1,59.78447266931412,
2,parcelated_audio/14/14_28.aiff,,0,2,2,2,,,,,0,27,27,27,,,,,,,,,,,,,,,,,,,,,,,,,,,,,,,,,,,,,,,,,,,,,,,,,,,,,,,,,,,,,,,872.1075693811756,None,872.1072590209951,None,1,1.934293861995684,875.057085657987,None,875.057085657987,None,875.057085657987,None,875.057085657987,None,,,,,,,,,,,,,,,,,,,,,,,,,,,,,,,,,,,,,,,,,,,,,,,,,,,,091819_p2,001,2019_Sep_18_1531,body_behavioural,3.2.1,59.78447266931412,
2,parcelated_audio/14/14_29.aiff,,0,2,2,2,,,,,0,28,28,28,,,,,,,,,,,,,,,,,,,,,,,,,,,,,,,,,,,,,,,,,,,,,,,,,,,,,,,,,,,,,,,877.0742892861774,None,877.0746606209723,None,1,0.17343335499754176,879.4240901909943,None,879.4240901909943,None,879.4240901909943,None,879.4240901909943,None,,,,,,,,,,,,,,,,,,,,,,,,,,,,,,,,,,,,,,,,,,,,,,,,,,,,091819_p2,001,2019_Sep_18_1531,body_behavioural,3.2.1,59.78447266931412,
2,parcelated_audio/14/14_30.aiff,,0,2,2,2,,,,,0,29,29,29,,,,,,,,,,,,,,,,,,,,,,,,,,,,,,,,,,,,,,,,,,,,,,,,,,,,,,,,,,,,,,,879.7076750941808,None,879.7072515529871,None,1,0.46333659000811167,883.9577098579903,None,883.9577098579903,None,883.9577098579903,None,883.9577098579903,None,,,,,,,,,,,,,,,,,,,,,,,,,,,,,,,,,,,,,,,,,,,,,,,,,,,,091819_p2,001,2019_Sep_18_1531,body_behavioural,3.2.1,59.78447266931412,
2,parcelated_audio/14/14_31.aiff,,0,2,2,2,,,,,0,30,30,30,,,,,,,,,,,,,,,,,,,,,,,,,,,,,,,,,,,,,,,,,,,,,,,,,,,,,,,,,,,,,,,884.5246635691904,None,884.5245020459988,None,1,0.6468026670045219,891.775011005986,None,891.775011005986,None,891.775011005986,None,891.775011005986,None,,,,,,,,,,,,,,,,,,,,,,,,,,,,,,,,,,,,,,,,,,,,,,,,,,,,091819_p2,001,2019_Sep_18_1531,body_behavioural,3.2.1,59.78447266931412,
2,parcelated_audio/14/14_32.aiff,,0,2,2,2,,,,,0,31,31,31,,,,,,,,,,,,,,,,,,,,,,,,,,,,,,,,,,,,,,,,,,,,,,,,,,,,,,,,,,,,,,,892.5248857541767,None,892.5259649809741,None,1,0.8938650170166511,899.6764042279974,None,899.6764042279974,None,899.6764042279974,None,899.6764042279974,None,,,,,,,,,,,,,,,,,,,,,,,,,,,,,,,,,,,,,,,,,,,,,,,,,,,,091819_p2,001,2019_Sep_18_1531,body_behavioural,3.2.1,59.78447266931412,
2,parcelated_audio/14/14_33.aiff,,0,2,2,2,,,,,0,32,32,32,,,,,,,,,,,,,,,,,,,,,,,,,,,,,,,,,,,,,,,,,,,,,,,,,,,,,,,,,,,,,,,900.6594901761739,None,900.6589270159893,None,1,1.5489838799985591,907.2270917879941,None,907.2270917879941,None,907.2270917879941,None,907.2270917879941,None,,,,,,,,,,,,,,,,,,,,,,,,,,,,,,,,,,,,,,,,,,,,,,,,,,,,091819_p2,001,2019_Sep_18_1531,body_behavioural,3.2.1,59.78447266931412,
2,,,0,2,2,2,,,,,,,,,,,,,,,,,,,,,,,,,,,,,,,,,,,,,,,,,,,,,,,,,,,,,,,,,,,,,,,,,,,,,,,,,,,,,,,,,,,,,908.7937647929939,None,908.7937647929939,None,space,2.9165942769905087,908.7937647929939,None,,,,,,,,,,,,,,,,,,,,,,,,,,,,,,,,,,,,,,,,,,,,091819_p2,001,2019_Sep_18_1531,body_behavioural,3.2.1,59.78447266931412,
3,,,0,3,3,3,0,0,0,0,,,,,,,,,,,,,,,911.7436814809917,None,space,0.9546520769945346,911.7436814809917,None,911.7436814809917,None,912.7273037179839,None,space,0.9120675300073344,912.7273037179839,None,913.7264808729815,None,913.7264808729815,None,913.7264808729815,None,914.6439667779778,None,space,0.6352514199970756,914.6439667779778,None,915.6271688809793,None,915.6271688809793,None,915.6271688809793,None,915.6271688809793,None,915.6271688809793,None,915.6271688809793,None,915.6271688809793,None,,,,,,,,,,,,,,,,,,,,,,,,,,,,,,,,,,,,,,,,,,,,,,,,,,,,,,,,,,,,,,,,,,,,,,,,,,,,,,091819_p2,001,2019_Sep_18_1531,body_behavioural,3.2.1,59.78447266931412,
3,,,0,3,3,3,1,0,1,0,,,,,,,,,,,,,,,,,,,,,,,,,,,,,933.327818255988,None,933.327818255988,None,933.327818255988,None,933.7284516129876,None,space,0.820551073004026,933.7284516129876,None,934.8456246009737,None,934.8456246009737,None,934.8456246009737,None,934.8456246009737,None,934.8456246009737,None,934.8456246009737,None,934.8456246009737,None,,,,,,,,,,,,,,,,,,,,,,,,,,,,,,,,,,,,,,,,,,,,,,,,,,,,,,,,,,,,,,,,,,,,,,,,,,,,,,091819_p2,001,2019_Sep_18_1531,body_behavioural,3.2.1,59.78447266931412,
3,,,0,3,3,3,2,0,2,0,,,,,,,,,,,,,,,,,,,,,,,,,,,,,944.7293988029996,None,944.7293988029996,None,944.7293988029996,None,945.1296969609975,None,space,0.9835733979998622,945.1296969609975,None,946.4296564409742,None,946.4296564409742,None,946.4296564409742,None,946.4296564409742,None,946.4296564409742,None,946.4296564409742,None,946.4296564409742,None,,,,,,,,,,,,,,,,,,,,,,,,,,,,,,,,,,,,,,,,,,,,,,,,,,,,,,,,,,,,,,,,,,,,,,,,,,,,,,091819_p2,001,2019_Sep_18_1531,body_behavioural,3.2.1,59.78447266931412,
3,parcelated_audio/43/43_1.aiff,,0,3,3,3,,,,,0,0,0,0,,,,,,,,,,,,,,,,,,,,,,,,,959.8630215429876,None,959.8630215429876,None,959.8630215429876,None,,,,,,,,,,,,,,,,,,,,,958.8634310629859,None,space,0.9449197780049872,958.8634310629859,None,960.6964938209858,None,space,1.524466142989695,960.6964938209858,None,962.3465019791795,None,962.3471364309953,None,9,1.3228174820251297,969.9302635459753,None,969.9302635459753,None,969.9302635459753,None,969.9302635459753,None,,,,,,,,,,,,,,,,,,,,,,,,,,,,,,,,,,,,,,,,,,,,,,,,,,,,091819_p2,001,2019_Sep_18_1531,body_behavioural,3.2.1,59.78447266931412,
3,parcelated_audio/43/43_2.aiff,,0,3,3,3,,,,,0,1,1,1,,,,,,,,,,,,,,,,,,,,,,,,,,,,,,,,,,,,,,,,,,,,,,,,,,,,,,,,,,,,,,,971.3648783861893,None,971.3639597609872,None,1,0.5582039549772162,975.1474675509962,None,975.1474675509962,None,975.1474675509962,None,975.1474675509962,None,,,,,,,,,,,,,,,,,,,,,,,,,,,,,,,,,,,,,,,,,,,,,,,,,,,,091819_p2,001,2019_Sep_18_1531,body_behavioural,3.2.1,59.78447266931412,
3,parcelated_audio/43/43_3.aiff,,0,3,3,3,,,,,0,2,2,2,,,,,,,,,,,,,,,,,,,,,,,,,,,,,,,,,,,,,,,,,,,,,,,,,,,,,,,,,,,,,,,975.8140125241946,None,975.8147628629813,None,1,2.6966061200073455,983.7313764379942,None,983.7313764379942,None,983.7313764379942,None,983.7313764379942,None,,,,,,,,,,,,,,,,,,,,,,,,,,,,,,,,,,,,,,,,,,,,,,,,,,,,091819_p2,001,2019_Sep_18_1531,body_behavioural,3.2.1,59.78447266931412,
3,parcelated_audio/43/43_4.aiff,,0,3,3,3,,,,,0,3,3,3,,,,,,,,,,,,,,,,,,,,,,,,,,,,,,,,,,,,,,,,,,,,,,,,,,,,,,,,,,,,,,,986.5323199941952,None,986.5323796679731,None,1,0.367627285013441,994.4320593929733,None,994.4320593929733,None,994.4320593929733,None,994.4320593929733,None,,,,,,,,,,,,,,,,,,,,,,,,,,,,,,,,,,,,,,,,,,,,,,,,,,,,091819_p2,001,2019_Sep_18_1531,body_behavioural,3.2.1,59.78447266931412,
3,parcelated_audio/43/43_5.aiff,,0,3,3,3,,,,,0,4,4,4,,,,,,,,,,,,,,,,,,,,,,,,,,,,,,,,,,,,,,,,,,,,,,,,,,,,,,,,,,,,,,,994.8986504191882,None,994.899241962994,None,1,1.5166795420227572,1002.7992472409969,None,1002.7992472409969,None,1002.7992472409969,None,1002.7992472409969,None,,,,,,,,,,,,,,,,,,,,,,,,,,,,,,,,,,,,,,,,,,,,,,,,,,,,091819_p2,001,2019_Sep_18_1531,body_behavioural,3.2.1,59.78447266931412,
3,parcelated_audio/43/43_6.aiff,,0,3,3,3,,,,,0,5,5,5,,,,,,,,,,,,,,,,,,,,,,,,,,,,,,,,,,,,,,,,,,,,,,,,,,,,,,,,,,,,,,,1004.3825057641836,None,1004.3827512809949,None,9,0.736199649021728,1012.299985190999,None,1012.299985190999,None,1012.299985190999,None,1012.299985190999,None,,,,,,,,,,,,,,,,,,,,,,,,,,,,,,,,,,,,,,,,,,,,,,,,,,,,091819_p2,001,2019_Sep_18_1531,body_behavioural,3.2.1,59.78447266931412,
3,parcelated_audio/43/43_7.aiff,,0,3,3,3,,,,,0,6,6,6,,,,,,,,,,,,,,,,,,,,,,,,,,,,,,,,,,,,,,,,,,,,,,,,,,,,,,,,,,,,,,,1013.1499889761792,None,1013.1498269009753,None,1,0.5783580550050829,1017.8837827129755,None,1017.8837827129755,None,1017.8837827129755,None,1017.8837827129755,None,,,,,,,,,,,,,,,,,,,,,,,,,,,,,,,,,,,,,,,,,,,,,,,,,,,,091819_p2,001,2019_Sep_18_1531,body_behavioural,3.2.1,59.78447266931412,
3,parcelated_audio/43/43_8.aiff,,0,3,3,3,,,,,0,7,7,7,,,,,,,,,,,,,,,,,,,,,,,,,,,,,,,,,,,,,,,,,,,,,,,,,,,,,,,,,,,,,,,1018.5669318161847,None,1018.5672399759933,None,1,0.44331104299635626,1025.117895790987,None,1025.117895790987,None,1025.117895790987,None,1025.117895790987,None,,,,,,,,,,,,,,,,,,,,,,,,,,,,,,,,,,,,,,,,,,,,,,,,,,,,091819_p2,001,2019_Sep_18_1531,body_behavioural,3.2.1,59.78447266931412,
3,parcelated_audio/43/43_9.aiff,,0,3,3,3,,,,,0,8,8,8,,,,,,,,,,,,,,,,,,,,,,,,,,,,,,,,,,,,,,,,,,,,,,,,,,,,,,,,,,,,,,,1025.667297329189,None,1025.6679823629966,None,1,1.1672010569891427,1030.1848240309919,None,1030.1848240309919,None,1030.1848240309919,None,1030.1848240309919,None,,,,,,,,,,,,,,,,,,,,,,,,,,,,,,,,,,,,,,,,,,,,,,,,,,,,091819_p2,001,2019_Sep_18_1531,body_behavioural,3.2.1,59.78447266931412,
3,parcelated_audio/43/43_10.aiff,,0,3,3,3,,,,,0,9,9,9,,,,,,,,,,,,,,,,,,,,,,,,,,,,,,,,,,,,,,,,,,,,,,,,,,,,,,,,,,,,,,,1031.467912999174,None,1031.4678313429758,None,1,0.8018547550018411,1036.3351601909962,None,1036.3351601909962,None,1036.3351601909962,None,1036.3351601909962,None,,,,,,,,,,,,,,,,,,,,,,,,,,,,,,,,,,,,,,,,,,,,,,,,,,,,091819_p2,001,2019_Sep_18_1531,body_behavioural,3.2.1,59.78447266931412,
3,parcelated_audio/43/43_11.aiff,,0,3,3,3,,,,,0,10,10,10,,,,,,,,,,,,,,,,,,,,,,,,,,,,,,,,,,,,,,,,,,,,,,,,,,,,,,,,,,,,,,,1037.2515941661725,None,1037.2515844579902,None,1,1.222864595009014,1045.1698364529875,None,1045.1698364529875,None,1045.1698364529875,None,1045.1698364529875,None,,,,,,,,,,,,,,,,,,,,,,,,,,,,,,,,,,,,,,,,,,,,,,,,,,,,091819_p2,001,2019_Sep_18_1531,body_behavioural,3.2.1,59.78447266931412,
3,parcelated_audio/43/43_12.aiff,,0,3,3,3,,,,,0,11,11,11,,,,,,,,,,,,,,,,,,,,,,,,,,,,,,,,,,,,,,,,,,,,,,,,,,,,,,,,,,,,,,,1046.4851027691795,None,1046.4863497909973,None,9,0.3800789100059774,1052.569374802988,None,1052.569374802988,None,1052.569374802988,None,1052.569374802988,None,,,,,,,,,,,,,,,,,,,,,,,,,,,,,,,,,,,,,,,,,,,,,,,,,,,,091819_p2,001,2019_Sep_18_1531,body_behavioural,3.2.1,59.78447266931412,
3,parcelated_audio/43/43_13.aiff,,0,3,3,3,,,,,0,12,12,12,,,,,,,,,,,,,,,,,,,,,,,,,,,,,,,,,,,,,,,,,,,,,,,,,,,,,,,,,,,,,,,1053.036410309188,None,1053.0361550209927,None,1,0.2949077500088606,1060.9532796509739,None,1060.9532796509739,None,1060.9532796509739,None,1060.9532796509739,None,,,,,,,,,,,,,,,,,,,,,,,,,,,,,,,,,,,,,,,,,,,,,,,,,,,,091819_p2,001,2019_Sep_18_1531,body_behavioural,3.2.1,59.78447266931412,
3,parcelated_audio/43/43_14.aiff,,0,3,3,3,,,,,0,13,13,13,,,,,,,,,,,,,,,,,,,,,,,,,,,,,,,,,,,,,,,,,,,,,,,,,,,,,,,,,,,,,,,1061.3373670941976,None,1061.336668072996,None,1,0.6834312800201587,1069.2547722459713,None,1069.2547722459713,None,1069.2547722459713,None,1069.2547722459713,None,,,,,,,,,,,,,,,,,,,,,,,,,,,,,,,,,,,,,,,,,,,,,,,,,,,,091819_p2,001,2019_Sep_18_1531,body_behavioural,3.2.1,59.78447266931412,
3,parcelated_audio/43/43_15.aiff,,0,3,3,3,,,,,0,14,14,14,,,,,,,,,,,,,,,,,,,,,,,,,,,,,,,,,,,,,,,,,,,,,,,,,,,,,,,,,,,,,,,1070.0375334141893,None,1070.037234782998,None,1,1.74042991999886,1074.3880704329931,None,1074.3880704329931,None,1074.3880704329931,None,1074.3880704329931,None,,,,,,,,,,,,,,,,,,,,,,,,,,,,,,,,,,,,,,,,,,,,,,,,,,,,091819_p2,001,2019_Sep_18_1531,body_behavioural,3.2.1,59.78447266931412,
3,parcelated_audio/43/43_16.aiff,,0,3,3,3,,,,,0,15,15,15,,,,,,,,,,,,,,,,,,,,,,,,,,,,,,,,,,,,,,,,,,,,,,,,,,,,,,,,,,,,,,,1076.221278474189,None,1076.2210802409973,None,1,0.2962920280115213,1080.738115479995,None,1080.738115479995,None,1080.738115479995,None,1080.738115479995,None,,,,,,,,,,,,,,,,,,,,,,,,,,,,,,,,,,,,,,,,,,,,,,,,,,,,091819_p2,001,2019_Sep_18_1531,body_behavioural,3.2.1,59.78447266931412,
3,parcelated_audio/43/43_17.aiff,,0,3,3,3,,,,,0,16,16,16,,,,,,,,,,,,,,,,,,,,,,,,,,,,,,,,,,,,,,,,,,,,,,,,,,,,,,,,,,,,,,,1081.1219307361928,None,1081.1218270559912,None,1,0.94462114199996,1084.8885382829758,None,1084.8885382829758,None,1084.8885382829758,None,1084.8885382829758,None,,,,,,,,,,,,,,,,,,,,,,,,,,,,,,,,,,,,,,,,,,,,,,,,,,,,091819_p2,001,2019_Sep_18_1531,body_behavioural,3.2.1,59.78447266931412,
3,parcelated_audio/43/43_18.aiff,,0,3,3,3,,,,,0,17,17,17,,,,,,,,,,,,,,,,,,,,,,,,,,,,,,,,,,,,,,,,,,,,,,,,,,,,,,,,,,,,,,,1085.905730959191,None,1085.9050713129982,None,1,0.9684453259978909,1088.104555739992,None,1088.104555739992,None,1088.104555739992,None,1088.104555739992,None,,,,,,,,,,,,,,,,,,,,,,,,,,,,,,,,,,,,,,,,,,,,,,,,,,,,091819_p2,001,2019_Sep_18_1531,body_behavioural,3.2.1,59.78447266931412,
3,parcelated_audio/43/43_19.aiff,,0,3,3,3,,,,,0,18,18,18,,,,,,,,,,,,,,,,,,,,,,,,,,,,,,,,,,,,,,,,,,,,,,,,,,,,,,,,,,,,,,,1089.1723526541784,None,1089.1721767309937,None,9,2.308076639979845,1092.788988685992,None,1092.788988685992,None,1092.788988685992,None,1092.788988685992,None,,,,,,,,,,,,,,,,,,,,,,,,,,,,,,,,,,,,,,,,,,,,,,,,,,,,091819_p2,001,2019_Sep_18_1531,body_behavioural,3.2.1,59.78447266931412,
3,parcelated_audio/43/43_20.aiff,,0,3,3,3,,,,,0,19,19,19,,,,,,,,,,,,,,,,,,,,,,,,,,,,,,,,,,,,,,,,,,,,,,,,,,,,,,,,,,,,,,,1095.2059884191724,None,1095.2057968559966,None,1,1.814038430020446,1102.3723489909898,None,1102.3723489909898,None,1102.3723489909898,None,1102.3723489909898,None,,,,,,,,,,,,,,,,,,,,,,,,,,,,,,,,,,,,,,,,,,,,,,,,,,,,091819_p2,001,2019_Sep_18_1531,body_behavioural,3.2.1,59.78447266931412,
3,parcelated_audio/43/43_21.aiff,,0,3,3,3,,,,,0,20,20,20,,,,,,,,,,,,,,,,,,,,,,,,,,,,,,,,,,,,,,,,,,,,,,,,,,,,,,,,,,,,,,,1104.2734111491766,None,1104.2734346929938,None,1,1.1564088130253367,1106.7408181409992,None,1106.7408181409992,None,1106.7408181409992,None,1106.7408181409992,None,,,,,,,,,,,,,,,,,,,,,,,,,,,,,,,,,,,,,,,,,,,,,,,,,,,,091819_p2,001,2019_Sep_18_1531,body_behavioural,3.2.1,59.78447266931412,
3,parcelated_audio/43/43_22.aiff,,0,3,3,3,,,,,0,21,21,21,,,,,,,,,,,,,,,,,,,,,,,,,,,,,,,,,,,,,,,,,,,,,,,,,,,,,,,,,,,,,,,1108.0062124911813,None,1108.0066601809813,None,1,1.4152784300094936,1111.3900900359731,None,1111.3900900359731,None,1111.3900900359731,None,1111.3900900359731,None,,,,,,,,,,,,,,,,,,,,,,,,,,,,,,,,,,,,,,,,,,,,,,,,,,,,091819_p2,001,2019_Sep_18_1531,body_behavioural,3.2.1,59.78447266931412,
3,parcelated_audio/43/43_23.aiff,,0,3,3,3,,,,,0,22,22,22,,,,,,,,,,,,,,,,,,,,,,,,,,,,,,,,,,,,,,,,,,,,,,,,,,,,,,,,,,,,,,,1112.8906187142013,None,1112.8908307279926,None,1,0.3306666300049983,1118.907642252976,None,1118.907642252976,None,1118.907642252976,None,1118.907642252976,None,,,,,,,,,,,,,,,,,,,,,,,,,,,,,,,,,,,,,,,,,,,,,,,,,,,,091819_p2,001,2019_Sep_18_1531,body_behavioural,3.2.1,59.78447266931412,
3,parcelated_audio/43/43_24.aiff,,0,3,3,3,,,,,0,23,23,23,,,,,,,,,,,,,,,,,,,,,,,,,,,,,,,,,,,,,,,,,,,,,,,,,,,,,,,,,,,,,,,1119.3248039141938,None,1119.325061860989,None,1,1.311585704999743,1125.657825110975,None,1125.657825110975,None,1125.657825110975,None,1125.657825110975,None,,,,,,,,,,,,,,,,,,,,,,,,,,,,,,,,,,,,,,,,,,,,,,,,,,,,091819_p2,001,2019_Sep_18_1531,body_behavioural,3.2.1,59.78447266931412,
3,parcelated_audio/43/43_25.aiff,,0,3,3,3,,,,,0,24,24,24,,,,,,,,,,,,,,,,,,,,,,,,,,,,,,,,,,,,,,,,,,,,,,,,,,,,,,,,,,,,,,,1127.058445644175,None,1127.0582551809784,None,1,0.9737171419837978,1132.075213190983,None,1132.075213190983,None,1132.075213190983,None,1132.075213190983,None,,,,,,,,,,,,,,,,,,,,,,,,,,,,,,,,,,,,,,,,,,,,,,,,,,,,091819_p2,001,2019_Sep_18_1531,body_behavioural,3.2.1,59.78447266931412,
3,parcelated_audio/43/43_26.aiff,,0,3,3,3,,,,,0,25,25,25,,,,,,,,,,,,,,,,,,,,,,,,,,,,,,,,,,,,,,,,,,,,,,,,,,,,,,,,,,,,,,,1133.1423107041803,None,1133.141477282974,None,9,0.3235112520051189,1141.042227207974,None,1141.042227207974,None,1141.042227207974,None,1141.042227207974,None,,,,,,,,,,,,,,,,,,,,,,,,,,,,,,,,,,,,,,,,,,,,,,,,,,,,091819_p2,001,2019_Sep_18_1531,body_behavioural,3.2.1,59.78447266931412,
3,parcelated_audio/43/43_27.aiff,,0,3,3,3,,,,,0,26,26,26,,,,,,,,,,,,,,,,,,,,,,,,,,,,,,,,,,,,,,,,,,,,,,,,,,,,,,,,,,,,,,,1141.4595787391765,None,1141.4587378759752,None,1,0.2703793419932481,1145.8260009829828,None,1145.8260009829828,None,1145.8260009829828,None,1145.8260009829828,None,,,,,,,,,,,,,,,,,,,,,,,,,,,,,,,,,,,,,,,,,,,,,,,,,,,,091819_p2,001,2019_Sep_18_1531,body_behavioural,3.2.1,59.78447266931412,
3,parcelated_audio/43/43_28.aiff,,0,3,3,3,,,,,0,27,27,27,,,,,,,,,,,,,,,,,,,,,,,,,,,,,,,,,,,,,,,,,,,,,,,,,,,,,,,,,,,,,,,1146.1932281762013,None,1146.193107635976,None,1,1.5093410949921235,1151.1764371009776,None,1151.1764371009776,None,1151.1764371009776,None,1151.1764371009776,None,,,,,,,,,,,,,,,,,,,,,,,,,,,,,,,,,,,,,,,,,,,,,,,,,,,,091819_p2,001,2019_Sep_18_1531,body_behavioural,3.2.1,59.78447266931412,
3,parcelated_audio/43/43_29.aiff,,0,3,3,3,,,,,0,28,28,28,,,,,,,,,,,,,,,,,,,,,,,,,,,,,,,,,,,,,,,,,,,,,,,,,,,,,,,,,,,,,,,1152.7766272661859,None,1152.7769300309883,None,9,1.0484023299941327,1158.910722872999,None,1158.910722872999,None,1158.910722872999,None,1158.910722872999,None,,,,,,,,,,,,,,,,,,,,,,,,,,,,,,,,,,,,,,,,,,,,,,,,,,,,091819_p2,001,2019_Sep_18_1531,body_behavioural,3.2.1,59.78447266931412,
3,,,0,3,3,3,,,,,,,,,,,,,,,,,,,,,,,,,,,,,,,,,,,,,,,,,,,,,,,,,,,,,,,,,,,,,,,,,,,,,,,,,,,,,,,,,,,,,1160.0268362909846,None,1160.0268362909846,None,space,1.2180248170043342,1160.0268362909846,None,,,,,,,,,,,,,,,,,,,,,,,,,,,,,,,,,,,,,,,,,,,,091819_p2,001,2019_Sep_18_1531,body_behavioural,3.2.1,59.78447266931412,
4,,,0,4,4,4,0,0,0,0,,,,,,,,,,,,,,,1161.2773421959719,None,space,1.163534521998372,1161.2773421959719,None,1161.2773421959719,None,1162.4611488059745,None,space,0.6505919070041273,1162.4611488059745,None,1163.1945297929924,None,1163.1945297929924,None,1163.1945297929924,None,1164.0111501059728,None,space,0.5978033999854233,1164.0111501059728,None,1164.861303492973,None,1164.861303492973,None,1164.861303492973,None,1164.861303492973,None,1164.861303492973,None,1164.861303492973,None,1164.861303492973,None,,,,,,,,,,,,,,,,,,,,,,,,,,,,,,,,,,,,,,,,,,,,,,,,,,,,,,,,,,,,,,,,,,,,,,,,,,,,,,091819_p2,001,2019_Sep_18_1531,body_behavioural,3.2.1,59.78447266931412,
4,parcelated_audio/21/21_1.aiff,,0,4,4,4,,,,,0,0,0,0,,,,,,,,,,,,,,,,,,,,,,,,,1176.1112231179723,None,1176.1112231179723,None,1176.1112231179723,None,,,,,,,,,,,,,,,,,,,,,1175.4112455279974,None,space,0.6455167550011538,1175.4112455279974,None,1177.0956827609916,None,space,0.9925366649986245,1177.0956827609916,None,1178.2279233241745,None,1178.2281699509767,None,9,1.5867172750004102,1186.1457897109794,None,1186.1457897109794,None,1186.1457897109794,None,1186.1457897109794,None,,,,,,,,,,,,,,,,,,,,,,,,,,,,,,,,,,,,,,,,,,,,,,,,,,,,091819_p2,001,2019_Sep_18_1531,body_behavioural,3.2.1,59.78447266931412,
4,parcelated_audio/21/21_2.aiff,,0,4,4,4,,,,,0,1,1,1,,,,,,,,,,,,,,,,,,,,,,,,,,,,,,,,,,,,,,,,,,,,,,,,,,,,,,,,,,,,,,,1187.8452817091777,None,1187.845580662979,None,1,0.18833428801735863,1195.2626564709935,None,1195.2626564709935,None,1195.2626564709935,None,1195.2626564709935,None,,,,,,,,,,,,,,,,,,,,,,,,,,,,,,,,,,,,,,,,,,,,,,,,,,,,091819_p2,001,2019_Sep_18_1531,body_behavioural,3.2.1,59.78447266931412,
4,parcelated_audio/21/21_3.aiff,,0,4,4,4,,,,,0,2,2,2,,,,,,,,,,,,,,,,,,,,,,,,,,,,,,,,,,,,,,,,,,,,,,,,,,,,,,,,,,,,,,,1195.5625547091943,None,1195.5625222859962,None,1,0.42407428502338007,1203.2465309859836,None,1203.2465309859836,None,1203.2465309859836,None,1203.2465309859836,None,,,,,,,,,,,,,,,,,,,,,,,,,,,,,,,,,,,,,,,,,,,,,,,,,,,,091819_p2,001,2019_Sep_18_1531,body_behavioural,3.2.1,59.78447266931412,
4,parcelated_audio/21/21_4.aiff,,0,4,4,4,,,,,0,3,3,3,,,,,,,,,,,,,,,,,,,,,,,,,,,,,,,,,,,,,,,,,,,,,,,,,,,,,,,,,,,,,,,1203.7798750541872,None,1203.7801930009737,None,1,1.16239722201135,1211.6976610909915,None,1211.6976610909915,None,1211.6976610909915,None,1211.6976610909915,None,,,,,,,,,,,,,,,,,,,,,,,,,,,,,,,,,,,,,,,,,,,,,,,,,,,,091819_p2,001,2019_Sep_18_1531,body_behavioural,3.2.1,59.78447266931412,
4,parcelated_audio/21/21_5.aiff,,0,4,4,4,,,,,0,4,4,4,,,,,,,,,,,,,,,,,,,,,,,,,,,,,,,,,,,,,,,,,,,,,,,,,,,,,,,,,,,,,,,1212.9479608991999,None,1212.9472237659793,None,1,0.22317540302174166,1217.997803280974,None,1217.997803280974,None,1217.997803280974,None,1217.997803280974,None,,,,,,,,,,,,,,,,,,,,,,,,,,,,,,,,,,,,,,,,,,,,,,,,,,,,091819_p2,001,2019_Sep_18_1531,body_behavioural,3.2.1,59.78447266931412,
4,parcelated_audio/21/21_6.aiff,,0,4,4,4,,,,,0,5,5,5,,,,,,,,,,,,,,,,,,,,,,,,,,,,,,,,,,,,,,,,,,,,,,,,,,,,,,,,,,,,,,,1218.3307210591913,None,1218.3307830959966,None,9,2.055593229975784,1226.2480519359815,None,1226.2480519359815,None,1226.2480519359815,None,1226.2480519359815,None,,,,,,,,,,,,,,,,,,,,,,,,,,,,,,,,,,,,,,,,,,,,,,,,,,,,091819_p2,001,2019_Sep_18_1531,body_behavioural,3.2.1,59.78447266931412,
4,parcelated_audio/21/21_7.aiff,,0,4,4,4,,,,,0,6,6,6,,,,,,,,,,,,,,,,,,,,,,,,,,,,,,,,,,,,,,,,,,,,,,,,,,,,,,,,,,,,,,,1228.398669774196,None,1228.3987559959933,None,1,1.0581866549910046,1232.898498415976,None,1232.898498415976,None,1232.898498415976,None,1232.898498415976,None,,,,,,,,,,,,,,,,,,,,,,,,,,,,,,,,,,,,,,,,,,,,,,,,,,,,091819_p2,001,2019_Sep_18_1531,body_behavioural,3.2.1,59.78447266931412,
4,parcelated_audio/21/21_8.aiff,,0,4,4,4,,,,,0,7,7,7,,,,,,,,,,,,,,,,,,,,,,,,,,,,,,,,,,,,,,,,,,,,,,,,,,,,,,,,,,,,,,,1234.049465586187,None,1234.048692092998,None,1,0.9831780850072391,1241.9665752709843,None,1241.9665752709843,None,1241.9665752709843,None,1241.9665752709843,None,,,,,,,,,,,,,,,,,,,,,,,,,,,,,,,,,,,,,,,,,,,,,,,,,,,,091819_p2,001,2019_Sep_18_1531,body_behavioural,3.2.1,59.78447266931412,
4,parcelated_audio/21/21_9.aiff,,0,4,4,4,,,,,0,8,8,8,,,,,,,,,,,,,,,,,,,,,,,,,,,,,,,,,,,,,,,,,,,,,,,,,,,,,,,,,,,,,,,1243.0493812861853,None,1243.0491302729934,None,9,2.1516953500104137,1250.4331162229937,None,1250.4331162229937,None,1250.4331162229937,None,1250.4331162229937,None,,,,,,,,,,,,,,,,,,,,,,,,,,,,,,,,,,,,,,,,,,,,,,,,,,,,091819_p2,001,2019_Sep_18_1531,body_behavioural,3.2.1,59.78447266931412,
4,parcelated_audio/21/21_10.aiff,,0,4,4,4,,,,,0,9,9,9,,,,,,,,,,,,,,,,,,,,,,,,,,,,,,,,,,,,,,,,,,,,,,,,,,,,,,,,,,,,,,,1252.700825361174,None,1252.6998882959888,None,1,0.6591486310062464,1259.5170662929886,None,1259.5170662929886,None,1259.5170662929886,None,1259.5170662929886,None,,,,,,,,,,,,,,,,,,,,,,,,,,,,,,,,,,,,,,,,,,,,,,,,,,,,091819_p2,001,2019_Sep_18_1531,body_behavioural,3.2.1,59.78447266931412,
4,parcelated_audio/21/21_11.aiff,,0,4,4,4,,,,,0,10,10,10,,,,,,,,,,,,,,,,,,,,,,,,,,,,,,,,,,,,,,,,,,,,,,,,,,,,,,,,,,,,,,,1260.2506203642,None,1260.2512379659747,None,1,3.4708547450136393,1267.3517809109762,None,1267.3517809109762,None,1267.3517809109762,None,1267.3517809109762,None,,,,,,,,,,,,,,,,,,,,,,,,,,,,,,,,,,,,,,,,,,,,,,,,,,,,091819_p2,001,2019_Sep_18_1531,body_behavioural,3.2.1,59.78447266931412,
4,parcelated_audio/21/21_12.aiff,,0,4,4,4,,,,,0,11,11,11,,,,,,,,,,,,,,,,,,,,,,,,,,,,,,,,,,,,,,,,,,,,,,,,,,,,,,,,,,,,,,,1270.9180601891887,None,1270.9179196829791,None,9,1.240354063018458,1278.8347674109973,None,1278.8347674109973,None,1278.8347674109973,None,1278.8347674109973,None,,,,,,,,,,,,,,,,,,,,,,,,,,,,,,,,,,,,,,,,,,,,,,,,,,,,091819_p2,001,2019_Sep_18_1531,body_behavioural,3.2.1,59.78447266931412,
4,parcelated_audio/21/21_13.aiff,,0,4,4,4,,,,,0,12,12,12,,,,,,,,,,,,,,,,,,,,,,,,,,,,,,,,,,,,,,,,,,,,,,,,,,,,,,,,,,,,,,,1280.1682540941868,None,1280.169130602997,None,1,0.5162663599767257,1283.4853942909976,None,1283.4853942909976,None,1283.4853942909976,None,1283.4853942909976,None,,,,,,,,,,,,,,,,,,,,,,,,,,,,,,,,,,,,,,,,,,,,,,,,,,,,091819_p2,001,2019_Sep_18_1531,body_behavioural,3.2.1,59.78447266931412,
4,parcelated_audio/21/21_14.aiff,,0,4,4,4,,,,,0,13,13,13,,,,,,,,,,,,,,,,,,,,,,,,,,,,,,,,,,,,,,,,,,,,,,,,,,,,,,,,,,,,,,,1284.0860097961734,None,1284.0864606329997,None,1,0.8916754529927857,1289.4858104009763,None,1289.4858104009763,None,1289.4858104009763,None,1289.4858104009763,None,,,,,,,,,,,,,,,,,,,,,,,,,,,,,,,,,,,,,,,,,,,,,,,,,,,,091819_p2,001,2019_Sep_18_1531,body_behavioural,3.2.1,59.78447266931412,
4,parcelated_audio/21/21_15.aiff,,0,4,4,4,,,,,0,14,14,14,,,,,,,,,,,,,,,,,,,,,,,,,,,,,,,,,,,,,,,,,,,,,,,,,,,,,,,,,,,,,,,1290.4691918661877,None,1290.4700325809827,None,1,0.37329317300464027,1297.2862525859964,None,1297.2862525859964,None,1297.2862525859964,None,1297.2862525859964,None,,,,,,,,,,,,,,,,,,,,,,,,,,,,,,,,,,,,,,,,,,,,,,,,,,,,091819_p2,001,2019_Sep_18_1531,body_behavioural,3.2.1,59.78447266931412,
4,parcelated_audio/21/21_16.aiff,,0,4,4,4,,,,,0,15,15,15,,,,,,,,,,,,,,,,,,,,,,,,,,,,,,,,,,,,,,,,,,,,,,,,,,,,,,,,,,,,,,,1297.769510081201,None,1297.769720862998,None,1,1.3447377220145427,1303.8051881009887,None,1303.8051881009887,None,1303.8051881009887,None,1303.8051881009887,None,,,,,,,,,,,,,,,,,,,,,,,,,,,,,,,,,,,,,,,,,,,,,,,,,,,,091819_p2,001,2019_Sep_18_1531,body_behavioural,3.2.1,59.78447266931412,
4,parcelated_audio/21/21_17.aiff,,0,4,4,4,,,,,0,16,16,16,,,,,,,,,,,,,,,,,,,,,,,,,,,,,,,,,,,,,,,,,,,,,,,,,,,,,,,,,,,,,,,1305.2368699141837,None,1305.2369357029966,None,1,0.9880274469905999,1307.3874288809893,None,1307.3874288809893,None,1307.3874288809893,None,1307.3874288809893,None,,,,,,,,,,,,,,,,,,,,,,,,,,,,,,,,,,,,,,,,,,,,,,,,,,,,091819_p2,001,2019_Sep_18_1531,body_behavioural,3.2.1,59.78447266931412,
4,parcelated_audio/21/21_18.aiff,,0,4,4,4,,,,,0,17,17,17,,,,,,,,,,,,,,,,,,,,,,,,,,,,,,,,,,,,,,,,,,,,,,,,,,,,,,,,,,,,,,,1308.4703386361828,None,1308.4703926659713,None,9,1.5946432070049923,1316.3710766059812,None,1316.3710766059812,None,1316.3710766059812,None,1316.3710766059812,None,,,,,,,,,,,,,,,,,,,,,,,,,,,,,,,,,,,,,,,,,,,,,,,,,,,,091819_p2,001,2019_Sep_18_1531,body_behavioural,3.2.1,59.78447266931412,
4,parcelated_audio/21/21_19.aiff,,0,4,4,4,,,,,0,18,18,18,,,,,,,,,,,,,,,,,,,,,,,,,,,,,,,,,,,,,,,,,,,,,,,,,,,,,,,,,,,,,,,1318.0545116641908,None,1318.054439000989,None,1,0.968479772011051,1320.9388321759761,None,1320.9388321759761,None,1320.9388321759761,None,1320.9388321759761,None,,,,,,,,,,,,,,,,,,,,,,,,,,,,,,,,,,,,,,,,,,,,,,,,,,,,091819_p2,001,2019_Sep_18_1531,body_behavioural,3.2.1,59.78447266931412,
4,parcelated_audio/21/21_20.aiff,,0,4,4,4,,,,,0,19,19,19,,,,,,,,,,,,,,,,,,,,,,,,,,,,,,,,,,,,,,,,,,,,,,,,,,,,,,,,,,,,,,,1322.0046071591962,None,1322.0047203559952,None,1,1.0946136320126243,1329.9222882559989,None,1329.9222882559989,None,1329.9222882559989,None,1329.9222882559989,None,,,,,,,,,,,,,,,,,,,,,,,,,,,,,,,,,,,,,,,,,,,,,,,,,,,,091819_p2,001,2019_Sep_18_1531,body_behavioural,3.2.1,59.78447266931412,
4,parcelated_audio/21/21_21.aiff,,0,4,4,4,,,,,0,20,20,20,,,,,,,,,,,,,,,,,,,,,,,,,,,,,,,,,,,,,,,,,,,,,,,,,,,,,,,,,,,,,,,1331.1226676791732,None,1331.1221923959965,None,9,1.980485759995645,1339.0391462179832,None,1339.0391462179832,None,1339.0391462179832,None,1339.0391462179832,None,,,,,,,,,,,,,,,,,,,,,,,,,,,,,,,,,,,,,,,,,,,,,,,,,,,,091819_p2,001,2019_Sep_18_1531,body_behavioural,3.2.1,59.78447266931412,
4,parcelated_audio/21/21_22.aiff,,0,4,4,4,,,,,0,21,21,21,,,,,,,,,,,,,,,,,,,,,,,,,,,,,,,,,,,,,,,,,,,,,,,,,,,,,,,,,,,,,,,1341.1225806291798,None,1341.1225501559966,None,1,0.5292380169848911,1349.0408247809974,None,1349.0408247809974,None,1349.0408247809974,None,1349.0408247809974,None,,,,,,,,,,,,,,,,,,,,,,,,,,,,,,,,,,,,,,,,,,,,,,,,,,,,091819_p2,001,2019_Sep_18_1531,body_behavioural,3.2.1,59.78447266931412,
4,parcelated_audio/21/21_23.aiff,,0,4,4,4,,,,,0,22,22,22,,,,,,,,,,,,,,,,,,,,,,,,,,,,,,,,,,,,,,,,,,,,,,,,,,,,,,,,,,,,,,,1349.6566975341877,None,1349.6567831029824,None,1,0.8648689699766692,1354.590198882972,None,1354.590198882972,None,1354.590198882972,None,1354.590198882972,None,,,,,,,,,,,,,,,,,,,,,,,,,,,,,,,,,,,,,,,,,,,,,,,,,,,,091819_p2,001,2019_Sep_18_1531,body_behavioural,3.2.1,59.78447266931412,
4,parcelated_audio/21/21_24.aiff,,0,4,4,4,,,,,0,23,23,23,,,,,,,,,,,,,,,,,,,,,,,,,,,,,,,,,,,,,,,,,,,,,,,,,,,,,,,,,,,,,,,1355.5409934441734,None,1355.5402591579768,None,1,0.21330865801428445,1360.1241818129783,None,1360.1241818129783,None,1360.1241818129783,None,1360.1241818129783,None,,,,,,,,,,,,,,,,,,,,,,,,,,,,,,,,,,,,,,,,,,,,,,,,,,,,091819_p2,001,2019_Sep_18_1531,body_behavioural,3.2.1,59.78447266931412,
4,parcelated_audio/21/21_25.aiff,,0,4,4,4,,,,,0,24,24,24,,,,,,,,,,,,,,,,,,,,,,,,,,,,,,,,,,,,,,,,,,,,,,,,,,,,,,,,,,,,,,,1360.4249923461932,None,1360.423915272986,None,1,4.274571539979661,1368.3416710609745,None,1368.3416710609745,None,1368.3416710609745,None,1368.3416710609745,None,,,,,,,,,,,,,,,,,,,,,,,,,,,,,,,,,,,,,,,,,,,,,,,,,,,,091819_p2,001,2019_Sep_18_1531,body_behavioural,3.2.1,59.78447266931412,
4,parcelated_audio/21/21_26.aiff,,0,4,4,4,,,,,0,25,25,25,,,,,,,,,,,,,,,,,,,,,,,,,,,,,,,,,,,,,,,,,,,,,,,,,,,,,,,,,,,,,,,1372.708352051198,None,1372.7086258209893,None,1,1.22293446000549,1376.6927741809923,None,1376.6927741809923,None,1376.6927741809923,None,1376.6927741809923,None,,,,,,,,,,,,,,,,,,,,,,,,,,,,,,,,,,,,,,,,,,,,,,,,,,,,091819_p2,001,2019_Sep_18_1531,body_behavioural,3.2.1,59.78447266931412,
4,parcelated_audio/21/21_27.aiff,,0,4,4,4,,,,,0,26,26,26,,,,,,,,,,,,,,,,,,,,,,,,,,,,,,,,,,,,,,,,,,,,,,,,,,,,,,,,,,,,,,,1378.0252023341775,None,1378.0256385159737,None,1,0.4253530519781634,1385.1936080859741,None,1385.1936080859741,None,1385.1936080859741,None,1385.1936080859741,None,,,,,,,,,,,,,,,,,,,,,,,,,,,,,,,,,,,,,,,,,,,,,,,,,,,,091819_p2,001,2019_Sep_18_1531,body_behavioural,3.2.1,59.78447266931412,
4,parcelated_audio/21/21_28.aiff,,0,4,4,4,,,,,0,27,27,27,,,,,,,,,,,,,,,,,,,,,,,,,,,,,,,,,,,,,,,,,,,,,,,,,,,,,,,,,,,,,,,1385.7099053941959,None,1385.7090438129962,None,1,0.3694005389988888,1391.793928575993,None,1391.793928575993,None,1391.793928575993,None,1391.793928575993,None,,,,,,,,,,,,,,,,,,,,,,,,,,,,,,,,,,,,,,,,,,,,,,,,,,,,091819_p2,001,2019_Sep_18_1531,body_behavioural,3.2.1,59.78447266931412,
4,parcelated_audio/21/21_29.aiff,,0,4,4,4,,,,,0,28,28,28,,,,,,,,,,,,,,,,,,,,,,,,,,,,,,,,,,,,,,,,,,,,,,,,,,,,,,,,,,,,,,,1392.2596658911964,None,1392.25965550798,None,9,0.13932126999134198,1396.4941042879946,None,1396.4941042879946,None,1396.4941042879946,None,1396.4941042879946,None,,,,,,,,,,,,,,,,,,,,,,,,,,,,,,,,,,,,,,,,,,,,,,,,,,,,091819_p2,001,2019_Sep_18_1531,body_behavioural,3.2.1,59.78447266931412,
4,parcelated_audio/21/21_30.aiff,,0,4,4,4,,,,,0,29,29,29,,,,,,,,,,,,,,,,,,,,,,,,,,,,,,,,,,,,,,,,,,,,,,,,,,,,,,,,,,,,,,,1396.7430121991958,None,1396.7430574709724,None,1,0.598808584996732,1402.0271882959933,None,1402.0271882959933,None,1402.0271882959933,None,1402.0271882959933,None,,,,,,,,,,,,,,,,,,,,,,,,,,,,,,,,,,,,,,,,,,,,,,,,,,,,091819_p2,001,2019_Sep_18_1531,body_behavioural,3.2.1,59.78447266931412,
4,,,0,4,4,4,,,,,,,,,,,,,,,,,,,,,,,,,,,,,,,,,,,,,,,,,,,,,,,,,,,,,,,,,,,,,,,,,,,,,,,,,,,,,,,,,,,,,1402.6436898459797,None,1402.6436898459797,None,space,1.1911058199766558,1402.6436898459797,None,,,,,,,,,,,,,,,,,,,,,,,,,,,,,,,,,,,,,,,,,,,,091819_p2,001,2019_Sep_18_1531,body_behavioural,3.2.1,59.78447266931412,
5,,,0,5,5,5,0,0,0,0,,,,,,,,,,,,,,,1403.8776667009806,None,space,0.6311085630150046,1403.8776667009806,None,1403.8776667009806,None,1404.5271461829834,None,space,0.583612271992024,1404.5271461829834,None,1405.1943065959786,None,1405.1943065959786,None,1405.1943065959786,None,1406.0937823009735,None,space,0.6768030500097666,1406.0937823009735,None,1407.0606329979782,None,1407.0606329979782,None,1407.0606329979782,None,1407.0606329979782,None,1407.0606329979782,None,1407.0606329979782,None,1407.0606329979782,None,,,,,,,,,,,,,,,,,,,,,,,,,,,,,,,,,,,,,,,,,,,,,,,,,,,,,,,,,,,,,,,,,,,,,,,,,,,,,,091819_p2,001,2019_Sep_18_1531,body_behavioural,3.2.1,59.78447266931412,
5,,,0,5,5,5,1,0,1,0,,,,,,,,,,,,,,,,,,,,,,,,,,,,,1415.9617498679727,None,1415.9617498679727,None,1415.9617498679727,None,1416.5111788079957,None,space,0.9120796200004406,1416.5111788079957,None,1417.6614625959774,None,1417.6614625959774,None,1417.6614625959774,None,1417.6614625959774,None,1417.6614625959774,None,1417.6614625959774,None,1417.6614625959774,None,,,,,,,,,,,,,,,,,,,,,,,,,,,,,,,,,,,,,,,,,,,,,,,,,,,,,,,,,,,,,,,,,,,,,,,,,,,,,,091819_p2,001,2019_Sep_18_1531,body_behavioural,3.2.1,59.78447266931412,
5,parcelated_audio/31/31_1.aiff,,0,5,5,5,,,,,0,0,0,0,,,,,,,,,,,,,,,,,,,,,,,,,1435.8961182659841,None,1435.8961182659841,None,1435.8961182659841,None,,,,,,,,,,,,,,,,,,,,,1435.1292430029716,None,space,0.6898204750032164,1435.1292430029716,None,1436.7125263159978,None,space,0.8899695750151295,1436.7125263159978,None,1437.8133149191738,None,1437.8129317709827,None,9,1.2392204299976584,1445.7298706559814,None,1445.7298706559814,None,1445.7298706559814,None,1445.7298706559814,None,,,,,,,,,,,,,,,,,,,,,,,,,,,,,,,,,,,,,,,,,,,,,,,,,,,,091819_p2,001,2019_Sep_18_1531,body_behavioural,3.2.1,59.78447266931412,
5,parcelated_audio/31/31_2.aiff,,0,5,5,5,,,,,0,1,1,1,,,,,,,,,,,,,,,,,,,,,,,,,,,,,,,,,,,,,,,,,,,,,,,,,,,,,,,,,,,,,,,1447.0639342041861,None,1447.0632202129927,None,1,1.2316649199929088,1451.4970646129805,None,1451.4970646129805,None,1451.4970646129805,None,1451.4970646129805,None,,,,,,,,,,,,,,,,,,,,,,,,,,,,,,,,,,,,,,,,,,,,,,,,,,,,091819_p2,001,2019_Sep_18_1531,body_behavioural,3.2.1,59.78447266931412,
5,parcelated_audio/31/31_3.aiff,,0,5,5,5,,,,,0,2,2,2,,,,,,,,,,,,,,,,,,,,,,,,,,,,,,,,,,,,,,,,,,,,,,,,,,,,,,,,,,,,,,,1452.8140314861841,None,1452.8139567409817,None,1,0.5673921350098681,1460.7152042959933,None,1460.7152042959933,None,1460.7152042959933,None,1460.7152042959933,None,,,,,,,,,,,,,,,,,,,,,,,,,,,,,,,,,,,,,,,,,,,,,,,,,,,,091819_p2,001,2019_Sep_18_1531,body_behavioural,3.2.1,59.78447266931412,
5,parcelated_audio/31/31_4.aiff,,0,5,5,5,,,,,0,3,3,3,,,,,,,,,,,,,,,,,,,,,,,,,,,,,,,,,,,,,,,,,,,,,,,,,,,,,,,,,,,,,,,1461.3813966641785,None,1461.3814713859756,None,1,2.0946121250162832,1469.2821817429794,None,1469.2821817429794,None,1469.2821817429794,None,1469.2821817429794,None,,,,,,,,,,,,,,,,,,,,,,,,,,,,,,,,,,,,,,,,,,,,,,,,,,,,091819_p2,001,2019_Sep_18_1531,body_behavioural,3.2.1,59.78447266931412,
5,parcelated_audio/31/31_5.aiff,,0,5,5,5,,,,,0,4,4,4,,,,,,,,,,,,,,,,,,,,,,,,,,,,,,,,,,,,,,,,,,,,,,,,,,,,,,,,,,,,,,,1471.465555189195,None,1471.464929475973,None,9,2.3400847270095255,1479.3660505729786,None,1479.3660505729786,None,1479.3660505729786,None,1479.3660505729786,None,,,,,,,,,,,,,,,,,,,,,,,,,,,,,,,,,,,,,,,,,,,,,,,,,,,,091819_p2,001,2019_Sep_18_1531,body_behavioural,3.2.1,59.78447266931412,
5,parcelated_audio/31/31_6.aiff,,0,5,5,5,,,,,0,5,5,5,,,,,,,,,,,,,,,,,,,,,,,,,,,,,,,,,,,,,,,,,,,,,,,,,,,,,,,,,,,,,,,1481.7999039811723,None,1481.7992014729825,None,1,1.1114054600184318,1487.0827511509997,None,1487.0827511509997,None,1487.0827511509997,None,1487.0827511509997,None,,,,,,,,,,,,,,,,,,,,,,,,,,,,,,,,,,,,,,,,,,,,,,,,,,,,091819_p2,001,2019_Sep_18_1531,body_behavioural,3.2.1,59.78447266931412,
5,parcelated_audio/31/31_7.aiff,,0,5,5,5,,,,,0,6,6,6,,,,,,,,,,,,,,,,,,,,,,,,,,,,,,,,,,,,,,,,,,,,,,,,,,,,,,,,,,,,,,,1488.2826961611747,None,1488.282218932989,None,1,1.7190835049841553,1493.133301902999,None,1493.133301902999,None,1493.133301902999,None,1493.133301902999,None,,,,,,,,,,,,,,,,,,,,,,,,,,,,,,,,,,,,,,,,,,,,,,,,,,,,091819_p2,001,2019_Sep_18_1531,body_behavioural,3.2.1,59.78447266931412,
5,parcelated_audio/31/31_8.aiff,,0,5,5,5,,,,,0,7,7,7,,,,,,,,,,,,,,,,,,,,,,,,,,,,,,,,,,,,,,,,,,,,,,,,,,,,,,,,,,,,,,,1494.9504903261725,None,1494.9499015829933,None,1,0.94676497700857,1502.8504709329864,None,1502.8504709329864,None,1502.8504709329864,None,1502.8504709329864,None,,,,,,,,,,,,,,,,,,,,,,,,,,,,,,,,,,,,,,,,,,,,,,,,,,,,091819_p2,001,2019_Sep_18_1531,body_behavioural,3.2.1,59.78447266931412,
5,parcelated_audio/31/31_9.aiff,,0,5,5,5,,,,,0,8,8,8,,,,,,,,,,,,,,,,,,,,,,,,,,,,,,,,,,,,,,,,,,,,,,,,,,,,,,,,,,,,,,,1503.884282709175,None,1503.8838220209873,None,1,1.621646490006242,1508.9509181829926,None,1508.9509181829926,None,1508.9509181829926,None,1508.9509181829926,None,,,,,,,,,,,,,,,,,,,,,,,,,,,,,,,,,,,,,,,,,,,,,,,,,,,,091819_p2,001,2019_Sep_18_1531,body_behavioural,3.2.1,59.78447266931412,
5,parcelated_audio/31/31_10.aiff,,0,5,5,5,,,,,0,9,9,9,,,,,,,,,,,,,,,,,,,,,,,,,,,,,,,,,,,,,,,,,,,,,,,,,,,,,,,,,,,,,,,1510.6844023961924,None,1510.6843580859713,None,1,4.721416445012437,1516.1680926879926,None,1516.1680926879926,None,1516.1680926879926,None,1516.1680926879926,None,,,,,,,,,,,,,,,,,,,,,,,,,,,,,,,,,,,,,,,,,,,,,,,,,,,,091819_p2,001,2019_Sep_18_1531,body_behavioural,3.2.1,59.78447266931412,
5,parcelated_audio/31/31_11.aiff,,0,5,5,5,,,,,0,10,10,10,,,,,,,,,,,,,,,,,,,,,,,,,,,,,,,,,,,,,,,,,,,,,,,,,,,,,,,,,,,,,,,1520.9858437461837,None,1520.984974012972,None,9,1.1811823680181988,1528.8855967759737,None,1528.8855967759737,None,1528.8855967759737,None,1528.8855967759737,None,,,,,,,,,,,,,,,,,,,,,,,,,,,,,,,,,,,,,,,,,,,,,,,,,,,,091819_p2,001,2019_Sep_18_1531,body_behavioural,3.2.1,59.78447266931412,
5,parcelated_audio/31/31_12.aiff,,0,5,5,5,,,,,0,11,11,11,,,,,,,,,,,,,,,,,,,,,,,,,,,,,,,,,,,,,,,,,,,,,,,,,,,,,,,,,,,,,,,1530.1522972191917,None,1530.1524509109731,None,1,0.30596661000163294,1534.9200339059753,None,1534.9200339059753,None,1534.9200339059753,None,1534.9200339059753,None,,,,,,,,,,,,,,,,,,,,,,,,,,,,,,,,,,,,,,,,,,,,,,,,,,,,091819_p2,001,2019_Sep_18_1531,body_behavioural,3.2.1,59.78447266931412,
5,parcelated_audio/31/31_13.aiff,,0,5,5,5,,,,,0,12,12,12,,,,,,,,,,,,,,,,,,,,,,,,,,,,,,,,,,,,,,,,,,,,,,,,,,,,,,,,,,,,,,,1535.319089694199,None,1535.3194073559716,None,1,0.2454952200059779,1542.6375067579793,None,1542.6375067579793,None,1542.6375067579793,None,1542.6375067579793,None,,,,,,,,,,,,,,,,,,,,,,,,,,,,,,,,,,,,,,,,,,,,,,,,,,,,091819_p2,001,2019_Sep_18_1531,body_behavioural,3.2.1,59.78447266931412,
5,parcelated_audio/31/31_14.aiff,,0,5,5,5,,,,,0,13,13,13,,,,,,,,,,,,,,,,,,,,,,,,,,,,,,,,,,,,,,,,,,,,,,,,,,,,,,,,,,,,,,,1542.9706150191953,None,1542.9703001659946,None,1,2.041060616989853,1549.0703520579846,None,1549.0703520579846,None,1549.0703520579846,None,1549.0703520579846,None,,,,,,,,,,,,,,,,,,,,,,,,,,,,,,,,,,,,,,,,,,,,,,,,,,,,091819_p2,001,2019_Sep_18_1531,body_behavioural,3.2.1,59.78447266931412,
5,parcelated_audio/31/31_15.aiff,,0,5,5,5,,,,,0,14,14,14,,,,,,,,,,,,,,,,,,,,,,,,,,,,,,,,,,,,,,,,,,,,,,,,,,,,,,,,,,,,,,,1551.203822334198,None,1551.2038225029828,None,1,0.960791182005778,1557.870886595978,None,1557.870886595978,None,1557.870886595978,None,1557.870886595978,None,,,,,,,,,,,,,,,,,,,,,,,,,,,,,,,,,,,,,,,,,,,,,,,,,,,,091819_p2,001,2019_Sep_18_1531,body_behavioural,3.2.1,59.78447266931412,
5,parcelated_audio/31/31_16.aiff,,0,5,5,5,,,,,0,15,15,15,,,,,,,,,,,,,,,,,,,,,,,,,,,,,,,,,,,,,,,,,,,,,,,,,,,,,,,,,,,,,,,1558.921585196181,None,1558.920910612971,None,1,2.005930615006946,1565.3382041429868,None,1565.3382041429868,None,1565.3382041429868,None,1565.3382041429868,None,,,,,,,,,,,,,,,,,,,,,,,,,,,,,,,,,,,,,,,,,,,,,,,,,,,,091819_p2,001,2019_Sep_18_1531,body_behavioural,3.2.1,59.78447266931412,
5,parcelated_audio/31/31_17.aiff,,0,5,5,5,,,,,0,16,16,16,,,,,,,,,,,,,,,,,,,,,,,,,,,,,,,,,,,,,,,,,,,,,,,,,,,,,,,,,,,,,,,1567.4386986061756,None,1567.4382623679994,None,1,0.8677281519921962,1570.838566157996,None,1570.838566157996,None,1570.838566157996,None,1570.838566157996,None,,,,,,,,,,,,,,,,,,,,,,,,,,,,,,,,,,,,,,,,,,,,,,,,,,,,091819_p2,001,2019_Sep_18_1531,body_behavioural,3.2.1,59.78447266931412,
5,parcelated_audio/31/31_18.aiff,,0,5,5,5,,,,,0,17,17,17,,,,,,,,,,,,,,,,,,,,,,,,,,,,,,,,,,,,,,,,,,,,,,,,,,,,,,,,,,,,,,,1571.805259794189,None,1571.8051899709972,None,9,0.010546930017881095,1576.4223388859828,None,1576.4223388859828,None,1576.4223388859828,None,1576.4223388859828,None,,,,,,,,,,,,,,,,,,,,,,,,,,,,,,,,,,,,,,,,,,,,,,,,,,,,091819_p2,001,2019_Sep_18_1531,body_behavioural,3.2.1,59.78447266931412,
5,parcelated_audio/31/31_19.aiff,,0,5,5,5,,,,,0,18,18,18,,,,,,,,,,,,,,,,,,,,,,,,,,,,,,,,,,,,,,,,,,,,,,,,,,,,,,,,,,,,,,,1576.521844439197,None,1576.5225005409739,None,1,0.4881564450042788,1584.4395519879763,None,1584.4395519879763,None,1584.4395519879763,None,1584.4395519879763,None,,,,,,,,,,,,,,,,,,,,,,,,,,,,,,,,,,,,,,,,,,,,,,,,,,,,091819_p2,001,2019_Sep_18_1531,body_behavioural,3.2.1,59.78447266931412,
5,parcelated_audio/31/31_20.aiff,,0,5,5,5,,,,,0,19,19,19,,,,,,,,,,,,,,,,,,,,,,,,,,,,,,,,,,,,,,,,,,,,,,,,,,,,,,,,,,,,,,,1585.0395189661824,None,1585.0401959179726,None,9,2.34425717999693,1592.9577165059745,None,1592.9577165059745,None,1592.9577165059745,None,1592.9577165059745,None,,,,,,,,,,,,,,,,,,,,,,,,,,,,,,,,,,,,,,,,,,,,,,,,,,,,091819_p2,001,2019_Sep_18_1531,body_behavioural,3.2.1,59.78447266931412,
5,parcelated_audio/31/31_21.aiff,,0,5,5,5,,,,,0,20,20,20,,,,,,,,,,,,,,,,,,,,,,,,,,,,,,,,,,,,,,,,,,,,,,,,,,,,,,,,,,,,,,,1595.390308044199,None,1595.3900881759764,None,1,1.0568142769916449,1603.3074574559869,None,1603.3074574559869,None,1603.3074574559869,None,1603.3074574559869,None,,,,,,,,,,,,,,,,,,,,,,,,,,,,,,,,,,,,,,,,,,,,,,,,,,,,091819_p2,001,2019_Sep_18_1531,body_behavioural,3.2.1,59.78447266931412,
5,parcelated_audio/31/31_22.aiff,,0,5,5,5,,,,,0,21,21,21,,,,,,,,,,,,,,,,,,,,,,,,,,,,,,,,,,,,,,,,,,,,,,,,,,,,,,,,,,,,,,,1604.4745539461903,None,1604.4739146329812,None,1,0.4016189099929761,1610.1747878809983,None,1610.1747878809983,None,1610.1747878809983,None,1610.1747878809983,None,,,,,,,,,,,,,,,,,,,,,,,,,,,,,,,,,,,,,,,,,,,,,,,,,,,,091819_p2,001,2019_Sep_18_1531,body_behavioural,3.2.1,59.78447266931412,
5,parcelated_audio/31/31_23.aiff,,0,5,5,5,,,,,0,22,22,22,,,,,,,,,,,,,,,,,,,,,,,,,,,,,,,,,,,,,,,,,,,,,,,,,,,,,,,,,,,,,,,1610.6754000391986,None,1610.674501898,None,1,0.2596506879781373,1615.275639955973,None,1615.275639955973,None,1615.275639955973,None,1615.275639955973,None,,,,,,,,,,,,,,,,,,,,,,,,,,,,,,,,,,,,,,,,,,,,,,,,,,,,091819_p2,001,2019_Sep_18_1531,body_behavioural,3.2.1,59.78447266931412,
5,parcelated_audio/31/31_24.aiff,,0,5,5,5,,,,,0,23,23,23,,,,,,,,,,,,,,,,,,,,,,,,,,,,,,,,,,,,,,,,,,,,,,,,,,,,,,,,,,,,,,,1615.624679459189,None,1615.6253381429997,None,1,1.1124502870079596,1622.4916939709801,None,1622.4916939709801,None,1622.4916939709801,None,1622.4916939709801,None,,,,,,,,,,,,,,,,,,,,,,,,,,,,,,,,,,,,,,,,,,,,,,,,,,,,091819_p2,001,2019_Sep_18_1531,body_behavioural,3.2.1,59.78447266931412,
5,parcelated_audio/31/31_25.aiff,,0,5,5,5,,,,,0,24,24,24,,,,,,,,,,,,,,,,,,,,,,,,,,,,,,,,,,,,,,,,,,,,,,,,,,,,,,,,,,,,,,,1623.69317884419,None,1623.6928063809755,None,1,1.7819406100024935,1631.6101742429892,None,1631.6101742429892,None,1631.6101742429892,None,1631.6101742429892,None,,,,,,,,,,,,,,,,,,,,,,,,,,,,,,,,,,,,,,,,,,,,,,,,,,,,091819_p2,001,2019_Sep_18_1531,body_behavioural,3.2.1,59.78447266931412,
5,parcelated_audio/31/31_26.aiff,,0,5,5,5,,,,,0,25,25,25,,,,,,,,,,,,,,,,,,,,,,,,,,,,,,,,,,,,,,,,,,,,,,,,,,,,,,,,,,,,,,,1633.4765830691788,None,1633.47673325098,None,1,1.3175333350081928,1640.9932942059822,None,1640.9932942059822,None,1640.9932942059822,None,1640.9932942059822,None,,,,,,,,,,,,,,,,,,,,,,,,,,,,,,,,,,,,,,,,,,,,,,,,,,,,091819_p2,001,2019_Sep_18_1531,body_behavioural,3.2.1,59.78447266931412,
5,parcelated_audio/31/31_27.aiff,,0,5,5,5,,,,,0,26,26,26,,,,,,,,,,,,,,,,,,,,,,,,,,,,,,,,,,,,,,,,,,,,,,,,,,,,,,,,,,,,,,,1642.4107187541842,None,1642.4109903909848,None,9,0.2884461869834922,1646.7942749229842,None,1646.7942749229842,None,1646.7942749229842,None,1646.7942749229842,None,,,,,,,,,,,,,,,,,,,,,,,,,,,,,,,,,,,,,,,,,,,,,,,,,,,,091819_p2,001,2019_Sep_18_1531,body_behavioural,3.2.1,59.78447266931412,
5,parcelated_audio/31/31_28.aiff,,0,5,5,5,,,,,0,27,27,27,,,,,,,,,,,,,,,,,,,,,,,,,,,,,,,,,,,,,,,,,,,,,,,,,,,,,,,,,,,,,,,1647.1775576191897,None,1647.1770714209997,None,1,3.994414587999927,1652.1950229609793,None,1652.1950229609793,None,1652.1950229609793,None,1652.1950229609793,None,,,,,,,,,,,,,,,,,,,,,,,,,,,,,,,,,,,,,,,,,,,,,,,,,,,,091819_p2,001,2019_Sep_18_1531,body_behavioural,3.2.1,59.78447266931412,
5,parcelated_audio/31/31_29.aiff,,0,5,5,5,,,,,0,28,28,28,,,,,,,,,,,,,,,,,,,,,,,,,,,,,,,,,,,,,,,,,,,,,,,,,,,,,,,,,,,,,,,1656.2778535491846,None,1656.2772366979916,None,1,1.37616894999519,1660.5951718909782,None,1660.5951718909782,None,1660.5951718909782,None,1660.5951718909782,None,,,,,,,,,,,,,,,,,,,,,,,,,,,,,,,,,,,,,,,,,,,,,,,,,,,,091819_p2,001,2019_Sep_18_1531,body_behavioural,3.2.1,59.78447266931412,
5,parcelated_audio/31/31_30.aiff,,0,5,5,5,,,,,0,29,29,29,,,,,,,,,,,,,,,,,,,,,,,,,,,,,,,,,,,,,,,,,,,,,,,,,,,,,,,,,,,,,,,1662.0781738091785,None,1662.0787714509934,None,1,2.114889630000107,1665.861787840986,None,1665.861787840986,None,1665.861787840986,None,1665.861787840986,None,,,,,,,,,,,,,,,,,,,,,,,,,,,,,,,,,,,,,,,,,,,,,,,,,,,,091819_p2,001,2019_Sep_18_1531,body_behavioural,3.2.1,59.78447266931412,
5,parcelated_audio/31/31_31.aiff,,0,5,5,5,,,,,0,30,30,30,,,,,,,,,,,,,,,,,,,,,,,,,,,,,,,,,,,,,,,,,,,,,,,,,,,,,,,,,,,,,,,1668.0785403391812,None,1668.0785558459756,None,1,0.9039289070060477,1674.0294220709766,None,1674.0294220709766,None,1674.0294220709766,None,1674.0294220709766,None,,,,,,,,,,,,,,,,,,,,,,,,,,,,,,,,,,,,,,,,,,,,,,,,,,,,091819_p2,001,2019_Sep_18_1531,body_behavioural,3.2.1,59.78447266931412,
5,parcelated_audio/31/31_32.aiff,,0,5,5,5,,,,,0,31,31,31,,,,,,,,,,,,,,,,,,,,,,,,,,,,,,,,,,,,,,,,,,,,,,,,,,,,,,,,,,,,,,,1675.045590676181,None,1675.045509990974,None,9,2.0174047740001697,1682.963162230997,None,1682.963162230997,None,1682.963162230997,None,1682.963162230997,None,,,,,,,,,,,,,,,,,,,,,,,,,,,,,,,,,,,,,,,,,,,,,,,,,,,,091819_p2,001,2019_Sep_18_1531,body_behavioural,3.2.1,59.78447266931412,
5,parcelated_audio/31/31_33.aiff,,0,5,5,5,,,,,0,32,32,32,,,,,,,,,,,,,,,,,,,,,,,,,,,,,,,,,,,,,,,,,,,,,,,,,,,,,,,,,,,,,,,1685.079299621185,None,1685.080540430994,None,1,0.687869346991647,1692.9970124259999,None,1692.9970124259999,None,1692.9970124259999,None,1692.9970124259999,None,,,,,,,,,,,,,,,,,,,,,,,,,,,,,,,,,,,,,,,,,,,,,,,,,,,,091819_p2,001,2019_Sep_18_1531,body_behavioural,3.2.1,59.78447266931412,
5,parcelated_audio/31/31_34.aiff,,0,5,5,5,,,,,0,33,33,33,,,,,,,,,,,,,,,,,,,,,,,,,,,,,,,,,,,,,,,,,,,,,,,,,,,,,,,,,,,,,,,1693.7805555441767,None,1693.7799004429835,None,1,1.38436511499458,1698.1649120859802,None,1698.1649120859802,None,1698.1649120859802,None,1698.1649120859802,None,,,,,,,,,,,,,,,,,,,,,,,,,,,,,,,,,,,,,,,,,,,,,,,,,,,,091819_p2,001,2019_Sep_18_1531,body_behavioural,3.2.1,59.78447266931412,
5,parcelated_audio/31/31_35.aiff,,0,5,5,5,,,,,0,34,34,34,,,,,,,,,,,,,,,,,,,,,,,,,,,,,,,,,,,,,,,,,,,,,,,,,,,,,,,,,,,,,,,1699.6477896511963,None,1699.6480302529817,None,1,1.2943679100135341,1705.3823455579986,None,1705.3823455579986,None,1705.3823455579986,None,1705.3823455579986,None,,,,,,,,,,,,,,,,,,,,,,,,,,,,,,,,,,,,,,,,,,,,,,,,,,,,091819_p2,001,2019_Sep_18_1531,body_behavioural,3.2.1,59.78447266931412,
5,parcelated_audio/31/31_36.aiff,,0,5,5,5,,,,,0,35,35,35,,,,,,,,,,,,,,,,,,,,,,,,,,,,,,,,,,,,,,,,,,,,,,,,,,,,,,,,,,,,,,,1706.7644183191762,None,1706.764431005984,None,1,0.8617927070008591,1713.064960232994,None,1713.064960232994,None,1713.064960232994,None,1713.064960232994,None,,,,,,,,,,,,,,,,,,,,,,,,,,,,,,,,,,,,,,,,,,,,,,,,,,,,091819_p2,001,2019_Sep_18_1531,body_behavioural,3.2.1,59.78447266931412,
5,,,0,5,5,5,,,,,,,,,,,,,,,,,,,,,,,,,,,,,,,,,,,,,,,,,,,,,,,,,,,,,,,,,,,,,,,,,,,,,,,,,,,,,,,,,,,,,1713.9495693529898,None,1713.9495693529898,None,space,1.52488115298911,1713.9495693529898,None,,,,,,,,,,,,,,,,,,,,,,,,,,,,,,,,,,,,,,,,,,,,091819_p2,001,2019_Sep_18_1531,body_behavioural,3.2.1,59.78447266931412,
6,,,0,6,6,6,0,0,0,0,,,,,,,,,,,,,,,1715.5149541079882,None,space,0.962393797992263,1715.5149541079882,None,1715.5149541079882,None,1716.4986667529738,None,space,0.6176736930210609,1716.4986667529738,None,1717.2325205359957,None,1717.2325205359957,None,1717.2325205359957,None,1718.3656846329977,None,space,0.5903800749802031,1718.3656846329977,None,1719.2658007229911,None,1719.2658007229911,None,1719.2658007229911,None,1719.2658007229911,None,1719.2658007229911,None,1719.2658007229911,None,1719.2658007229911,None,,,,,,,,,,,,,,,,,,,,,,,,,,,,,,,,,,,,,,,,,,,,,,,,,,,,,,,,,,,,,,,,,,,,,,,,,,,,,,091819_p2,001,2019_Sep_18_1531,body_behavioural,3.2.1,59.78447266931412,
6,,,0,6,6,6,1,0,1,0,,,,,,,,,,,,,,,,,,,,,,,,,,,,,1730.4171218809788,None,1730.4171218809788,None,1730.4171218809788,None,1730.700400895992,None,space,0.7572300120082218,1730.700400895992,None,1731.7674414209905,None,1731.7674414209905,None,1731.7674414209905,None,1731.7674414209905,None,1731.7674414209905,None,1731.7674414209905,None,1731.7674414209905,None,,,,,,,,,,,,,,,,,,,,,,,,,,,,,,,,,,,,,,,,,,,,,,,,,,,,,,,,,,,,,,,,,,,,,,,,,,,,,,091819_p2,001,2019_Sep_18_1531,body_behavioural,3.2.1,59.78447266931412,
6,parcelated_audio/13/13_1.aiff,,0,6,6,6,,,,,0,0,0,0,,,,,,,,,,,,,,,,,,,,,,,,,1745.017141985998,None,1745.017141985998,None,1745.017141985998,None,,,,,,,,,,,,,,,,,,,,,1744.6015373579867,None,space,0.3407923250051681,1744.6015373579867,None,1745.5170254359837,None,space,1.0301600719976705,1745.5170254359837,None,1746.667132986174,None,1746.6675899259862,None,9,1.6426789500110317,1754.584707935981,None,1754.584707935981,None,1754.584707935981,None,1754.584707935981,None,,,,,,,,,,,,,,,,,,,,,,,,,,,,,,,,,,,,,,,,,,,,,,,,,,,,091819_p2,001,2019_Sep_18_1531,body_behavioural,3.2.1,59.78447266931412,
6,parcelated_audio/13/13_2.aiff,,0,6,6,6,,,,,0,1,1,1,,,,,,,,,,,,,,,,,,,,,,,,,,,,,,,,,,,,,,,,,,,,,,,,,,,,,,,,,,,,,,,1756.3176741191885,None,1756.3178697459807,None,1,0.012462237995350733,1762.4184751929715,None,1762.4184751929715,None,1762.4184751929715,None,1762.4184751929715,None,,,,,,,,,,,,,,,,,,,,,,,,,,,,,,,,,,,,,,,,,,,,,,,,,,,,091819_p2,001,2019_Sep_18_1531,body_behavioural,3.2.1,59.78447266931412,
6,parcelated_audio/13/13_3.aiff,,0,6,6,6,,,,,0,2,2,2,,,,,,,,,,,,,,,,,,,,,,,,,,,,,,,,,,,,,,,,,,,,,,,,,,,,,,,,,,,,,,,1762.5187769791985,None,1762.5184710629983,None,1,1.9050753820047248,1770.4363560259808,None,1770.4363560259808,None,1770.4363560259808,None,1770.4363560259808,None,,,,,,,,,,,,,,,,,,,,,,,,,,,,,,,,,,,,,,,,,,,,,,,,,,,,091819_p2,001,2019_Sep_18_1531,body_behavioural,3.2.1,59.78447266931412,
6,parcelated_audio/13/13_4.aiff,,0,6,6,6,,,,,0,3,3,3,,,,,,,,,,,,,,,,,,,,,,,,,,,,,,,,,,,,,,,,,,,,,,,,,,,,,,,,,,,,,,,1772.4358219561866,None,1772.435555405973,None,9,2.951325710018864,1780.3359804709908,None,1780.3359804709908,None,1780.3359804709908,None,1780.3359804709908,None,,,,,,,,,,,,,,,,,,,,,,,,,,,,,,,,,,,,,,,,,,,,,,,,,,,,091819_p2,001,2019_Sep_18_1531,body_behavioural,3.2.1,59.78447266931412,
6,parcelated_audio/13/13_5.aiff,,0,6,6,6,,,,,0,4,4,4,,,,,,,,,,,,,,,,,,,,,,,,,,,,,,,,,,,,,,,,,,,,,,,,,,,,,,,,,,,,,,,1783.3701480991906,None,1783.3698285629798,None,1,0.6370085119851865,1789.388049940986,None,1789.388049940986,None,1789.388049940986,None,1789.388049940986,None,,,,,,,,,,,,,,,,,,,,,,,,,,,,,,,,,,,,,,,,,,,,,,,,,,,,091819_p2,001,2019_Sep_18_1531,body_behavioural,3.2.1,59.78447266931412,
6,parcelated_audio/13/13_6.aiff,,0,6,6,6,,,,,0,5,5,5,,,,,,,,,,,,,,,,,,,,,,,,,,,,,,,,,,,,,,,,,,,,,,,,,,,,,,,,,,,,,,,1790.1201468411775,None,1790.1209225829807,None,1,1.7802075849904213,1794.8039412409998,None,1794.8039412409998,None,1794.8039412409998,None,1794.8039412409998,None,,,,,,,,,,,,,,,,,,,,,,,,,,,,,,,,,,,,,,,,,,,,,,,,,,,,091819_p2,001,2019_Sep_18_1531,body_behavioural,3.2.1,59.78447266931412,
6,parcelated_audio/13/13_7.aiff,,0,6,6,6,,,,,0,6,6,6,,,,,,,,,,,,,,,,,,,,,,,,,,,,,,,,,,,,,,,,,,,,,,,,,,,,,,,,,,,,,,,1796.6711066361925,None,1796.6708868779824,None,1,1.5204285380023066,1804.304734942998,None,1804.304734942998,None,1804.304734942998,None,1804.304734942998,None,,,,,,,,,,,,,,,,,,,,,,,,,,,,,,,,,,,,,,,,,,,,,,,,,,,,091819_p2,001,2019_Sep_18_1531,body_behavioural,3.2.1,59.78447266931412,
6,parcelated_audio/13/13_8.aiff,,0,6,6,6,,,,,0,7,7,7,,,,,,,,,,,,,,,,,,,,,,,,,,,,,,,,,,,,,,,,,,,,,,,,,,,,,,,,,,,,,,,1805.9212004261965,None,1805.921350470977,None,1,1.2010026549978647,1811.2217752529832,None,1811.2217752529832,None,1811.2217752529832,None,1811.2217752529832,None,,,,,,,,,,,,,,,,,,,,,,,,,,,,,,,,,,,,,,,,,,,,,,,,,,,,091819_p2,001,2019_Sep_18_1531,body_behavioural,3.2.1,59.78447266931412,
6,parcelated_audio/13/13_9.aiff,,0,6,6,6,,,,,0,8,8,8,,,,,,,,,,,,,,,,,,,,,,,,,,,,,,,,,,,,,,,,,,,,,,,,,,,,,,,,,,,,,,,1812.5227260212007,None,1812.5218761029828,None,1,1.745816984999692,1817.1055265709874,None,1817.1055265709874,None,1817.1055265709874,None,1817.1055265709874,None,,,,,,,,,,,,,,,,,,,,,,,,,,,,,,,,,,,,,,,,,,,,,,,,,,,,091819_p2,001,2019_Sep_18_1531,body_behavioural,3.2.1,59.78447266931412,
6,parcelated_audio/13/13_10.aiff,,0,6,6,6,,,,,0,9,9,9,,,,,,,,,,,,,,,,,,,,,,,,,,,,,,,,,,,,,,,,,,,,,,,,,,,,,,,,,,,,,,,1818.9390425491904,None,1818.9390370009933,None,1,1.129917279991787,1824.7059888529766,None,1824.7059888529766,None,1824.7059888529766,None,1824.7059888529766,None,,,,,,,,,,,,,,,,,,,,,,,,,,,,,,,,,,,,,,,,,,,,,,,,,,,,091819_p2,001,2019_Sep_18_1531,body_behavioural,3.2.1,59.78447266931412,
6,parcelated_audio/13/13_11.aiff,,0,6,6,6,,,,,0,10,10,10,,,,,,,,,,,,,,,,,,,,,,,,,,,,,,,,,,,,,,,,,,,,,,,,,,,,,,,,,,,,,,,1825.9235927941802,None,1825.923233125999,None,1,1.2495353750127833,1830.4065430929768,None,1830.4065430929768,None,1830.4065430929768,None,1830.4065430929768,None,,,,,,,,,,,,,,,,,,,,,,,,,,,,,,,,,,,,,,,,,,,,,,,,,,,,091819_p2,001,2019_Sep_18_1531,body_behavioural,3.2.1,59.78447266931412,
6,parcelated_audio/13/13_12.aiff,,0,6,6,6,,,,,0,11,11,11,,,,,,,,,,,,,,,,,,,,,,,,,,,,,,,,,,,,,,,,,,,,,,,,,,,,,,,,,,,,,,,1831.7564047441876,None,1831.7565301309805,None,1,3.032299451995641,1839.6736620609881,None,1839.6736620609881,None,1839.6736620609881,None,1839.6736620609881,None,,,,,,,,,,,,,,,,,,,,,,,,,,,,,,,,,,,,,,,,,,,,,,,,,,,,091819_p2,001,2019_Sep_18_1531,body_behavioural,3.2.1,59.78447266931412,
6,parcelated_audio/13/13_13.aiff,,0,6,6,6,,,,,0,12,12,12,,,,,,,,,,,,,,,,,,,,,,,,,,,,,,,,,,,,,,,,,,,,,,,,,,,,,,,,,,,,,,,1842.807195639197,None,1842.80840391299,None,1,1.1969269720138982,1850.7244143509888,None,1850.7244143509888,None,1850.7244143509888,None,1850.7244143509888,None,,,,,,,,,,,,,,,,,,,,,,,,,,,,,,,,,,,,,,,,,,,,,,,,,,,,091819_p2,001,2019_Sep_18_1531,body_behavioural,3.2.1,59.78447266931412,
6,parcelated_audio/13/13_14.aiff,,0,6,6,6,,,,,0,13,13,13,,,,,,,,,,,,,,,,,,,,,,,,,,,,,,,,,,,,,,,,,,,,,,,,,,,,,,,,,,,,,,,1852.0084677161824,None,1852.007854105992,None,1,5.019144502002746,1859.892963760998,None,1859.892963760998,None,1859.892963760998,None,1859.892963760998,None,,,,,,,,,,,,,,,,,,,,,,,,,,,,,,,,,,,,,,,,,,,,,,,,,,,,091819_p2,001,2019_Sep_18_1531,body_behavioural,3.2.1,59.78447266931412,
6,parcelated_audio/13/13_15.aiff,,0,6,6,6,,,,,0,14,14,14,,,,,,,,,,,,,,,,,,,,,,,,,,,,,,,,,,,,,,,,,,,,,,,,,,,,,,,,,,,,,,,1865.0091856041865,None,1865.0094881459954,None,1,1.111547202017391,1872.9259177729837,None,1872.9259177729837,None,1872.9259177729837,None,1872.9259177729837,None,,,,,,,,,,,,,,,,,,,,,,,,,,,,,,,,,,,,,,,,,,,,,,,,,,,,091819_p2,001,2019_Sep_18_1531,body_behavioural,3.2.1,59.78447266931412,
6,parcelated_audio/13/13_16.aiff,,0,6,6,6,,,,,0,15,15,15,,,,,,,,,,,,,,,,,,,,,,,,,,,,,,,,,,,,,,,,,,,,,,,,,,,,,,,,,,,,,,,1874.126891004201,None,1874.1260078929772,None,1,2.1425452120020054,1876.4105039979913,None,1876.4105039979913,None,1876.4105039979913,None,1876.4105039979913,None,,,,,,,,,,,,,,,,,,,,,,,,,,,,,,,,,,,,,,,,,,,,,,,,,,,,091819_p2,001,2019_Sep_18_1531,body_behavioural,3.2.1,59.78447266931412,
6,parcelated_audio/13/13_17.aiff,,0,6,6,6,,,,,0,16,16,16,,,,,,,,,,,,,,,,,,,,,,,,,,,,,,,,,,,,,,,,,,,,,,,,,,,,,,,,,,,,,,,1878.6433079242008,None,1878.6431620179792,None,9,1.7918264280015137,1885.4608551859856,None,1885.4608551859856,None,1885.4608551859856,None,1885.4608551859856,None,,,,,,,,,,,,,,,,,,,,,,,,,,,,,,,,,,,,,,,,,,,,,,,,,,,,091819_p2,001,2019_Sep_18_1531,body_behavioural,3.2.1,59.78447266931412,
6,parcelated_audio/13/13_18.aiff,,0,6,6,6,,,,,0,17,17,17,,,,,,,,,,,,,,,,,,,,,,,,,,,,,,,,,,,,,,,,,,,,,,,,,,,,,,,,,,,,,,,1887.3436504991726,None,1887.344184540998,None,1,1.0316312770009972,1888.8771946229972,None,1888.8771946229972,None,1888.8771946229972,None,1888.8771946229972,None,,,,,,,,,,,,,,,,,,,,,,,,,,,,,,,,,,,,,,,,,,,,,,,,,,,,091819_p2,001,2019_Sep_18_1531,body_behavioural,3.2.1,59.78447266931412,
6,parcelated_audio/13/13_19.aiff,,0,6,6,6,,,,,0,18,18,18,,,,,,,,,,,,,,,,,,,,,,,,,,,,,,,,,,,,,,,,,,,,,,,,,,,,,,,,,,,,,,,1890.0106842461857,None,1890.0101023699972,None,1,1.3240547919995151,1897.9283340229886,None,1897.9283340229886,None,1897.9283340229886,None,1897.9283340229886,None,,,,,,,,,,,,,,,,,,,,,,,,,,,,,,,,,,,,,,,,,,,,,,,,,,,,091819_p2,001,2019_Sep_18_1531,body_behavioural,3.2.1,59.78447266931412,
6,parcelated_audio/13/13_20.aiff,,0,6,6,6,,,,,0,19,19,19,,,,,,,,,,,,,,,,,,,,,,,,,,,,,,,,,,,,,,,,,,,,,,,,,,,,,,,,,,,,,,,1899.3450427361997,None,1899.3447162959783,None,1,1.5217533520190045,1907.2616870729835,None,1907.2616870729835,None,1907.2616870729835,None,1907.2616870729835,None,,,,,,,,,,,,,,,,,,,,,,,,,,,,,,,,,,,,,,,,,,,,,,,,,,,,091819_p2,001,2019_Sep_18_1531,body_behavioural,3.2.1,59.78447266931412,
6,parcelated_audio/13/13_21.aiff,,0,6,6,6,,,,,0,20,20,20,,,,,,,,,,,,,,,,,,,,,,,,,,,,,,,,,,,,,,,,,,,,,,,,,,,,,,,,,,,,,,,1908.8785204162007,None,1908.8784592109732,None,1,0.6611125849885866,1914.045908175991,None,1914.045908175991,None,1914.045908175991,None,1914.045908175991,None,,,,,,,,,,,,,,,,,,,,,,,,,,,,,,,,,,,,,,,,,,,,,,,,,,,,091819_p2,001,2019_Sep_18_1531,body_behavioural,3.2.1,59.78447266931412,
6,parcelated_audio/13/13_22.aiff,,0,6,6,6,,,,,0,21,21,21,,,,,,,,,,,,,,,,,,,,,,,,,,,,,,,,,,,,,,,,,,,,,,,,,,,,,,,,,,,,,,,1914.7959894642001,None,1914.7965117559943,None,1,1.6966627299843822,1918.0957648609765,None,1918.0957648609765,None,1918.0957648609765,None,1918.0957648609765,None,,,,,,,,,,,,,,,,,,,,,,,,,,,,,,,,,,,,,,,,,,,,,,,,,,,,091819_p2,001,2019_Sep_18_1531,body_behavioural,3.2.1,59.78447266931412,
6,parcelated_audio/13/13_23.aiff,,0,6,6,6,,,,,0,22,22,22,,,,,,,,,,,,,,,,,,,,,,,,,,,,,,,,,,,,,,,,,,,,,,,,,,,,,,,,,,,,,,,1919.8802450091928,None,1919.880164755974,None,1,1.740087845013477,1923.2478190359834,None,1923.2478190359834,None,1923.2478190359834,None,1923.2478190359834,None,,,,,,,,,,,,,,,,,,,,,,,,,,,,,,,,,,,,,,,,,,,,,,,,,,,,091819_p2,001,2019_Sep_18_1531,body_behavioural,3.2.1,59.78447266931412,
