count,audio,trials.thisRepN,trials.thisTrialN,trials.thisN,trials.thisIndex,trials_7.thisRepN,trials_7.thisTrialN,trials_7.thisN,trials_7.thisIndex,trials_2.thisRepN,trials_2.thisTrialN,trials_2.thisN,trials_2.thisIndex,order of stories,order of perspectives,text_38.started,text_38.stopped,key_resp_8.keys,key_resp_8.rt,key_resp_8.started,key_resp_8.stopped,text_39.started,text_39.stopped,text_33.started,text_33.stopped,key_resp_5.keys,key_resp_5.rt,key_resp_5.started,key_resp_5.stopped,text_4.started,text_4.stopped,image.started,image.stopped,text_5.started,text_5.stopped,text_37.started,text_37.stopped,key_resp_7.keys,key_resp_7.rt,key_resp_7.started,key_resp_7.stopped,question1_2.started,question1_2.stopped,question2_2.started,question2_2.stopped,question3_2.started,question3_2.stopped,question4_2.started,question4_2.stopped,question5_2.started,question5_2.stopped,question6_2.started,question6_2.stopped,image_15.started,image_15.stopped,text_49.started,text_49.stopped,key_resp_15.keys,key_resp_15.rt,key_resp_15.started,key_resp_15.stopped,text_50.started,text_50.stopped,key_resp_14.keys,key_resp_14.rt,key_resp_14.started,key_resp_14.stopped,sound_1.started,sound_1.stopped,pic1.started,pic1.stopped,story_presses.keys,story_presses.rt,story_presses.started,story_presses.stopped,image_2.started,image_2.stopped,text_34.started,text_34.stopped,text_35.started,text_35.stopped,text.started,text.stopped,text_52.started,text_52.stopped,key_resp_16.keys,key_resp_16.rt,key_resp_16.started,key_resp_16.stopped,participant,session,date,expName,psychopyVersion,frameRate,
0,,0,0,0,0,0,0,0,0,,,,,[11 41 24 42 12 33 34 23],"['Location' 'Social' 'Location' 'Location' 'Social' 'Location' 'Social'
 'Social']",13.77520709001692,None,space,54.59977021801751,13.77520709001692,None,13.77520709001692,None,68.41284663998522,None,space,1.5664815380005166,68.41284663998522,None,70.33011214400176,None,70.33011214400176,None,70.33011214400176,None,73.4306470080046,None,space,4.296285621006973,73.4306470080046,None,78.0315988950315,None,78.0315988950315,None,78.0315988950315,None,78.0315988950315,None,78.0315988950315,None,78.0315988950315,None,78.0315988950315,None,,,,,,,,,,,,,,,,,,,,,,,,,,,,,,,,,,,092419_p2,001,2019_Sep_24_1613,body_behavioural,3.2.1,60.0992678920452,
0,,0,0,0,0,1,0,1,0,,,,,,,,,,,,,,,,,,,,,102.8483983380138,None,102.8483983380138,None,102.8483983380138,None,103.84890213800827,None,space,0.6072921170271002,103.84890213800827,None,104.6659214849933,None,104.6659214849933,None,104.6659214849933,None,104.6659214849933,None,104.6659214849933,None,104.6659214849933,None,104.6659214849933,None,,,,,,,,,,,,,,,,,,,,,,,,,,,,,,,,,,,092419_p2,001,2019_Sep_24_1613,body_behavioural,3.2.1,60.0992678920452,
0,parcelated_audio/11/11_1.aiff,0,0,0,0,,,,,0,0,0,0,,,,,,,,,,,,,,,,,153.83543760998873,None,153.83543760998873,None,153.83543760998873,None,,,,,,,,,,,,,,,,,,,,,149.95167846302502,None,space,3.8118769919965416,149.95167846302502,None,156.1186405280023,None,space,2.2309096429962665,156.1186405280023,None,158.55273881477768,None,158.5531198050012,None,9,8.725807669979986,170.5362772999797,None,170.5362772999797,None,170.5362772999797,None,170.5362772999797,None,,,,,,,,,092419_p2,001,2019_Sep_24_1613,body_behavioural,3.2.1,60.0992678920452,
0,parcelated_audio/11/11_2.aiff,0,0,0,0,,,,,0,1,1,1,,,,,,,,,,,,,,,,,,,,,,,,,,,,,,,,,,,,,,,,,,,,,,,,,,,,,,,179.35417019982123,None,179.35470222501317,None,1,2.68014726502588,183.80479380500037,None,183.80479380500037,None,183.80479380500037,None,183.80479380500037,None,,,,,,,,,092419_p2,001,2019_Sep_24_1613,body_behavioural,3.2.1,60.0992678920452,
0,parcelated_audio/11/11_3.aiff,0,0,0,0,,,,,0,2,2,2,,,,,,,,,,,,,,,,,,,,,,,,,,,,,,,,,,,,,,,,,,,,,,,,,,,,,,,186.571578104794,None,186.57181063998723,None,1,2.93070050701499,191.55521543999203,None,191.55521543999203,None,191.55521543999203,None,191.55521543999203,None,,,,,,,,,092419_p2,001,2019_Sep_24_1613,body_behavioural,3.2.1,60.0992678920452,
0,parcelated_audio/11/11_4.aiff,0,0,0,0,,,,,0,3,3,3,,,,,,,,,,,,,,,,,,,,,,,,,,,,,,,,,,,,,,,,,,,,,,,,,,,,,,,194.57118298280983,None,194.57140855799662,None,1,3.9807590930140577,203.6386511049932,None,203.6386511049932,None,203.6386511049932,None,203.6386511049932,None,,,,,,,,,092419_p2,001,2019_Sep_24_1613,body_behavioural,3.2.1,60.0992678920452,
0,parcelated_audio/11/11_5.aiff,0,0,0,0,,,,,0,4,4,4,,,,,,,,,,,,,,,,,,,,,,,,,,,,,,,,,,,,,,,,,,,,,,,,,,,,,,,207.70605974980862,None,207.70559574500658,None,9,6.084216006973293,213.40736478503095,None,213.40736478503095,None,213.40736478503095,None,213.40736478503095,None,,,,,,,,,092419_p2,001,2019_Sep_24_1613,body_behavioural,3.2.1,60.0992678920452,
0,parcelated_audio/11/11_6.aiff,0,0,0,0,,,,,0,5,5,5,,,,,,,,,,,,,,,,,,,,,,,,,,,,,,,,,,,,,,,,,,,,,,,,,,,,,,,219.5907199128298,None,219.59078300802503,None,9,1.7637008670135401,224.14015504298732,None,224.14015504298732,None,224.14015504298732,None,224.14015504298732,None,,,,,,,,,092419_p2,001,2019_Sep_24_1613,body_behavioural,3.2.1,60.0992678920452,
0,parcelated_audio/11/11_7.aiff,0,0,0,0,,,,,0,6,6,6,,,,,,,,,,,,,,,,,,,,,,,,,,,,,,,,,,,,,,,,,,,,,,,,,,,,,,,225.990088344831,None,225.99007626302773,None,1,3.0249942379887216,232.5073747180286,None,232.5073747180286,None,232.5073747180286,None,232.5073747180286,None,,,,,,,,,092419_p2,001,2019_Sep_24_1613,body_behavioural,3.2.1,60.0992678920452,
0,parcelated_audio/11/11_8.aiff,0,0,0,0,,,,,0,7,7,7,,,,,,,,,,,,,,,,,,,,,,,,,,,,,,,,,,,,,,,,,,,,,,,,,,,,,,,235.62412524978862,None,235.62428063503467,None,1,2.527892529964447,241.391396549996,None,241.391396549996,None,241.391396549996,None,241.391396549996,None,,,,,,,,,092419_p2,001,2019_Sep_24_1613,body_behavioural,3.2.1,60.0992678920452,
0,parcelated_audio/11/11_9.aiff,0,0,0,0,,,,,0,8,8,8,,,,,,,,,,,,,,,,,,,,,,,,,,,,,,,,,,,,,,,,,,,,,,,,,,,,,,,244.00870762479025,None,244.0082268799888,None,1,4.218080231978092,248.27498319000006,None,248.27498319000006,None,248.27498319000006,None,248.27498319000006,None,,,,,,,,,092419_p2,001,2019_Sep_24_1613,body_behavioural,3.2.1,60.0992678920452,
0,parcelated_audio/11/11_10.aiff,0,0,0,0,,,,,0,9,9,9,,,,,,,,,,,,,,,,,,,,,,,,,,,,,,,,,,,,,,,,,,,,,,,,,,,,,,,252.59274167781695,None,252.59244437300367,None,9,10.779599127010442,257.17676470498554,None,257.17676470498554,None,257.17676470498554,None,257.17676470498554,None,,,,,,,,,092419_p2,001,2019_Sep_24_1613,body_behavioural,3.2.1,60.0992678920452,
0,parcelated_audio/11/11_11.aiff,0,0,0,0,,,,,0,10,10,10,,,,,,,,,,,,,,,,,,,,,,,,,,,,,,,,,,,,,,,,,,,,,,,,,,,,,,,268.0442335848231,None,268.0443151000072,None,1,2.406598102010321,271.2103375250008,None,271.2103375250008,None,271.2103375250008,None,271.2103375250008,None,,,,,,,,,092419_p2,001,2019_Sep_24_1613,body_behavioural,3.2.1,60.0992678920452,
0,parcelated_audio/11/11_12.aiff,0,0,0,0,,,,,0,11,11,11,,,,,,,,,,,,,,,,,,,,,,,,,,,,,,,,,,,,,,,,,,,,,,,,,,,,,,,273.7099961577798,None,273.7109031029977,None,9,5.265531854995061,276.52773659001105,None,276.52773659001105,None,276.52773659001105,None,276.52773659001105,None,,,,,,,,,092419_p2,001,2019_Sep_24_1613,body_behavioural,3.2.1,60.0992678920452,
0,parcelated_audio/11/11_13.aiff,0,0,0,0,,,,,0,12,12,12,,,,,,,,,,,,,,,,,,,,,,,,,,,,,,,,,,,,,,,,,,,,,,,,,,,,,,,281.8782573778182,None,281.8782410250278,None,1,3.237117078038864,285.1782467379817,None,285.1782467379817,None,285.1782467379817,None,285.1782467379817,None,,,,,,,,,092419_p2,001,2019_Sep_24_1613,body_behavioural,3.2.1,60.0992678920452,
0,parcelated_audio/11/11_14.aiff,0,0,0,0,,,,,0,13,13,13,,,,,,,,,,,,,,,,,,,,,,,,,,,,,,,,,,,,,,,,,,,,,,,,,,,,,,,288.51114541977876,None,288.51102935301606,None,1,3.3094039810239337,291.19474036298925,None,291.19474036298925,None,291.19474036298925,None,291.19474036298925,None,,,,,,,,,092419_p2,001,2019_Sep_24_1613,body_behavioural,3.2.1,60.0992678920452,
0,parcelated_audio/11/11_15.aiff,0,0,0,0,,,,,0,14,14,14,,,,,,,,,,,,,,,,,,,,,,,,,,,,,,,,,,,,,,,,,,,,,,,,,,,,,,,294.5951241497998,None,294.5950043600169,None,9,6.147579632000998,305.77918405499076,None,305.77918405499076,None,305.77918405499076,None,305.77918405499076,None,,,,,,,,,092419_p2,001,2019_Sep_24_1613,body_behavioural,3.2.1,60.0992678920452,
0,parcelated_audio/11/11_16.aiff,0,0,0,0,,,,,0,15,15,15,,,,,,,,,,,,,,,,,,,,,,,,,,,,,,,,,,,,,,,,,,,,,,,,,,,,,,,312.01260564981493,None,312.01352764002513,None,1,2.384945775032975,315.0129932250129,None,315.0129932250129,None,315.0129932250129,None,315.0129932250129,None,,,,,,,,,092419_p2,001,2019_Sep_24_1613,body_behavioural,3.2.1,60.0992678920452,
0,parcelated_audio/11/11_17.aiff,0,0,0,0,,,,,0,16,16,16,,,,,,,,,,,,,,,,,,,,,,,,,,,,,,,,,,,,,,,,,,,,,,,,,,,,,,,317.4967500378145,None,317.49646131001646,None,1,1.2347917309962213,324.4476535730064,None,324.4476535730064,None,324.4476535730064,None,324.4476535730064,None,,,,,,,,,092419_p2,001,2019_Sep_24_1613,body_behavioural,3.2.1,60.0992678920452,
0,parcelated_audio/11/11_18.aiff,0,0,0,0,,,,,0,17,17,17,,,,,,,,,,,,,,,,,,,,,,,,,,,,,,,,,,,,,,,,,,,,,,,,,,,,,,,325.79791406278963,None,325.79756642802386,None,1,5.952136830019299,333.2643838400254,None,333.2643838400254,None,333.2643838400254,None,333.2643838400254,None,,,,,,,,,092419_p2,001,2019_Sep_24_1613,body_behavioural,3.2.1,60.0992678920452,
0,parcelated_audio/11/11_19.aiff,0,0,0,0,,,,,0,18,18,18,,,,,,,,,,,,,,,,,,,,,,,,,,,,,,,,,,,,,,,,,,,,,,,,,,,,,,,339.31490932281594,None,339.3148465779959,None,9,13.54818547499599,343.88279811502434,None,343.88279811502434,None,343.88279811502434,None,343.88279811502434,None,,,,,,,,,092419_p2,001,2019_Sep_24_1613,body_behavioural,3.2.1,60.0992678920452,
0,parcelated_audio/11/11_20.aiff,0,0,0,0,,,,,0,19,19,19,,,,,,,,,,,,,,,,,,,,,,,,,,,,,,,,,,,,,,,,,,,,,,,,,,,,,,,357.51673833279636,None,357.51620111998636,None,1,1.5395468049682677,362.45062169001903,None,362.45062169001903,None,362.45062169001903,None,362.45062169001903,None,,,,,,,,,092419_p2,001,2019_Sep_24_1613,body_behavioural,3.2.1,60.0992678920452,
0,parcelated_audio/11/11_21.aiff,0,0,0,0,,,,,0,20,20,20,,,,,,,,,,,,,,,,,,,,,,,,,,,,,,,,,,,,,,,,,,,,,,,,,,,,,,,364.1005177528015,None,364.10005871998146,None,1,2.132535087002907,372.8336728779832,None,372.8336728779832,None,372.8336728779832,None,372.8336728779832,None,,,,,,,,,092419_p2,001,2019_Sep_24_1613,body_behavioural,3.2.1,60.0992678920452,
0,parcelated_audio/11/11_22.aiff,0,0,0,0,,,,,0,21,21,21,,,,,,,,,,,,,,,,,,,,,,,,,,,,,,,,,,,,,,,,,,,,,,,,,,,,,,,375.0503535648342,None,375.05153788998723,None,1,7.176025189983193,378.3507343149977,None,378.3507343149977,None,378.3507343149977,None,378.3507343149977,None,,,,,,,,,092419_p2,001,2019_Sep_24_1613,body_behavioural,3.2.1,60.0992678920452,
0,parcelated_audio/11/11_23.aiff,0,0,0,0,,,,,0,22,22,22,,,,,,,,,,,,,,,,,,,,,,,,,,,,,,,,,,,,,,,,,,,,,,,,,,,,,,,385.61841905983164,None,385.6187047580024,None,1,1.4319832239998505,390.36830435000593,None,390.36830435000593,None,390.36830435000593,None,390.36830435000593,None,,,,,,,,,092419_p2,001,2019_Sep_24_1613,body_behavioural,3.2.1,60.0992678920452,
0,parcelated_audio/11/11_24.aiff,0,0,0,0,,,,,0,23,23,23,,,,,,,,,,,,,,,,,,,,,,,,,,,,,,,,,,,,,,,,,,,,,,,,,,,,,,,391.8848946228274,None,391.88598591298796,None,1,0.5955493230139837,395.50216366001405,None,395.50216366001405,None,395.50216366001405,None,395.50216366001405,None,,,,,,,,,092419_p2,001,2019_Sep_24_1613,body_behavioural,3.2.1,60.0992678920452,
0,parcelated_audio/11/11_25.aiff,0,0,0,0,,,,,0,24,24,24,,,,,,,,,,,,,,,,,,,,,,,,,,,,,,,,,,,,,,,,,,,,,,,,,,,,,,,396.18504128481726,None,396.1853990399977,None,9,1.8802382680005394,400.9191150550032,None,400.9191150550032,None,400.9191150550032,None,400.9191150550032,None,,,,,,,,,092419_p2,001,2019_Sep_24_1613,body_behavioural,3.2.1,60.0992678920452,
0,parcelated_audio/11/11_26.aiff,0,0,0,0,,,,,0,25,25,25,,,,,,,,,,,,,,,,,,,,,,,,,,,,,,,,,,,,,,,,,,,,,,,,,,,,,,,402.8854978898191,None,402.8857535730349,None,1,1.4043723070062697,407.85461626801407,None,407.85461626801407,None,407.85461626801407,None,407.85461626801407,None,,,,,,,,,092419_p2,001,2019_Sep_24_1613,body_behavioural,3.2.1,60.0992678920452,
0,parcelated_audio/11/11_27.aiff,0,0,0,0,,,,,0,26,26,26,,,,,,,,,,,,,,,,,,,,,,,,,,,,,,,,,,,,,,,,,,,,,,,,,,,,,,,409.3365143927978,None,409.3370193000301,None,1,2.920958716014866,413.28666213998804,None,413.28666213998804,None,413.28666213998804,None,413.28666213998804,None,,,,,,,,,092419_p2,001,2019_Sep_24_1613,body_behavioural,3.2.1,60.0992678920452,
0,parcelated_audio/11/11_28.aiff,0,0,0,0,,,,,0,27,27,27,,,,,,,,,,,,,,,,,,,,,,,,,,,,,,,,,,,,,,,,,,,,,,,,,,,,,,,416.3031789628323,None,416.3033570330008,None,1,8.495400482963305,419.70465523499297,None,419.70465523499297,None,419.70465523499297,None,419.70465523499297,None,,,,,,,,,092419_p2,001,2019_Sep_24_1613,body_behavioural,3.2.1,60.0992678920452,
0,parcelated_audio/11/11_29.aiff,0,0,0,0,,,,,0,28,28,28,,,,,,,,,,,,,,,,,,,,,,,,,,,,,,,,,,,,,,,,,,,,,,,,,,,,,,,428.2877585047856,None,428.2877882400062,None,1,3.882433080987539,432.4552646499942,None,432.4552646499942,None,432.4552646499942,None,432.4552646499942,None,,,,,,,,,092419_p2,001,2019_Sep_24_1613,body_behavioural,3.2.1,60.0992678920452,
0,parcelated_audio/11/11_30.aiff,0,0,0,0,,,,,0,29,29,29,,,,,,,,,,,,,,,,,,,,,,,,,,,,,,,,,,,,,,,,,,,,,,,,,,,,,,,436.4221811527852,None,436.42147547000786,None,1,2.689354629954323,440.92176614003256,None,440.92176614003256,None,440.92176614003256,None,440.92176614003256,None,,,,,,,,,092419_p2,001,2019_Sep_24_1613,body_behavioural,3.2.1,60.0992678920452,
0,parcelated_audio/11/11_31.aiff,0,0,0,0,,,,,0,30,30,30,,,,,,,,,,,,,,,,,,,,,,,,,,,,,,,,,,,,,,,,,,,,,,,,,,,,,,,443.705190294818,None,443.70524313801434,None,1,3.0572814499610104,448.55562524998095,None,448.55562524998095,None,448.55562524998095,None,448.55562524998095,None,,,,,,,,,092419_p2,001,2019_Sep_24_1613,body_behavioural,3.2.1,60.0992678920452,
0,parcelated_audio/11/11_32.aiff,0,0,0,0,,,,,0,31,31,31,,,,,,,,,,,,,,,,,,,,,,,,,,,,,,,,,,,,,,,,,,,,,,,,,,,,,,,451.7066343197832,None,451.7059480249882,None,9,5.900758026982658,455.75602152303327,None,455.75602152303327,None,455.75602152303327,None,455.75602152303327,None,,,,,,,,,092419_p2,001,2019_Sep_24_1613,body_behavioural,3.2.1,60.0992678920452,
0,parcelated_audio/11/11_33.aiff,0,0,0,0,,,,,0,32,32,32,,,,,,,,,,,,,,,,,,,,,,,,,,,,,,,,,,,,,,,,,,,,,,,,,,,,,,,461.74096814780495,None,461.7406932800077,None,1,2.24607560998993,464.24001498299185,None,464.24001498299185,None,464.24001498299185,None,464.24001498299185,None,,,,,,,,,092419_p2,001,2019_Sep_24_1613,body_behavioural,3.2.1,60.0992678920452,
0,parcelated_audio/11/11_34.aiff,0,0,0,0,,,,,0,33,33,33,,,,,,,,,,,,,,,,,,,,,,,,,,,,,,,,,,,,,,,,,,,,,,,,,,,,,,,466.5739978747908,None,466.57415794802364,None,1,1.0559390650014393,469.87368404801236,None,469.87368404801236,None,469.87368404801236,None,469.87368404801236,None,,,,,,,,,092419_p2,001,2019_Sep_24_1613,body_behavioural,3.2.1,60.0992678920452,
0,parcelated_audio/11/11_35.aiff,0,0,0,0,,,,,0,34,34,34,,,,,,,,,,,,,,,,,,,,,,,,,,,,,,,,,,,,,,,,,,,,,,,,,,,,,,,471.02375688280443,None,471.0248265049886,None,1,1.5056841290206648,475.3740975499968,None,475.3740975499968,None,475.3740975499968,None,475.3740975499968,None,,,,,,,,,092419_p2,001,2019_Sep_24_1613,body_behavioural,3.2.1,60.0992678920452,
0,parcelated_audio/11/11_36.aiff,0,0,0,0,,,,,0,35,35,35,,,,,,,,,,,,,,,,,,,,,,,,,,,,,,,,,,,,,,,,,,,,,,,,,,,,,,,476.99078611481235,None,476.99177138798404,None,9,3.429455359990243,486.0092472700053,None,486.0092472700053,None,486.0092472700053,None,486.0092472700053,None,,,,,,,,,092419_p2,001,2019_Sep_24_1613,body_behavioural,3.2.1,60.0992678920452,
0,parcelated_audio/11/11_37.aiff,0,0,0,0,,,,,0,36,36,36,,,,,,,,,,,,,,,,,,,,,,,,,,,,,,,,,,,,,,,,,,,,,,,,,,,,,,,489.5249552497873,None,489.5252230379847,None,1,3.571724569017533,493.6603527329862,None,493.6603527329862,None,493.6603527329862,None,493.6603527329862,None,,,,,,,,,092419_p2,001,2019_Sep_24_1613,body_behavioural,3.2.1,60.0992678920452,
0,parcelated_audio/11/11_38.aiff,0,0,0,0,,,,,0,37,37,37,,,,,,,,,,,,,,,,,,,,,,,,,,,,,,,,,,,,,,,,,,,,,,,,,,,,,,,497.3261107198079,None,497.3255643550074,None,1,1.7298679549712688,503.4592858760152,None,503.4592858760152,None,503.4592858760152,None,503.4592858760152,None,,,,,,,,,092419_p2,001,2019_Sep_24_1613,body_behavioural,3.2.1,60.0992678920452,
0,parcelated_audio/11/11_39.aiff,0,0,0,0,,,,,0,38,38,38,,,,,,,,,,,,,,,,,,,,,,,,,,,,,,,,,,,,,,,,,,,,,,,,,,,,,,,505.27683278783223,None,505.27658731502015,None,9,7.469889109022915,510.47721812297823,None,510.47721812297823,None,510.47721812297823,None,510.47721812297823,None,,,,,,,,,092419_p2,001,2019_Sep_24_1613,body_behavioural,3.2.1,60.0992678920452,
0,parcelated_audio/11/11_40.aiff,0,0,0,0,,,,,0,39,39,39,,,,,,,,,,,,,,,,,,,,,,,,,,,,,,,,,,,,,,,,,,,,,,,,,,,,,,,518.0443805648131,None,518.0435630099964,None,1,0.9484390419675037,523.6626483050059,None,523.6626483050059,None,523.6626483050059,None,523.6626483050059,None,,,,,,,,,092419_p2,001,2019_Sep_24_1613,body_behavioural,3.2.1,60.0992678920452,
0,parcelated_audio/11/11_41.aiff,0,0,0,0,,,,,0,40,40,40,,,,,,,,,,,,,,,,,,,,,,,,,,,,,,,,,,,,,,,,,,,,,,,,,,,,,,,524.6944342427771,None,524.6948465179885,None,1,1.6744101329823025,530.8286868249997,None,530.8286868249997,None,530.8286868249997,None,530.8286868249997,None,,,,,,,,,092419_p2,001,2019_Sep_24_1613,body_behavioural,3.2.1,60.0992678920452,
0,,0,0,0,0,,,,,,,,,,,,,,,,,,,,,,,,,,,,,,,,,,,,,,,,,,,,,,,,,,,,,,,,,,,,,,,,,,,,,,,,,,,,,532.5448606830323,None,532.5448606830323,None,space,4.684511620027479,532.5448606830323,None,092419_p2,001,2019_Sep_24_1613,body_behavioural,3.2.1,60.0992678920452,
1,,0,1,1,1,0,0,0,0,,,,,,,537.278490303026,None,space,4.717819837969728,537.278490303026,None,537.278490303026,None,542.0292069599964,None,space,5.574186954996549,542.0292069599964,None,547.695778148016,None,547.695778148016,None,547.695778148016,None,550.9792529700208,None,space,3.5539157980238087,550.9792529700208,None,554.8961844150326,None,554.8961844150326,None,554.8961844150326,None,554.8961844150326,None,554.8961844150326,None,554.8961844150326,None,554.8961844150326,None,,,,,,,,,,,,,,,,,,,,,,,,,,,,,,,,,,,092419_p2,001,2019_Sep_24_1613,body_behavioural,3.2.1,60.0992678920452,
1,parcelated_audio/41/41_1.aiff,0,1,1,1,,,,,0,0,0,0,,,,,,,,,,,,,,,,,595.2990462550079,None,595.2990462550079,None,595.2990462550079,None,,,,,,,,,,,,,,,,,,,,,590.8986399500282,None,space,4.31905737699708,590.8986399500282,None,598.1824529750156,None,space,1.6438456869800575,598.1824529750156,None,600.0159477448208,None,600.0166702480055,None,1,6.034677982039284,609.116757515003,None,609.116757515003,None,609.116757515003,None,609.116757515003,None,,,,,,,,,092419_p2,001,2019_Sep_24_1613,body_behavioural,3.2.1,60.0992678920452,
1,parcelated_audio/41/41_2.aiff,0,1,1,1,,,,,0,1,1,1,,,,,,,,,,,,,,,,,,,,,,,,,,,,,,,,,,,,,,,,,,,,,,,,,,,,,,,615.2670198248118,None,615.2679327600054,None,1,0.7766594500280917,622.5180002650013,None,622.5180002650013,None,622.5180002650013,None,622.5180002650013,None,,,,,,,,,092419_p2,001,2019_Sep_24_1613,body_behavioural,3.2.1,60.0992678920452,
1,parcelated_audio/41/41_3.aiff,0,1,1,1,,,,,0,2,2,2,,,,,,,,,,,,,,,,,,,,,,,,,,,,,,,,,,,,,,,,,,,,,,,,,,,,,,,623.3844165627845,None,623.3852744299802,None,1,1.9055127619649284,627.668512512988,None,627.668512512988,None,627.668512512988,None,627.668512512988,None,,,,,,,,,092419_p2,001,2019_Sep_24_1613,body_behavioural,3.2.1,60.0992678920452,
1,parcelated_audio/41/41_4.aiff,0,1,1,1,,,,,0,3,3,3,,,,,,,,,,,,,,,,,,,,,,,,,,,,,,,,,,,,,,,,,,,,,,,,,,,,,,,629.6680695948191,None,629.669110679999,None,1,0.5012832350330427,633.6180953800213,None,633.6180953800213,None,633.6180953800213,None,633.6180953800213,None,,,,,,,,,092419_p2,001,2019_Sep_24_1613,body_behavioural,3.2.1,60.0992678920452,
1,parcelated_audio/41/41_5.aiff,0,1,1,1,,,,,0,4,4,4,,,,,,,,,,,,,,,,,,,,,,,,,,,,,,,,,,,,,,,,,,,,,,,,,,,,,,,634.2025348748314,None,634.2024999500136,None,1,2.009133185027167,640.3192891249782,None,640.3192891249782,None,640.3192891249782,None,640.3192891249782,None,,,,,,,,,092419_p2,001,2019_Sep_24_1613,body_behavioural,3.2.1,60.0992678920452,
1,parcelated_audio/41/41_6.aiff,0,1,1,1,,,,,0,5,5,5,,,,,,,,,,,,,,,,,,,,,,,,,,,,,,,,,,,,,,,,,,,,,,,,,,,,,,,642.4364441588289,None,642.4361395860324,None,9,2.466552325000521,652.3537664699834,None,652.3537664699834,None,652.3537664699834,None,652.3537664699834,None,,,,,,,,,092419_p2,001,2019_Sep_24_1613,body_behavioural,3.2.1,60.0992678920452,
1,parcelated_audio/41/41_7.aiff,0,1,1,1,,,,,0,6,6,6,,,,,,,,,,,,,,,,,,,,,,,,,,,,,,,,,,,,,,,,,,,,,,,,,,,,,,,654.919858499826,None,654.9198916649912,None,9,7.703907724993769,662.6370208699955,None,662.6370208699955,None,662.6370208699955,None,662.6370208699955,None,,,,,,,,,092419_p2,001,2019_Sep_24_1613,body_behavioural,3.2.1,60.0992678920452,
1,parcelated_audio/41/41_8.aiff,0,1,1,1,,,,,0,7,7,7,,,,,,,,,,,,,,,,,,,,,,,,,,,,,,,,,,,,,,,,,,,,,,,,,,,,,,,670.454453741829,None,670.4544122020015,None,1,0.46541089500533417,674.6884611240239,None,674.6884611240239,None,674.6884611240239,None,674.6884611240239,None,,,,,,,,,092419_p2,001,2019_Sep_24_1613,body_behavioural,3.2.1,60.0992678920452,
1,parcelated_audio/41/41_9.aiff,0,1,1,1,,,,,0,8,8,8,,,,,,,,,,,,,,,,,,,,,,,,,,,,,,,,,,,,,,,,,,,,,,,,,,,,,,,675.2382011997863,None,675.2378952080035,None,1,1.036188238998875,684.8718337850296,None,684.8718337850296,None,684.8718337850296,None,684.8718337850296,None,,,,,,,,,092419_p2,001,2019_Sep_24_1613,body_behavioural,3.2.1,60.0992678920452,
1,parcelated_audio/41/41_10.aiff,0,1,1,1,,,,,0,9,9,9,,,,,,,,,,,,,,,,,,,,,,,,,,,,,,,,,,,,,,,,,,,,,,,,,,,,,,,686.005164269812,None,686.0053457430331,None,9,9.169994954019785,692.5058259380166,None,692.5058259380166,None,692.5058259380166,None,692.5058259380166,None,,,,,,,,,092419_p2,001,2019_Sep_24_1613,body_behavioural,3.2.1,60.0992678920452,
1,parcelated_audio/41/41_11.aiff,0,1,1,1,,,,,0,10,10,10,,,,,,,,,,,,,,,,,,,,,,,,,,,,,,,,,,,,,,,,,,,,,,,,,,,,,,,701.7729682598031,None,701.7731411600253,None,1,0.8586279000155628,705.5232317579794,None,705.5232317579794,None,705.5232317579794,None,705.5232317579794,None,,,,,,,,,092419_p2,001,2019_Sep_24_1613,body_behavioural,3.2.1,60.0992678920452,
1,parcelated_audio/41/41_12.aiff,0,1,1,1,,,,,0,11,11,11,,,,,,,,,,,,,,,,,,,,,,,,,,,,,,,,,,,,,,,,,,,,,,,,,,,,,,,706.4731655028183,None,706.4738422600203,None,1,2.422582949977368,716.1914120230358,None,716.1914120230358,None,716.1914120230358,None,716.1914120230358,None,,,,,,,,,092419_p2,001,2019_Sep_24_1613,body_behavioural,3.2.1,60.0992678920452,
1,parcelated_audio/41/41_13.aiff,0,1,1,1,,,,,0,12,12,12,,,,,,,,,,,,,,,,,,,,,,,,,,,,,,,,,,,,,,,,,,,,,,,,,,,,,,,718.707461132831,None,718.7075442200294,None,1,1.4484728829702362,724.5088432449847,None,724.5088432449847,None,724.5088432449847,None,724.5088432449847,None,,,,,,,,,092419_p2,001,2019_Sep_24_1613,body_behavioural,3.2.1,60.0992678920452,
1,parcelated_audio/41/41_14.aiff,0,1,1,1,,,,,0,13,13,13,,,,,,,,,,,,,,,,,,,,,,,,,,,,,,,,,,,,,,,,,,,,,,,,,,,,,,,726.0414268448251,None,726.0422567549977,None,9,0.9966448320192285,733.2586546079838,None,733.2586546079838,None,733.2586546079838,None,733.2586546079838,None,,,,,,,,,092419_p2,001,2019_Sep_24_1613,body_behavioural,3.2.1,60.0992678920452,
1,parcelated_audio/41/41_15.aiff,0,1,1,1,,,,,0,14,14,14,,,,,,,,,,,,,,,,,,,,,,,,,,,,,,,,,,,,,,,,,,,,,,,,,,,,,,,734.3426750228275,None,734.3420583630214,None,1,1.7161672199727036,737.7431248000357,None,737.7431248000357,None,737.7431248000357,None,737.7431248000357,None,,,,,,,,,092419_p2,001,2019_Sep_24_1613,body_behavioural,3.2.1,60.0992678920452,
1,parcelated_audio/41/41_16.aiff,0,1,1,1,,,,,0,15,15,15,,,,,,,,,,,,,,,,,,,,,,,,,,,,,,,,,,,,,,,,,,,,,,,,,,,,,,,739.5591131948051,None,739.5591068000067,None,9,2.6513420649571344,744.3925559350173,None,744.3925559350173,None,744.3925559350173,None,744.3925559350173,None,,,,,,,,,092419_p2,001,2019_Sep_24_1613,body_behavioural,3.2.1,60.0992678920452,
1,parcelated_audio/41/41_17.aiff,0,1,1,1,,,,,0,16,16,16,,,,,,,,,,,,,,,,,,,,,,,,,,,,,,,,,,,,,,,,,,,,,,,,,,,,,,,747.1265129347914,None,747.1262304880074,None,1,0.9080553950043395,751.3109221149934,None,751.3109221149934,None,751.3109221149934,None,751.3109221149934,None,,,,,,,,,092419_p2,001,2019_Sep_24_1613,body_behavioural,3.2.1,60.0992678920452,
1,parcelated_audio/41/41_18.aiff,0,1,1,1,,,,,0,17,17,17,,,,,,,,,,,,,,,,,,,,,,,,,,,,,,,,,,,,,,,,,,,,,,,,,,,,,,,752.3096654498252,None,752.3100108579965,None,1,3.1661427379585803,754.8101061999914,None,754.8101061999914,None,754.8101061999914,None,754.8101061999914,None,,,,,,,,,092419_p2,001,2019_Sep_24_1613,body_behavioural,3.2.1,60.0992678920452,
1,parcelated_audio/41/41_19.aiff,0,1,1,1,,,,,0,18,18,18,,,,,,,,,,,,,,,,,,,,,,,,,,,,,,,,,,,,,,,,,,,,,,,,,,,,,,,758.0778207798023,None,758.0772640320356,None,1,5.221245868015103,764.9607327129925,None,764.9607327129925,None,764.9607327129925,None,764.9607327129925,None,,,,,,,,,092419_p2,001,2019_Sep_24_1613,body_behavioural,3.2.1,60.0992678920452,
1,parcelated_audio/41/41_20.aiff,0,1,1,1,,,,,0,19,19,19,,,,,,,,,,,,,,,,,,,,,,,,,,,,,,,,,,,,,,,,,,,,,,,,,,,,,,,770.261243027798,None,770.2611687600147,None,1,1.435385363001842,775.1788448430016,None,775.1788448430016,None,775.1788448430016,None,775.1788448430016,None,,,,,,,,,092419_p2,001,2019_Sep_24_1613,body_behavioural,3.2.1,60.0992678920452,
1,parcelated_audio/41/41_21.aiff,0,1,1,1,,,,,0,20,20,20,,,,,,,,,,,,,,,,,,,,,,,,,,,,,,,,,,,,,,,,,,,,,,,,,,,,,,,776.7115095347865,None,776.7116019430105,None,1,4.77738407702418,784.5120941079804,None,784.5120941079804,None,784.5120941079804,None,784.5120941079804,None,,,,,,,,,092419_p2,001,2019_Sep_24_1613,body_behavioural,3.2.1,60.0992678920452,
1,parcelated_audio/41/41_22.aiff,0,1,1,1,,,,,0,21,21,21,,,,,,,,,,,,,,,,,,,,,,,,,,,,,,,,,,,,,,,,,,,,,,,,,,,,,,,789.4294788897853,None,789.4301900680293,None,9,5.423502825025935,801.3972361750202,None,801.3972361750202,None,801.3972361750202,None,801.3972361750202,None,,,,,,,,,092419_p2,001,2019_Sep_24_1613,body_behavioural,3.2.1,60.0992678920452,
1,parcelated_audio/41/41_23.aiff,0,1,1,1,,,,,0,22,22,22,,,,,,,,,,,,,,,,,,,,,,,,,,,,,,,,,,,,,,,,,,,,,,,,,,,,,,,806.9136487328099,None,806.9148270629812,None,9,6.467789177026134,812.8978867760161,None,812.8978867760161,None,812.8978867760161,None,812.8978867760161,None,,,,,,,,,092419_p2,001,2019_Sep_24_1613,body_behavioural,3.2.1,60.0992678920452,
1,parcelated_audio/41/41_24.aiff,0,1,1,1,,,,,0,23,23,23,,,,,,,,,,,,,,,,,,,,,,,,,,,,,,,,,,,,,,,,,,,,,,,,,,,,,,,819.4810545248213,None,819.4812463250128,None,1,1.9177294500404969,826.1150295850239,None,826.1150295850239,None,826.1150295850239,None,826.1150295850239,None,,,,,,,,,092419_p2,001,2019_Sep_24_1613,body_behavioural,3.2.1,60.0992678920452,
1,parcelated_audio/41/41_25.aiff,0,1,1,1,,,,,0,24,24,24,,,,,,,,,,,,,,,,,,,,,,,,,,,,,,,,,,,,,,,,,,,,,,,,,,,,,,,828.1315915608313,None,828.1322982180282,None,1,0.6333984319935553,831.3828375479789,None,831.3828375479789,None,831.3828375479789,None,831.3828375479789,None,,,,,,,,,092419_p2,001,2019_Sep_24_1613,body_behavioural,3.2.1,60.0992678920452,
1,parcelated_audio/41/41_26.aiff,0,1,1,1,,,,,0,25,25,25,,,,,,,,,,,,,,,,,,,,,,,,,,,,,,,,,,,,,,,,,,,,,,,,,,,,,,,832.1154571628315,None,832.1160505299922,None,1,1.4902516279835254,837.6157843380352,None,837.6157843380352,None,837.6157843380352,None,837.6157843380352,None,,,,,,,,,092419_p2,001,2019_Sep_24_1613,body_behavioural,3.2.1,60.0992678920452,
1,parcelated_audio/41/41_27.aiff,0,1,1,1,,,,,0,26,26,26,,,,,,,,,,,,,,,,,,,,,,,,,,,,,,,,,,,,,,,,,,,,,,,,,,,,,,,839.1992211398203,None,839.1992263899883,None,1,0.7070177500136197,843.0333376000053,None,843.0333376000053,None,843.0333376000053,None,843.0333376000053,None,,,,,,,,,092419_p2,001,2019_Sep_24_1613,body_behavioural,3.2.1,60.0992678920452,
1,parcelated_audio/41/41_28.aiff,0,1,1,1,,,,,0,27,27,27,,,,,,,,,,,,,,,,,,,,,,,,,,,,,,,,,,,,,,,,,,,,,,,,,,,,,,,843.8335045478191,None,843.8335426250123,None,9,1.1163519969559275,852.167484154983,None,852.167484154983,None,852.167484154983,None,852.167484154983,None,,,,,,,,,092419_p2,001,2019_Sep_24_1613,body_behavioural,3.2.1,60.0992678920452,
1,parcelated_audio/41/41_29.aiff,0,1,1,1,,,,,0,28,28,28,,,,,,,,,,,,,,,,,,,,,,,,,,,,,,,,,,,,,,,,,,,,,,,,,,,,,,,853.3839607697912,None,853.3835777980275,None,1,0.45896955498028547,859.9839686399791,None,859.9839686399791,None,859.9839686399791,None,859.9839686399791,None,,,,,,,,,092419_p2,001,2019_Sep_24_1613,body_behavioural,3.2.1,60.0992678920452,
1,parcelated_audio/41/41_30.aiff,0,1,1,1,,,,,0,29,29,29,,,,,,,,,,,,,,,,,,,,,,,,,,,,,,,,,,,,,,,,,,,,,,,,,,,,,,,860.5339799398091,None,860.534066828026,None,1,4.307284337992314,869.2354013349977,None,869.2354013349977,None,869.2354013349977,None,869.2354013349977,None,,,,,,,,,092419_p2,001,2019_Sep_24_1613,body_behavioural,3.2.1,60.0992678920452,
1,parcelated_audio/41/41_31.aiff,0,1,1,1,,,,,0,30,30,30,,,,,,,,,,,,,,,,,,,,,,,,,,,,,,,,,,,,,,,,,,,,,,,,,,,,,,,873.6683561528218,None,873.6685241879895,None,1,0.5456947700004093,884.4024454199825,None,884.4024454199825,None,884.4024454199825,None,884.4024454199825,None,,,,,,,,,092419_p2,001,2019_Sep_24_1613,body_behavioural,3.2.1,60.0992678920452,
1,parcelated_audio/41/41_32.aiff,0,1,1,1,,,,,0,31,31,31,,,,,,,,,,,,,,,,,,,,,,,,,,,,,,,,,,,,,,,,,,,,,,,,,,,,,,,885.0357606278151,None,885.0358529000077,None,9,4.010356347018387,893.3696773850243,None,893.3696773850243,None,893.3696773850243,None,893.3696773850243,None,,,,,,,,,092419_p2,001,2019_Sep_24_1613,body_behavioural,3.2.1,60.0992678920452,
1,parcelated_audio/41/41_33.aiff,0,1,1,1,,,,,0,32,32,32,,,,,,,,,,,,,,,,,,,,,,,,,,,,,,,,,,,,,,,,,,,,,,,,,,,,,,,897.4536488667829,None,897.4532231580233,None,1,0.27406973799224943,901.520198447979,None,901.520198447979,None,901.520198447979,None,901.520198447979,None,,,,,,,,,092419_p2,001,2019_Sep_24_1613,body_behavioural,3.2.1,60.0992678920452,
1,parcelated_audio/41/41_34.aiff,0,1,1,1,,,,,0,33,33,33,,,,,,,,,,,,,,,,,,,,,,,,,,,,,,,,,,,,,,,,,,,,,,,,,,,,,,,901.8875400178251,None,901.8878999099834,None,1,1.0954310750239529,907.3717152650352,None,907.3717152650352,None,907.3717152650352,None,907.3717152650352,None,,,,,,,,,092419_p2,001,2019_Sep_24_1613,body_behavioural,3.2.1,60.0992678920452,
1,parcelated_audio/41/41_35.aiff,0,1,1,1,,,,,0,34,34,34,,,,,,,,,,,,,,,,,,,,,,,,,,,,,,,,,,,,,,,,,,,,,,,,,,,,,,,908.5545521798078,None,908.5542389079928,None,9,5.163349014997948,914.0044857750181,None,914.0044857750181,None,914.0044857750181,None,914.0044857750181,None,,,,,,,,,092419_p2,001,2019_Sep_24_1613,body_behavioural,3.2.1,60.0992678920452,
1,parcelated_audio/41/41_36.aiff,0,1,1,1,,,,,0,35,35,35,,,,,,,,,,,,,,,,,,,,,,,,,,,,,,,,,,,,,,,,,,,,,,,,,,,,,,,919.2387227478205,None,919.238167160016,None,1,1.731755922024604,926.2229042580002,None,926.2229042580002,None,926.2229042580002,None,926.2229042580002,None,,,,,,,,,092419_p2,001,2019_Sep_24_1613,body_behavioural,3.2.1,60.0992678920452,
1,parcelated_audio/41/41_37.aiff,0,1,1,1,,,,,0,36,36,36,,,,,,,,,,,,,,,,,,,,,,,,,,,,,,,,,,,,,,,,,,,,,,,,,,,,,,,928.0393133677892,None,928.0394824480172,None,1,2.1364211660111323,933.5232066659955,None,933.5232066659955,None,933.5232066659955,None,933.5232066659955,None,,,,,,,,,092419_p2,001,2019_Sep_24_1613,body_behavioural,3.2.1,60.0992678920452,
1,,0,1,1,1,,,,,,,,,,,,,,,,,,,,,,,,,,,,,,,,,,,,,,,,,,,,,,,,,,,,,,,,,,,,,,,,,,,,,,,,,,,,,935.7067376530031,None,935.7067376530031,None,space,5.872281136980746,935.7067376530031,None,092419_p2,001,2019_Sep_24_1613,body_behavioural,3.2.1,60.0992678920452,
2,,0,2,2,2,0,0,0,0,,,,,,,941.6069996830192,None,space,7.037440272048116,941.6069996830192,None,941.6069996830192,None,948.6734891480301,None,space,2.7343231050181203,948.6734891480301,None,951.4904127700138,None,951.4904127700138,None,951.4904127700138,None,953.0412410200224,None,space,1.5919162280042656,953.0412410200224,None,954.9912600180251,None,954.9912600180251,None,954.9912600180251,None,954.9912600180251,None,954.9912600180251,None,954.9912600180251,None,954.9912600180251,None,,,,,,,,,,,,,,,,,,,,,,,,,,,,,,,,,,,092419_p2,001,2019_Sep_24_1613,body_behavioural,3.2.1,60.0992678920452,
2,parcelated_audio/24/24_1.aiff,0,2,2,2,,,,,0,0,0,0,,,,,,,,,,,,,,,,,974.99288509303,None,974.99288509303,None,974.99288509303,None,,,,,,,,,,,,,,,,,,,,,972.1426588880131,None,space,2.7626832430250943,972.1426588880131,None,985.0758337400039,None,space,15.115096284949686,985.0758337400039,None,1000.4109701228329,None,1000.4105847399915,None,1,11.12037685001269,1010.8290491899825,None,1010.8290491899825,None,1010.8290491899825,None,1010.8290491899825,None,,,,,,,,,092419_p2,001,2019_Sep_24_1613,body_behavioural,3.2.1,60.0992678920452,
2,parcelated_audio/24/24_2.aiff,0,2,2,2,,,,,0,1,1,1,,,,,,,,,,,,,,,,,,,,,,,,,,,,,,,,,,,,,,,,,,,,,,,,,,,,,,,1022.0450309108012,None,1022.0452488780138,None,9,5.123099876975175,1028.3629615780083,None,1028.3629615780083,None,1028.3629615780083,None,1028.3629615780083,None,,,,,,,,,092419_p2,001,2019_Sep_24_1613,body_behavioural,3.2.1,60.0992678920452,
2,parcelated_audio/24/24_3.aiff,0,2,2,2,,,,,0,2,2,2,,,,,,,,,,,,,,,,,,,,,,,,,,,,,,,,,,,,,,,,,,,,,,,,,,,,,,,1033.596798859816,None,1033.5960340099991,None,1,3.1953809650149196,1045.1812407100224,None,1045.1812407100224,None,1045.1812407100224,None,1045.1812407100224,None,,,,,,,,,092419_p2,001,2019_Sep_24_1613,body_behavioural,3.2.1,60.0992678920452,
2,parcelated_audio/24/24_4.aiff,0,2,2,2,,,,,0,3,3,3,,,,,,,,,,,,,,,,,,,,,,,,,,,,,,,,,,,,,,,,,,,,,,,,,,,,,,,1048.463589199807,None,1048.4644366430002,None,1,6.1658956200117245,1055.3473507530289,None,1055.3473507530289,None,1055.3473507530289,None,1055.3473507530289,None,,,,,,,,,092419_p2,001,2019_Sep_24_1613,body_behavioural,3.2.1,60.0992678920452,
2,parcelated_audio/24/24_5.aiff,0,2,2,2,,,,,0,4,4,4,,,,,,,,,,,,,,,,,,,,,,,,,,,,,,,,,,,,,,,,,,,,,,,,,,,,,,,1061.5983254327905,None,1061.598697634996,None,1,2.880499272956513,1066.5315328679862,None,1066.5315328679862,None,1066.5315328679862,None,1066.5315328679862,None,,,,,,,,,092419_p2,001,2019_Sep_24_1613,body_behavioural,3.2.1,60.0992678920452,
2,parcelated_audio/24/24_6.aiff,0,2,2,2,,,,,0,5,5,5,,,,,,,,,,,,,,,,,,,,,,,,,,,,,,,,,,,,,,,,,,,,,,,,,,,,,,,1069.498983962799,None,1069.499559000018,None,9,2.5587460619863123,1076.9333868349786,None,1076.9333868349786,None,1076.9333868349786,None,1076.9333868349786,None,,,,,,,,,092419_p2,001,2019_Sep_24_1613,body_behavioural,3.2.1,60.0992678920452,
2,parcelated_audio/24/24_7.aiff,0,2,2,2,,,,,0,6,6,6,,,,,,,,,,,,,,,,,,,,,,,,,,,,,,,,,,,,,,,,,,,,,,,,,,,,,,,1079.5988690248225,None,1079.5996573999873,None,1,1.2322803999995813,1083.966115468007,None,1083.966115468007,None,1083.966115468007,None,1083.966115468007,None,,,,,,,,,092419_p2,001,2019_Sep_24_1613,body_behavioural,3.2.1,60.0992678920452,
2,parcelated_audio/24/24_8.aiff,0,2,2,2,,,,,0,7,7,7,,,,,,,,,,,,,,,,,,,,,,,,,,,,,,,,,,,,,,,,,,,,,,,,,,,,,,,1085.2662814378157,None,1085.266200210026,None,9,6.959535559988581,1091.316850620031,None,1091.316850620031,None,1091.316850620031,None,1091.316850620031,None,,,,,,,,,092419_p2,001,2019_Sep_24_1613,body_behavioural,3.2.1,60.0992678920452,
2,parcelated_audio/24/24_9.aiff,0,2,2,2,,,,,0,8,8,8,,,,,,,,,,,,,,,,,,,,,,,,,,,,,,,,,,,,,,,,,,,,,,,,,,,,,,,1098.3508319277782,None,1098.3504670779803,None,1,3.478040255024098,1102.6840842000092,None,1102.6840842000092,None,1102.6840842000092,None,1102.6840842000092,None,,,,,,,,,092419_p2,001,2019_Sep_24_1613,body_behavioural,3.2.1,60.0992678920452,
2,parcelated_audio/24/24_10.aiff,0,2,2,2,,,,,0,9,9,9,,,,,,,,,,,,,,,,,,,,,,,,,,,,,,,,,,,,,,,,,,,,,,,,,,,,,,,1106.2508000397822,None,1106.2517293200362,None,1,0.7282485999749042,1109.9680294999853,None,1109.9680294999853,None,1109.9680294999853,None,1109.9680294999853,None,,,,,,,,,092419_p2,001,2019_Sep_24_1613,body_behavioural,3.2.1,60.0992678920452,
2,parcelated_audio/24/24_11.aiff,0,2,2,2,,,,,0,10,10,10,,,,,,,,,,,,,,,,,,,,,,,,,,,,,,,,,,,,,,,,,,,,,,,,,,,,,,,1110.8013985928148,None,1110.801386043022,None,1,4.088107762043364,1120.9030612530187,None,1120.9030612530187,None,1120.9030612530187,None,1120.9030612530187,None,,,,,,,,,092419_p2,001,2019_Sep_24_1613,body_behavioural,3.2.1,60.0992678920452,
2,parcelated_audio/24/24_12.aiff,0,2,2,2,,,,,0,11,11,11,,,,,,,,,,,,,,,,,,,,,,,,,,,,,,,,,,,,,,,,,,,,,,,,,,,,,,,1125.102125824825,None,1125.103359850007,None,9,3.275412455026526,1134.1706260829815,None,1134.1706260829815,None,1134.1706260829815,None,1134.1706260829815,None,,,,,,,,,092419_p2,001,2019_Sep_24_1613,body_behavioural,3.2.1,60.0992678920452,
2,parcelated_audio/24/24_13.aiff,0,2,2,2,,,,,0,12,12,12,,,,,,,,,,,,,,,,,,,,,,,,,,,,,,,,,,,,,,,,,,,,,,,,,,,,,,,1137.520696799783,None,1137.5205413050135,None,1,1.4906168900197372,1141.487537404988,None,1141.487537404988,None,1141.487537404988,None,1141.487537404988,None,,,,,,,,,092419_p2,001,2019_Sep_24_1613,body_behavioural,3.2.1,60.0992678920452,
2,parcelated_audio/24/24_14.aiff,0,2,2,2,,,,,0,13,13,13,,,,,,,,,,,,,,,,,,,,,,,,,,,,,,,,,,,,,,,,,,,,,,,,,,,,,,,1143.070274102781,None,1143.0703639999847,None,1,7.601435466029216,1150.437951333006,None,1150.437951333006,None,1150.437951333006,None,1150.437951333006,None,,,,,,,,,092419_p2,001,2019_Sep_24_1613,body_behavioural,3.2.1,60.0992678920452,
2,parcelated_audio/24/24_15.aiff,0,2,2,2,,,,,0,14,14,14,,,,,,,,,,,,,,,,,,,,,,,,,,,,,,,,,,,,,,,,,,,,,,,,,,,,,,,1158.1382985978155,None,1158.1380137450178,None,1,4.557739459967706,1164.672739510017,None,1164.672739510017,None,1164.672739510017,None,1164.672739510017,None,,,,,,,,,092419_p2,001,2019_Sep_24_1613,body_behavioural,3.2.1,60.0992678920452,
2,parcelated_audio/24/24_16.aiff,0,2,2,2,,,,,0,15,15,15,,,,,,,,,,,,,,,,,,,,,,,,,,,,,,,,,,,,,,,,,,,,,,,,,,,,,,,1169.322066399781,None,1169.3219540999853,None,9,3.4392633630195633,1176.5057428780128,None,1176.5057428780128,None,1176.5057428780128,None,1176.5057428780128,None,,,,,,,,,092419_p2,001,2019_Sep_24_1613,body_behavioural,3.2.1,60.0992678920452,
2,parcelated_audio/24/24_17.aiff,0,2,2,2,,,,,0,16,16,16,,,,,,,,,,,,,,,,,,,,,,,,,,,,,,,,,,,,,,,,,,,,,,,,,,,,,,,1180.0392476228183,None,1180.0399919719785,None,1,3.2717833329807036,1186.0233460580348,None,1186.0233460580348,None,1186.0233460580348,None,1186.0233460580348,None,,,,,,,,,092419_p2,001,2019_Sep_24_1613,body_behavioural,3.2.1,60.0992678920452,
2,parcelated_audio/24/24_18.aiff,0,2,2,2,,,,,0,17,17,17,,,,,,,,,,,,,,,,,,,,,,,,,,,,,,,,,,,,,,,,,,,,,,,,,,,,,,,1189.4066729477956,None,1189.407750434999,None,1,1.19321611803025,1197.8572772000334,None,1197.8572772000334,None,1197.8572772000334,None,1197.8572772000334,None,,,,,,,,,092419_p2,001,2019_Sep_24_1613,body_behavioural,3.2.1,60.0992678920452,
2,parcelated_audio/24/24_19.aiff,0,2,2,2,,,,,0,18,18,18,,,,,,,,,,,,,,,,,,,,,,,,,,,,,,,,,,,,,,,,,,,,,,,,,,,,,,,1199.1577465598123,None,1199.1573544900166,None,1,0.6682348600006662,1208.774884397979,None,1208.774884397979,None,1208.774884397979,None,1208.774884397979,None,,,,,,,,,092419_p2,001,2019_Sep_24_1613,body_behavioural,3.2.1,60.0992678920452,
2,parcelated_audio/24/24_20.aiff,0,2,2,2,,,,,0,19,19,19,,,,,,,,,,,,,,,,,,,,,,,,,,,,,,,,,,,,,,,,,,,,,,,,,,,,,,,1209.5423882127973,None,1209.5423224080005,None,1,1.6796492500579916,1214.0088704600348,None,1214.0088704600348,None,1214.0088704600348,None,1214.0088704600348,None,,,,,,,,,092419_p2,001,2019_Sep_24_1613,body_behavioural,3.2.1,60.0992678920452,
2,parcelated_audio/24/24_21.aiff,0,2,2,2,,,,,0,20,20,20,,,,,,,,,,,,,,,,,,,,,,,,,,,,,,,,,,,,,,,,,,,,,,,,,,,,,,,1215.7762444228167,None,1215.775780158001,None,9,2.065686771995388,1223.7760108780349,None,1223.7760108780349,None,1223.7760108780349,None,1223.7760108780349,None,,,,,,,,,092419_p2,001,2019_Sep_24_1613,body_behavioural,3.2.1,60.0992678920452,
2,parcelated_audio/24/24_22.aiff,0,2,2,2,,,,,0,21,21,21,,,,,,,,,,,,,,,,,,,,,,,,,,,,,,,,,,,,,,,,,,,,,,,,,,,,,,,1225.94354863778,None,1225.9426362300292,None,1,2.225262029969599,1236.3930419399985,None,1236.3930419399985,None,1236.3930419399985,None,1236.3930419399985,None,,,,,,,,,092419_p2,001,2019_Sep_24_1613,body_behavioural,3.2.1,60.0992678920452,
2,parcelated_audio/24/24_23.aiff,0,2,2,2,,,,,0,22,22,22,,,,,,,,,,,,,,,,,,,,,,,,,,,,,,,,,,,,,,,,,,,,,,,,,,,,,,,1238.7266353748157,None,1238.7279548730003,None,1,2.041283330996521,1248.928455240035,None,1248.928455240035,None,1248.928455240035,None,1248.928455240035,None,,,,,,,,,092419_p2,001,2019_Sep_24_1613,body_behavioural,3.2.1,60.0992678920452,
2,parcelated_audio/24/24_24.aiff,0,2,2,2,,,,,0,23,23,23,,,,,,,,,,,,,,,,,,,,,,,,,,,,,,,,,,,,,,,,,,,,,,,,,,,,,,,1251.0615864198073,None,1251.060995495005,None,1,7.851957255043089,1257.6281468950328,None,1257.6281468950328,None,1257.6281468950328,None,1257.6281468950328,None,,,,,,,,,092419_p2,001,2019_Sep_24_1613,body_behavioural,3.2.1,60.0992678920452,
2,parcelated_audio/24/24_25.aiff,0,2,2,2,,,,,0,24,24,24,,,,,,,,,,,,,,,,,,,,,,,,,,,,,,,,,,,,,,,,,,,,,,,,,,,,,,,1265.578572092799,None,1265.5786738800234,None,9,4.084894950967282,1274.3128115180298,None,1274.3128115180298,None,1274.3128115180298,None,1274.3128115180298,None,,,,,,,,,092419_p2,001,2019_Sep_24_1613,body_behavioural,3.2.1,60.0992678920452,
2,parcelated_audio/24/24_26.aiff,0,2,2,2,,,,,0,25,25,25,,,,,,,,,,,,,,,,,,,,,,,,,,,,,,,,,,,,,,,,,,,,,,,,,,,,,,,1278.5293970937958,None,1278.529376096034,None,1,1.581580079975538,1285.0969538959907,None,1285.0969538959907,None,1285.0969538959907,None,1285.0969538959907,None,,,,,,,,,092419_p2,001,2019_Sep_24_1613,body_behavioural,3.2.1,60.0992678920452,
2,parcelated_audio/24/24_27.aiff,0,2,2,2,,,,,0,26,26,26,,,,,,,,,,,,,,,,,,,,,,,,,,,,,,,,,,,,,,,,,,,,,,,,,,,,,,,1286.7641731027863,None,1286.7646024299902,None,1,1.7802208449575119,1292.8139972750214,None,1292.8139972750214,None,1292.8139972750214,None,1292.8139972750214,None,,,,,,,,,092419_p2,001,2019_Sep_24_1613,body_behavioural,3.2.1,60.0992678920452,
2,parcelated_audio/24/24_28.aiff,0,2,2,2,,,,,0,27,27,27,,,,,,,,,,,,,,,,,,,,,,,,,,,,,,,,,,,,,,,,,,,,,,,,,,,,,,,1294.6815909398022,None,1294.681537770026,None,1,2.471006888023112,1299.1647116279928,None,1299.1647116279928,None,1299.1647116279928,None,1299.1647116279928,None,,,,,,,,,092419_p2,001,2019_Sep_24_1613,body_behavioural,3.2.1,60.0992678920452,
2,parcelated_audio/24/24_29.aiff,0,2,2,2,,,,,0,28,28,28,,,,,,,,,,,,,,,,,,,,,,,,,,,,,,,,,,,,,,,,,,,,,,,,,,,,,,,1301.7148207648308,None,1301.7144839999964,None,1,2.3290346160065383,1307.998219953035,None,1307.998219953035,None,1307.998219953035,None,1307.998219953035,None,,,,,,,,,092419_p2,001,2019_Sep_24_1613,body_behavioural,3.2.1,60.0992678920452,
2,parcelated_audio/24/24_30.aiff,0,2,2,2,,,,,0,29,29,29,,,,,,,,,,,,,,,,,,,,,,,,,,,,,,,,,,,,,,,,,,,,,,,,,,,,,,,1310.398310809792,None,1310.3984428080148,None,9,2.739485664991662,1316.6658797150012,None,1316.6658797150012,None,1316.6658797150012,None,1316.6658797150012,None,,,,,,,,,092419_p2,001,2019_Sep_24_1613,body_behavioural,3.2.1,60.0992678920452,
2,parcelated_audio/24/24_31.aiff,0,2,2,2,,,,,0,30,30,30,,,,,,,,,,,,,,,,,,,,,,,,,,,,,,,,,,,,,,,,,,,,,,,,,,,,,,,1319.4994536097977,None,1319.4997857600101,None,1,2.77505709300749,1326.1667568050325,None,1326.1667568050325,None,1326.1667568050325,None,1326.1667568050325,None,,,,,,,,,092419_p2,001,2019_Sep_24_1613,body_behavioural,3.2.1,60.0992678920452,
2,parcelated_audio/24/24_32.aiff,0,2,2,2,,,,,0,31,31,31,,,,,,,,,,,,,,,,,,,,,,,,,,,,,,,,,,,,,,,,,,,,,,,,,,,,,,,1329.0498385098065,None,1329.0496793580242,None,1,1.0785894120344892,1339.8346061350312,None,1339.8346061350312,None,1339.8346061350312,None,1339.8346061350312,None,,,,,,,,,092419_p2,001,2019_Sep_24_1613,body_behavioural,3.2.1,60.0992678920452,
2,,0,2,2,2,,,,,,,,,,,,,,,,,,,,,,,,,,,,,,,,,,,,,,,,,,,,,,,,,,,,,,,,,,,,,,,,,,,,,,,,,,,,,1340.9511896850308,None,1340.9511896850308,None,space,4.557508918980602,1340.9511896850308,None,092419_p2,001,2019_Sep_24_1613,body_behavioural,3.2.1,60.0992678920452,
3,,0,3,3,3,0,0,0,0,,,,,,,1345.5513135350193,None,space,20.760019685025327,1345.5513135350193,None,1345.5513135350193,None,1366.3355893500266,None,space,5.660834244976286,1366.3355893500266,None,1372.1027871950064,None,1372.1027871950064,None,1372.1027871950064,None,1387.870234382979,None,space,16.11455133499112,1387.870234382979,None,1404.3385880250135,None,1404.3385880250135,None,1404.3385880250135,None,1404.3385880250135,None,1404.3385880250135,None,1404.3385880250135,None,1404.3385880250135,None,,,,,,,,,,,,,,,,,,,,,,,,,,,,,,,,,,,092419_p2,001,2019_Sep_24_1613,body_behavioural,3.2.1,60.0992678920452,
3,,0,3,3,3,1,0,1,0,,,,,,,,,,,,,,,,,,,,,1430.440748789988,None,1430.440748789988,None,1430.440748789988,None,1431.2403141630348,None,space,1.1613614730304107,1431.2403141630348,None,1432.7736378050176,None,1432.7736378050176,None,1432.7736378050176,None,1432.7736378050176,None,1432.7736378050176,None,1432.7736378050176,None,1432.7736378050176,None,,,,,,,,,,,,,,,,,,,,,,,,,,,,,,,,,,,092419_p2,001,2019_Sep_24_1613,body_behavioural,3.2.1,60.0992678920452,
3,,0,3,3,3,2,0,2,0,,,,,,,,,,,,,,,,,,,,,1449.5413005499868,None,1449.5413005499868,None,1449.5413005499868,None,1450.908177645004,None,space,1.02790320396889,1450.908177645004,None,1452.3590056350222,None,1452.3590056350222,None,1452.3590056350222,None,1452.3590056350222,None,1452.3590056350222,None,1452.3590056350222,None,1452.3590056350222,None,,,,,,,,,,,,,,,,,,,,,,,,,,,,,,,,,,,092419_p2,001,2019_Sep_24_1613,body_behavioural,3.2.1,60.0992678920452,
3,,0,3,3,3,3,0,3,0,,,,,,,,,,,,,,,,,,,,,1465.6923903850256,None,1465.6923903850256,None,1465.6923903850256,None,1466.4933793650125,None,space,0.914226732973475,1466.4933793650125,None,1467.7261088230298,None,1467.7261088230298,None,1467.7261088230298,None,1467.7261088230298,None,1467.7261088230298,None,1467.7261088230298,None,1467.7261088230298,None,,,,,,,,,,,,,,,,,,,,,,,,,,,,,,,,,,,092419_p2,001,2019_Sep_24_1613,body_behavioural,3.2.1,60.0992678920452,
3,,0,3,3,3,4,0,4,0,,,,,,,,,,,,,,,,,,,,,1476.6098779879976,None,1476.6098779879976,None,1476.6098779879976,None,1477.7277548580314,None,space,1.3680160219664685,1477.7277548580314,None,1479.4108863379806,None,1479.4108863379806,None,1479.4108863379806,None,1479.4108863379806,None,1479.4108863379806,None,1479.4108863379806,None,1479.4108863379806,None,,,,,,,,,,,,,,,,,,,,,,,,,,,,,,,,,,,092419_p2,001,2019_Sep_24_1613,body_behavioural,3.2.1,60.0992678920452,
3,,0,3,3,3,5,0,5,0,,,,,,,,,,,,,,,,,,,,,1498.2786898500053,None,1498.2786898500053,None,1498.2786898500053,None,1499.511446545017,None,space,0.6676825600443408,1499.511446545017,None,1500.494591458002,None,1500.494591458002,None,1500.494591458002,None,1500.494591458002,None,1500.494591458002,None,1500.494591458002,None,1500.494591458002,None,,,,,,,,,,,,,,,,,,,,,,,,,,,,,,,,,,,092419_p2,001,2019_Sep_24_1613,body_behavioural,3.2.1,60.0992678920452,
3,,0,3,3,3,6,0,6,0,,,,,,,,,,,,,,,,,,,,,1507.4786471999832,None,1507.4786471999832,None,1507.4786471999832,None,1508.2127824579948,None,space,0.4868116030120291,1508.2127824579948,None,1508.996442964999,None,1508.996442964999,None,1508.996442964999,None,1508.996442964999,None,1508.996442964999,None,1508.996442964999,None,1508.996442964999,None,,,,,,,,,,,,,,,,,,,,,,,,,,,,,,,,,,,092419_p2,001,2019_Sep_24_1613,body_behavioural,3.2.1,60.0992678920452,
3,parcelated_audio/42/42_1.aiff,0,3,3,3,,,,,0,0,0,0,,,,,,,,,,,,,,,,,1527.5142251250218,None,1527.5142251250218,None,1527.5142251250218,None,,,,,,,,,,,,,,,,,,,,,1522.0971363349818,None,space,5.349113814998418,1522.0971363349818,None,1532.1969685680233,None,space,2.56688254798064,1532.1969685680233,None,1534.981451372779,None,1534.9808911129949,None,1,0.5586630990146659,1543.3313328300137,None,1543.3313328300137,None,1543.3313328300137,None,1543.3313328300137,None,,,,,,,,,092419_p2,001,2019_Sep_24_1613,body_behavioural,3.2.1,60.0992678920452,
3,parcelated_audio/42/42_2.aiff,0,3,3,3,,,,,0,1,1,1,,,,,,,,,,,,,,,,,,,,,,,,,,,,,,,,,,,,,,,,,,,,,,,,,,,,,,,1543.9984082507901,None,1543.9985449379892,None,1,2.403962835960556,1555.9661146799917,None,1555.9661146799917,None,1555.9661146799917,None,1555.9661146799917,None,,,,,,,,,092419_p2,001,2019_Sep_24_1613,body_behavioural,3.2.1,60.0992678920452,
3,parcelated_audio/42/42_3.aiff,0,3,3,3,,,,,0,2,2,2,,,,,,,,,,,,,,,,,,,,,,,,,,,,,,,,,,,,,,,,,,,,,,,,,,,,,,,1558.4826586947777,None,1558.48241052503,None,1,0.4022369210142642,1568.749558468,None,1568.749558468,None,1568.749558468,None,1568.749558468,None,,,,,,,,,092419_p2,001,2019_Sep_24_1613,body_behavioural,3.2.1,60.0992678920452,
3,parcelated_audio/42/42_4.aiff,0,3,3,3,,,,,0,3,3,3,,,,,,,,,,,,,,,,,,,,,,,,,,,,,,,,,,,,,,,,,,,,,,,,,,,,,,,1569.2673228208325,None,1569.2671786980354,None,9,3.329573722963687,1581.2179278419935,None,1581.2179278419935,None,1581.2179278419935,None,1581.2179278419935,None,,,,,,,,,092419_p2,001,2019_Sep_24_1613,body_behavioural,3.2.1,60.0992678920452,
3,parcelated_audio/42/42_5.aiff,0,3,3,3,,,,,0,4,4,4,,,,,,,,,,,,,,,,,,,,,,,,,,,,,,,,,,,,,,,,,,,,,,,,,,,,,,,1584.6512559248251,None,1584.6509116649977,None,1,2.360482653020881,1596.1015174250351,None,1596.1015174250351,None,1596.1015174250351,None,1596.1015174250351,None,,,,,,,,,092419_p2,001,2019_Sep_24_1613,body_behavioural,3.2.1,60.0992678920452,
3,parcelated_audio/42/42_6.aiff,0,3,3,3,,,,,0,5,5,5,,,,,,,,,,,,,,,,,,,,,,,,,,,,,,,,,,,,,,,,,,,,,,,,,,,,,,,1598.5520759927924,None,1598.551620453014,None,1,1.1482484849984758,1605.0188500980148,None,1605.0188500980148,None,1605.0188500980148,None,1605.0188500980148,None,,,,,,,,,092419_p2,001,2019_Sep_24_1613,body_behavioural,3.2.1,60.0992678920452,
3,parcelated_audio/42/42_7.aiff,0,3,3,3,,,,,0,6,6,6,,,,,,,,,,,,,,,,,,,,,,,,,,,,,,,,,,,,,,,,,,,,,,,,,,,,,,,1606.252468259819,None,1606.2529073079932,None,1,2.4542477130307816,1611.436276088003,None,1611.436276088003,None,1611.436276088003,None,1611.436276088003,None,,,,,,,,,092419_p2,001,2019_Sep_24_1613,body_behavioural,3.2.1,60.0992678920452,
3,parcelated_audio/42/42_8.aiff,0,3,3,3,,,,,0,7,7,7,,,,,,,,,,,,,,,,,,,,,,,,,,,,,,,,,,,,,,,,,,,,,,,,,,,,,,,1613.9859563928214,None,1613.9861006650026,None,1,4.227801127999555,1617.120490153029,None,1617.120490153029,None,1617.120490153029,None,1617.120490153029,None,,,,,,,,,092419_p2,001,2019_Sep_24_1613,body_behavioural,3.2.1,60.0992678920452,
3,parcelated_audio/42/42_9.aiff,0,3,3,3,,,,,0,8,8,8,,,,,,,,,,,,,,,,,,,,,,,,,,,,,,,,,,,,,,,,,,,,,,,,,,,,,,,1621.4373228677898,None,1621.4364774500136,None,1,1.0197265049791895,1629.9704818580067,None,1629.9704818580067,None,1629.9704818580067,None,1629.9704818580067,None,,,,,,,,,092419_p2,001,2019_Sep_24_1613,body_behavioural,3.2.1,60.0992678920452,
3,parcelated_audio/42/42_10.aiff,0,3,3,3,,,,,0,9,9,9,,,,,,,,,,,,,,,,,,,,,,,,,,,,,,,,,,,,,,,,,,,,,,,,,,,,,,,1631.087051834783,None,1631.0871192500344,None,1,1.1183866380015388,1635.4044636780163,None,1635.4044636780163,None,1635.4044636780163,None,1635.4044636780163,None,,,,,,,,,092419_p2,001,2019_Sep_24_1613,body_behavioural,3.2.1,60.0992678920452,
3,parcelated_audio/42/42_11.aiff,0,3,3,3,,,,,0,10,10,10,,,,,,,,,,,,,,,,,,,,,,,,,,,,,,,,,,,,,,,,,,,,,,,,,,,,,,,1636.6208118927782,None,1636.6211886280216,None,9,3.4086579050053842,1641.604766465025,None,1641.604766465025,None,1641.604766465025,None,1641.604766465025,None,,,,,,,,,092419_p2,001,2019_Sep_24_1613,body_behavioural,3.2.1,60.0992678920452,
3,parcelated_audio/42/42_12.aiff,0,3,3,3,,,,,0,11,11,11,,,,,,,,,,,,,,,,,,,,,,,,,,,,,,,,,,,,,,,,,,,,,,,,,,,,,,,1645.1053719647928,None,1645.1052545729908,None,1,8.693616988020949,1651.0719302780344,None,1651.0719302780344,None,1651.0719302780344,None,1651.0719302780344,None,,,,,,,,,092419_p2,001,2019_Sep_24_1613,body_behavioural,3.2.1,60.0992678920452,
3,parcelated_audio/42/42_13.aiff,0,3,3,3,,,,,0,12,12,12,,,,,,,,,,,,,,,,,,,,,,,,,,,,,,,,,,,,,,,,,,,,,,,,,,,,,,,1659.856035559834,None,1659.8569533950067,None,1,0.5793028729967773,1667.0073385399883,None,1667.0073385399883,None,1667.0073385399883,None,1667.0073385399883,None,,,,,,,,,092419_p2,001,2019_Sep_24_1613,body_behavioural,3.2.1,60.0992678920452,
3,parcelated_audio/42/42_14.aiff,0,3,3,3,,,,,0,13,13,13,,,,,,,,,,,,,,,,,,,,,,,,,,,,,,,,,,,,,,,,,,,,,,,,,,,,,,,1667.6895787598216,None,1667.6906780329882,None,9,4.543425135023426,1672.407365054998,None,1672.407365054998,None,1672.407365054998,None,1672.407365054998,None,,,,,,,,,092419_p2,001,2019_Sep_24_1613,body_behavioural,3.2.1,60.0992678920452,
3,parcelated_audio/42/42_15.aiff,0,3,3,3,,,,,0,14,14,14,,,,,,,,,,,,,,,,,,,,,,,,,,,,,,,,,,,,,,,,,,,,,,,,,,,,,,,1677.0404133897857,None,1677.0410349150188,None,1,6.284286740003154,1682.873948958004,None,1682.873948958004,None,1682.873948958004,None,1682.873948958004,None,,,,,,,,,092419_p2,001,2019_Sep_24_1613,body_behavioural,3.2.1,60.0992678920452,
3,parcelated_audio/42/42_16.aiff,0,3,3,3,,,,,0,15,15,15,,,,,,,,,,,,,,,,,,,,,,,,,,,,,,,,,,,,,,,,,,,,,,,,,,,,,,,1689.258215632802,None,1689.2579351399909,None,1,0.8372483309940435,1694.8249576329836,None,1694.8249576329836,None,1694.8249576329836,None,1694.8249576329836,None,,,,,,,,,092419_p2,001,2019_Sep_24_1613,body_behavioural,3.2.1,60.0992678920452,
3,parcelated_audio/42/42_17.aiff,0,3,3,3,,,,,0,16,16,16,,,,,,,,,,,,,,,,,,,,,,,,,,,,,,,,,,,,,,,,,,,,,,,,,,,,,,,1695.7748342198204,None,1695.775001269998,None,1,1.057039409992285,1705.4590924999793,None,1705.4590924999793,None,1705.4590924999793,None,1705.4590924999793,None,,,,,,,,,092419_p2,001,2019_Sep_24_1613,body_behavioural,3.2.1,60.0992678920452,
3,parcelated_audio/42/42_18.aiff,0,3,3,3,,,,,0,17,17,17,,,,,,,,,,,,,,,,,,,,,,,,,,,,,,,,,,,,,,,,,,,,,,,,,,,,,,,1706.6097027127864,None,1706.609117807995,None,1,2.036734642984811,1712.01052218501,None,1712.01052218501,None,1712.01052218501,None,1712.01052218501,None,,,,,,,,,092419_p2,001,2019_Sep_24_1613,body_behavioural,3.2.1,60.0992678920452,
3,parcelated_audio/42/42_19.aiff,0,3,3,3,,,,,0,18,18,18,,,,,,,,,,,,,,,,,,,,,,,,,,,,,,,,,,,,,,,,,,,,,,,,,,,,,,,1714.1603860347998,None,1714.1597863400239,None,9,6.5821191419963725,1723.276960068033,None,1723.276960068033,None,1723.276960068033,None,1723.276960068033,None,,,,,,,,,092419_p2,001,2019_Sep_24_1613,body_behavioural,3.2.1,60.0992678920452,
3,parcelated_audio/42/42_20.aiff,0,3,3,3,,,,,0,19,19,19,,,,,,,,,,,,,,,,,,,,,,,,,,,,,,,,,,,,,,,,,,,,,,,,,,,,,,,1729.9278401848162,None,1729.9283670979785,None,1,1.0129684680141509,1734.5786478400114,None,1734.5786478400114,None,1734.5786478400114,None,1734.5786478400114,None,,,,,,,,,092419_p2,001,2019_Sep_24_1613,body_behavioural,3.2.1,60.0992678920452,
3,parcelated_audio/42/42_21.aiff,0,3,3,3,,,,,0,20,20,20,,,,,,,,,,,,,,,,,,,,,,,,,,,,,,,,,,,,,,,,,,,,,,,,,,,,,,,1735.6780218998204,None,1735.6782498399843,None,1,0.632458160049282,1745.578369655006,None,1745.578369655006,None,1745.578369655006,None,1745.578369655006,None,,,,,,,,,092419_p2,001,2019_Sep_24_1613,body_behavioural,3.2.1,60.0992678920452,
3,parcelated_audio/42/42_22.aiff,0,3,3,3,,,,,0,21,21,21,,,,,,,,,,,,,,,,,,,,,,,,,,,,,,,,,,,,,,,,,,,,,,,,,,,,,,,1746.29511204483,None,1746.295088312996,None,1,0.5179809970431961,1751.0621570399962,None,1751.0621570399962,None,1751.0621570399962,None,1751.0621570399962,None,,,,,,,,,092419_p2,001,2019_Sep_24_1613,body_behavioural,3.2.1,60.0992678920452,
3,parcelated_audio/42/42_23.aiff,0,3,3,3,,,,,0,22,22,22,,,,,,,,,,,,,,,,,,,,,,,,,,,,,,,,,,,,,,,,,,,,,,,,,,,,,,,1751.6788891547942,None,1751.6790287400363,None,1,2.2490566429914907,1757.8959753279923,None,1757.8959753279923,None,1757.8959753279923,None,1757.8959753279923,None,,,,,,,,,092419_p2,001,2019_Sep_24_1613,body_behavioural,3.2.1,60.0992678920452,
3,parcelated_audio/42/42_24.aiff,0,3,3,3,,,,,0,23,23,23,,,,,,,,,,,,,,,,,,,,,,,,,,,,,,,,,,,,,,,,,,,,,,,,,,,,,,,1760.2459980648011,None,1760.2470438730088,None,9,4.84432585502509,1768.6974077980267,None,1768.6974077980267,None,1768.6974077980267,None,1768.6974077980267,None,,,,,,,,,092419_p2,001,2019_Sep_24_1613,body_behavioural,3.2.1,60.0992678920452,
3,parcelated_audio/42/42_25.aiff,0,3,3,3,,,,,0,24,24,24,,,,,,,,,,,,,,,,,,,,,,,,,,,,,,,,,,,,,,,,,,,,,,,,,,,,,,,1773.647084194806,None,1773.6477839500294,None,1,1.5232154969708063,1779.8487224749988,None,1779.8487224749988,None,1779.8487224749988,None,1779.8487224749988,None,,,,,,,,,092419_p2,001,2019_Sep_24_1613,body_behavioural,3.2.1,60.0992678920452,
3,parcelated_audio/42/42_26.aiff,0,3,3,3,,,,,0,25,25,25,,,,,,,,,,,,,,,,,,,,,,,,,,,,,,,,,,,,,,,,,,,,,,,,,,,,,,,1781.4810299398262,None,1781.4812487260206,None,1,3.5259747949894518,1787.365181397996,None,1787.365181397996,None,1787.365181397996,None,1787.365181397996,None,,,,,,,,,092419_p2,001,2019_Sep_24_1613,body_behavioural,3.2.1,60.0992678920452,
3,parcelated_audio/42/42_27.aiff,0,3,3,3,,,,,0,26,26,26,,,,,,,,,,,,,,,,,,,,,,,,,,,,,,,,,,,,,,,,,,,,,,,,,,,,,,,1790.9817297847942,None,1790.9816460880102,None,1,0.9302675449871458,1798.6488224180066,None,1798.6488224180066,None,1798.6488224180066,None,1798.6488224180066,None,,,,,,,,,092419_p2,001,2019_Sep_24_1613,body_behavioural,3.2.1,60.0992678920452,
3,parcelated_audio/42/42_28.aiff,0,3,3,3,,,,,0,27,27,27,,,,,,,,,,,,,,,,,,,,,,,,,,,,,,,,,,,,,,,,,,,,,,,,,,,,,,,1799.6662951697829,None,1799.6659049480222,None,1,1.8636563870240934,1805.3167397379875,None,1805.3167397379875,None,1805.3167397379875,None,1805.3167397379875,None,,,,,,,,,092419_p2,001,2019_Sep_24_1613,body_behavioural,3.2.1,60.0992678920452,
3,parcelated_audio/42/42_29.aiff,0,3,3,3,,,,,0,28,28,28,,,,,,,,,,,,,,,,,,,,,,,,,,,,,,,,,,,,,,,,,,,,,,,,,,,,,,,1807.24910706979,None,1807.249425593007,None,1,0.9787716349819675,1814.1505308779888,None,1814.1505308779888,None,1814.1505308779888,None,1814.1505308779888,None,,,,,,,,,092419_p2,001,2019_Sep_24_1613,body_behavioural,3.2.1,60.0992678920452,
3,parcelated_audio/42/42_30.aiff,0,3,3,3,,,,,0,29,29,29,,,,,,,,,,,,,,,,,,,,,,,,,,,,,,,,,,,,,,,,,,,,,,,,,,,,,,,1815.233795614785,None,1815.2336514780181,None,9,3.8254368630005047,1826.1016770750284,None,1826.1016770750284,None,1826.1016770750284,None,1826.1016770750284,None,,,,,,,,,092419_p2,001,2019_Sep_24_1613,body_behavioural,3.2.1,60.0992678920452,
3,parcelated_audio/42/42_31.aiff,0,3,3,3,,,,,0,30,30,30,,,,,,,,,,,,,,,,,,,,,,,,,,,,,,,,,,,,,,,,,,,,,,,,,,,,,,,1830.034176164819,None,1830.034993135021,None,1,0.44649264198960736,1836.2185282179853,None,1836.2185282179853,None,1836.2185282179853,None,1836.2185282179853,None,,,,,,,,,092419_p2,001,2019_Sep_24_1613,body_behavioural,3.2.1,60.0992678920452,
3,parcelated_audio/42/42_32.aiff,0,3,3,3,,,,,0,31,31,31,,,,,,,,,,,,,,,,,,,,,,,,,,,,,,,,,,,,,,,,,,,,,,,,,,,,,,,1836.751491604827,None,1836.7519583899993,None,1,2.4057959120254964,1844.8855049799895,None,1844.8855049799895,None,1844.8855049799895,None,1844.8855049799895,None,,,,,,,,,092419_p2,001,2019_Sep_24_1613,body_behavioural,3.2.1,60.0992678920452,
3,parcelated_audio/42/42_33.aiff,0,3,3,3,,,,,0,32,32,32,,,,,,,,,,,,,,,,,,,,,,,,,,,,,,,,,,,,,,,,,,,,,,,,,,,,,,,1847.3863204028341,None,1847.3866106329951,None,1,3.6076669140020385,1854.4369257370126,None,1854.4369257370126,None,1854.4369257370126,None,1854.4369257370126,None,,,,,,,,,092419_p2,001,2019_Sep_24_1613,body_behavioural,3.2.1,60.0992678920452,
3,parcelated_audio/42/42_34.aiff,0,3,3,3,,,,,0,33,33,33,,,,,,,,,,,,,,,,,,,,,,,,,,,,,,,,,,,,,,,,,,,,,,,,,,,,,,,1858.1527687478113,None,1858.1537970250356,None,1,4.634657603979576,1868.8699409239925,None,1868.8699409239925,None,1868.8699409239925,None,1868.8699409239925,None,,,,,,,,,092419_p2,001,2019_Sep_24_1613,body_behavioural,3.2.1,60.0992678920452,
3,parcelated_audio/42/42_35.aiff,0,3,3,3,,,,,0,34,34,34,,,,,,,,,,,,,,,,,,,,,,,,,,,,,,,,,,,,,,,,,,,,,,,,,,,,,,,1873.6205050488236,None,1873.6208606180153,None,1,1.1497915019863285,1883.3547458050307,None,1883.3547458050307,None,1883.3547458050307,None,1883.3547458050307,None,,,,,,,,,092419_p2,001,2019_Sep_24_1613,body_behavioural,3.2.1,60.0992678920452,
3,,0,3,3,3,,,,,,,,,,,,,,,,,,,,,,,,,,,,,,,,,,,,,,,,,,,,,,,,,,,,,,,,,,,,,,,,,,,,,,,,,,,,,1884.538168988016,None,1884.538168988016,None,space,8.158139184990432,1884.538168988016,None,092419_p2,001,2019_Sep_24_1613,body_behavioural,3.2.1,60.0992678920452,
4,,0,4,4,4,0,0,0,0,,,,,,,1892.7396019549924,None,space,2.571894365013577,1892.7396019549924,None,1892.7396019549924,None,1895.3388158230227,None,space,6.920329277985729,1895.3388158230227,None,1902.3562667000224,None,1902.3562667000224,None,1902.3562667000224,None,1911.389829915017,None,space,4.197256340004969,1911.389829915017,None,1915.9586072450038,None,1915.9586072450038,None,1915.9586072450038,None,1915.9586072450038,None,1915.9586072450038,None,1915.9586072450038,None,1915.9586072450038,None,,,,,,,,,,,,,,,,,,,,,,,,,,,,,,,,,,,092419_p2,001,2019_Sep_24_1613,body_behavioural,3.2.1,60.0992678920452,
4,,0,4,4,4,1,0,1,0,,,,,,,,,,,,,,,,,,,,,1939.8753297700314,None,1939.8753297700314,None,1939.8753297700314,None,1941.5593700979953,None,space,1.011057349969633,1941.5593700979953,None,1942.809339790023,None,1942.809339790023,None,1942.809339790023,None,1942.809339790023,None,1942.809339790023,None,1942.809339790023,None,1942.809339790023,None,,,,,,,,,,,,,,,,,,,,,,,,,,,,,,,,,,,092419_p2,001,2019_Sep_24_1613,body_behavioural,3.2.1,60.0992678920452,
4,parcelated_audio/12/12_1.aiff,0,4,4,4,,,,,0,0,0,0,,,,,,,,,,,,,,,,,1977.5111562979873,None,1977.5111562979873,None,1977.5111562979873,None,,,,,,,,,,,,,,,,,,,,,1975.2442471099785,None,space,2.1985751139582135,1975.2442471099785,None,1980.7786952879978,None,space,2.8270075799664482,1980.7786952879978,None,1984.2459404878202,None,1984.2455541830277,None,1,2.2957506719976664,1994.0955870680045,None,1994.0955870680045,None,1994.0955870680045,None,1994.0955870680045,None,,,,,,,,,092419_p2,001,2019_Sep_24_1613,body_behavioural,3.2.1,60.0992678920452,
4,parcelated_audio/12/12_2.aiff,0,4,4,4,,,,,0,1,1,1,,,,,,,,,,,,,,,,,,,,,,,,,,,,,,,,,,,,,,,,,,,,,,,,,,,,,,,1996.4956169928075,None,1996.4956985150347,None,1,3.6298954149824567,2004.2467220980325,None,2004.2467220980325,None,2004.2467220980325,None,2004.2467220980325,None,,,,,,,,,092419_p2,001,2019_Sep_24_1613,body_behavioural,3.2.1,60.0992678920452,
4,parcelated_audio/12/12_3.aiff,0,4,4,4,,,,,0,2,2,2,,,,,,,,,,,,,,,,,,,,,,,,,,,,,,,,,,,,,,,,,,,,,,,,,,,,,,,2007.9630539347884,None,2007.9632379480172,None,1,1.9429444099660031,2015.297009019996,None,2015.297009019996,None,2015.297009019996,None,2015.297009019996,None,,,,,,,,,092419_p2,001,2019_Sep_24_1613,body_behavioural,3.2.1,60.0992678920452,
4,parcelated_audio/12/12_4.aiff,0,4,4,4,,,,,0,3,3,3,,,,,,,,,,,,,,,,,,,,,,,,,,,,,,,,,,,,,,,,,,,,,,,,,,,,,,,2017.331012814818,None,2017.3303584899986,None,1,1.5431327130063437,2023.8975211480283,None,2023.8975211480283,None,2023.8975211480283,None,2023.8975211480283,None,,,,,,,,,092419_p2,001,2019_Sep_24_1613,body_behavioural,3.2.1,60.0992678920452,
4,parcelated_audio/12/12_5.aiff,0,4,4,4,,,,,0,4,4,4,,,,,,,,,,,,,,,,,,,,,,,,,,,,,,,,,,,,,,,,,,,,,,,,,,,,,,,2025.5485071727774,None,2025.5477893429925,None,1,0.5437083999859169,2033.498962438025,None,2033.498962438025,None,2033.498962438025,None,2033.498962438025,None,,,,,,,,,092419_p2,001,2019_Sep_24_1613,body_behavioural,3.2.1,60.0992678920452,
4,parcelated_audio/12/12_6.aiff,0,4,4,4,,,,,0,5,5,5,,,,,,,,,,,,,,,,,,,,,,,,,,,,,,,,,,,,,,,,,,,,,,,,,,,,,,,2034.1323837198318,None,2034.1318312230287,None,1,3.6447776880231686,2037.71537239803,None,2037.71537239803,None,2037.71537239803,None,2037.71537239803,None,,,,,,,,,092419_p2,001,2019_Sep_24_1613,body_behavioural,3.2.1,60.0992678920452,
4,parcelated_audio/12/12_7.aiff,0,4,4,4,,,,,0,6,6,6,,,,,,,,,,,,,,,,,,,,,,,,,,,,,,,,,,,,,,,,,,,,,,,,,,,,,,,2041.4656054827967,None,2041.4657579350169,None,1,4.754578365013003,2051.7662753550103,None,2051.7662753550103,None,2051.7662753550103,None,2051.7662753550103,None,,,,,,,,,092419_p2,001,2019_Sep_24_1613,body_behavioural,3.2.1,60.0992678920452,
4,parcelated_audio/12/12_8.aiff,0,4,4,4,,,,,0,7,7,7,,,,,,,,,,,,,,,,,,,,,,,,,,,,,,,,,,,,,,,,,,,,,,,,,,,,,,,2056.61711473983,None,2056.6175390399876,None,1,0.7286034870194271,2065.3671709329938,None,2065.3671709329938,None,2065.3671709329938,None,2065.3671709329938,None,,,,,,,,,092419_p2,001,2019_Sep_24_1613,body_behavioural,3.2.1,60.0992678920452,
4,parcelated_audio/12/12_9.aiff,0,4,4,4,,,,,0,8,8,8,,,,,,,,,,,,,,,,,,,,,,,,,,,,,,,,,,,,,,,,,,,,,,,,,,,,,,,2066.1842901398077,None,2066.183907733008,None,1,1.396003047004342,2070.000932660012,None,2070.000932660012,None,2070.000932660012,None,2070.000932660012,None,,,,,,,,,092419_p2,001,2019_Sep_24_1613,body_behavioural,3.2.1,60.0992678920452,
4,parcelated_audio/12/12_10.aiff,0,4,4,4,,,,,0,9,9,9,,,,,,,,,,,,,,,,,,,,,,,,,,,,,,,,,,,,,,,,,,,,,,,,,,,,,,,2071.500784949795,None,2071.5015882250154,None,1,0.7560037770308554,2076.2845713400166,None,2076.2845713400166,None,2076.2845713400166,None,2076.2845713400166,None,,,,,,,,,092419_p2,001,2019_Sep_24_1613,body_behavioural,3.2.1,60.0992678920452,
4,parcelated_audio/12/12_11.aiff,0,4,4,4,,,,,0,10,10,10,,,,,,,,,,,,,,,,,,,,,,,,,,,,,,,,,,,,,,,,,,,,,,,,,,,,,,,2077.1354044598293,None,2077.135201205034,None,1,0.539575929986313,2080.0018626149977,None,2080.0018626149977,None,2080.0018626149977,None,2080.0018626149977,None,,,,,,,,,092419_p2,001,2019_Sep_24_1613,body_behavioural,3.2.1,60.0992678920452,
4,parcelated_audio/12/12_12.aiff,0,4,4,4,,,,,0,11,11,11,,,,,,,,,,,,,,,,,,,,,,,,,,,,,,,,,,,,,,,,,,,,,,,,,,,,,,,2080.634823454823,None,2080.636119635019,None,9,1.7975075200083666,2089.469406988006,None,2089.469406988006,None,2089.469406988006,None,2089.469406988006,None,,,,,,,,,092419_p2,001,2019_Sep_24_1613,body_behavioural,3.2.1,60.0992678920452,
4,parcelated_audio/12/12_13.aiff,0,4,4,4,,,,,0,12,12,12,,,,,,,,,,,,,,,,,,,,,,,,,,,,,,,,,,,,,,,,,,,,,,,,,,,,,,,2091.35257171978,None,2091.3528803139925,None,1,1.502804048010148,2096.6037512180046,None,2096.6037512180046,None,2096.6037512180046,None,2096.6037512180046,None,,,,,,,,,092419_p2,001,2019_Sep_24_1613,body_behavioural,3.2.1,60.0992678920452,
4,parcelated_audio/12/12_14.aiff,0,4,4,4,,,,,0,13,13,13,,,,,,,,,,,,,,,,,,,,,,,,,,,,,,,,,,,,,,,,,,,,,,,,,,,,,,,2098.203479789826,None,2098.20295802498,None,1,2.5858181419898756,2103.102901420032,None,2103.102901420032,None,2103.102901420032,None,2103.102901420032,None,,,,,,,,,092419_p2,001,2019_Sep_24_1613,body_behavioural,3.2.1,60.0992678920452,
4,parcelated_audio/12/12_15.aiff,0,4,4,4,,,,,0,14,14,14,,,,,,,,,,,,,,,,,,,,,,,,,,,,,,,,,,,,,,,,,,,,,,,,,,,,,,,2105.786581629817,None,2105.786758340022,None,1,1.2827802470419556,2111.770351390005,None,2111.770351390005,None,2111.770351390005,None,2111.770351390005,None,,,,,,,,,092419_p2,001,2019_Sep_24_1613,body_behavioural,3.2.1,60.0992678920452,
4,parcelated_audio/12/12_16.aiff,0,4,4,4,,,,,0,15,15,15,,,,,,,,,,,,,,,,,,,,,,,,,,,,,,,,,,,,,,,,,,,,,,,,,,,,,,,2113.1543245728126,None,2113.1540452879854,None,1,1.9958383899647743,2117.337506479991,None,2117.337506479991,None,2117.337506479991,None,2117.337506479991,None,,,,,,,,,092419_p2,001,2019_Sep_24_1613,body_behavioural,3.2.1,60.0992678920452,
4,parcelated_audio/12/12_17.aiff,0,4,4,4,,,,,0,16,16,16,,,,,,,,,,,,,,,,,,,,,,,,,,,,,,,,,,,,,,,,,,,,,,,,,,,,,,,2119.4207092597962,None,2119.421600162983,None,1,2.8993127849535085,2124.387768655026,None,2124.387768655026,None,2124.387768655026,None,2124.387768655026,None,,,,,,,,,092419_p2,001,2019_Sep_24_1613,body_behavioural,3.2.1,60.0992678920452,
4,parcelated_audio/12/12_18.aiff,0,4,4,4,,,,,0,17,17,17,,,,,,,,,,,,,,,,,,,,,,,,,,,,,,,,,,,,,,,,,,,,,,,,,,,,,,,2127.3723190027986,None,2127.3719097099965,None,1,2.250239445012994,2136.5554414329818,None,2136.5554414329818,None,2136.5554414329818,None,2136.5554414329818,None,,,,,,,,,092419_p2,001,2019_Sep_24_1613,body_behavioural,3.2.1,60.0992678920452,
4,parcelated_audio/12/12_19.aiff,0,4,4,4,,,,,0,18,18,18,,,,,,,,,,,,,,,,,,,,,,,,,,,,,,,,,,,,,,,,,,,,,,,,,,,,,,,2138.905663977831,None,2138.905576494988,None,1,1.2235589229967445,2148.9062214380247,None,2148.9062214380247,None,2148.9062214380247,None,2148.9062214380247,None,,,,,,,,,092419_p2,001,2019_Sep_24_1613,body_behavioural,3.2.1,60.0992678920452,
4,parcelated_audio/12/12_20.aiff,0,4,4,4,,,,,0,19,19,19,,,,,,,,,,,,,,,,,,,,,,,,,,,,,,,,,,,,,,,,,,,,,,,,,,,,,,,2150.2237483548115,None,2150.223042119993,None,9,0.8259618089650758,2158.0236658179783,None,2158.0236658179783,None,2158.0236658179783,None,2158.0236658179783,None,,,,,,,,,092419_p2,001,2019_Sep_24_1613,body_behavioural,3.2.1,60.0992678920452,
4,parcelated_audio/12/12_21.aiff,0,4,4,4,,,,,0,20,20,20,,,,,,,,,,,,,,,,,,,,,,,,,,,,,,,,,,,,,,,,,,,,,,,,,,,,,,,2158.9568360728326,None,2158.9566909300047,None,1,1.5007387659861706,2164.425146063033,None,2164.425146063033,None,2164.425146063033,None,2164.425146063033,None,,,,,,,,,092419_p2,001,2019_Sep_24_1613,body_behavioural,3.2.1,60.0992678920452,
4,parcelated_audio/12/12_22.aiff,0,4,4,4,,,,,0,21,21,21,,,,,,,,,,,,,,,,,,,,,,,,,,,,,,,,,,,,,,,,,,,,,,,,,,,,,,,2166.0406776628106,None,2166.041600389988,None,1,1.7008679669816047,2169.874599963019,None,2169.874599963019,None,2169.874599963019,None,2169.874599963019,None,,,,,,,,,092419_p2,001,2019_Sep_24_1613,body_behavioural,3.2.1,60.0992678920452,
4,parcelated_audio/12/12_23.aiff,0,4,4,4,,,,,0,22,22,22,,,,,,,,,,,,,,,,,,,,,,,,,,,,,,,,,,,,,,,,,,,,,,,,,,,,,,,2171.658611467795,None,2171.6588260250282,None,1,3.296632945013698,2178.4925461279927,None,2178.4925461279927,None,2178.4925461279927,None,2178.4925461279927,None,,,,,,,,,092419_p2,001,2019_Sep_24_1613,body_behavioural,3.2.1,60.0992678920452,
4,parcelated_audio/12/12_24.aiff,0,4,4,4,,,,,0,23,23,23,,,,,,,,,,,,,,,,,,,,,,,,,,,,,,,,,,,,,,,,,,,,,,,,,,,,,,,2181.875476022821,None,2181.875189209997,None,1,2.359508405032102,2185.9922202150337,None,2185.9922202150337,None,2185.9922202150337,None,2185.9922202150337,None,,,,,,,,,092419_p2,001,2019_Sep_24_1613,body_behavioural,3.2.1,60.0992678920452,
4,parcelated_audio/12/12_25.aiff,0,4,4,4,,,,,0,24,24,24,,,,,,,,,,,,,,,,,,,,,,,,,,,,,,,,,,,,,,,,,,,,,,,,,,,,,,,2188.4928381328236,None,2188.4927712299977,None,9,3.627214180014562,2198.8267540680245,None,2198.8267540680245,None,2198.8267540680245,None,2198.8267540680245,None,,,,,,,,,092419_p2,001,2019_Sep_24_1613,body_behavioural,3.2.1,60.0992678920452,
4,parcelated_audio/12/12_26.aiff,0,4,4,4,,,,,0,25,25,25,,,,,,,,,,,,,,,,,,,,,,,,,,,,,,,,,,,,,,,,,,,,,,,,,,,,,,,2202.5437648898105,None,2202.543818479986,None,1,7.248231609992217,2207.794110065035,None,2207.794110065035,None,2207.794110065035,None,2207.794110065035,None,,,,,,,,,092419_p2,001,2019_Sep_24_1613,body_behavioural,3.2.1,60.0992678920452,
4,parcelated_audio/12/12_27.aiff,0,4,4,4,,,,,0,26,26,26,,,,,,,,,,,,,,,,,,,,,,,,,,,,,,,,,,,,,,,,,,,,,,,,,,,,,,,2215.144743984786,None,2215.144813360006,None,1,2.1246067250031047,2222.811572304985,None,2222.811572304985,None,2222.811572304985,None,2222.811572304985,None,,,,,,,,,092419_p2,001,2019_Sep_24_1613,body_behavioural,3.2.1,60.0992678920452,
4,parcelated_audio/12/12_28.aiff,0,4,4,4,,,,,0,27,27,27,,,,,,,,,,,,,,,,,,,,,,,,,,,,,,,,,,,,,,,,,,,,,,,,,,,,,,,2225.0448586197917,None,2225.0448591579916,None,1,7.917927058006171,2236.029497659998,None,2236.029497659998,None,2236.029497659998,None,2236.029497659998,None,,,,,,,,,092419_p2,001,2019_Sep_24_1613,body_behavioural,3.2.1,60.0992678920452,
4,parcelated_audio/12/12_29.aiff,0,4,4,4,,,,,0,28,28,28,,,,,,,,,,,,,,,,,,,,,,,,,,,,,,,,,,,,,,,,,,,,,,,,,,,,,,,2244.0463338527943,None,2244.0462203699863,None,1,2.797387337021064,2250.113351828011,None,2250.113351828011,None,2250.113351828011,None,2250.113351828011,None,,,,,,,,,092419_p2,001,2019_Sep_24_1613,body_behavioural,3.2.1,60.0992678920452,
4,parcelated_audio/12/12_30.aiff,0,4,4,4,,,,,0,29,29,29,,,,,,,,,,,,,,,,,,,,,,,,,,,,,,,,,,,,,,,,,,,,,,,,,,,,,,,2253.0142875178017,None,2253.013403047982,None,1,1.1720726760104299,2259.964717659983,None,2259.964717659983,None,2259.964717659983,None,2259.964717659983,None,,,,,,,,,092419_p2,001,2019_Sep_24_1613,body_behavioural,3.2.1,60.0992678920452,
4,parcelated_audio/12/12_31.aiff,0,4,4,4,,,,,0,30,30,30,,,,,,,,,,,,,,,,,,,,,,,,,,,,,,,,,,,,,,,,,,,,,,,,,,,,,,,2261.2146221928297,None,2261.2145221580286,None,1,1.7532070729648694,2268.331219099986,None,2268.331219099986,None,2268.331219099986,None,2268.331219099986,None,,,,,,,,,092419_p2,001,2019_Sep_24_1613,body_behavioural,3.2.1,60.0992678920452,
4,,0,4,4,4,,,,,,,,,,,,,,,,,,,,,,,,,,,,,,,,,,,,,,,,,,,,,,,,,,,,,,,,,,,,,,,,,,,,,,,,,,,,,2270.147984559997,None,2270.147984559997,None,space,8.178319922008086,2270.147984559997,None,092419_p2,001,2019_Sep_24_1613,body_behavioural,3.2.1,60.0992678920452,
5,,0,5,5,5,0,0,0,0,,,,,,,2278.3659867800307,None,space,2.2482139879721217,2278.3659867800307,None,2278.3659867800307,None,2280.6325659200083,None,space,1.736342854972463,2280.6325659200083,None,2282.4996147400234,None,2282.4996147400234,None,2282.4996147400234,None,2287.433652208012,None,space,5.497631570033263,2287.433652208012,None,2293.300385048031,None,2293.300385048031,None,2293.300385048031,None,2293.300385048031,None,2293.300385048031,None,2293.300385048031,None,2293.300385048031,None,,,,,,,,,,,,,,,,,,,,,,,,,,,,,,,,,,,092419_p2,001,2019_Sep_24_1613,body_behavioural,3.2.1,60.0992678920452,
5,,0,5,5,5,1,0,1,0,,,,,,,,,,,,,,,,,,,,,2312.318496968015,None,2312.318496968015,None,2312.318496968015,None,2313.101664165035,None,space,0.9704745890339836,2313.101664165035,None,2314.401225480018,None,2314.401225480018,None,2314.401225480018,None,2314.401225480018,None,2314.401225480018,None,2314.401225480018,None,2314.401225480018,None,,,,,,,,,,,,,,,,,,,,,,,,,,,,,,,,,,,092419_p2,001,2019_Sep_24_1613,body_behavioural,3.2.1,60.0992678920452,
5,,0,5,5,5,2,0,2,0,,,,,,,,,,,,,,,,,,,,,2330.5363495700294,None,2330.5363495700294,None,2330.5363495700294,None,2332.1688319480163,None,space,0.8453831379883923,2332.1688319480163,None,2333.236798517988,None,2333.236798517988,None,2333.236798517988,None,2333.236798517988,None,2333.236798517988,None,2333.236798517988,None,2333.236798517988,None,,,,,,,,,,,,,,,,,,,,,,,,,,,,,,,,,,,092419_p2,001,2019_Sep_24_1613,body_behavioural,3.2.1,60.0992678920452,
5,,0,5,5,5,3,0,3,0,,,,,,,,,,,,,,,,,,,,,2347.1366186250234,None,2347.1366186250234,None,2347.1366186250234,None,2349.08770386799,None,space,0.7780601629638113,2349.08770386799,None,2350.187568315014,None,2350.187568315014,None,2350.187568315014,None,2350.187568315014,None,2350.187568315014,None,2350.187568315014,None,2350.187568315014,None,,,,,,,,,,,,,,,,,,,,,,,,,,,,,,,,,,,092419_p2,001,2019_Sep_24_1613,body_behavioural,3.2.1,60.0992678920452,
5,,0,5,5,5,4,0,4,0,,,,,,,,,,,,,,,,,,,,,2377.122554217989,None,2377.122554217989,None,2377.122554217989,None,2379.322877603001,None,space,0.8545047219959088,2379.322877603001,None,2380.5228893380263,None,2380.5228893380263,None,2380.5228893380263,None,2380.5228893380263,None,2380.5228893380263,None,2380.5228893380263,None,2380.5228893380263,None,,,,,,,,,,,,,,,,,,,,,,,,,,,,,,,,,,,092419_p2,001,2019_Sep_24_1613,body_behavioural,3.2.1,60.0992678920452,
5,parcelated_audio/33/33_1.aiff,0,5,5,5,,,,,0,0,0,0,,,,,,,,,,,,,,,,,2421.2086042650044,None,2421.2086042650044,None,2421.2086042650044,None,,,,,,,,,,,,,,,,,,,,,2417.792448046035,None,space,3.3406794579932466,2417.792448046035,None,2422.991727648012,None,space,1.7020046079996973,2422.991727648012,None,2424.876110370783,None,2424.8765947599895,None,1,1.9725798020372167,2434.827071979991,None,2434.827071979991,None,2434.827071979991,None,2434.827071979991,None,,,,,,,,,092419_p2,001,2019_Sep_24_1613,body_behavioural,3.2.1,60.0992678920452,
5,parcelated_audio/33/33_2.aiff,0,5,5,5,,,,,0,1,1,1,,,,,,,,,,,,,,,,,,,,,,,,,,,,,,,,,,,,,,,,,,,,,,,,,,,,,,,2436.9260346448164,None,2436.9275964080007,None,1,3.5800480769830756,2447.3435513600125,None,2447.3435513600125,None,2447.3435513600125,None,2447.3435513600125,None,,,,,,,,,092419_p2,001,2019_Sep_24_1613,body_behavioural,3.2.1,60.0992678920452,
5,parcelated_audio/33/33_3.aiff,0,5,5,5,,,,,0,2,2,2,,,,,,,,,,,,,,,,,,,,,,,,,,,,,,,,,,,,,,,,,,,,,,,,,,,,,,,2451.0106139528098,None,2451.0110935450066,None,9,2.344045776000712,2457.5285397749976,None,2457.5285397749976,None,2457.5285397749976,None,2457.5285397749976,None,,,,,,,,,092419_p2,001,2019_Sep_24_1613,body_behavioural,3.2.1,60.0992678920452,
5,parcelated_audio/33/33_4.aiff,0,5,5,5,,,,,0,3,3,3,,,,,,,,,,,,,,,,,,,,,,,,,,,,,,,,,,,,,,,,,,,,,,,,,,,,,,,2459.961705269804,None,2459.9611277679796,None,1,0.35934753803303465,2463.5446128250333,None,2463.5446128250333,None,2463.5446128250333,None,2463.5446128250333,None,,,,,,,,,092419_p2,001,2019_Sep_24_1613,body_behavioural,3.2.1,60.0992678920452,
5,parcelated_audio/33/33_5.aiff,0,5,5,5,,,,,0,4,4,4,,,,,,,,,,,,,,,,,,,,,,,,,,,,,,,,,,,,,,,,,,,,,,,,,,,,,,,2464.011346169794,None,2464.0113997299923,None,1,2.357897054986097,2475.245423529006,None,2475.245423529006,None,2475.245423529006,None,2475.245423529006,None,,,,,,,,,092419_p2,001,2019_Sep_24_1613,body_behavioural,3.2.1,60.0992678920452,
5,parcelated_audio/33/33_6.aiff,0,5,5,5,,,,,0,5,5,5,,,,,,,,,,,,,,,,,,,,,,,,,,,,,,,,,,,,,,,,,,,,,,,,,,,,,,,2477.6963719348305,None,2477.6964224550175,None,1,0.5820958000258543,2489.3801517050015,None,2489.3801517050015,None,2489.3801517050015,None,2489.3801517050015,None,,,,,,,,,092419_p2,001,2019_Sep_24_1613,body_behavioural,3.2.1,60.0992678920452,
5,parcelated_audio/33/33_7.aiff,0,5,5,5,,,,,0,6,6,6,,,,,,,,,,,,,,,,,,,,,,,,,,,,,,,,,,,,,,,,,,,,,,,,,,,,,,,2490.0630339648224,None,2490.064608399989,None,1,4.942154965014197,2502.030541755026,None,2502.030541755026,None,2502.030541755026,None,2502.030541755026,None,,,,,,,,,092419_p2,001,2019_Sep_24_1613,body_behavioural,3.2.1,60.0992678920452,
5,parcelated_audio/33/33_8.aiff,0,5,5,5,,,,,0,7,7,7,,,,,,,,,,,,,,,,,,,,,,,,,,,,,,,,,,,,,,,,,,,,,,,,,,,,,,,2507.080932857806,None,2507.081051999994,None,9,5.445951531000901,2513.198557683034,None,2513.198557683034,None,2513.198557683034,None,2513.198557683034,None,,,,,,,,,092419_p2,001,2019_Sep_24_1613,body_behavioural,3.2.1,60.0992678920452,
5,parcelated_audio/33/33_9.aiff,0,5,5,5,,,,,0,8,8,8,,,,,,,,,,,,,,,,,,,,,,,,,,,,,,,,,,,,,,,,,,,,,,,,,,,,,,,2518.7316386577904,None,2518.7318711199914,None,1,0.7837014049873687,2522.4320024499903,None,2522.4320024499903,None,2522.4320024499903,None,2522.4320024499903,None,,,,,,,,,092419_p2,001,2019_Sep_24_1613,body_behavioural,3.2.1,60.0992678920452,
5,parcelated_audio/33/33_10.aiff,0,5,5,5,,,,,0,9,9,9,,,,,,,,,,,,,,,,,,,,,,,,,,,,,,,,,,,,,,,,,,,,,,,,,,,,,,,2523.2997873498125,None,2523.299319663027,None,1,1.9520087160053663,2528.6491207029903,None,2528.6491207029903,None,2528.6491207029903,None,2528.6491207029903,None,,,,,,,,,092419_p2,001,2019_Sep_24_1613,body_behavioural,3.2.1,60.0992678920452,
5,parcelated_audio/33/33_11.aiff,0,5,5,5,,,,,0,10,10,10,,,,,,,,,,,,,,,,,,,,,,,,,,,,,,,,,,,,,,,,,,,,,,,,,,,,,,,2530.699285564816,None,2530.699275664985,None,9,4.611219154961873,2542.6668760250323,None,2542.6668760250323,None,2542.6668760250323,None,2542.6668760250323,None,,,,,,,,,092419_p2,001,2019_Sep_24_1613,body_behavioural,3.2.1,60.0992678920452,
5,parcelated_audio/33/33_12.aiff,0,5,5,5,,,,,0,11,11,11,,,,,,,,,,,,,,,,,,,,,,,,,,,,,,,,,,,,,,,,,,,,,,,,,,,,,,,2547.3670688198063,None,2547.368045183015,None,1,1.2111483379849233,2553.4516724399873,None,2553.4516724399873,None,2553.4516724399873,None,2553.4516724399873,None,,,,,,,,,092419_p2,001,2019_Sep_24_1613,body_behavioural,3.2.1,60.0992678920452,
5,parcelated_audio/33/33_13.aiff,0,5,5,5,,,,,0,12,12,12,,,,,,,,,,,,,,,,,,,,,,,,,,,,,,,,,,,,,,,,,,,,,,,,,,,,,,,2554.768411817832,None,2554.7676591179916,None,1,4.995462183025666,2562.1681200329913,None,2562.1681200329913,None,2562.1681200329913,None,2562.1681200329913,None,,,,,,,,,092419_p2,001,2019_Sep_24_1613,body_behavioural,3.2.1,60.0992678920452,
5,parcelated_audio/33/33_14.aiff,0,5,5,5,,,,,0,13,13,13,,,,,,,,,,,,,,,,,,,,,,,,,,,,,,,,,,,,,,,,,,,,,,,,,,,,,,,2567.268429044797,None,2567.2686111860094,None,1,2.8200929810409434,2579.2192661130102,None,2579.2192661130102,None,2579.2192661130102,None,2579.2192661130102,None,,,,,,,,,092419_p2,001,2019_Sep_24_1613,body_behavioural,3.2.1,60.0992678920452,
5,parcelated_audio/33/33_15.aiff,0,5,5,5,,,,,0,14,14,14,,,,,,,,,,,,,,,,,,,,,,,,,,,,,,,,,,,,,,,,,,,,,,,,,,,,,,,2582.1697457377913,None,2582.170335475006,None,1,2.263749130012002,2594.121390948014,None,2594.121390948014,None,2594.121390948014,None,2594.121390948014,None,,,,,,,,,092419_p2,001,2019_Sep_24_1613,body_behavioural,3.2.1,60.0992678920452,
5,parcelated_audio/33/33_16.aiff,0,5,5,5,,,,,0,15,15,15,,,,,,,,,,,,,,,,,,,,,,,,,,,,,,,,,,,,,,,,,,,,,,,,,,,,,,,2596.4878368828095,None,2596.4879731730325,None,1,1.1498923820327036,2608.4551506150165,None,2608.4551506150165,None,2608.4551506150165,None,2608.4551506150165,None,,,,,,,,,092419_p2,001,2019_Sep_24_1613,body_behavioural,3.2.1,60.0992678920452,
5,parcelated_audio/33/33_17.aiff,0,5,5,5,,,,,0,16,16,16,,,,,,,,,,,,,,,,,,,,,,,,,,,,,,,,,,,,,,,,,,,,,,,,,,,,,,,2609.7045722678185,None,2609.7047520600026,None,1,2.0909170280210674,2620.8888179429923,None,2620.8888179429923,None,2620.8888179429923,None,2620.8888179429923,None,,,,,,,,,092419_p2,001,2019_Sep_24_1613,body_behavioural,3.2.1,60.0992678920452,
5,parcelated_audio/33/33_18.aiff,0,5,5,5,,,,,0,17,17,17,,,,,,,,,,,,,,,,,,,,,,,,,,,,,,,,,,,,,,,,,,,,,,,,,,,,,,,2623.089172919793,None,2623.0889441850013,None,9,3.3976552879903466,2631.522846827982,None,2631.522846827982,None,2631.522846827982,None,2631.522846827982,None,,,,,,,,,092419_p2,001,2019_Sep_24_1613,body_behavioural,3.2.1,60.0992678920452,
5,parcelated_audio/33/33_19.aiff,0,5,5,5,,,,,0,18,18,18,,,,,,,,,,,,,,,,,,,,,,,,,,,,,,,,,,,,,,,,,,,,,,,,,,,,,,,2635.0067242848336,None,2635.0069430749863,None,1,12.872065430041403,2638.440014614025,None,2638.440014614025,None,2638.440014614025,None,2638.440014614025,None,,,,,,,,,092419_p2,001,2019_Sep_24_1613,body_behavioural,3.2.1,60.0992678920452,
5,parcelated_audio/33/33_20.aiff,0,5,5,5,,,,,0,19,19,19,,,,,,,,,,,,,,,,,,,,,,,,,,,,,,,,,,,,,,,,,,,,,,,,,,,,,,,2651.4083021808065,None,2651.407575068006,None,1,0.5157638469827361,2658.292355253012,None,2658.292355253012,None,2658.292355253012,None,2658.292355253012,None,,,,,,,,,092419_p2,001,2019_Sep_24_1613,body_behavioural,3.2.1,60.0992678920452,
5,parcelated_audio/33/33_21.aiff,0,5,5,5,,,,,0,20,20,20,,,,,,,,,,,,,,,,,,,,,,,,,,,,,,,,,,,,,,,,,,,,,,,,,,,,,,,2658.8913035648175,None,2658.8917287500226,None,1,4.547019642952364,2662.9086297249887,None,2662.9086297249887,None,2662.9086297249887,None,2662.9086297249887,None,,,,,,,,,092419_p2,001,2019_Sep_24_1613,body_behavioural,3.2.1,60.0992678920452,
5,parcelated_audio/33/33_22.aiff,0,5,5,5,,,,,0,21,21,21,,,,,,,,,,,,,,,,,,,,,,,,,,,,,,,,,,,,,,,,,,,,,,,,,,,,,,,2667.5593883148276,None,2667.5588625480304,None,9,1.8969106570002623,2679.376233302988,None,2679.376233302988,None,2679.376233302988,None,2679.376233302988,None,,,,,,,,,092419_p2,001,2019_Sep_24_1613,body_behavioural,3.2.1,60.0992678920452,
5,parcelated_audio/33/33_23.aiff,0,5,5,5,,,,,0,22,22,22,,,,,,,,,,,,,,,,,,,,,,,,,,,,,,,,,,,,,,,,,,,,,,,,,,,,,,,2681.359456709807,None,2681.359822785016,None,1,2.1898623899905942,2691.828013655031,None,2691.828013655031,None,2691.828013655031,None,2691.828013655031,None,,,,,,,,,092419_p2,001,2019_Sep_24_1613,body_behavioural,3.2.1,60.0992678920452,
5,parcelated_audio/33/33_24.aiff,0,5,5,5,,,,,0,23,23,23,,,,,,,,,,,,,,,,,,,,,,,,,,,,,,,,,,,,,,,,,,,,,,,,,,,,,,,2694.1107443498213,None,2694.111074245011,None,1,1.2367904679849744,2700.344215710007,None,2700.344215710007,None,2700.344215710007,None,2700.344215710007,None,,,,,,,,,092419_p2,001,2019_Sep_24_1613,body_behavioural,3.2.1,60.0992678920452,
5,parcelated_audio/33/33_25.aiff,0,5,5,5,,,,,0,24,24,24,,,,,,,,,,,,,,,,,,,,,,,,,,,,,,,,,,,,,,,,,,,,,,,,,,,,,,,2701.678121304826,None,2701.678184407996,None,1,0.514785781968385,2709.8455086380127,None,2709.8455086380127,None,2709.8455086380127,None,2709.8455086380127,None,,,,,,,,,092419_p2,001,2019_Sep_24_1613,body_behavioural,3.2.1,60.0992678920452,
5,parcelated_audio/33/33_26.aiff,0,5,5,5,,,,,0,25,25,25,,,,,,,,,,,,,,,,,,,,,,,,,,,,,,,,,,,,,,,,,,,,,,,,,,,,,,,2710.4454586708334,None,2710.4456560800318,None,1,0.611543389968574,2717.4959155700053,None,2717.4959155700053,None,2717.4959155700053,None,2717.4959155700053,None,,,,,,,,,092419_p2,001,2019_Sep_24_1613,body_behavioural,3.2.1,60.0992678920452,
5,parcelated_audio/33/33_27.aiff,0,5,5,5,,,,,0,26,26,26,,,,,,,,,,,,,,,,,,,,,,,,,,,,,,,,,,,,,,,,,,,,,,,,,,,,,,,2718.2127565428264,None,2718.2121128900326,None,9,3.192028882971499,2725.7461928600096,None,2725.7461928600096,None,2725.7461928600096,None,2725.7461928600096,None,,,,,,,,,092419_p2,001,2019_Sep_24_1613,body_behavioural,3.2.1,60.0992678920452,
5,parcelated_audio/33/33_28.aiff,0,5,5,5,,,,,0,27,27,27,,,,,,,,,,,,,,,,,,,,,,,,,,,,,,,,,,,,,,,,,,,,,,,,,,,,,,,2729.0301134047795,None,2729.029704708024,None,1,0.35204948496539146,2734.6967873030226,None,2734.6967873030226,None,2734.6967873030226,None,2734.6967873030226,None,,,,,,,,,092419_p2,001,2019_Sep_24_1613,body_behavioural,3.2.1,60.0992678920452,
5,parcelated_audio/33/33_29.aiff,0,5,5,5,,,,,0,28,28,28,,,,,,,,,,,,,,,,,,,,,,,,,,,,,,,,,,,,,,,,,,,,,,,,,,,,,,,2735.147408312815,None,2735.1475657849805,None,1,1.3877768300008029,2743.0305173299857,None,2743.0305173299857,None,2743.0305173299857,None,2743.0305173299857,None,,,,,,,,,092419_p2,001,2019_Sep_24_1613,body_behavioural,3.2.1,60.0992678920452,
5,parcelated_audio/33/33_30.aiff,0,5,5,5,,,,,0,29,29,29,,,,,,,,,,,,,,,,,,,,,,,,,,,,,,,,,,,,,,,,,,,,,,,,,,,,,,,2744.5315310028263,None,2744.531461895036,None,1,1.2596842030179687,2756.5484061500174,None,2756.5484061500174,None,2756.5484061500174,None,2756.5484061500174,None,,,,,,,,,092419_p2,001,2019_Sep_24_1613,body_behavioural,3.2.1,60.0992678920452,
5,parcelated_audio/33/33_31.aiff,0,5,5,5,,,,,0,30,30,30,,,,,,,,,,,,,,,,,,,,,,,,,,,,,,,,,,,,,,,,,,,,,,,,,,,,,,,2757.9149255598195,None,2757.915782975033,None,9,1.3314460549736395,2767.6489835599787,None,2767.6489835599787,None,2767.6489835599787,None,2767.6489835599787,None,,,,,,,,,092419_p2,001,2019_Sep_24_1613,body_behavioural,3.2.1,60.0992678920452,
5,parcelated_audio/33/33_32.aiff,0,5,5,5,,,,,0,31,31,31,,,,,,,,,,,,,,,,,,,,,,,,,,,,,,,,,,,,,,,,,,,,,,,,,,,,,,,2769.0829579948213,None,2769.0824225000106,None,1,0.4662598150316626,2774.6995766200125,None,2774.6995766200125,None,2774.6995766200125,None,2774.6995766200125,None,,,,,,,,,092419_p2,001,2019_Sep_24_1613,body_behavioural,3.2.1,60.0992678920452,
