count,audio,trials.thisRepN,trials.thisTrialN,trials.thisN,trials.thisIndex,trials_7.thisRepN,trials_7.thisTrialN,trials_7.thisN,trials_7.thisIndex,trials_2.thisRepN,trials_2.thisTrialN,trials_2.thisN,trials_2.thisIndex,order of stories,order of perspectives,text_38.started,text_38.stopped,key_resp_8.keys,key_resp_8.rt,key_resp_8.started,key_resp_8.stopped,text_39.started,text_39.stopped,text_33.started,text_33.stopped,key_resp_5.keys,key_resp_5.rt,key_resp_5.started,key_resp_5.stopped,text_4.started,text_4.stopped,image.started,image.stopped,text_5.started,text_5.stopped,text_37.started,text_37.stopped,key_resp_7.keys,key_resp_7.rt,key_resp_7.started,key_resp_7.stopped,question1_2.started,question1_2.stopped,question2_2.started,question2_2.stopped,question3_2.started,question3_2.stopped,question4_2.started,question4_2.stopped,question5_2.started,question5_2.stopped,question6_2.started,question6_2.stopped,image_15.started,image_15.stopped,text_49.started,text_49.stopped,key_resp_15.keys,key_resp_15.rt,key_resp_15.started,key_resp_15.stopped,text_50.started,text_50.stopped,key_resp_14.keys,key_resp_14.rt,key_resp_14.started,key_resp_14.stopped,sound_1.started,sound_1.stopped,pic1.started,pic1.stopped,ISI.started,ISI.stopped,story_presses.keys,story_presses.rt,story_presses.started,story_presses.stopped,image_2.started,image_2.stopped,text_34.started,text_34.stopped,text_35.started,text_35.stopped,participant,session,date,expName,psychopyVersion,frameRate,
0,,0,0,0,0,0,0,0,0,,,,,[22 33 22 44 21 43 13 31],"['Location' 'Social' 'Location' 'Location' 'Social' 'Location' 'Social'
 'Social']",11.674340189998475,None,space,0.3235179799994512,11.674340189998475,None,11.674340189998475,None,12.025229757997295,None,space,0.27116299200133653,12.025229757997295,None,12.591070187998412,None,12.591070187998412,None,12.591070187998412,None,12.607634744999814,None,space,0.3887625300012587,12.607634744999814,None,13.325666669999919,None,13.325666669999919,None,13.325666669999919,None,13.325666669999919,None,13.325666669999919,None,13.325666669999919,None,13.325666669999919,None,,,,,,,,,,,,,,,,,,,,,,,,,,,,,l,001,2019_Sep_30_1356,body_behavioural,3.2.1,59.9394510840326,
0,parcelated_audio/22/22_1.ogg,0,0,0,0,,,,,0,0,0,0,,,,,,,,,,,,,,,,,31.792160034998233,None,31.792160034998233,None,31.792160034998233,None,,,,,,,,,,,,,,,,,,,,,31.425747080000292,None,space,0.28131104999920353,31.425747080000292,None,32.19228085799841,None,space,0.30782691199783585,32.19228085799841,None,33.259059743499165,None,32.742970622999565,None,0.010505709498829674,None,1,0.2702412500002538,35.82665067799826,None,35.82665067799826,None,35.82665067799826,None,35.82665067799826,None,l,001,2019_Sep_30_1356,body_behavioural,3.2.1,59.9394510840326,
0,parcelated_audio/22/22_2.ogg,0,0,0,0,,,,,0,1,1,1,,,,,,,,,,,,,,,,,,,,,,,,,,,,,,,,,,,,,,,,,,,,,,,,,,,,,,,36.759201148497596,None,36.24343332999706,None,0.010936858499917435,None,1,0.3843154599999252,36.80940914999883,None,36.80940914999883,None,36.80940914999883,None,36.80940914999883,None,l,001,2019_Sep_30_1356,body_behavioural,3.2.1,59.9394510840326,
0,parcelated_audio/22/22_3.ogg,0,0,0,0,,,,,0,2,2,2,,,,,,,,,,,,,,,,,,,,,,,,,,,,,,,,,,,,,,,,,,,,,,,,,,,,,,,37.87670638349846,None,37.35955826799909,None,0.0026563594983599614,None,1,0.019144695001159562,37.90948174299774,None,37.90948174299774,None,37.90948174299774,None,37.90948174299774,None,l,001,2019_Sep_30_1356,body_behavioural,3.2.1,59.9394510840326,
0,parcelated_audio/22/22_4.ogg,0,0,0,0,,,,,0,3,3,3,,,,,,,,,,,,,,,,,,,,,,,,,,,,,,,,,,,,,,,,,,,,,,,,,,,,,,,38.610064908500135,None,38.09340381999937,None,0.003527032498823246,None,1,0.3078708480024943,38.64286715799972,None,38.64286715799972,None,38.64286715799972,None,38.64286715799972,None,l,001,2019_Sep_30_1356,body_behavioural,3.2.1,59.9394510840326,
0,parcelated_audio/22/22_5.ogg,0,0,0,0,,,,,0,4,4,4,,,,,,,,,,,,,,,,,,,,,,,,,,,,,,,,,,,,,,,,,,,,,,,,,,,,,,,39.59344584149767,None,39.07616065500042,None,0.004943554497003788,None,1,0.17035895899971365,39.626274694997846,None,39.626274694997846,None,39.626274694997846,None,39.626274694997846,None,l,001,2019_Sep_30_1356,body_behavioural,3.2.1,59.9394510840326,
0,parcelated_audio/22/22_6.ogg,0,0,0,0,,,,,0,5,5,5,,,,,,,,,,,,,,,,,,,,,,,,,,,,,,,,,,,,,,,,,,,,,,,,,,,,,,,40.45982779649967,None,39.94272424799783,None,0.009044654503668426,None,1,0.03537536200019531,40.51007271799972,None,40.51007271799972,None,40.51007271799972,None,40.51007271799972,None,l,001,2019_Sep_30_1356,body_behavioural,3.2.1,59.9394510840326,
0,parcelated_audio/22/22_7.ogg,0,0,0,0,,,,,0,6,6,6,,,,,,,,,,,,,,,,,,,,,,,,,,,,,,,,,,,,,,,,,,,,,,,,,,,,,,,41.19370282650016,None,40.67627980500038,None,0.01388448549550958,None,1,0.0876242150006874,41.243190629997116,None,41.243190629997116,None,41.243190629997116,None,41.243190629997116,None,l,001,2019_Sep_30_1356,body_behavioural,3.2.1,59.9394510840326,
0,parcelated_audio/22/22_8.ogg,0,0,0,0,,,,,0,7,7,7,,,,,,,,,,,,,,,,,,,,,,,,,,,,,,,,,,,,,,,,,,,,,,,,,,,,,,,41.96021061649844,None,41.44305616799829,None,0.0011851074959849939,None,1,0.0016025099976104684,42.00978638000015,None,42.00978638000015,None,42.00978638000015,None,42.00978638000015,None,l,001,2019_Sep_30_1356,body_behavioural,3.2.1,59.9394510840326,
0,parcelated_audio/22/22_9.ogg,0,0,0,0,,,,,0,8,8,8,,,,,,,,,,,,,,,,,,,,,,,,,,,,,,,,,,,,,,,,,,,,,,,,,,,,,,,42.64376141649882,None,42.12696823999795,None,0.000424485497205751,None,1,0.6605670049975743,42.6928387049993,None,42.6928387049993,None,42.6928387049993,None,42.6928387049993,None,l,001,2019_Sep_30_1356,body_behavioural,3.2.1,59.9394510840326,
0,parcelated_audio/22/22_10.ogg,0,0,0,0,,,,,0,9,9,9,,,,,,,,,,,,,,,,,,,,,,,,,,,,,,,,,,,,,,,,,,,,,,,,,,,,,,,43.99354935649717,None,43.47644417999982,None,0.005527250501472736,None,1,0.319673342997703,44.04374918800022,None,44.04374918800022,None,44.04374918800022,None,44.04374918800022,None,l,001,2019_Sep_30_1356,body_behavioural,3.2.1,59.9394510840326,
0,parcelated_audio/22/22_11.ogg,0,0,0,0,,,,,0,10,10,10,,,,,,,,,,,,,,,,,,,,,,,,,,,,,,,,,,,,,,,,,,,,,,,,,,,,,,,45.02728946349998,None,44.510936427999695,None,0.008961596500739688,None,1,1.1756140300021798,45.07661690999885,None,45.07661690999885,None,45.07661690999885,None,45.07661690999885,None,l,001,2019_Sep_30_1356,body_behavioural,3.2.1,59.9394510840326,
0,parcelated_audio/22/22_12.ogg,0,0,0,0,,,,,0,11,11,11,,,,,,,,,,,,,,,,,,,,,,,,,,,,,,,,,,,,,,,,,,,,,,,,,,,,,,,46.91080836349829,None,46.394244009999966,None,0.007073686494550202,None,1,0.2891338049994374,46.96016285499718,None,46.96016285499718,None,46.96016285499718,None,46.96016285499718,None,l,001,2019_Sep_30_1356,body_behavioural,3.2.1,59.9394510840326,
0,parcelated_audio/22/22_13.ogg,0,0,0,0,,,,,0,12,12,12,,,,,,,,,,,,,,,,,,,,,,,,,,,,,,,,,,,,,,,,,,,,,,,,,,,,,,,47.91034582849716,None,47.39363302499987,None,0.01001439249739633,None,1,0.2537003850011388,47.96025210500011,None,47.96025210500011,None,47.96025210500011,None,47.96025210500011,None,l,001,2019_Sep_30_1356,body_behavioural,3.2.1,59.9394510840326,
0,parcelated_audio/22/22_14.ogg,0,0,0,0,,,,,0,13,13,13,,,,,,,,,,,,,,,,,,,,,,,,,,,,,,,,,,,,,,,,,,,,,,,,,,,,,,,48.86097621149929,None,48.34408514499955,None,0.00798998949903762,None,1,0.0912403029979032,48.91089064999687,None,48.91089064999687,None,48.91089064999687,None,48.91089064999687,None,l,001,2019_Sep_30_1356,body_behavioural,3.2.1,59.9394510840326,
0,parcelated_audio/22/22_15.ogg,0,0,0,0,,,,,0,14,14,14,,,,,,,,,,,,,,,,,,,,,,,,,,,,,,,,,,,,,,,,,,,,,,,,,,,,,,,49.64458979849769,None,49.12694852799905,None,0.0010173414993914776,None,1,0.015188291999947978,49.693865539997205,None,49.693865539997205,None,49.693865539997205,None,49.693865539997205,None,l,001,2019_Sep_30_1356,body_behavioural,3.2.1,59.9394510840326,
0,parcelated_audio/22/22_16.ogg,0,0,0,0,,,,,0,15,15,15,,,,,,,,,,,,,,,,,,,,,,,,,,,,,,,,,,,,,,,,,,,,,,,,,,,,,,,50.36031090649885,None,49.843601027998375,None,0.0037330824961827602,None,1,0.37133650800024043,50.39465838799879,None,50.39465838799879,None,50.39465838799879,None,50.39465838799879,None,l,001,2019_Sep_30_1356,body_behavioural,3.2.1,59.9394510840326,
0,parcelated_audio/22/22_17.ogg,0,0,0,0,,,,,0,16,16,16,,,,,,,,,,,,,,,,,,,,,,,,,,,,,,,,,,,,,,,,,,,,,,,,,,,,,,,51.41093317149898,None,50.89365985800032,None,0.011595936499361414,None,1,0.3560334750000038,51.44378801499988,None,51.44378801499988,None,51.44378801499988,None,51.44378801499988,None,l,001,2019_Sep_30_1356,body_behavioural,3.2.1,59.9394510840326,
0,parcelated_audio/22/22_18.ogg,0,0,0,0,,,,,0,17,17,17,,,,,,,,,,,,,,,,,,,,,,,,,,,,,,,,,,,,,,,,,,,,,,,,,,,,,,,52.44432462349687,None,51.92725502999747,None,0.008668750495417044,None,1,0.35678531200028374,52.47690826299731,None,52.47690826299731,None,52.47690826299731,None,52.47690826299731,None,l,001,2019_Sep_30_1356,body_behavioural,3.2.1,59.9394510840326,
0,parcelated_audio/22/22_19.ogg,0,0,0,0,,,,,0,18,18,18,,,,,,,,,,,,,,,,,,,,,,,,,,,,,,,,,,,,,,,,,,,,,,,,,,,,,,,53.47741996649893,None,52.96056190499803,None,0.007613126497744815,None,1,1.0732463899985305,53.52759049999804,None,53.52759049999804,None,53.52759049999804,None,53.52759049999804,None,l,001,2019_Sep_30_1356,body_behavioural,3.2.1,59.9394510840326,
,,,,,,,,,,,,,,,,,,,,,,,,,,,,,,,,,,,,,,,,,,,,,,,,,,,,,,,,,,,,,,,,,,,,55.261273373498625,None,54.744907514999795,None,0.0030507404953823425,None,,,,,,,,,,,,,,,,,
