count,audio,trials.thisRepN,trials.thisTrialN,trials.thisN,trials.thisIndex,trials_7.thisRepN,trials_7.thisTrialN,trials_7.thisN,trials_7.thisIndex,trials_2.thisRepN,trials_2.thisTrialN,trials_2.thisN,trials_2.thisIndex,trials_3.thisRepN,trials_3.thisTrialN,trials_3.thisN,trials_3.thisIndex,instructText,order of stories,order of perspectives,text_38.started,text_38.stopped,key_resp_8.keys,key_resp_8.rt,key_resp_8.started,key_resp_8.stopped,text_39.started,text_39.stopped,text_33.started,text_33.stopped,key_resp_5.keys,key_resp_5.rt,key_resp_5.started,key_resp_5.stopped,text_4.started,text_4.stopped,image.started,image.stopped,text_5.started,text_5.stopped,text_37.started,text_37.stopped,key_resp_7.keys,key_resp_7.rt,key_resp_7.started,key_resp_7.stopped,question1_2.started,question1_2.stopped,question2_2.started,question2_2.stopped,question3_2.started,question3_2.stopped,question4_2.started,question4_2.stopped,question5_2.started,question5_2.stopped,question6_2.started,question6_2.stopped,image_15.started,image_15.stopped,text_49.started,text_49.stopped,key_resp_15.keys,key_resp_15.rt,key_resp_15.started,key_resp_15.stopped,text_50.started,text_50.stopped,key_resp_14.keys,key_resp_14.rt,key_resp_14.started,key_resp_14.stopped,sound_1.started,sound_1.stopped,pic1.started,pic1.stopped,story_presses.keys,story_presses.rt,story_presses.started,story_presses.stopped,image_2.started,image_2.stopped,text_34.started,text_34.stopped,text_35.started,text_35.stopped,text.started,text.stopped,text_52.started,text_52.stopped,key_resp_16.keys,key_resp_16.rt,key_resp_16.started,key_resp_16.stopped,story time,text_45.started,text_45.stopped,key_resp_6.keys,key_resp_6.rt,key_resp_6.started,key_resp_6.stopped,participant,session,date,expName,psychopyVersion,frameRate,
0,,0,0,0,0,0,0,0,0,,,,,,,,,,[32 14 22 44 21 43 13 31],"['Location' 'Social' 'Location' 'Location' 'Social' 'Location' 'Social'
 'Social']",26.874656724045053,None,space,0.3630741599481553,26.874656724045053,None,26.874656724045053,None,27.258384926011786,None,space,0.39852961199358106,27.258384926011786,None,27.942182739032432,None,27.942182739032432,None,27.942182739032432,None,28.457817026006524,None,space,0.40581766195828095,28.457817026006524,None,29.225451501028147,None,29.225451501028147,None,29.225451501028147,None,29.225451501028147,None,29.225451501028147,None,29.225451501028147,None,29.225451501028147,None,,,,,,,,,,,,,,,,,,,,,,,,,,,,,,,,,,,,,,,,,,l,001,2019_Sep_25_0014,body_behavioural,3.2.1,59.81924217192472,
0,parcelated_audio/32/32_1.aiff,0,0,0,0,,,,,0,0,0,0,,,,,,,,,,,,,,,,,,,,,,31.225012384005822,None,31.225012384005822,None,31.225012384005822,None,,,,,,,,,,,,,,,,,,,,,30.874655216000974,None,space,0.28197447303682566,30.874655216000974,None,31.60891252104193,None,space,0.3775224499986507,31.60891252104193,None,32.14171237021219,None,32.14169757603668,None,9,0.3214651989983395,43.509142156050075,None,43.509142156050075,None,43.509142156050075,None,43.509142156050075,None,,,,,,,,,,,,,,,,l,001,2019_Sep_25_0014,body_behavioural,3.2.1,59.81924217192472,
0,parcelated_audio/32/32_2.aiff,0,0,0,0,,,,,0,1,1,1,,,,,,,,,,,,,,,,,,,,,,,,,,,,,,,,,,,,,,,,,,,,,,,,,,,,,,,,,,,,43.92726817721268,None,43.92612352204742,None,9,1.2633386880042963,52.2600607140339,None,52.2600607140339,None,52.2600607140339,None,52.2600607140339,None,,,,,,,,,,,,,,,,l,001,2019_Sep_25_0014,body_behavioural,3.2.1,59.81924217192472,
0,parcelated_audio/32/32_3.aiff,0,0,0,0,,,,,0,2,2,2,,,,,,,,,,,,,,,,,,,,,,,,,,,,,,,,,,,,,,,,,,,,,,,,,,,,,,,,,,,,53.61040965124266,None,53.60969685803866,None,9,0.24486399599118158,59.16063304099953,None,59.16063304099953,None,59.16063304099953,None,59.16063304099953,None,,,,,,,,,,,,,,,,l,001,2019_Sep_25_0014,body_behavioural,3.2.1,59.81924217192472,
0,parcelated_audio/32/32_4.aiff,0,0,0,0,,,,,0,3,3,3,,,,,,,,,,,,,,,,,,,,,,,,,,,,,,,,,,,,,,,,,,,,,,,,,,,,,,,,,,,,59.47780198225519,None,59.47722555400105,None,9,0.2781564059550874,66.17702666402329,None,66.17702666402329,None,66.17702666402329,None,66.17702666402329,None,,,,,,,,,,,,,,,,l,001,2019_Sep_25_0014,body_behavioural,3.2.1,59.81924217192472,
0,parcelated_audio/32/32_5.aiff,0,0,0,0,,,,,0,4,4,4,,,,,,,,,,,,,,,,,,,,,,,,,,,,,,,,,,,,,,,,,,,,,,,,,,,,,,,,,,,,66.59464639122598,None,66.59505285602063,None,9,0.38726497802417725,77.94486753904494,None,77.94486753904494,None,77.94486753904494,None,77.94486753904494,None,,,,,,,,,,,,,,,,l,001,2019_Sep_25_0014,body_behavioural,3.2.1,59.81924217192472,
0,parcelated_audio/32/32_6.aiff,0,0,0,0,,,,,0,5,5,5,,,,,,,,,,,,,,,,,,,,,,,,,,,,,,,,,,,,,,,,,,,,,,,,,,,,,,,,,,,,78.47964764025528,None,78.4786637640209,None,9,0.4140951149747707,86.94580893905368,None,86.94580893905368,None,86.94580893905368,None,86.94580893905368,None,,,,,,,,,,,,,,,,l,001,2019_Sep_25_0014,body_behavioural,3.2.1,59.81924217192472,
0,parcelated_audio/32/32_7.aiff,0,0,0,0,,,,,0,6,6,6,,,,,,,,,,,,,,,,,,,,,,,,,,,,,,,,,,,,,,,,,,,,,,,,,,,,,,,,,,,,87.44607899221592,None,87.44556342402939,None,9,0.2810861829784699,90.82967902603559,None,90.82967902603559,None,90.82967902603559,None,90.82967902603559,None,,,,,,,,,,,,,,,,l,001,2019_Sep_25_0014,body_behavioural,3.2.1,59.81924217192472,
0,parcelated_audio/32/32_8.aiff,0,0,0,0,,,,,0,7,7,7,,,,,,,,,,,,,,,,,,,,,,,,,,,,,,,,,,,,,,,,,,,,,,,,,,,,,,,,,,,,91.19719717220869,None,91.19679106603144,None,9,0.3284859170089476,95.6799118660274,None,95.6799118660274,None,95.6799118660274,None,95.6799118660274,None,,,,,,,,,,,,,,,,l,001,2019_Sep_25_0014,body_behavioural,3.2.1,59.81924217192472,
0,parcelated_audio/32/32_9.aiff,0,0,0,0,,,,,0,8,8,8,,,,,,,,,,,,,,,,,,,,,,,,,,,,,,,,,,,,,,,,,,,,,,,,,,,,,,,,,,,,96.1141091172467,None,96.11338951101061,None,9,0.023472200031392276,104.79725108103594,None,104.79725108103594,None,104.79725108103594,None,104.79725108103594,None,,,,,,,,,,,,,,,,l,001,2019_Sep_25_0014,body_behavioural,3.2.1,59.81924217192472,
0,parcelated_audio/32/32_10.aiff,0,0,0,0,,,,,0,9,9,9,,,,,,,,,,,,,,,,,,,,,,,,,,,,,,,,,,,,,,,,,,,,,,,,,,,,,,,,,,,,104.91422637022333,None,104.91391839605058,None,9,0.4109289119951427,109.58169016102329,None,109.58169016102329,None,109.58169016102329,None,109.58169016102329,None,,,,,,,,,,,,,,,,l,001,2019_Sep_25_0014,body_behavioural,3.2.1,59.81924217192472,
0,parcelated_audio/32/32_11.aiff,0,0,0,0,,,,,0,10,10,10,,,,,,,,,,,,,,,,,,,,,,,,,,,,,,,,,,,,,,,,,,,,,,,,,,,,,,,,,,,,110.08180678222561,None,110.08194702904439,None,9,0.28796412295196205,116.14841454400448,None,116.14841454400448,None,116.14841454400448,None,116.14841454400448,None,,,,,,,,,,,,,,,,l,001,2019_Sep_25_0014,body_behavioural,3.2.1,59.81924217192472,
0,parcelated_audio/32/32_12.aiff,0,0,0,0,,,,,0,11,11,11,,,,,,,,,,,,,,,,,,,,,,,,,,,,,,,,,,,,,,,,,,,,,,,,,,,,,,,,,,,,116.53144445020007,None,116.53141773602692,None,9,0.3013919420191087,125.96541759604588,None,125.96541759604588,None,125.96541759604588,None,125.96541759604588,None,,,,,,,,,,,,,,,,l,001,2019_Sep_25_0014,body_behavioural,3.2.1,59.81924217192472,
0,parcelated_audio/32/32_13.aiff,0,0,0,0,,,,,0,12,12,12,,,,,,,,,,,,,,,,,,,,,,,,,,,,,,,,,,,,,,,,,,,,,,,,,,,,,,,,,,,,126.38187562220264,None,126.38207199104363,None,9,0.4400932749849744,135.98379842104623,None,135.98379842104623,None,135.98379842104623,None,135.98379842104623,None,,,,,,,,,,,,,,,,l,001,2019_Sep_25_0014,body_behavioural,3.2.1,59.81924217192472,
0,parcelated_audio/32/32_14.aiff,0,0,0,0,,,,,0,13,13,13,,,,,,,,,,,,,,,,,,,,,,,,,,,,,,,,,,,,,,,,,,,,,,,,,,,,,,,,,,,,136.51605114521226,None,136.51596959104063,None,9,0.44805175298824906,144.5994588410249,None,144.5994588410249,None,144.5994588410249,None,144.5994588410249,None,,,,,,,,,,,,,,,,l,001,2019_Sep_25_0014,body_behavioural,3.2.1,59.81924217192472,
0,parcelated_audio/32/32_15.aiff,0,0,0,0,,,,,0,14,14,14,,,,,,,,,,,,,,,,,,,,,,,,,,,,,,,,,,,,,,,,,,,,,,,,,,,,,,,,,,,,145.13418815023033,None,145.13331537903287,None,9,0.27651506499387324,152.00055104104104,None,152.00055104104104,None,152.00055104104104,None,152.00055104104104,None,,,,,,,,,,,,,,,,l,001,2019_Sep_25_0014,body_behavioural,3.2.1,59.81924217192472,
0,parcelated_audio/32/32_16.aiff,0,0,0,0,,,,,0,15,15,15,,,,,,,,,,,,,,,,,,,,,,,,,,,,,,,,,,,,,,,,,,,,,,,,,,,,,,,,,,,,152.3670773402555,None,152.36796653905185,None,9,0.3479018500074744,159.98452157905558,None,159.98452157905558,None,159.98452157905558,None,159.98452157905558,None,,,,,,,,,,,,,,,,l,001,2019_Sep_25_0014,body_behavioural,3.2.1,59.81924217192472,
0,parcelated_audio/32/32_17.aiff,0,0,0,0,,,,,0,16,16,16,,,,,,,,,,,,,,,,,,,,,,,,,,,,,,,,,,,,,,,,,,,,,,,,,,,,,,,,,,,,160.41813846724108,None,160.4176744890283,None,9,62.61827350000385,168.70131751900772,None,168.70131751900772,None,168.70131751900772,None,168.70131751900772,None,,,,,,,,,,,,,,,,l,001,2019_Sep_25_0014,body_behavioural,3.2.1,59.81924217192472,
0,parcelated_audio/32/32_18.aiff,0,0,0,0,,,,,0,17,17,17,,,,,,,,,,,,,,,,,,,,,,,,,,,,,,,,,,,,,,,,,,,,,,,,,,,,,,,,,,,,231.43934434023686,None,231.43969310604734,None,9,0.3249515020288527,235.72292622900568,None,235.72292622900568,None,235.72292622900568,None,235.72292622900568,None,,,,,,,,,,,,,,,,l,001,2019_Sep_25_0014,body_behavioural,3.2.1,59.81924217192472,
0,parcelated_audio/32/32_19.aiff,0,0,0,0,,,,,0,18,18,18,,,,,,,,,,,,,,,,,,,,,,,,,,,,,,,,,,,,,,,,,,,,,,,,,,,,,,,,,,,,236.15697009523865,None,236.1560344340396,None,9,0.27946960501139984,244.19024978403468,None,244.19024978403468,None,244.19024978403468,None,244.19024978403468,None,,,,,,,,,,,,,,,,l,001,2019_Sep_25_0014,body_behavioural,3.2.1,59.81924217192472,
0,parcelated_audio/32/32_20.aiff,0,0,0,0,,,,,0,19,19,19,,,,,,,,,,,,,,,,,,,,,,,,,,,,,,,,,,,,,,,,,,,,,,,,,,,,,,,,,,,,244.59022655221634,None,244.58988263405627,None,9,0.3676157500012778,255.47426673903828,None,255.47426673903828,None,255.47426673903828,None,255.47426673903828,None,,,,,,,,,,,,,,,,l,001,2019_Sep_25_0014,body_behavioural,3.2.1,59.81924217192472,
0,parcelated_audio/32/32_21.aiff,0,0,0,0,,,,,0,20,20,20,,,,,,,,,,,,,,,,,,,,,,,,,,,,,,,,,,,,,,,,,,,,,,,,,,,,,,,,,,,,255.9583534502308,None,255.95712403400103,None,9,0.33114874496823177,264.8083676890237,None,264.8083676890237,None,264.8083676890237,None,264.8083676890237,None,,,,,,,,,,,,,,,,l,001,2019_Sep_25_0014,body_behavioural,3.2.1,59.81924217192472,
0,parcelated_audio/32/32_22.aiff,0,0,0,0,,,,,0,21,21,21,,,,,,,,,,,,,,,,,,,,,,,,,,,,,,,,,,,,,,,,,,,,,,,,,,,,,,,,,,,,265.22470535023604,None,265.2249217610224,None,9,76.56397884403123,276.5928399390541,None,276.5928399390541,None,276.5928399390541,None,276.5928399390541,None,,,,,,,,,,,,,,,,l,001,2019_Sep_25_0014,body_behavioural,3.2.1,59.81924217192472,
0,parcelated_audio/32/32_23.aiff,0,0,0,0,,,,,0,22,22,22,,,,,,,,,,,,,,,,,,,,,,,,,,,,,,,,,,,,,,,,,,,,,,,,,,,,,,,,,,,,353.29792217724025,None,353.297720202012,None,9,0.3069041830021888,362.3480473560048,None,362.3480473560048,None,362.3480473560048,None,362.3480473560048,None,,,,,,,,,,,,,,,,l,001,2019_Sep_25_0014,body_behavioural,3.2.1,59.81924217192472,
0,parcelated_audio/32/32_24.aiff,0,0,0,0,,,,,0,23,23,23,,,,,,,,,,,,,,,,,,,,,,,,,,,,,,,,,,,,,,,,,,,,,,,,,,,,,,,,,,,,362.7812627432286,None,362.7826829540427,None,9,0.36186427995562553,374.0656277119997,None,374.0656277119997,None,374.0656277119997,None,374.0656277119997,None,,,,,,,,,,,,,,,,l,001,2019_Sep_25_0014,body_behavioural,3.2.1,59.81924217192472,
0,parcelated_audio/32/32_25.aiff,0,0,0,0,,,,,0,24,24,24,,,,,,,,,,,,,,,,,,,,,,,,,,,,,,,,,,,,,,,,,,,,,,,,,,,,,,,,,,,,374.53269619023195,None,374.53227452002466,None,9,0.3256289749988355,380.58384910901077,None,380.58384910901077,None,380.58384910901077,None,380.58384910901077,None,,,,,,,,,,,,,,,,l,001,2019_Sep_25_0014,body_behavioural,3.2.1,59.81924217192472,
0,parcelated_audio/32/32_26.aiff,0,0,0,0,,,,,0,25,25,25,,,,,,,,,,,,,,,,,,,,,,,,,,,,,,,,,,,,,,,,,,,,,,,,,,,,,,,,,,,,380.99978169525275,None,380.99994817900006,None,9,99.30438905197661,392.349711354007,None,392.349711354007,None,392.349711354007,None,392.349711354007,None,,,,,,,,,,,,,,,,l,001,2019_Sep_25_0014,body_behavioural,3.2.1,59.81924217192472,
0,parcelated_audio/32/32_27.aiff,0,0,0,0,,,,,0,26,26,26,,,,,,,,,,,,,,,,,,,,,,,,,,,,,,,,,,,,,,,,,,,,,,,,,,,,,,,,,,,,491.79069925722433,None,491.7915506240097,None,9,0.40657095797359943,498.7245122240274,None,498.7245122240274,None,498.7245122240274,None,498.7245122240274,None,,,,,,,,,,,,,,,,l,001,2019_Sep_25_0014,body_behavioural,3.2.1,59.81924217192472,
0,parcelated_audio/32/32_28.aiff,0,0,0,0,,,,,0,27,27,27,,,,,,,,,,,,,,,,,,,,,,,,,,,,,,,,,,,,,,,,,,,,,,,,,,,,,,,,,,,,499.24169132020324,None,499.24128166399896,None,9,0.3124053950305097,505.9248505360447,None,505.9248505360447,None,505.9248505360447,None,505.9248505360447,None,,,,,,,,,,,,,,,,l,001,2019_Sep_25_0014,body_behavioural,3.2.1,59.81924217192472,
0,parcelated_audio/32/32_29.aiff,0,0,0,0,,,,,0,28,28,28,,,,,,,,,,,,,,,,,,,,,,,,,,,,,,,,,,,,,,,,,,,,,,,,,,,,,,,,,,,,506.32484903524164,None,506.32500591600547,None,9,0.27292400400619954,508.95901787205366,None,508.95901787205366,None,508.95901787205366,None,508.95901787205366,None,,,,,,,,,,,,,,,,l,001,2019_Sep_25_0014,body_behavioural,3.2.1,59.81924217192472,
0,parcelated_audio/32/32_30.aiff,0,0,0,0,,,,,0,29,29,29,,,,,,,,,,,,,,,,,,,,,,,,,,,,,,,,,,,,,,,,,,,,,,,,,,,,,,,,,,,,509.3255030652508,None,509.3250990490196,None,9,0.23603440000442788,516.3418900840334,None,516.3418900840334,None,516.3418900840334,None,516.3418900840334,None,,,,,,,,,,,,,,,,l,001,2019_Sep_25_0014,body_behavioural,3.2.1,59.81924217192472,
0,parcelated_audio/32/32_31.aiff,0,0,0,0,,,,,0,30,30,30,,,,,,,,,,,,,,,,,,,,,,,,,,,,,,,,,,,,,,,,,,,,,,,,,,,,,,,,,,,,516.6591911352007,None,516.65844681405,None,9,0.3183136979932897,522.9934081310057,None,522.9934081310057,None,522.9934081310057,None,522.9934081310057,None,,,,,,,,,,,,,,,,l,001,2019_Sep_25_0014,body_behavioural,3.2.1,59.81924217192472,
0,parcelated_audio/32/32_32.aiff,0,0,0,0,,,,,0,31,31,31,,,,,,,,,,,,,,,,,,,,,,,,,,,,,,,,,,,,,,,,,,,,,,,,,,,,,,,,,,,,523.425734935212,None,523.4260555810179,None,9,0.4998003849759698,533.143305921054,None,533.143305921054,None,533.143305921054,None,533.143305921054,None,,,,,,,,,,,,,,,,l,001,2019_Sep_25_0014,body_behavioural,3.2.1,59.81924217192472,
0,parcelated_audio/32/32_33.aiff,0,0,0,0,,,,,0,32,32,32,,,,,,,,,,,,,,,,,,,,,,,,,,,,,,,,,,,,,,,,,,,,,,,,,,,,,,,,,,,,533.7266529492335,None,533.7268908380065,None,9,0.3026851899921894,539.4603607690078,None,539.4603607690078,None,539.4603607690078,None,539.4603607690078,None,,,,,,,,,,,,,,,,l,001,2019_Sep_25_0014,body_behavioural,3.2.1,59.81924217192472,
0,,0,0,0,0,,,,,,,,,,,,,,,,,,,,,,,,,,,,,,,,,,,,,,,,,,,,,,,,,,,,,,,,,,,,,,,,,,,,,,,,,,,,,,,,,,539.8113860910526,None,539.8113860910526,None,space,1.132088981976267,539.8113860910526,None,,,,,,,,l,001,2019_Sep_25_0014,body_behavioural,3.2.1,59.81924217192472,
1,,0,1,1,1,0,0,0,0,,,,,,,,,,,,540.977442551055,None,space,0.3638363599893637,540.977442551055,None,540.977442551055,None,541.360748970008,None,space,0.44250736403046176,541.360748970008,None,541.8943642390077,None,541.8943642390077,None,541.8943642390077,None,542.3618213710142,None,space,0.48546847194666043,542.3618213710142,None,543.2615922940313,None,543.2615922940313,None,543.2615922940313,None,543.2615922940313,None,543.2615922940313,None,543.2615922940313,None,543.2615922940313,None,,,,,,,,,,,,,,,,,,,,,,,,,,,,,,,,,,,,,,,,,,l,001,2019_Sep_25_0014,body_behavioural,3.2.1,59.81924217192472,
1,parcelated_audio/14/14_1.aiff,0,1,1,1,,,,,0,0,0,0,,,,,,,,,,,,,,,,,,,,,,547.5604185340344,None,547.5604185340344,None,547.5604185340344,None,,,,,,,,,,,,,,,,,,,,,546.2945652610506,None,space,1.2123480850132182,546.2945652610506,None,548.1940723640146,None,space,0.3818221950205043,548.1940723640146,None,548.7945780952577,None,548.794052791025,None,9,0.7967263520113192,555.6444714509998,None,555.6444714509998,None,555.6444714509998,None,555.6444714509998,None,,,,,,,,,,,,,,,,l,001,2019_Sep_25_0014,body_behavioural,3.2.1,59.81924217192472,
1,parcelated_audio/14/14_2.aiff,0,1,1,1,,,,,0,1,1,1,,,,,,,,,,,,,,,,,,,,,,,,,,,,,,,,,,,,,,,,,,,,,,,,,,,,,,,,,,,,556.5454705022275,None,556.5448307710467,None,9,0.27735060499981046,563.0953288640012,None,563.0953288640012,None,563.0953288640012,None,563.0953288640012,None,,,,,,,,,,,,,,,,l,001,2019_Sep_25_0014,body_behavioural,3.2.1,59.81924217192472,
1,parcelated_audio/14/14_3.aiff,0,1,1,1,,,,,0,2,2,2,,,,,,,,,,,,,,,,,,,,,,,,,,,,,,,,,,,,,,,,,,,,,,,,,,,,,,,,,,,,563.461792567221,None,563.4622149740462,None,9,0.3438870750251226,567.1457021790557,None,567.1457021790557,None,567.1457021790557,None,567.1457021790557,None,,,,,,,,,,,,,,,,l,001,2019_Sep_25_0014,body_behavioural,3.2.1,59.81924217192472,
1,parcelated_audio/14/14_4.aiff,0,1,1,1,,,,,0,3,3,3,,,,,,,,,,,,,,,,,,,,,,,,,,,,,,,,,,,,,,,,,,,,,,,,,,,,,,,,,,,,567.5957851152052,None,567.5954238840495,None,9,0.3408849770203233,575.529661904031,None,575.529661904031,None,575.529661904031,None,575.529661904031,None,,,,,,,,,,,,,,,,l,001,2019_Sep_25_0014,body_behavioural,3.2.1,59.81924217192472,
1,parcelated_audio/14/14_5.aiff,0,1,1,1,,,,,0,4,4,4,,,,,,,,,,,,,,,,,,,,,,,,,,,,,,,,,,,,,,,,,,,,,,,,,,,,,,,,,,,,575.9624927522382,None,575.9640175890527,None,9,0.3187469629920088,580.8138013210264,None,580.8138013210264,None,580.8138013210264,None,580.8138013210264,None,,,,,,,,,,,,,,,,l,001,2019_Sep_25_0014,body_behavioural,3.2.1,59.81924217192472,
1,parcelated_audio/14/14_6.aiff,0,1,1,1,,,,,0,5,5,5,,,,,,,,,,,,,,,,,,,,,,,,,,,,,,,,,,,,,,,,,,,,,,,,,,,,,,,,,,,,581.2307689022273,None,581.2301135010202,None,9,0.5312520070001483,587.0636974990484,None,587.0636974990484,None,587.0636974990484,None,587.0636974990484,None,,,,,,,,,,,,,,,,l,001,2019_Sep_25_0014,body_behavioural,3.2.1,59.81924217192472,
1,parcelated_audio/14/14_7.aiff,0,1,1,1,,,,,0,6,6,6,,,,,,,,,,,,,,,,,,,,,,,,,,,,,,,,,,,,,,,,,,,,,,,,,,,,,,,,,,,,587.6805991652072,None,587.6804822510458,None,9,0.38412608701037243,597.2979287660564,None,597.2979287660564,None,597.2979287660564,None,597.2979287660564,None,,,,,,,,,,,,,,,,l,001,2019_Sep_25_0014,body_behavioural,3.2.1,59.81924217192472,
1,parcelated_audio/14/14_8.aiff,0,1,1,1,,,,,0,7,7,7,,,,,,,,,,,,,,,,,,,,,,,,,,,,,,,,,,,,,,,,,,,,,,,,,,,,,,,,,,,,597.780152340245,None,597.780643251026,None,9,0.10002638096921146,602.9980289240484,None,602.9980289240484,None,602.9980289240484,None,602.9980289240484,None,,,,,,,,,,,,,,,,l,001,2019_Sep_25_0014,body_behavioural,3.2.1,59.81924217192472,
1,parcelated_audio/14/14_9.aiff,0,1,1,1,,,,,0,8,8,8,,,,,,,,,,,,,,,,,,,,,,,,,,,,,,,,,,,,,,,,,,,,,,,,,,,,,,,,,,,,603.1973627532134,None,603.1979238040512,None,9,0.31334057002095506,606.9160581960459,None,606.9160581960459,None,606.9160581960459,None,606.9160581960459,None,,,,,,,,,,,,,,,,l,001,2019_Sep_25_0014,body_behavioural,3.2.1,59.81924217192472,
1,parcelated_audio/14/14_10.aiff,0,1,1,1,,,,,0,9,9,9,,,,,,,,,,,,,,,,,,,,,,,,,,,,,,,,,,,,,,,,,,,,,,,,,,,,,,,,,,,,607.3155911902431,None,607.3153775090468,None,9,182.14000128302723,618.6659686090425,None,618.6659686090425,None,618.6659686090425,None,618.6659686090425,None,,,,,,,,,,,,,,,,l,001,2019_Sep_25_0014,body_behavioural,3.2.1,59.81924217192472,
1,parcelated_audio/14/14_11.aiff,0,1,1,1,,,,,0,10,10,10,,,,,,,,,,,,,,,,,,,,,,,,,,,,,,,,,,,,,,,,,,,,,,,,,,,,,,,,,,,,800.9616492952337,None,800.9616816310445,None,9,40.60744338098448,808.198909821047,None,808.198909821047,None,808.198909821047,None,808.198909821047,None,,,,,,,,,,,,,,,,l,001,2019_Sep_25_0014,body_behavioural,3.2.1,59.81924217192472,
1,parcelated_audio/14/14_12.aiff,0,1,1,1,,,,,0,11,11,11,,,,,,,,,,,,,,,,,,,,,,,,,,,,,,,,,,,,,,,,,,,,,,,,,,,,,,,,,,,,848.8993110622396,None,848.899012378999,None,9,0.4610490330378525,856.8985752890003,None,856.8985752890003,None,856.8985752890003,None,856.8985752890003,None,,,,,,,,,,,,,,,,l,001,2019_Sep_25_0014,body_behavioural,3.2.1,59.81924217192472,
1,parcelated_audio/14/14_13.aiff,0,1,1,1,,,,,0,12,12,12,,,,,,,,,,,,,,,,,,,,,,,,,,,,,,,,,,,,,,,,,,,,,,,,,,,,,,,,,,,,857.4663438302232,None,857.4657993240398,None,9,0.30639878002693877,863.5828404940548,None,863.5828404940548,None,863.5828404940548,None,863.5828404940548,None,,,,,,,,,,,,,,,,l,001,2019_Sep_25_0014,body_behavioural,3.2.1,59.81924217192472,
1,parcelated_audio/14/14_14.aiff,0,1,1,1,,,,,0,13,13,13,,,,,,,,,,,,,,,,,,,,,,,,,,,,,,,,,,,,,,,,,,,,,,,,,,,,,,,,,,,,863.9836991522461,None,863.9838087460375,None,9,1.2080753089976497,870.549733839056,None,870.549733839056,None,870.549733839056,None,870.549733839056,None,,,,,,,,,,,,,,,,l,001,2019_Sep_25_0014,body_behavioural,3.2.1,59.81924217192472,
1,parcelated_audio/14/14_15.aiff,0,1,1,1,,,,,0,14,14,14,,,,,,,,,,,,,,,,,,,,,,,,,,,,,,,,,,,,,,,,,,,,,,,,,,,,,,,,,,,,871.8504209102248,None,871.8495842010016,None,9,0.29929348500445485,878.9501381760347,None,878.9501381760347,None,878.9501381760347,None,878.9501381760347,None,,,,,,,,,,,,,,,,l,001,2019_Sep_25_0014,body_behavioural,3.2.1,59.81924217192472,
1,parcelated_audio/14/14_16.aiff,0,1,1,1,,,,,0,15,15,15,,,,,,,,,,,,,,,,,,,,,,,,,,,,,,,,,,,,,,,,,,,,,,,,,,,,,,,,,,,,879.3343251752085,None,879.3338892990141,None,9,0.2622874819790013,884.7685562460101,None,884.7685562460101,None,884.7685562460101,None,884.7685562460101,None,,,,,,,,,,,,,,,,l,001,2019_Sep_25_0014,body_behavioural,3.2.1,59.81924217192472,
1,parcelated_audio/14/14_17.aiff,0,1,1,1,,,,,0,16,16,16,,,,,,,,,,,,,,,,,,,,,,,,,,,,,,,,,,,,,,,,,,,,,,,,,,,,,,,,,,,,885.1344898172538,None,885.1344439590466,None,9,3.1819759249920025,894.8350164890289,None,894.8350164890289,None,894.8350164890289,None,894.8350164890289,None,,,,,,,,,,,,,,,,l,001,2019_Sep_25_0014,body_behavioural,3.2.1,59.81924217192472,
1,parcelated_audio/14/14_18.aiff,0,1,1,1,,,,,0,17,17,17,,,,,,,,,,,,,,,,,,,,,,,,,,,,,,,,,,,,,,,,,,,,,,,,,,,,,,,,,,,,898.135493295209,None,898.1352523610112,None,9,1.1539349459926598,908.0859551610192,None,908.0859551610192,None,908.0859551610192,None,908.0859551610192,None,,,,,,,,,,,,,,,,l,001,2019_Sep_25_0014,body_behavioural,3.2.1,59.81924217192472,
1,parcelated_audio/14/14_19.aiff,0,1,1,1,,,,,0,18,18,18,,,,,,,,,,,,,,,,,,,,,,,,,,,,,,,,,,,,,,,,,,,,,,,,,,,,,,,,,,,,909.336151277239,None,909.3360802210518,None,9,0.4388421769835986,912.1698508140398,None,912.1698508140398,None,912.1698508140398,None,912.1698508140398,None,,,,,,,,,,,,,,,,l,001,2019_Sep_25_0014,body_behavioural,3.2.1,59.81924217192472,
1,parcelated_audio/14/14_20.aiff,0,1,1,1,,,,,0,19,19,19,,,,,,,,,,,,,,,,,,,,,,,,,,,,,,,,,,,,,,,,,,,,,,,,,,,,,,,,,,,,912.7029734852258,None,912.7035705190501,None,9,0.3271982120350003,914.8364557010354,None,914.8364557010354,None,914.8364557010354,None,914.8364557010354,None,,,,,,,,,,,,,,,,l,001,2019_Sep_25_0014,body_behavioural,3.2.1,59.81924217192472,
1,parcelated_audio/14/14_21.aiff,0,1,1,1,,,,,0,20,20,20,,,,,,,,,,,,,,,,,,,,,,,,,,,,,,,,,,,,,,,,,,,,,,,,,,,,,,,,,,,,915.2692415652564,None,915.2700526840053,None,9,0.5008796849870123,924.8371081440127,None,924.8371081440127,None,924.8371081440127,None,924.8371081440127,None,,,,,,,,,,,,,,,,l,001,2019_Sep_25_0014,body_behavioural,3.2.1,59.81924217192472,
1,parcelated_audio/14/14_22.aiff,0,1,1,1,,,,,0,21,21,21,,,,,,,,,,,,,,,,,,,,,,,,,,,,,,,,,,,,,,,,,,,,,,,,,,,,,,,,,,,,925.4380714402068,None,925.437253451033,None,9,0.4310804079868831,931.7876621190226,None,931.7876621190226,None,931.7876621190226,None,931.7876621190226,None,,,,,,,,,,,,,,,,l,001,2019_Sep_25_0014,body_behavioural,3.2.1,59.81924217192472,
1,parcelated_audio/14/14_23.aiff,0,1,1,1,,,,,0,22,22,22,,,,,,,,,,,,,,,,,,,,,,,,,,,,,,,,,,,,,,,,,,,,,,,,,,,,,,,,,,,,932.3053052302566,None,932.3038646540372,None,9,0.4259901350014843,937.3541674890439,None,937.3541674890439,None,937.3541674890439,None,937.3541674890439,None,,,,,,,,,,,,,,,,l,001,2019_Sep_25_0014,body_behavioural,3.2.1,59.81924217192472,
1,parcelated_audio/14/14_24.aiff,0,1,1,1,,,,,0,23,23,23,,,,,,,,,,,,,,,,,,,,,,,,,,,,,,,,,,,,,,,,,,,,,,,,,,,,,,,,,,,,937.8712779202033,None,937.8713506010245,None,9,0.5053469050326385,948.7894103960134,None,948.7894103960134,None,948.7894103960134,None,948.7894103960134,None,,,,,,,,,,,,,,,,l,001,2019_Sep_25_0014,body_behavioural,3.2.1,59.81924217192472,
1,parcelated_audio/14/14_25.aiff,0,1,1,1,,,,,0,24,24,24,,,,,,,,,,,,,,,,,,,,,,,,,,,,,,,,,,,,,,,,,,,,,,,,,,,,,,,,,,,,949.371743425203,None,949.3729020890314,None,9,1.1093020800035447,956.0056396810105,None,956.0056396810105,None,956.0056396810105,None,956.0056396810105,None,,,,,,,,,,,,,,,,l,001,2019_Sep_25_0014,body_behavioural,3.2.1,59.81924217192472,
1,parcelated_audio/14/14_26.aiff,0,1,1,1,,,,,0,25,25,25,,,,,,,,,,,,,,,,,,,,,,,,,,,,,,,,,,,,,,,,,,,,,,,,,,,,,,,,,,,,957.2064328922424,None,957.2059838810237,None,9,107.4900308700162,959.3758148440393,None,959.3758148440393,None,959.3758148440393,None,959.3758148440393,None,,,,,,,,,,,,,,,,l,001,2019_Sep_25_0014,body_behavioural,3.2.1,59.81924217192472,
1,parcelated_audio/14/14_27.aiff,0,1,1,1,,,,,0,26,26,26,,,,,,,,,,,,,,,,,,,,,,,,,,,,,,,,,,,,,,,,,,,,,,,,,,,,,,,,,,,,1067.0310854652198,None,1067.031329216028,None,1,2068.069725784997,1073.0480028080055,None,1073.0480028080055,None,1073.0480028080055,None,1073.0480028080055,None,,,,,,,,,,,,,,,,l,001,2019_Sep_25_0014,body_behavioural,3.2.1,59.81924217192472,
1,parcelated_audio/14/14_28.aiff,0,1,1,1,,,,,0,27,27,27,,,,,,,,,,,,,,,,,,,,,,,,,,,,,,,,,,,,,,,,,,,,,,,,,,,,,,,,,,,,3141.2624078372028,None,3141.2569235710544,None,1,0.9836544370045885,3144.2400729040382,None,3144.2400729040382,None,3144.2400729040382,None,3144.2400729040382,None,,,,,,,,,,,,,,,,l,001,2019_Sep_25_0014,body_behavioural,3.2.1,59.81924217192472,
1,parcelated_audio/14/14_29.aiff,0,1,1,1,,,,,0,28,28,28,,,,,,,,,,,,,,,,,,,,,,,,,,,,,,,,,,,,,,,,,,,,,,,,,,,,,,,,,,,,3145.307393919211,None,3145.3075576440315,None,1,0.3118395199999213,3147.6566176390043,None,3147.6566176390043,None,3147.6566176390043,None,3147.6566176390043,None,,,,,,,,,,,,,,,,l,001,2019_Sep_25_0014,body_behavioural,3.2.1,59.81924217192472,
1,parcelated_audio/14/14_30.aiff,0,1,1,1,,,,,0,29,29,29,,,,,,,,,,,,,,,,,,,,,,,,,,,,,,,,,,,,,,,,,,,,,,,,,,,,,,,,,,,,3148.057377120247,None,3148.057637761056,None,1,102.72600525501184,3152.3081750590354,None,3152.3081750590354,None,3152.3081750590354,None,3152.3081750590354,None,,,,,,,,,,,,,,,,l,001,2019_Sep_25_0014,body_behavioural,3.2.1,59.81924217192472,
1,parcelated_audio/14/14_31.aiff,0,1,1,1,,,,,0,30,30,30,,,,,,,,,,,,,,,,,,,,,,,,,,,,,,,,,,,,,,,,,,,,,,,,,,,,,,,,,,,,3255.1654602052295,None,3255.1648590940167,None,9,1.3577007360290736,3262.4490145300515,None,3262.4490145300515,None,3262.4490145300515,None,3262.4490145300515,None,,,,,,,,,,,,,,,,l,001,2019_Sep_25_0014,body_behavioural,3.2.1,59.81924217192472,
1,parcelated_audio/14/14_32.aiff,0,1,1,1,,,,,0,31,31,31,,,,,,,,,,,,,,,,,,,,,,,,,,,,,,,,,,,,,,,,,,,,,,,,,,,,,,,,,,,,3263.9153461792157,None,3263.91636449605,None,9,0.9911602200008929,3271.0491095010075,None,3271.0491095010075,None,3271.0491095010075,None,3271.0491095010075,None,,,,,,,,,,,,,,,,l,001,2019_Sep_25_0014,body_behavioural,3.2.1,59.81924217192472,
1,parcelated_audio/14/14_33.aiff,0,1,1,1,,,,,0,32,32,32,,,,,,,,,,,,,,,,,,,,,,,,,,,,,,,,,,,,,,,,,,,,,,,,,,,,,,,,,,,,3272.150055505219,None,3272.1489044240443,None,9,0.8298731449758634,3278.699672204035,None,3278.699672204035,None,3278.699672204035,None,3278.699672204035,None,,,,,,,,,,,,,,,,l,001,2019_Sep_25_0014,body_behavioural,3.2.1,59.81924217192472,
1,,0,1,1,1,,,,,,,,,,,,,,,,,,,,,,,,,,,,,,,,,,,,,,,,,,,,,,,,,,,,,,,,,,,,,,,,,,,,,,,,,,,,,,,,,,3279.5667024290306,None,3279.5667024290306,None,space,1.0235706900130026,3279.5667024290306,None,,,,,,,,l,001,2019_Sep_25_0014,body_behavioural,3.2.1,59.81924217192472,
2,,0,2,2,2,0,0,0,0,,,,,,,,,,,,3280.6174295360106,None,space,0.40560534998076037,3280.6174295360106,None,3280.6174295360106,None,3281.050165484019,None,space,0.4128432529978454,3281.050165484019,None,3281.566632230999,None,3281.566632230999,None,3281.566632230999,None,3282.033817904012,None,space,0.8143393569625914,3282.033817904012,None,3283.20040858601,None,3283.20040858601,None,3283.20040858601,None,3283.20040858601,None,3283.20040858601,None,3283.20040858601,None,3283.20040858601,None,,,,,,,,,,,,,,,,,,,,,,,,,,,,,,,,,,,,,,,,,,l,001,2019_Sep_25_0014,body_behavioural,3.2.1,59.81924217192472,
2,parcelated_audio/22/22_1.aiff,0,2,2,2,,,,,0,0,0,0,,,,,,,,,,,,,,,,,,,,,,3284.483544171031,None,3284.483544171031,None,3284.483544171031,None,,,,,,,,,,,,,,,,,,,,,3284.200820704049,None,space,0.21898254001280293,3284.200820704049,None,3285.0176029010327,None,space,0.47722469503059983,3285.0176029010327,None,3285.6845124522224,None,3285.6834415310295,None,1,69.60245629999554,3297.034455771034,None,3297.034455771034,None,3297.034455771034,None,3297.034455771034,None,,,,,,,,,,,,,,,,l,001,2019_Sep_25_0014,body_behavioural,3.2.1,59.81924217192472,
2,parcelated_audio/22/22_2.aiff,0,2,2,2,,,,,0,1,1,1,,,,,,,,,,,,,,,,,,,,,,,,,,,,,,,,,,,,,,,,,,,,,,,,,,,,,,,,,,,,3366.8058355702087,None,3366.80525881605,None,1,0.2839724189834669,3373.056371204031,None,3373.056371204031,None,3373.056371204031,None,3373.056371204031,None,,,,,,,,,,,,,,,,l,001,2019_Sep_25_0014,body_behavioural,3.2.1,59.81924217192472,
2,parcelated_audio/22/22_3.aiff,0,2,2,2,,,,,0,2,2,2,,,,,,,,,,,,,,,,,,,,,,,,,,,,,,,,,,,,,,,,,,,,,,,,,,,,,,,,,,,,3373.456426385208,None,3373.4557203620207,None,1,8.081980607996229,3384.7846654790337,None,3384.7846654790337,None,3384.7846654790337,None,3384.7846654790337,None,,,,,,,,,,,,,,,,l,001,2019_Sep_25_0014,body_behavioural,3.2.1,59.81924217192472,
2,parcelated_audio/22/22_4.aiff,0,2,2,2,,,,,0,3,3,3,,,,,,,,,,,,,,,,,,,,,,,,,,,,,,,,,,,,,,,,,,,,,,,,,,,,,,,,,,,,3393.023988959205,None,3393.023983310035,None,1,11.566676540998742,3404.358852666046,None,3404.358852666046,None,3404.358852666046,None,3404.358852666046,None,,,,,,,,,,,,,,,,l,001,2019_Sep_25_0014,body_behavioural,3.2.1,59.81924217192472,
2,parcelated_audio/22/22_5.aiff,0,2,2,2,,,,,0,4,4,4,,,,,,,,,,,,,,,,,,,,,,,,,,,,,,,,,,,,,,,,,,,,,,,,,,,,,,,,,,,,3416.0593820792274,None,3416.05938030401,None,1,1.8629576740204357,3421.992904089042,None,3421.992904089042,None,3421.992904089042,None,3421.992904089042,None,,,,,,,,,,,,,,,,l,001,2019_Sep_25_0014,body_behavioural,3.2.1,59.81924217192472,
2,parcelated_audio/22/22_6.aiff,0,2,2,2,,,,,0,5,5,5,,,,,,,,,,,,,,,,,,,,,,,,,,,,,,,,,,,,,,,,,,,,,,,,,,,,,,,,,,,,3423.959521590208,None,3423.9600868580164,None,1,22.776942204975057,3433.144103976025,None,3433.144103976025,None,3433.144103976025,None,3433.144103976025,None,,,,,,,,,,,,,,,,l,001,2019_Sep_25_0014,body_behavioural,3.2.1,59.81924217192472,
2,parcelated_audio/22/22_7.aiff,0,2,2,2,,,,,0,6,6,6,,,,,,,,,,,,,,,,,,,,,,,,,,,,,,,,,,,,,,,,,,,,,,,,,,,,,,,,,,,,3456.012445167231,None,3456.012320900045,None,1,2.329489460971672,3460.9770348280435,None,3460.9770348280435,None,3460.9770348280435,None,3460.9770348280435,None,,,,,,,,,,,,,,,,l,001,2019_Sep_25_0014,body_behavioural,3.2.1,59.81924217192472,
2,parcelated_audio/22/22_8.aiff,0,2,2,2,,,,,0,7,7,7,,,,,,,,,,,,,,,,,,,,,,,,,,,,,,,,,,,,,,,,,,,,,,,,,,,,,,,,,,,,3463.377840273257,None,3463.378161524015,None,1,0.8810399770154618,3466.895405348041,None,3466.895405348041,None,3466.895405348041,None,3466.895405348041,None,,,,,,,,,,,,,,,,l,001,2019_Sep_25_0014,body_behavioural,3.2.1,59.81924217192472,
2,parcelated_audio/22/22_9.aiff,0,2,2,2,,,,,0,8,8,8,,,,,,,,,,,,,,,,,,,,,,,,,,,,,,,,,,,,,,,,,,,,,,,,,,,,,,,,,,,,3467.8454197352403,None,3467.846831980045,None,1,2.094516714976635,3471.7469487260096,None,3471.7469487260096,None,3471.7469487260096,None,3471.7469487260096,None,,,,,,,,,,,,,,,,l,001,2019_Sep_25_0014,body_behavioural,3.2.1,59.81924217192472,
2,parcelated_audio/22/22_10.aiff,0,2,2,2,,,,,0,9,9,9,,,,,,,,,,,,,,,,,,,,,,,,,,,,,,,,,,,,,,,,,,,,,,,,,,,,,,,,,,,,3473.947001615248,None,3473.9473166190437,None,1,0.29611793998628855,3478.6975435110508,None,3478.6975435110508,None,3478.6975435110508,None,3478.6975435110508,None,,,,,,,,,,,,,,,,l,001,2019_Sep_25_0014,body_behavioural,3.2.1,59.81924217192472,
2,parcelated_audio/22/22_11.aiff,0,2,2,2,,,,,0,10,10,10,,,,,,,,,,,,,,,,,,,,,,,,,,,,,,,,,,,,,,,,,,,,,,,,,,,,,,,,,,,,3479.0807123672566,None,3479.080336214043,None,1,0.294886173971463,3486.3317024780554,None,3486.3317024780554,None,3486.3317024780554,None,3486.3317024780554,None,,,,,,,,,,,,,,,,l,001,2019_Sep_25_0014,body_behavioural,3.2.1,59.81924217192472,
2,parcelated_audio/22/22_12.aiff,0,2,2,2,,,,,0,11,11,11,,,,,,,,,,,,,,,,,,,,,,,,,,,,,,,,,,,,,,,,,,,,,,,,,,,,,,,,,,,,3486.7140881972155,None,3486.7137915320345,None,1,0.21591024001827464,3494.397323604033,None,3494.397323604033,None,3494.397323604033,None,3494.397323604033,None,,,,,,,,,,,,,,,,l,001,2019_Sep_25_0014,body_behavioural,3.2.1,59.81924217192472,
2,parcelated_audio/22/22_13.aiff,0,2,2,2,,,,,0,12,12,12,,,,,,,,,,,,,,,,,,,,,,,,,,,,,,,,,,,,,,,,,,,,,,,,,,,,,,,,,,,,3494.680681409256,None,3494.6812438000343,None,1,0.26557680196128786,3501.931560690049,None,3501.931560690049,None,3501.931560690049,None,3501.931560690049,None,,,,,,,,,,,,,,,,l,001,2019_Sep_25_0014,body_behavioural,3.2.1,59.81924217192472,
2,parcelated_audio/22/22_14.aiff,0,2,2,2,,,,,0,13,13,13,,,,,,,,,,,,,,,,,,,,,,,,,,,,,,,,,,,,,,,,,,,,,,,,,,,,,,,,,,,,3502.2816551232245,None,3502.2820875990437,None,1,0.2668593419948593,3507.8834734440316,None,3507.8834734440316,None,3507.8834734440316,None,3507.8834734440316,None,,,,,,,,,,,,,,,,l,001,2019_Sep_25_0014,body_behavioural,3.2.1,59.81924217192472,
2,parcelated_audio/22/22_15.aiff,0,2,2,2,,,,,0,14,14,14,,,,,,,,,,,,,,,,,,,,,,,,,,,,,,,,,,,,,,,,,,,,,,,,,,,,,,,,,,,,3508.2496928752516,None,3508.2495819840115,None,1,0.22829068498685956,3516.0334313040366,None,3516.0334313040366,None,3516.0334313040366,None,3516.0334313040366,None,,,,,,,,,,,,,,,,l,001,2019_Sep_25_0014,body_behavioural,3.2.1,59.81924217192472,
2,parcelated_audio/22/22_16.aiff,0,2,2,2,,,,,0,15,15,15,,,,,,,,,,,,,,,,,,,,,,,,,,,,,,,,,,,,,,,,,,,,,,,,,,,,,,,,,,,,3516.349524627207,None,3516.349885611038,None,1,0.24416537798242643,3524.9998208140023,None,3524.9998208140023,None,3524.9998208140023,None,3524.9998208140023,None,,,,,,,,,,,,,,,,l,001,2019_Sep_25_0014,body_behavioural,3.2.1,59.81924217192472,
2,parcelated_audio/22/22_17.aiff,0,2,2,2,,,,,0,16,16,16,,,,,,,,,,,,,,,,,,,,,,,,,,,,,,,,,,,,,,,,,,,,,,,,,,,,,,,,,,,,3525.3337112922454,None,3525.3335542940185,None,1,0.4066754929954186,3528.48315058602,None,3528.48315058602,None,3528.48315058602,None,3528.48315058602,None,,,,,,,,,,,,,,,,l,001,2019_Sep_25_0014,body_behavioural,3.2.1,59.81924217192472,
2,parcelated_audio/22/22_18.aiff,0,2,2,2,,,,,0,17,17,17,,,,,,,,,,,,,,,,,,,,,,,,,,,,,,,,,,,,,,,,,,,,,,,,,,,,,,,,,,,,3528.9668146272306,None,3528.9668325060047,None,1,80.73176077002427,3535.70026304404,None,3535.70026304404,None,3535.70026304404,None,3535.70026304404,None,,,,,,,,,,,,,,,,l,001,2019_Sep_25_0014,body_behavioural,3.2.1,59.81924217192472,
2,parcelated_audio/22/22_19.aiff,0,2,2,2,,,,,0,18,18,18,,,,,,,,,,,,,,,,,,,,,,,,,,,,,,,,,,,,,,,,,,,,,,,,,,,,,,,,,,,,3616.5400068072486,None,3616.5394243010087,None,9,1.07822430197848,3621.5066127840546,None,3621.5066127840546,None,3621.5066127840546,None,3621.5066127840546,None,,,,,,,,,,,,,,,,l,001,2019_Sep_25_0014,body_behavioural,3.2.1,59.81924217192472,
2,parcelated_audio/22/22_20.aiff,0,2,2,2,,,,,0,19,19,19,,,,,,,,,,,,,,,,,,,,,,,,,,,,,,,,,,,,,,,,,,,,,,,,,,,,,,,,,,,,3622.689836612204,None,3622.6898513310007,None,9,109.07492407504469,3634.04071372404,None,3634.04071372404,None,3634.04071372404,None,3634.04071372404,None,,,,,,,,,,,,,,,,l,001,2019_Sep_25_0014,body_behavioural,3.2.1,59.81924217192472,
2,parcelated_audio/22/22_21.aiff,0,2,2,2,,,,,0,20,20,20,,,,,,,,,,,,,,,,,,,,,,,,,,,,,,,,,,,,,,,,,,,,,,,,,,,,,,,,,,,,3743.283966551244,None,3743.2822293710196,None,9,3.785996505001094,3745.2889350590413,None,3745.2889350590413,None,3745.2889350590413,None,3745.2889350590413,None,,,,,,,,,,,,,,,,l,001,2019_Sep_25_0014,body_behavioural,3.2.1,59.81924217192472,
2,parcelated_audio/22/22_22.aiff,0,2,2,2,,,,,0,21,21,21,,,,,,,,,,,,,,,,,,,,,,,,,,,,,,,,,,,,,,,,,,,,,,,,,,,,,,,,,,,,3749.1661004202324,None,3749.1649595040362,None,9,6.158600014983676,3752.2814496460487,None,3752.2814496460487,None,3752.2814496460487,None,3752.2814496460487,None,,,,,,,,,,,,,,,,l,001,2019_Sep_25_0014,body_behavioural,3.2.1,59.81924217192472,
2,parcelated_audio/22/22_23.aiff,0,2,2,2,,,,,0,22,22,22,,,,,,,,,,,,,,,,,,,,,,,,,,,,,,,,,,,,,,,,,,,,,,,,,,,,,,,,,,,,3758.5320958502125,None,3758.5323639120325,None,1,37.19288215000415,3765.049582969048,None,3765.049582969048,None,3765.049582969048,None,3765.049582969048,None,,,,,,,,,,,,,,,,l,001,2019_Sep_25_0014,body_behavioural,3.2.1,59.81924217192472,
2,parcelated_audio/22/22_24.aiff,0,2,2,2,,,,,0,23,23,23,,,,,,,,,,,,,,,,,,,,,,,,,,,,,,,,,,,,,,,,,,,,,,,,,,,,,,,,,,,,3802.352096173214,None,3802.3520323610283,None,9,0.5113375979708508,3808.0859115610365,None,3808.0859115610365,None,3808.0859115610365,None,3808.0859115610365,None,,,,,,,,,,,,,,,,l,001,2019_Sep_25_0014,body_behavioural,3.2.1,59.81924217192472,
2,parcelated_audio/22/22_25.aiff,0,2,2,2,,,,,0,24,24,24,,,,,,,,,,,,,,,,,,,,,,,,,,,,,,,,,,,,,,,,,,,,,,,,,,,,,,,,,,,,3808.702535660239,None,3808.7024538140395,None,9,9.992987081990577,3820.070269354037,None,3820.070269354037,None,3820.070269354037,None,3820.070269354037,None,,,,,,,,,,,,,,,,l,001,2019_Sep_25_0014,body_behavioural,3.2.1,59.81924217192472,
2,parcelated_audio/22/22_26.aiff,0,2,2,2,,,,,0,25,25,25,,,,,,,,,,,,,,,,,,,,,,,,,,,,,,,,,,,,,,,,,,,,,,,,,,,,,,,,,,,,3830.204314877221,None,3830.20466055203,None,9,0.27169431297807023,3836.9392947940505,None,3836.9392947940505,None,3836.9392947940505,None,3836.9392947940505,None,,,,,,,,,,,,,,,,l,001,2019_Sep_25_0014,body_behavioural,3.2.1,59.81924217192472,
2,parcelated_audio/22/22_27.aiff,0,2,2,2,,,,,0,26,26,26,,,,,,,,,,,,,,,,,,,,,,,,,,,,,,,,,,,,,,,,,,,,,,,,,,,,,,,,,,,,3837.304379565234,None,3837.30510192801,None,9,0.25066704297205433,3841.705902731046,None,3841.705902731046,None,3841.705902731046,None,3841.705902731046,None,,,,,,,,,,,,,,,,l,001,2019_Sep_25_0014,body_behavioural,3.2.1,59.81924217192472,
2,parcelated_audio/22/22_28.aiff,0,2,2,2,,,,,0,27,27,27,,,,,,,,,,,,,,,,,,,,,,,,,,,,,,,,,,,,,,,,,,,,,,,,,,,,,,,,,,,,3842.055223712232,None,3842.0551757940557,None,9,0.3884793450124562,3847.7889248810243,None,3847.7889248810243,None,3847.7889248810243,None,3847.7889248810243,None,,,,,,,,,,,,,,,,l,001,2019_Sep_25_0014,body_behavioural,3.2.1,59.81924217192472,
2,parcelated_audio/22/22_29.aiff,0,2,2,2,,,,,0,28,28,28,,,,,,,,,,,,,,,,,,,,,,,,,,,,,,,,,,,,,,,,,,,,,,,,,,,,,,,,,,,,3848.2719457872445,None,3848.273027688032,None,9,0.33081670495448634,3853.989213434048,None,3853.989213434048,None,3853.989213434048,None,3853.989213434048,None,,,,,,,,,,,,,,,,l,001,2019_Sep_25_0014,body_behavioural,3.2.1,59.81924217192472,
2,parcelated_audio/22/22_30.aiff,0,2,2,2,,,,,0,29,29,29,,,,,,,,,,,,,,,,,,,,,,,,,,,,,,,,,,,,,,,,,,,,,,,,,,,,,,,,,,,,3854.405936875206,None,3854.405630744004,None,9,0.579739206994418,3857.0899886990082,None,3857.0899886990082,None,3857.0899886990082,None,3857.0899886990082,None,,,,,,,,,,,,,,,,l,001,2019_Sep_25_0014,body_behavioural,3.2.1,59.81924217192472,
2,parcelated_audio/22/22_31.aiff,0,2,2,2,,,,,0,30,30,30,,,,,,,,,,,,,,,,,,,,,,,,,,,,,,,,,,,,,,,,,,,,,,,,,,,,,,,,,,,,3857.756937902246,None,3857.7570731220185,None,9,0.7902022249763831,3862.8901559240185,None,3862.8901559240185,None,3862.8901559240185,None,3862.8901559240185,None,,,,,,,,,,,,,,,,l,001,2019_Sep_25_0014,body_behavioural,3.2.1,59.81924217192472,
2,parcelated_audio/22/22_32.aiff,0,2,2,2,,,,,0,31,31,31,,,,,,,,,,,,,,,,,,,,,,,,,,,,,,,,,,,,,,,,,,,,,,,,,,,,,,,,,,,,3863.772909580206,None,3863.774426390999,None,1,1.769749431987293,3870.0737645980553,None,3870.0737645980553,None,3870.0737645980553,None,3870.0737645980553,None,,,,,,,,,,,,,,,,l,001,2019_Sep_25_0014,body_behavioural,3.2.1,59.81924217192472,
2,parcelated_audio/22/22_33.aiff,0,2,2,2,,,,,0,32,32,32,,,,,,,,,,,,,,,,,,,,,,,,,,,,,,,,,,,,,,,,,,,,,,,,,,,,,,,,,,,,3871.940254345245,None,3871.940761792008,None,1,0.3331803949549794,3876.358017306018,None,3876.358017306018,None,3876.358017306018,None,3876.358017306018,None,,,,,,,,,,,,,,,,l,001,2019_Sep_25_0014,body_behavioural,3.2.1,59.81924217192472,
2,parcelated_audio/22/22_34.aiff,0,2,2,2,,,,,0,33,33,33,,,,,,,,,,,,,,,,,,,,,,,,,,,,,,,,,,,,,,,,,,,,,,,,,,,,,,,,,,,,3876.790593592217,None,3876.7908830509987,None,9,0.28356317401630804,3884.8075000620447,None,3884.8075000620447,None,3884.8075000620447,None,3884.8075000620447,None,,,,,,,,,,,,,,,,l,001,2019_Sep_25_0014,body_behavioural,3.2.1,59.81924217192472,
2,parcelated_audio/22/22_35.aiff,0,2,2,2,,,,,0,34,34,34,,,,,,,,,,,,,,,,,,,,,,,,,,,,,,,,,,,,,,,,,,,,,,,,,,,,,,,,,,,,3885.191304250213,None,3885.191287831054,None,1,0.16093781701056287,3892.708091490029,None,3892.708091490029,None,3892.708091490029,None,3892.708091490029,None,,,,,,,,,,,,,,,,l,001,2019_Sep_25_0014,body_behavioural,3.2.1,59.81924217192472,
2,parcelated_audio/22/22_36.aiff,0,2,2,2,,,,,0,35,35,35,,,,,,,,,,,,,,,,,,,,,,,,,,,,,,,,,,,,,,,,,,,,,,,,,,,,,,,,,,,,3892.975366251252,None,3892.975657952018,None,9,15.349631379998755,3904.3427363260416,None,3904.3427363260416,None,3904.3427363260416,None,3904.3427363260416,None,,,,,,,,,,,,,,,,l,001,2019_Sep_25_0014,body_behavioural,3.2.1,59.81924217192472,
2,parcelated_audio/22/22_37.aiff,0,2,2,2,,,,,0,36,36,36,,,,,,,,,,,,,,,,,,,,,,,,,,,,,,,,,,,,,,,,,,,,,,,,,,,,,,,,,,,,3919.8430151432403,None,3919.843565024028,None,9,0.27371430001221597,3926.994103284029,None,3926.994103284029,None,3926.994103284029,None,3926.994103284029,None,,,,,,,,,,,,,,,,l,001,2019_Sep_25_0014,body_behavioural,3.2.1,59.81924217192472,
2,,0,2,2,2,,,,,,,,,,,,,,,,,,,,,,,,,,,,,,,,,,,,,,,,,,,,,,,,,,,,,,,,,,,,,,,,,,,,,,,,,,,,,,,,,,3927.310659842042,None,3927.310659842042,None,space,0.736094004008919,3927.310659842042,None,,,,,,,,l,001,2019_Sep_25_0014,body_behavioural,3.2.1,59.81924217192472,
3,,0,3,3,3,0,0,0,0,,,,,,,,,,,,3928.078862909053,None,space,0.37592812697403133,3928.078862909053,None,3928.078862909053,None,3928.4782759180525,None,space,0.32438486599130556,3928.4782759180525,None,3928.9114024800365,None,3928.9114024800365,None,3928.9114024800365,None,3929.2770301710116,None,space,0.42556625400902703,3929.2770301710116,None,3930.0941360260476,None,3930.0941360260476,None,3930.0941360260476,None,3930.0941360260476,None,3930.0941360260476,None,3930.0941360260476,None,3930.0941360260476,None,,,,,,,,,,,,,,,,,,,,,,,,,,,,,,,,,,,,,,,,,,l,001,2019_Sep_25_0014,body_behavioural,3.2.1,59.81924217192472,
3,parcelated_audio/44/44_1.aiff,0,3,3,3,,,,,0,0,0,0,,,,,,,,,,,,,,,,,,,,,,3931.5274883910315,None,3931.5274883910315,None,3931.5274883910315,None,,,,,,,,,,,,,,,,,,,,,3931.160878872033,None,space,0.2966149760177359,3931.160878872033,None,3931.9286106900545,None,space,0.3610781340394169,3931.9286106900545,None,3932.461737240257,None,3932.4608494100394,None,9,0.17605086200637743,3940.378432961006,None,3940.378432961006,None,3940.378432961006,None,3940.378432961006,None,,,,,,,,,,,,,,,,l,001,2019_Sep_25_0014,body_behavioural,3.2.1,59.81924217192472,
3,parcelated_audio/44/44_2.aiff,0,3,3,3,,,,,0,1,1,1,,,,,,,,,,,,,,,,,,,,,,,,,,,,,,,,,,,,,,,,,,,,,,,,,,,,,,,,,,,,3940.678380579222,None,3940.678256139043,None,1,0.25816395494621247,3949.812209276017,None,3949.812209276017,None,3949.812209276017,None,3949.812209276017,None,,,,,,,,,,,,,,,,l,001,2019_Sep_25_0014,body_behavioural,3.2.1,59.81924217192472,
3,parcelated_audio/44/44_3.aiff,0,3,3,3,,,,,0,2,2,2,,,,,,,,,,,,,,,,,,,,,,,,,,,,,,,,,,,,,,,,,,,,,,,,,,,,,,,,,,,,3950.162441485212,None,3950.162420291046,None,1,0.36357554799178615,3955.6123384880484,None,3955.6123384880484,None,3955.6123384880484,None,3955.6123384880484,None,,,,,,,,,,,,,,,,l,001,2019_Sep_25_0014,body_behavioural,3.2.1,59.81924217192472,
3,parcelated_audio/44/44_4.aiff,0,3,3,3,,,,,0,3,3,3,,,,,,,,,,,,,,,,,,,,,,,,,,,,,,,,,,,,,,,,,,,,,,,,,,,,,,,,,,,,3956.0630314952577,None,3956.062537034042,None,1,0.2432267649564892,3961.1467111790553,None,3961.1467111790553,None,3961.1467111790553,None,3961.1467111790553,None,,,,,,,,,,,,,,,,l,001,2019_Sep_25_0014,body_behavioural,3.2.1,59.81924217192472,
3,parcelated_audio/44/44_5.aiff,0,3,3,3,,,,,0,4,4,4,,,,,,,,,,,,,,,,,,,,,,,,,,,,,,,,,,,,,,,,,,,,,,,,,,,,,,,,,,,,3961.480601121206,None,3961.4801844300237,None,1,0.23809868498938158,3967.714823284012,None,3967.714823284012,None,3967.714823284012,None,3967.714823284012,None,,,,,,,,,,,,,,,,l,001,2019_Sep_25_0014,body_behavioural,3.2.1,59.81924217192472,
3,parcelated_audio/44/44_6.aiff,0,3,3,3,,,,,0,5,5,5,,,,,,,,,,,,,,,,,,,,,,,,,,,,,,,,,,,,,,,,,,,,,,,,,,,,,,,,,,,,3968.0645513072377,None,3968.0643277190393,None,1,0.29538026498630643,3975.014258162002,None,3975.014258162002,None,3975.014258162002,None,3975.014258162002,None,,,,,,,,,,,,,,,,l,001,2019_Sep_25_0014,body_behavioural,3.2.1,59.81924217192472,
3,parcelated_audio/44/44_7.aiff,0,3,3,3,,,,,0,6,6,6,,,,,,,,,,,,,,,,,,,,,,,,,,,,,,,,,,,,,,,,,,,,,,,,,,,,,,,,,,,,3975.3983646102133,None,3975.3977249200107,None,9,0.2664847259875387,3981.3980970900157,None,3981.3980970900157,None,3981.3980970900157,None,3981.3980970900157,None,,,,,,,,,,,,,,,,l,001,2019_Sep_25_0014,body_behavioural,3.2.1,59.81924217192472,
3,parcelated_audio/44/44_8.aiff,0,3,3,3,,,,,0,7,7,7,,,,,,,,,,,,,,,,,,,,,,,,,,,,,,,,,,,,,,,,,,,,,,,,,,,,,,,,,,,,3981.747708725219,None,3981.748984651,None,9,0.3646230149897747,3985.9814053540467,None,3985.9814053540467,None,3985.9814053540467,None,3985.9814053540467,None,,,,,,,,,,,,,,,,l,001,2019_Sep_25_0014,body_behavioural,3.2.1,59.81924217192472,
3,parcelated_audio/44/44_9.aiff,0,3,3,3,,,,,0,8,8,8,,,,,,,,,,,,,,,,,,,,,,,,,,,,,,,,,,,,,,,,,,,,,,,,,,,,,,,,,,,,3986.432413287228,None,3986.4310724520474,None,9,7.760314152983483,3990.115064031037,None,3990.115064031037,None,3990.115064031037,None,3990.115064031037,None,,,,,,,,,,,,,,,,l,001,2019_Sep_25_0014,body_behavioural,3.2.1,59.81924217192472,
3,parcelated_audio/44/44_10.aiff,0,3,3,3,,,,,0,9,9,9,,,,,,,,,,,,,,,,,,,,,,,,,,,,,,,,,,,,,,,,,,,,,,,,,,,,,,,,,,,,3997.9822288802243,None,3997.983151349006,None,1,22.602977530041244,4008.082957421022,None,4008.082957421022,None,4008.082957421022,None,4008.082957421022,None,,,,,,,,,,,,,,,,l,001,2019_Sep_25_0014,body_behavioural,3.2.1,59.81924217192472,
3,parcelated_audio/44/44_11.aiff,0,3,3,3,,,,,0,10,10,10,,,,,,,,,,,,,,,,,,,,,,,,,,,,,,,,,,,,,,,,,,,,,,,,,,,,,,,,,,,,4030.7680261072237,None,4030.769257836044,None,1,0.7853962450171821,4034.301284411049,None,4034.301284411049,None,4034.301284411049,None,4034.301284411049,None,,,,,,,,,,,,,,,,l,001,2019_Sep_25_0014,body_behavioural,3.2.1,59.81924217192472,
3,parcelated_audio/44/44_12.aiff,0,3,3,3,,,,,0,11,11,11,,,,,,,,,,,,,,,,,,,,,,,,,,,,,,,,,,,,,,,,,,,,,,,,,,,,,,,,,,,,4035.1853364522103,None,4035.1848093190347,None,1,5.798366982024163,4045.7595534660504,None,4045.7595534660504,None,4045.7595534660504,None,4045.7595534660504,None,,,,,,,,,,,,,,,,l,001,2019_Sep_25_0014,body_behavioural,3.2.1,59.81924217192472,
3,parcelated_audio/44/44_13.aiff,0,3,3,3,,,,,0,12,12,12,,,,,,,,,,,,,,,,,,,,,,,,,,,,,,,,,,,,,,,,,,,,,,,,,,,,,,,,,,,,4051.668941355252,None,4051.670084928046,None,1,0.2788888750365004,4058.8197883260436,None,4058.8197883260436,None,4058.8197883260436,None,4058.8197883260436,None,,,,,,,,,,,,,,,,l,001,2019_Sep_25_0014,body_behavioural,3.2.1,59.81924217192472,
3,parcelated_audio/44/44_14.aiff,0,3,3,3,,,,,0,13,13,13,,,,,,,,,,,,,,,,,,,,,,,,,,,,,,,,,,,,,,,,,,,,,,,,,,,,,,,,,,,,4059.1860792972147,None,4059.1869349140325,None,9,0.31252713198773563,4065.4869492790313,None,4065.4869492790313,None,4065.4869492790313,None,4065.4869492790313,None,,,,,,,,,,,,,,,,l,001,2019_Sep_25_0014,body_behavioural,3.2.1,59.81924217192472,
3,parcelated_audio/44/44_15.aiff,0,3,3,3,,,,,0,14,14,14,,,,,,,,,,,,,,,,,,,,,,,,,,,,,,,,,,,,,,,,,,,,,,,,,,,,,,,,,,,,4065.870963101217,None,4065.870184170024,None,9,0.24028289498528466,4069.937114019005,None,4069.937114019005,None,4069.937114019005,None,4069.937114019005,None,,,,,,,,,,,,,,,,l,001,2019_Sep_25_0014,body_behavioural,3.2.1,59.81924217192472,
3,parcelated_audio/44/44_16.aiff,0,3,3,3,,,,,0,15,15,15,,,,,,,,,,,,,,,,,,,,,,,,,,,,,,,,,,,,,,,,,,,,,,,,,,,,,,,,,,,,4070.2543428572244,None,4070.2540218310314,None,1,0.28162005299236625,4074.2540042760083,None,4074.2540042760083,None,4074.2540042760083,None,4074.2540042760083,None,,,,,,,,,,,,,,,,l,001,2019_Sep_25_0014,body_behavioural,3.2.1,59.81924217192472,
3,parcelated_audio/44/44_17.aiff,0,3,3,3,,,,,0,16,16,16,,,,,,,,,,,,,,,,,,,,,,,,,,,,,,,,,,,,,,,,,,,,,,,,,,,,,,,,,,,,4074.603981275228,None,4074.603933714039,None,1,0.37466692499583587,4083.0886627340224,None,4083.0886627340224,None,4083.0886627340224,None,4083.0886627340224,None,,,,,,,,,,,,,,,,l,001,2019_Sep_25_0014,body_behavioural,3.2.1,59.81924217192472,
3,parcelated_audio/44/44_18.aiff,0,3,3,3,,,,,0,17,17,17,,,,,,,,,,,,,,,,,,,,,,,,,,,,,,,,,,,,,,,,,,,,,,,,,,,,,,,,,,,,4083.5718979612575,None,4083.571080320049,None,1,0.5118818809860386,4093.4060975340544,None,4093.4060975340544,None,4093.4060975340544,None,4093.4060975340544,None,,,,,,,,,,,,,,,,l,001,2019_Sep_25_0014,body_behavioural,3.2.1,59.81924217192472,
3,parcelated_audio/44/44_19.aiff,0,3,3,3,,,,,0,18,18,18,,,,,,,,,,,,,,,,,,,,,,,,,,,,,,,,,,,,,,,,,,,,,,,,,,,,,,,,,,,,4094.0054617352434,None,4094.0063440340455,None,9,0.2834264969569631,4104.957348954049,None,4104.957348954049,None,4104.957348954049,None,4104.957348954049,None,,,,,,,,,,,,,,,,l,001,2019_Sep_25_0014,body_behavioural,3.2.1,59.81924217192472,
3,parcelated_audio/44/44_20.aiff,0,3,3,3,,,,,0,19,19,19,,,,,,,,,,,,,,,,,,,,,,,,,,,,,,,,,,,,,,,,,,,,,,,,,,,,,,,,,,,,4105.339934275253,None,4105.339792648039,None,9,0.19973979995120317,4113.540491344,None,4113.540491344,None,4113.540491344,None,4113.540491344,None,,,,,,,,,,,,,,,,l,001,2019_Sep_25_0014,body_behavioural,3.2.1,59.81924217192472,
3,parcelated_audio/44/44_21.aiff,0,3,3,3,,,,,0,20,20,20,,,,,,,,,,,,,,,,,,,,,,,,,,,,,,,,,,,,,,,,,,,,,,,,,,,,,,,,,,,,4113.807724630227,None,4113.807697954006,None,9,0.46320191002450883,4122.707655679027,None,4122.707655679027,None,4122.707655679027,None,4122.707655679027,None,,,,,,,,,,,,,,,,l,001,2019_Sep_25_0014,body_behavioural,3.2.1,59.81924217192472,
3,parcelated_audio/44/44_22.aiff,0,3,3,3,,,,,0,21,21,21,,,,,,,,,,,,,,,,,,,,,,,,,,,,,,,,,,,,,,,,,,,,,,,,,,,,,,,,,,,,4123.27439716924,None,4123.275646564027,None,9,0.24897117400541902,4128.191556222038,None,4128.191556222038,None,4128.191556222038,None,4128.191556222038,None,,,,,,,,,,,,,,,,l,001,2019_Sep_25_0014,body_behavioural,3.2.1,59.81924217192472,
3,parcelated_audio/44/44_23.aiff,0,3,3,3,,,,,0,22,22,22,,,,,,,,,,,,,,,,,,,,,,,,,,,,,,,,,,,,,,,,,,,,,,,,,,,,,,,,,,,,4128.5250832622405,None,4128.525763751008,None,9,0.29711968899937347,4135.141878654016,None,4135.141878654016,None,4135.141878654016,None,4135.141878654016,None,,,,,,,,,,,,,,,,l,001,2019_Sep_25_0014,body_behavioural,3.2.1,59.81924217192472,
3,parcelated_audio/44/44_24.aiff,0,3,3,3,,,,,0,23,23,23,,,,,,,,,,,,,,,,,,,,,,,,,,,,,,,,,,,,,,,,,,,,,,,,,,,,,,,,,,,,4135.525182257232,None,4135.525393879041,None,1,0.3204710480058566,4144.260253771034,None,4144.260253771034,None,4144.260253771034,None,4144.260253771034,None,,,,,,,,,,,,,,,,l,001,2019_Sep_25_0014,body_behavioural,3.2.1,59.81924217192472,
3,parcelated_audio/44/44_25.aiff,0,3,3,3,,,,,0,24,24,24,,,,,,,,,,,,,,,,,,,,,,,,,,,,,,,,,,,,,,,,,,,,,,,,,,,,,,,,,,,,4144.676756557252,None,4144.675953271042,None,9,0.30349100998137146,4150.960939469049,None,4150.960939469049,None,4150.960939469049,None,4150.960939469049,None,,,,,,,,,,,,,,,,l,001,2019_Sep_25_0014,body_behavioural,3.2.1,59.81924217192472,
3,parcelated_audio/44/44_26.aiff,0,3,3,3,,,,,0,25,25,25,,,,,,,,,,,,,,,,,,,,,,,,,,,,,,,,,,,,,,,,,,,,,,,,,,,,,,,,,,,,4151.360030441254,None,4151.359535304015,None,9,0.5509352089720778,4156.1940188690205,None,4156.1940188690205,None,4156.1940188690205,None,4156.1940188690205,None,,,,,,,,,,,,,,,,l,001,2019_Sep_25_0014,body_behavioural,3.2.1,59.81924217192472,
3,parcelated_audio/44/44_27.aiff,0,3,3,3,,,,,0,26,26,26,,,,,,,,,,,,,,,,,,,,,,,,,,,,,,,,,,,,,,,,,,,,,,,,,,,,,,,,,,,,4156.84379363223,None,4156.84359572205,None,9,0.4670103350072168,4163.811330049008,None,4163.811330049008,None,4163.811330049008,None,4163.811330049008,None,,,,,,,,,,,,,,,,l,001,2019_Sep_25_0014,body_behavioural,3.2.1,59.81924217192472,
3,parcelated_audio/44/44_28.aiff,0,3,3,3,,,,,0,27,27,27,,,,,,,,,,,,,,,,,,,,,,,,,,,,,,,,,,,,,,,,,,,,,,,,,,,,,,,,,,,,4164.393859872245,None,4164.39459896402,None,1,4.1406853860244155,4175.628906558035,None,4175.628906558035,None,4175.628906558035,None,4175.628906558035,None,,,,,,,,,,,,,,,,l,001,2019_Sep_25_0014,body_behavioural,3.2.1,59.81924217192472,
3,,0,3,3,3,,,,,,,,,,,,,,,,,,,,,,,,,,,,,,,,,,,,,,,,,,,,,,,,,,,,,,,,,,,,,,,,,,,,,,,,,,,,,,,,,,4179.8453868890065,None,4179.8453868890065,None,space,0.8976244379882701,4179.8453868890065,None,,,,,,,,l,001,2019_Sep_25_0014,body_behavioural,3.2.1,59.81924217192472,
4,,0,4,4,4,0,0,0,0,,,,,,,,,,,,4180.778739891015,None,space,0.3120176550000906,4180.778739891015,None,4180.778739891015,None,4181.1125469690305,None,space,0.3743129500071518,4181.1125469690305,None,4181.595098569,None,4181.595098569,None,4181.595098569,None,4182.52842579002,None,space,1.1144478159840219,4182.52842579002,None,4183.945432434033,None,4183.945432434033,None,4183.945432434033,None,4183.945432434033,None,4183.945432434033,None,4183.945432434033,None,4183.945432434033,None,,,,,,,,,,,,,,,,,,,,,,,,,,,,,,,,,,,,,,,,,,l,001,2019_Sep_25_0014,body_behavioural,3.2.1,59.81924217192472,
4,parcelated_audio/21/21_1.aiff,0,4,4,4,,,,,0,0,0,0,,,,,,,,,,,,,,,,,,,,,,4187.313267031044,None,4187.313267031044,None,4187.313267031044,None,,,,,,,,,,,,,,,,,,,,,4186.878775711055,None,space,0.3534927120199427,4186.878775711055,None,4187.813024569012,None,space,0.7304624349926598,4187.813024569012,None,4188.695492647239,None,4188.695713159046,None,1,1.3593849770259112,4200.063742066035,None,4200.063742066035,None,4200.063742066035,None,4200.063742066035,None,,,,,,,,,,,,,,,,l,001,2019_Sep_25_0014,body_behavioural,3.2.1,59.81924217192472,
4,parcelated_audio/21/21_2.aiff,0,4,4,4,,,,,0,1,1,1,,,,,,,,,,,,,,,,,,,,,,,,,,,,,,,,,,,,,,,,,,,,,,,,,,,,,,,,,,,,4201.513332985225,None,4201.512847704056,None,9,0.27566571498755366,4208.913456174021,None,4208.913456174021,None,4208.913456174021,None,4208.913456174021,None,,,,,,,,,,,,,,,,l,001,2019_Sep_25_0014,body_behavioural,3.2.1,59.81924217192472,
4,parcelated_audio/21/21_3.aiff,0,4,4,4,,,,,0,2,2,2,,,,,,,,,,,,,,,,,,,,,,,,,,,,,,,,,,,,,,,,,,,,,,,,,,,,,,,,,,,,4209.280218237254,None,4209.280759769026,None,9,0.23970168002415448,4216.947292244004,None,4216.947292244004,None,4216.947292244004,None,4216.947292244004,None,,,,,,,,,,,,,,,,l,001,2019_Sep_25_0014,body_behavioural,3.2.1,59.81924217192472,
4,parcelated_audio/21/21_4.aiff,0,4,4,4,,,,,0,3,3,3,,,,,,,,,,,,,,,,,,,,,,,,,,,,,,,,,,,,,,,,,,,,,,,,,,,,,,,,,,,,4217.2810730632045,None,4217.281887536054,None,9,0.24457232496934012,4228.299231611018,None,4228.299231611018,None,4228.299231611018,None,4228.299231611018,None,,,,,,,,,,,,,,,,l,001,2019_Sep_25_0014,body_behavioural,3.2.1,59.81924217192472,
4,parcelated_audio/21/21_5.aiff,0,4,4,4,,,,,0,4,4,4,,,,,,,,,,,,,,,,,,,,,,,,,,,,,,,,,,,,,,,,,,,,,,,,,,,,,,,,,,,,4228.632322330202,None,4228.631691314047,None,9,0.2558228150010109,4233.6663674060255,None,4233.6663674060255,None,4233.6663674060255,None,4233.6663674060255,None,,,,,,,,,,,,,,,,l,001,2019_Sep_25_0014,body_behavioural,3.2.1,59.81924217192472,
4,parcelated_audio/21/21_6.aiff,0,4,4,4,,,,,0,5,5,5,,,,,,,,,,,,,,,,,,,,,,,,,,,,,,,,,,,,,,,,,,,,,,,,,,,,,,,,,,,,4234.015771140228,None,4234.015337632038,None,9,0.24028724897652864,4242.133183156024,None,4242.133183156024,None,4242.133183156024,None,4242.133183156024,None,,,,,,,,,,,,,,,,l,001,2019_Sep_25_0014,body_behavioural,3.2.1,59.81924217192472,
4,parcelated_audio/21/21_7.aiff,0,4,4,4,,,,,0,6,6,6,,,,,,,,,,,,,,,,,,,,,,,,,,,,,,,,,,,,,,,,,,,,,,,,,,,,,,,,,,,,4242.466835149215,None,4242.466861214023,None,9,0.26677544601261616,4246.966470606043,None,4246.966470606043,None,4246.966470606043,None,4246.966470606043,None,,,,,,,,,,,,,,,,l,001,2019_Sep_25_0014,body_behavioural,3.2.1,59.81924217192472,
4,parcelated_audio/21/21_8.aiff,0,4,4,4,,,,,0,7,7,7,,,,,,,,,,,,,,,,,,,,,,,,,,,,,,,,,,,,,,,,,,,,,,,,,,,,,,,,,,,,4247.333511885256,None,4247.333935761009,None,9,0.4394161229720339,4258.200318534044,None,4258.200318534044,None,4258.200318534044,None,4258.200318534044,None,,,,,,,,,,,,,,,,l,001,2019_Sep_25_0014,body_behavioural,3.2.1,59.81924217192472,
4,parcelated_audio/21/21_9.aiff,0,4,4,4,,,,,0,8,8,8,,,,,,,,,,,,,,,,,,,,,,,,,,,,,,,,,,,,,,,,,,,,,,,,,,,,,,,,,,,,4258.75140698225,None,4258.751053719025,None,9,0.3693093729671091,4266.133614972001,None,4266.133614972001,None,4266.133614972001,None,4266.133614972001,None,,,,,,,,,,,,,,,,l,001,2019_Sep_25_0014,body_behavioural,3.2.1,59.81924217192472,
4,parcelated_audio/21/21_10.aiff,0,4,4,4,,,,,0,9,9,9,,,,,,,,,,,,,,,,,,,,,,,,,,,,,,,,,,,,,,,,,,,,,,,,,,,,,,,,,,,,4266.601531885215,None,4266.6010967610055,None,9,0.24618457001633942,4273.435387899051,None,4273.435387899051,None,4273.435387899051,None,4273.435387899051,None,,,,,,,,,,,,,,,,l,001,2019_Sep_25_0014,body_behavioural,3.2.1,59.81924217192472,
4,parcelated_audio/21/21_11.aiff,0,4,4,4,,,,,0,10,10,10,,,,,,,,,,,,,,,,,,,,,,,,,,,,,,,,,,,,,,,,,,,,,,,,,,,,,,,,,,,,4273.769625127257,None,4273.768455842044,None,9,0.26533282501623034,4280.852829620999,None,4280.852829620999,None,4280.852829620999,None,4280.852829620999,None,,,,,,,,,,,,,,,,l,001,2019_Sep_25_0014,body_behavioural,3.2.1,59.81924217192472,
4,parcelated_audio/21/21_12.aiff,0,4,4,4,,,,,0,11,11,11,,,,,,,,,,,,,,,,,,,,,,,,,,,,,,,,,,,,,,,,,,,,,,,,,,,,,,,,,,,,4281.219558370241,None,4281.218821321032,None,9,0.2751010040519759,4289.519384501036,None,4289.519384501036,None,4289.519384501036,None,4289.519384501036,None,,,,,,,,,,,,,,,,l,001,2019_Sep_25_0014,body_behavioural,3.2.1,59.81924217192472,
4,parcelated_audio/21/21_13.aiff,0,4,4,4,,,,,0,12,12,12,,,,,,,,,,,,,,,,,,,,,,,,,,,,,,,,,,,,,,,,,,,,,,,,,,,,,,,,,,,,4289.8867236952065,None,4289.8862313510035,None,9,0.3848697950015776,4293.20343142905,None,4293.20343142905,None,4293.20343142905,None,4293.20343142905,None,,,,,,,,,,,,,,,,l,001,2019_Sep_25_0014,body_behavioural,3.2.1,59.81924217192472,
4,parcelated_audio/21/21_14.aiff,0,4,4,4,,,,,0,13,13,13,,,,,,,,,,,,,,,,,,,,,,,,,,,,,,,,,,,,,,,,,,,,,,,,,,,,,,,,,,,,4293.686328235257,None,4293.687245784036,None,9,0.39214651100337505,4299.086873150023,None,4299.086873150023,None,4299.086873150023,None,4299.086873150023,None,,,,,,,,,,,,,,,,l,001,2019_Sep_25_0014,body_behavioural,3.2.1,59.81924217192472,
4,parcelated_audio/21/21_15.aiff,0,4,4,4,,,,,0,14,14,14,,,,,,,,,,,,,,,,,,,,,,,,,,,,,,,,,,,,,,,,,,,,,,,,,,,,,,,,,,,,4299.5698108332,None,4299.569960359018,None,9,0.3557260499801487,4306.370706799033,None,4306.370706799033,None,4306.370706799033,None,4306.370706799033,None,,,,,,,,,,,,,,,,l,001,2019_Sep_25_0014,body_behavioural,3.2.1,59.81924217192472,
4,parcelated_audio/21/21_16.aiff,0,4,4,4,,,,,0,15,15,15,,,,,,,,,,,,,,,,,,,,,,,,,,,,,,,,,,,,,,,,,,,,,,,,,,,,,,,,,,,,4306.82130785723,None,4306.820475209039,None,9,0.3751921079820022,4312.870814084017,None,4312.870814084017,None,4312.870814084017,None,4312.870814084017,None,,,,,,,,,,,,,,,,l,001,2019_Sep_25_0014,body_behavioural,3.2.1,59.81924217192472,
4,parcelated_audio/21/21_17.aiff,0,4,4,4,,,,,0,16,16,16,,,,,,,,,,,,,,,,,,,,,,,,,,,,,,,,,,,,,,,,,,,,,,,,,,,,,,,,,,,,4313.338575080212,None,4313.337719514035,None,9,1.0583041430218145,4315.471722924034,None,4315.471722924034,None,4315.471722924034,None,4315.471722924034,None,,,,,,,,,,,,,,,,l,001,2019_Sep_25_0014,body_behavioural,3.2.1,59.81924217192472,
4,parcelated_audio/21/21_18.aiff,0,4,4,4,,,,,0,17,17,17,,,,,,,,,,,,,,,,,,,,,,,,,,,,,,,,,,,,,,,,,,,,,,,,,,,,,,,,,,,,4316.637801282224,None,4316.637952634017,None,9,42.829680586990435,4327.9727124940255,None,4327.9727124940255,None,4327.9727124940255,None,4327.9727124940255,None,,,,,,,,,,,,,,,,l,001,2019_Sep_25_0014,body_behavioural,3.2.1,59.81924217192472,
4,parcelated_audio/21/21_19.aiff,0,4,4,4,,,,,0,18,18,18,,,,,,,,,,,,,,,,,,,,,,,,,,,,,,,,,,,,,,,,,,,,,,,,,,,,,,,,,,,,4370.941757945227,None,4370.94111831201,None,9,0.6174662449629977,4373.810733884049,None,4373.810733884049,None,4373.810733884049,None,4373.810733884049,None,,,,,,,,,,,,,,,,l,001,2019_Sep_25_0014,body_behavioural,3.2.1,59.81924217192472,
4,parcelated_audio/21/21_20.aiff,0,4,4,4,,,,,0,19,19,19,,,,,,,,,,,,,,,,,,,,,,,,,,,,,,,,,,,,,,,,,,,,,,,,,,,,,,,,,,,,4374.524937291222,None,4374.525329156022,None,9,4.917085894034244,4383.225393352041,None,4383.225393352041,None,4383.225393352041,None,4383.225393352041,None,,,,,,,,,,,,,,,,l,001,2019_Sep_25_0014,body_behavioural,3.2.1,59.81924217192472,
4,parcelated_audio/21/21_21.aiff,0,4,4,4,,,,,0,20,20,20,,,,,,,,,,,,,,,,,,,,,,,,,,,,,,,,,,,,,,,,,,,,,,,,,,,,,,,,,,,,4388.226546372229,None,4388.226409494004,None,1,97.0626810840331,4399.26085871004,None,4399.26085871004,None,4399.26085871004,None,4399.26085871004,None,,,,,,,,,,,,,,,,l,001,2019_Sep_25_0014,body_behavioural,3.2.1,59.81924217192472,
4,parcelated_audio/21/21_22.aiff,0,4,4,4,,,,,0,21,21,21,,,,,,,,,,,,,,,,,,,,,,,,,,,,,,,,,,,,,,,,,,,,,,,,,,,,,,,,,,,,4496.500419077231,None,4496.501179516024,None,1,0.28486724698450416,4507.384542849031,None,4507.384542849031,None,4507.384542849031,None,4507.384542849031,None,,,,,,,,,,,,,,,,l,001,2019_Sep_25_0014,body_behavioural,3.2.1,59.81924217192472,
4,parcelated_audio/21/21_23.aiff,0,4,4,4,,,,,0,22,22,22,,,,,,,,,,,,,,,,,,,,,,,,,,,,,,,,,,,,,,,,,,,,,,,,,,,,,,,,,,,,4507.767992479203,None,4507.7684301900445,None,1,0.37049366295104846,4512.686797021015,None,4512.686797021015,None,4512.686797021015,None,4512.686797021015,None,,,,,,,,,,,,,,,,l,001,2019_Sep_25_0014,body_behavioural,3.2.1,59.81924217192472,
4,parcelated_audio/21/21_24.aiff,0,4,4,4,,,,,0,23,23,23,,,,,,,,,,,,,,,,,,,,,,,,,,,,,,,,,,,,,,,,,,,,,,,,,,,,,,,,,,,,4513.15210313024,None,4513.151641734003,None,1,0.3680054400465451,4517.718425171042,None,4517.718425171042,None,4517.718425171042,None,4517.718425171042,None,,,,,,,,,,,,,,,,l,001,2019_Sep_25_0014,body_behavioural,3.2.1,59.81924217192472,
4,parcelated_audio/21/21_25.aiff,0,4,4,4,,,,,0,24,24,24,,,,,,,,,,,,,,,,,,,,,,,,,,,,,,,,,,,,,,,,,,,,,,,,,,,,,,,,,,,,4518.185248157242,None,4518.185368379054,None,9,0.8410925770294853,4527.620622734015,None,4527.620622734015,None,4527.620622734015,None,4527.620622734015,None,,,,,,,,,,,,,,,,l,001,2019_Sep_25_0014,body_behavioural,3.2.1,59.81924217192472,
4,parcelated_audio/21/21_26.aiff,0,4,4,4,,,,,0,25,25,25,,,,,,,,,,,,,,,,,,,,,,,,,,,,,,,,,,,,,,,,,,,,,,,,,,,,,,,,,,,,4528.552227117238,None,4528.552827679028,None,9,0.7220639130100608,4532.50392871903,None,4532.50392871903,None,4532.50392871903,None,4532.50392871903,None,,,,,,,,,,,,,,,,l,001,2019_Sep_25_0014,body_behavioural,3.2.1,59.81924217192472,
4,parcelated_audio/21/21_27.aiff,0,4,4,4,,,,,0,26,26,26,,,,,,,,,,,,,,,,,,,,,,,,,,,,,,,,,,,,,,,,,,,,,,,,,,,,,,,,,,,,4533.320083403203,None,4533.320043708023,None,9,0.29223601799458265,4540.506091541029,None,4540.506091541029,None,4540.506091541029,None,4540.506091541029,None,,,,,,,,,,,,,,,,l,001,2019_Sep_25_0014,body_behavioural,3.2.1,59.81924217192472,
4,parcelated_audio/21/21_28.aiff,0,4,4,4,,,,,0,27,27,27,,,,,,,,,,,,,,,,,,,,,,,,,,,,,,,,,,,,,,,,,,,,,,,,,,,,,,,,,,,,4540.886971932254,None,4540.886509156029,None,9,0.24647700099740177,4547.003993442049,None,4547.003993442049,None,4547.003993442049,None,4547.003993442049,None,,,,,,,,,,,,,,,,l,001,2019_Sep_25_0014,body_behavioural,3.2.1,59.81924217192472,
4,parcelated_audio/21/21_29.aiff,0,4,4,4,,,,,0,28,28,28,,,,,,,,,,,,,,,,,,,,,,,,,,,,,,,,,,,,,,,,,,,,,,,,,,,,,,,,,,,,4547.337090495217,None,4547.337812916026,None,9,0.35034916503354907,4551.603991864016,None,4551.603991864016,None,4551.603991864016,None,4551.603991864016,None,,,,,,,,,,,,,,,,l,001,2019_Sep_25_0014,body_behavioural,3.2.1,59.81924217192472,
4,parcelated_audio/21/21_30.aiff,0,4,4,4,,,,,0,29,29,29,,,,,,,,,,,,,,,,,,,,,,,,,,,,,,,,,,,,,,,,,,,,,,,,,,,,,,,,,,,,4552.054694885213,None,4552.053918954043,None,9,0.31807878299150616,4557.304735894024,None,4557.304735894024,None,4557.304735894024,None,4557.304735894024,None,,,,,,,,,,,,,,,,l,001,2019_Sep_25_0014,body_behavioural,3.2.1,59.81924217192472,
4,,0,4,4,4,,,,,,,,,,,,,,,,,,,,,,,,,,,,,,,,,,,,,,,,,,,,,,,,,,,,,,,,,,,,,,,,,,,,,,,,,,,,,,,,,,4557.67173458403,None,4557.67173458403,None,space,0.7391343369963579,4557.67173458403,None,,,,,,,,l,001,2019_Sep_25_0014,body_behavioural,3.2.1,59.81924217192472,
5,,0,5,5,5,0,0,0,0,,,,,,,,,,,,4558.454594532028,None,space,0.34312003396917135,4558.454594532028,None,4558.454594532028,None,4558.8212203240255,None,space,0.2656650919816457,4558.8212203240255,None,4559.188283299038,None,4559.188283299038,None,4559.188283299038,None,4559.587561946013,None,space,0.9752011119853705,4559.587561946013,None,4560.9211629340425,None,4560.9211629340425,None,4560.9211629340425,None,4560.9211629340425,None,4560.9211629340425,None,4560.9211629340425,None,4560.9211629340425,None,,,,,,,,,,,,,,,,,,,,,,,,,,,,,,,,,,,,,,,,,,l,001,2019_Sep_25_0014,body_behavioural,3.2.1,59.81924217192472,
5,,0,5,5,5,1,0,1,0,,,,,,,,,,,,,,,,,,,,,,,,,,4569.139275601017,None,4569.139275601017,None,4569.139275601017,None,4569.638302356005,None,space,0.8346647169673815,4569.638302356005,None,4570.689543706016,None,4570.689543706016,None,4570.689543706016,None,4570.689543706016,None,4570.689543706016,None,4570.689543706016,None,4570.689543706016,None,,,,,,,,,,,,,,,,,,,,,,,,,,,,,,,,,,,,,,,,,,l,001,2019_Sep_25_0014,body_behavioural,3.2.1,59.81924217192472,
5,,0,5,5,5,2,0,2,0,,,,,,,,,,,,,,,,,,,,,,,,,,4574.923221411009,None,4574.923221411009,None,4574.923221411009,None,4575.356448722014,None,space,0.4784440249786712,4575.356448722014,None,4576.15631878603,None,4576.15631878603,None,4576.15631878603,None,4576.15631878603,None,4576.15631878603,None,4576.15631878603,None,4576.15631878603,None,,,,,,,,,,,,,,,,,,,,,,,,,,,,,,,,,,,,,,,,,,l,001,2019_Sep_25_0014,body_behavioural,3.2.1,59.81924217192472,
5,parcelated_audio/43/43_1.aiff,0,5,5,5,,,,,0,0,0,0,,,,,,,,,,,,,,,,,,,,,,4579.355569136038,None,4579.355569136038,None,4579.355569136038,None,,,,,,,,,,,,,,,,,,,,,4578.589175686007,None,space,0.6912537890020758,4578.589175686007,None,4579.805978382006,None,space,0.416614354995545,4579.805978382006,None,4580.390103305224,None,4580.389326454024,None,1,0.23472226900048554,4587.973709696031,None,4587.973709696031,None,4587.973709696031,None,4587.973709696031,None,,,,,,,,,,,,,,,,l,001,2019_Sep_25_0014,body_behavioural,3.2.1,59.81924217192472,
5,parcelated_audio/43/43_2.aiff,0,5,5,5,,,,,0,1,1,1,,,,,,,,,,,,,,,,,,,,,,,,,,,,,,,,,,,,,,,,,,,,,,,,,,,,,,,,,,,,4588.306702561211,None,4588.306222404004,None,9,0.28411723201861605,4592.090943821007,None,4592.090943821007,None,4592.090943821007,None,4592.090943821007,None,,,,,,,,,,,,,,,,l,001,2019_Sep_25_0014,body_behavioural,3.2.1,59.81924217192472,
5,parcelated_audio/43/43_3.aiff,0,5,5,5,,,,,0,2,2,2,,,,,,,,,,,,,,,,,,,,,,,,,,,,,,,,,,,,,,,,,,,,,,,,,,,,,,,,,,,,4592.4907448052545,None,4592.489817704016,None,1,0.22737933497410268,4601.358223251009,None,4601.358223251009,None,4601.358223251009,None,4601.358223251009,None,,,,,,,,,,,,,,,,l,001,2019_Sep_25_0014,body_behavioural,3.2.1,59.81924217192472,
5,parcelated_audio/43/43_4.aiff,0,5,5,5,,,,,0,3,3,3,,,,,,,,,,,,,,,,,,,,,,,,,,,,,,,,,,,,,,,,,,,,,,,,,,,,,,,,,,,,4601.657559272251,None,4601.657116410031,None,1,0.35396432998823,4610.14112057403,None,4610.14112057403,None,4610.14112057403,None,4610.14112057403,None,,,,,,,,,,,,,,,,l,001,2019_Sep_25_0014,body_behavioural,3.2.1,59.81924217192472,
5,parcelated_audio/43/43_5.aiff,0,5,5,5,,,,,0,4,4,4,,,,,,,,,,,,,,,,,,,,,,,,,,,,,,,,,,,,,,,,,,,,,,,,,,,,,,,,,,,,4610.607790420239,None,4610.60835165903,None,9,0.26101927302079275,4619.825860631012,None,4619.825860631012,None,4619.825860631012,None,4619.825860631012,None,,,,,,,,,,,,,,,,l,001,2019_Sep_25_0014,body_behavioural,3.2.1,59.81924217192472,
5,parcelated_audio/43/43_6.aiff,0,5,5,5,,,,,0,5,5,5,,,,,,,,,,,,,,,,,,,,,,,,,,,,,,,,,,,,,,,,,,,,,,,,,,,,,,,,,,,,4620.208655209222,None,4620.2086893920205,None,1,49.136005645035766,4629.325783676002,None,4629.325783676002,None,4629.325783676002,None,4629.325783676002,None,,,,,,,,,,,,,,,,l,001,2019_Sep_25_0014,body_behavioural,3.2.1,59.81924217192472,
5,parcelated_audio/43/43_7.aiff,0,5,5,5,,,,,0,6,6,6,,,,,,,,,,,,,,,,,,,,,,,,,,,,,,,,,,,,,,,,,,,,,,,,,,,,,,,,,,,,4678.562957023212,None,4678.563684671011,None,9,0.38377160200616345,4683.29628116003,None,4683.29628116003,None,4683.29628116003,None,4683.29628116003,None,,,,,,,,,,,,,,,,l,001,2019_Sep_25_0014,body_behavioural,3.2.1,59.81924217192472,
5,parcelated_audio/43/43_8.aiff,0,5,5,5,,,,,0,7,7,7,,,,,,,,,,,,,,,,,,,,,,,,,,,,,,,,,,,,,,,,,,,,,,,,,,,,,,,,,,,,4683.763188677258,None,4683.764498208999,None,9,0.37565869197715074,4690.297614044044,None,4690.297614044044,None,4690.297614044044,None,4690.297614044044,None,,,,,,,,,,,,,,,,l,001,2019_Sep_25_0014,body_behavioural,3.2.1,59.81924217192472,
5,parcelated_audio/43/43_9.aiff,0,5,5,5,,,,,0,8,8,8,,,,,,,,,,,,,,,,,,,,,,,,,,,,,,,,,,,,,,,,,,,,,,,,,,,,,,,,,,,,4690.764505320229,None,4690.764782971004,None,1,0.4663750580511987,4695.263649906032,None,4695.263649906032,None,4695.263649906032,None,4695.263649906032,None,,,,,,,,,,,,,,,,l,001,2019_Sep_25_0014,body_behavioural,3.2.1,59.81924217192472,
5,parcelated_audio/43/43_10.aiff,0,5,5,5,,,,,0,9,9,9,,,,,,,,,,,,,,,,,,,,,,,,,,,,,,,,,,,,,,,,,,,,,,,,,,,,,,,,,,,,4695.796897369204,None,4695.797905351035,None,9,0.7425461010425352,4700.680597428,None,4700.680597428,None,4700.680597428,None,4700.680597428,None,,,,,,,,,,,,,,,,l,001,2019_Sep_25_0014,body_behavioural,3.2.1,59.81924217192472,
5,parcelated_audio/43/43_11.aiff,0,5,5,5,,,,,0,10,10,10,,,,,,,,,,,,,,,,,,,,,,,,,,,,,,,,,,,,,,,,,,,,,,,,,,,,,,,,,,,,4701.5320088802255,None,4701.53056304605,None,9,0.29178347502602264,4712.549674630049,None,4712.549674630049,None,4712.549674630049,None,4712.549674630049,None,,,,,,,,,,,,,,,,l,001,2019_Sep_25_0014,body_behavioural,3.2.1,59.81924217192472,
5,parcelated_audio/43/43_12.aiff,0,5,5,5,,,,,0,11,11,11,,,,,,,,,,,,,,,,,,,,,,,,,,,,,,,,,,,,,,,,,,,,,,,,,,,,,,,,,,,,4712.948548529239,None,4712.948637311056,None,9,0.21250047598732635,4719.015121438017,None,4719.015121438017,None,4719.015121438017,None,4719.015121438017,None,,,,,,,,,,,,,,,,l,001,2019_Sep_25_0014,body_behavioural,3.2.1,59.81924217192472,
5,parcelated_audio/43/43_13.aiff,0,5,5,5,,,,,0,12,12,12,,,,,,,,,,,,,,,,,,,,,,,,,,,,,,,,,,,,,,,,,,,,,,,,,,,,,,,,,,,,4719.3323281522025,None,4719.332414254022,None,9,0.06688289600424469,4727.565987898037,None,4727.565987898037,None,4727.565987898037,None,4727.565987898037,None,,,,,,,,,,,,,,,,l,001,2019_Sep_25_0014,body_behavioural,3.2.1,59.81924217192472,
5,parcelated_audio/43/43_14.aiff,0,5,5,5,,,,,0,13,13,13,,,,,,,,,,,,,,,,,,,,,,,,,,,,,,,,,,,,,,,,,,,,,,,,,,,,,,,,,,,,4727.749216260214,None,4727.750395829033,None,1,0.28523244202369824,4736.249920132046,None,4736.249920132046,None,4736.249920132046,None,4736.249920132046,None,,,,,,,,,,,,,,,,l,001,2019_Sep_25_0014,body_behavioural,3.2.1,59.81924217192472,
5,parcelated_audio/43/43_15.aiff,0,5,5,5,,,,,0,14,14,14,,,,,,,,,,,,,,,,,,,,,,,,,,,,,,,,,,,,,,,,,,,,,,,,,,,,,,,,,,,,4736.633300570247,None,4736.633282401017,None,9,0.7313364350120537,4740.96683897404,None,4740.96683897404,None,4740.96683897404,None,4740.96683897404,None,,,,,,,,,,,,,,,,l,001,2019_Sep_25_0014,body_behavioural,3.2.1,59.81924217192472,
5,parcelated_audio/43/43_16.aiff,0,5,5,5,,,,,0,15,15,15,,,,,,,,,,,,,,,,,,,,,,,,,,,,,,,,,,,,,,,,,,,,,,,,,,,,,,,,,,,,4741.768155345228,None,4741.766828371037,None,9,0.4115015470306389,4746.300674998027,None,4746.300674998027,None,4746.300674998027,None,4746.300674998027,None,,,,,,,,,,,,,,,,l,001,2019_Sep_25_0014,body_behavioural,3.2.1,59.81924217192472,
5,parcelated_audio/43/43_17.aiff,0,5,5,5,,,,,0,16,16,16,,,,,,,,,,,,,,,,,,,,,,,,,,,,,,,,,,,,,,,,,,,,,,,,,,,,,,,,,,,,4746.801939310215,None,4746.800583881035,None,9,0.4121847680071369,4750.550920800015,None,4750.550920800015,None,4750.550920800015,None,4750.550920800015,None,,,,,,,,,,,,,,,,l,001,2019_Sep_25_0014,body_behavioural,3.2.1,59.81924217192472,
5,parcelated_audio/43/43_18.aiff,0,5,5,5,,,,,0,17,17,17,,,,,,,,,,,,,,,,,,,,,,,,,,,,,,,,,,,,,,,,,,,,,,,,,,,,,,,,,,,,4751.051609275222,None,4751.051510996011,None,9,0.2359415419632569,4753.252051651012,None,4753.252051651012,None,4753.252051651012,None,4753.252051651012,None,,,,,,,,,,,,,,,,l,001,2019_Sep_25_0014,body_behavioural,3.2.1,59.81924217192472,
5,parcelated_audio/43/43_19.aiff,0,5,5,5,,,,,0,18,18,18,,,,,,,,,,,,,,,,,,,,,,,,,,,,,,,,,,,,,,,,,,,,,,,,,,,,,,,,,,,,4753.585124672216,None,4753.585518809035,None,9,0.22718806995544583,4757.186489654006,None,4757.186489654006,None,4757.186489654006,None,4757.186489654006,None,,,,,,,,,,,,,,,,l,001,2019_Sep_25_0014,body_behavioural,3.2.1,59.81924217192472,
5,parcelated_audio/43/43_20.aiff,0,5,5,5,,,,,0,19,19,19,,,,,,,,,,,,,,,,,,,,,,,,,,,,,,,,,,,,,,,,,,,,,,,,,,,,,,,,,,,,4757.501598312228,None,4757.501272990019,None,1,0.3305114739923738,4764.669069469033,None,4764.669069469033,None,4764.669069469033,None,4764.669069469033,None,,,,,,,,,,,,,,,,l,001,2019_Sep_25_0014,body_behavioural,3.2.1,59.81924217192472,
5,parcelated_audio/43/43_21.aiff,0,5,5,5,,,,,0,20,20,20,,,,,,,,,,,,,,,,,,,,,,,,,,,,,,,,,,,,,,,,,,,,,,,,,,,,,,,,,,,,4765.085208042234,None,4765.085308279027,None,9,0.24343655799748376,4767.535491239047,None,4767.535491239047,None,4767.535491239047,None,4767.535491239047,None,,,,,,,,,,,,,,,,l,001,2019_Sep_25_0014,body_behavioural,3.2.1,59.81924217192472,
5,parcelated_audio/43/43_22.aiff,0,5,5,5,,,,,0,21,21,21,,,,,,,,,,,,,,,,,,,,,,,,,,,,,,,,,,,,,,,,,,,,,,,,,,,,,,,,,,,,4767.852622811217,None,4767.852873538039,None,1,0.33832296699984,4771.236372174055,None,4771.236372174055,None,4771.236372174055,None,4771.236372174055,None,,,,,,,,,,,,,,,,l,001,2019_Sep_25_0014,body_behavioural,3.2.1,59.81924217192472,
5,parcelated_audio/43/43_23.aiff,0,5,5,5,,,,,0,22,22,22,,,,,,,,,,,,,,,,,,,,,,,,,,,,,,,,,,,,,,,,,,,,,,,,,,,,,,,,,,,,4771.6525454332,None,4771.653231024044,None,9,0.2719763269997202,4777.686615126033,None,4777.686615126033,None,4777.686615126033,None,4777.686615126033,None,,,,,,,,,,,,,,,,l,001,2019_Sep_25_0014,body_behavioural,3.2.1,59.81924217192472,
5,parcelated_audio/43/43_24.aiff,0,5,5,5,,,,,0,23,23,23,,,,,,,,,,,,,,,,,,,,,,,,,,,,,,,,,,,,,,,,,,,,,,,,,,,,,,,,,,,,4778.0532252102275,None,4778.053250616009,None,9,2.900913382996805,4784.369509404001,None,4784.369509404001,None,4784.369509404001,None,4784.369509404001,None,,,,,,,,,,,,,,,,l,001,2019_Sep_25_0014,body_behavioural,3.2.1,59.81924217192472,
5,parcelated_audio/43/43_25.aiff,0,5,5,5,,,,,0,24,24,24,,,,,,,,,,,,,,,,,,,,,,,,,,,,,,,,,,,,,,,,,,,,,,,,,,,,,,,,,,,,4787.369767583208,None,4787.371194084,None,9,0.32149659597780555,4792.403337911004,None,4792.403337911004,None,4792.403337911004,None,4792.403337911004,None,,,,,,,,,,,,,,,,l,001,2019_Sep_25_0014,body_behavioural,3.2.1,59.81924217192472,
5,parcelated_audio/43/43_26.aiff,0,5,5,5,,,,,0,25,25,25,,,,,,,,,,,,,,,,,,,,,,,,,,,,,,,,,,,,,,,,,,,,,,,,,,,,,,,,,,,,4792.853122593253,None,4792.853521131037,None,9,0.2799299599719234,4801.4042436590535,None,4801.4042436590535,None,4801.4042436590535,None,4801.4042436590535,None,,,,,,,,,,,,,,,,l,001,2019_Sep_25_0014,body_behavioural,3.2.1,59.81924217192472,
5,parcelated_audio/43/43_27.aiff,0,5,5,5,,,,,0,26,26,26,,,,,,,,,,,,,,,,,,,,,,,,,,,,,,,,,,,,,,,,,,,,,,,,,,,,,,,,,,,,4801.771644699213,None,4801.770939696056,None,9,0.23967068799538538,4806.155264180037,None,4806.155264180037,None,4806.155264180037,None,4806.155264180037,None,,,,,,,,,,,,,,,,l,001,2019_Sep_25_0014,body_behavioural,3.2.1,59.81924217192472,
5,parcelated_audio/43/43_28.aiff,0,5,5,5,,,,,0,27,27,27,,,,,,,,,,,,,,,,,,,,,,,,,,,,,,,,,,,,,,,,,,,,,,,,,,,,,,,,,,,,4806.471113743202,None,4806.471948586055,None,9,0.2498317969730124,4811.438196259027,None,4811.438196259027,None,4811.438196259027,None,4811.438196259027,None,,,,,,,,,,,,,,,,l,001,2019_Sep_25_0014,body_behavioural,3.2.1,59.81924217192472,
5,parcelated_audio/43/43_29.aiff,0,5,5,5,,,,,0,28,28,28,,,,,,,,,,,,,,,,,,,,,,,,,,,,,,,,,,,,,,,,,,,,,,,,,,,,,,,,,,,,4811.771902577253,None,4811.771619439009,None,9,0.32296737196156755,4817.888684166013,None,4817.888684166013,None,4817.888684166013,None,4817.888684166013,None,,,,,,,,,,,,,,,,l,001,2019_Sep_25_0014,body_behavioural,3.2.1,59.81924217192472,
5,,0,5,5,5,,,,,,,,,,,,,,,,,,,,,,,,,,,,,,,,,,,,,,,,,,,,,,,,,,,,,,,,,,,,,,,,,,,,,,,,,,,,,,,,,,4818.2898457440315,None,4818.2898457440315,None,space,0.9236485050059855,4818.2898457440315,None,,,,,,,,l,001,2019_Sep_25_0014,body_behavioural,3.2.1,59.81924217192472,
6,,0,6,6,6,0,0,0,0,,,,,,,,,,,,4819.239966670051,None,space,8.496023246960249,4819.239966670051,None,4819.239966670051,None,4827.756185580045,None,space,0.31266732601216063,4827.756185580045,None,4828.156733686046,None,4828.156733686046,None,4828.156733686046,None,4828.722917194013,None,space,0.3828697769786231,4828.722917194013,None,4829.456327024032,None,4829.456327024032,None,4829.456327024032,None,4829.456327024032,None,4829.456327024032,None,4829.456327024032,None,4829.456327024032,None,,,,,,,,,,,,,,,,,,,,,,,,,,,,,,,,,,,,,,,,,,l,001,2019_Sep_25_0014,body_behavioural,3.2.1,59.81924217192472,
6,parcelated_audio/13/13_1.aiff,0,6,6,6,,,,,0,0,0,0,,,,,,,,,,,,,,,,,,,,,,4830.9069406400085,None,4830.9069406400085,None,4830.9069406400085,None,,,,,,,,,,,,,,,,,,,,,4830.6063594540465,None,space,0.22821237001335248,4830.6063594540465,None,4831.08989565901,None,space,0.24165492499014363,4831.08989565901,None,4831.490572945215,None,4831.49063390604,None,9,0.337356848991476,4842.857132184028,None,4842.857132184028,None,4842.857132184028,None,4842.857132184028,None,,,,,,,,,,,,,,,,l,001,2019_Sep_25_0014,body_behavioural,3.2.1,59.81924217192472,
6,parcelated_audio/13/13_2.aiff,0,6,6,6,,,,,0,1,1,1,,,,,,,,,,,,,,,,,,,,,,,,,,,,,,,,,,,,,,,,,,,,,,,,,,,,,,,,,,,,4843.290376495221,None,4843.291034419031,None,9,0.2337108199717477,4849.391058846028,None,4849.391058846028,None,4849.391058846028,None,4849.391058846028,None,,,,,,,,,,,,,,,,l,001,2019_Sep_25_0014,body_behavioural,3.2.1,59.81924217192472,
6,parcelated_audio/13/13_3.aiff,0,6,6,6,,,,,0,2,2,2,,,,,,,,,,,,,,,,,,,,,,,,,,,,,,,,,,,,,,,,,,,,,,,,,,,,,,,,,,,,4849.707455160213,None,4849.707590801001,None,9,0.38772244000574574,4858.074899611005,None,4858.074899611005,None,4858.074899611005,None,4858.074899611005,None,,,,,,,,,,,,,,,,l,001,2019_Sep_25_0014,body_behavioural,3.2.1,59.81924217192472,
6,parcelated_audio/13/13_4.aiff,0,6,6,6,,,,,0,3,3,3,,,,,,,,,,,,,,,,,,,,,,,,,,,,,,,,,,,,,,,,,,,,,,,,,,,,,,,,,,,,4858.575802693202,None,4858.575028009014,None,9,0.25825107999844477,4868.809592161037,None,4868.809592161037,None,4868.809592161037,None,4868.809592161037,None,,,,,,,,,,,,,,,,l,001,2019_Sep_25_0014,body_behavioural,3.2.1,59.81924217192472,
6,parcelated_audio/13/13_5.aiff,0,6,6,6,,,,,0,4,4,4,,,,,,,,,,,,,,,,,,,,,,,,,,,,,,,,,,,,,,,,,,,,,,,,,,,,,,,,,,,,4869.159197800211,None,4869.1590622640215,None,9,0.2998726299847476,4875.193233041035,None,4875.193233041035,None,4875.193233041035,None,4875.193233041035,None,,,,,,,,,,,,,,,,l,001,2019_Sep_25_0014,body_behavioural,3.2.1,59.81924217192472,
6,parcelated_audio/13/13_6.aiff,0,6,6,6,,,,,0,5,5,5,,,,,,,,,,,,,,,,,,,,,,,,,,,,,,,,,,,,,,,,,,,,,,,,,,,,,,,,,,,,4875.594046180253,None,4875.59285354102,None,9,0.37416450504679233,4880.260650364042,None,4880.260650364042,None,4880.260650364042,None,4880.260650364042,None,,,,,,,,,,,,,,,,l,001,2019_Sep_25_0014,body_behavioural,3.2.1,59.81924217192472,
6,parcelated_audio/13/13_7.aiff,0,6,6,6,,,,,0,6,6,6,,,,,,,,,,,,,,,,,,,,,,,,,,,,,,,,,,,,,,,,,,,,,,,,,,,,,,,,,,,,4880.72612984525,None,4880.727411349013,None,9,0.5804833169677295,4888.360179276031,None,4888.360179276031,None,4888.360179276031,None,4888.360179276031,None,,,,,,,,,,,,,,,,l,001,2019_Sep_25_0014,body_behavioural,3.2.1,59.81924217192472,
6,parcelated_audio/13/13_8.aiff,0,6,6,6,,,,,0,7,7,7,,,,,,,,,,,,,,,,,,,,,,,,,,,,,,,,,,,,,,,,,,,,,,,,,,,,,,,,,,,,4889.0273158052005,None,4889.02713864902,None,9,0.25114089099224657,4894.310667294019,None,4894.310667294019,None,4894.310667294019,None,4894.310667294019,None,,,,,,,,,,,,,,,,l,001,2019_Sep_25_0014,body_behavioural,3.2.1,59.81924217192472,
6,parcelated_audio/13/13_9.aiff,0,6,6,6,,,,,0,8,8,8,,,,,,,,,,,,,,,,,,,,,,,,,,,,,,,,,,,,,,,,,,,,,,,,,,,,,,,,,,,,4894.661332501215,None,4894.660410636046,None,9,0.33847226900979877,4899.26067353104,None,4899.26067353104,None,4899.26067353104,None,4899.26067353104,None,,,,,,,,,,,,,,,,l,001,2019_Sep_25_0014,body_behavioural,3.2.1,59.81924217192472,
6,parcelated_audio/13/13_10.aiff,0,6,6,6,,,,,0,9,9,9,,,,,,,,,,,,,,,,,,,,,,,,,,,,,,,,,,,,,,,,,,,,,,,,,,,,,,,,,,,,4899.694498605211,None,4899.6952887810185,None,9,0.3360606760252267,4905.46233018802,None,4905.46233018802,None,4905.46233018802,None,4905.46233018802,None,,,,,,,,,,,,,,,,l,001,2019_Sep_25_0014,body_behavioural,3.2.1,59.81924217192472,
6,parcelated_audio/13/13_11.aiff,0,6,6,6,,,,,0,10,10,10,,,,,,,,,,,,,,,,,,,,,,,,,,,,,,,,,,,,,,,,,,,,,,,,,,,,,,,,,,,,4905.911876005237,None,4905.912405156007,None,9,0.2811354949953966,4910.395143104019,None,4910.395143104019,None,4910.395143104019,None,4910.395143104019,None,,,,,,,,,,,,,,,,l,001,2019_Sep_25_0014,body_behavioural,3.2.1,59.81924217192472,
6,parcelated_audio/13/13_12.aiff,0,6,6,6,,,,,0,11,11,11,,,,,,,,,,,,,,,,,,,,,,,,,,,,,,,,,,,,,,,,,,,,,,,,,,,,,,,,,,,,4910.763209157216,None,4910.76213766,None,9,0.25894079299177974,4919.181057540001,None,4919.181057540001,None,4919.181057540001,None,4919.181057540001,None,,,,,,,,,,,,,,,,l,001,2019_Sep_25_0014,body_behavioural,3.2.1,59.81924217192472,
6,parcelated_audio/13/13_13.aiff,0,6,6,6,,,,,0,12,12,12,,,,,,,,,,,,,,,,,,,,,,,,,,,,,,,,,,,,,,,,,,,,,,,,,,,,,,,,,,,,4919.528984457254,None,4919.5291695210035,None,9,0.267388865002431,4929.413933306001,None,4929.413933306001,None,4929.413933306001,None,4929.413933306001,None,,,,,,,,,,,,,,,,l,001,2019_Sep_25_0014,body_behavioural,3.2.1,59.81924217192472,
6,parcelated_audio/13/13_14.aiff,0,6,6,6,,,,,0,13,13,13,,,,,,,,,,,,,,,,,,,,,,,,,,,,,,,,,,,,,,,,,,,,,,,,,,,,,,,,,,,,4929.764298822207,None,4929.763696984039,None,9,0.055525831994600594,4937.947039420018,None,4937.947039420018,None,4937.947039420018,None,4937.947039420018,None,,,,,,,,,,,,,,,,l,001,2019_Sep_25_0014,body_behavioural,3.2.1,59.81924217192472,
6,parcelated_audio/13/13_15.aiff,0,6,6,6,,,,,0,14,14,14,,,,,,,,,,,,,,,,,,,,,,,,,,,,,,,,,,,,,,,,,,,,,,,,,,,,,,,,,,,,4938.09730368224,None,4938.097236056055,None,9,0.25390915502794087,4946.765117801027,None,4946.765117801027,None,4946.765117801027,None,4946.765117801027,None,,,,,,,,,,,,,,,,l,001,2019_Sep_25_0014,body_behavioural,3.2.1,59.81924217192472,
6,parcelated_audio/13/13_16.aiff,0,6,6,6,,,,,0,15,15,15,,,,,,,,,,,,,,,,,,,,,,,,,,,,,,,,,,,,,,,,,,,,,,,,,,,,,,,,,,,,4947.098096050206,None,4947.0979001390515,None,9,0.40223301597870886,4949.366459011042,None,4949.366459011042,None,4949.366459011042,None,4949.366459011042,None,,,,,,,,,,,,,,,,l,001,2019_Sep_25_0014,body_behavioural,3.2.1,59.81924217192472,
6,parcelated_audio/13/13_17.aiff,0,6,6,6,,,,,0,16,16,16,,,,,,,,,,,,,,,,,,,,,,,,,,,,,,,,,,,,,,,,,,,,,,,,,,,,,,,,,,,,4949.848115215253,None,4949.84831796604,None,9,1.7505061500123702,4956.632753288024,None,4956.632753288024,None,4956.632753288024,None,4956.632753288024,None,,,,,,,,,,,,,,,,l,001,2019_Sep_25_0014,body_behavioural,3.2.1,59.81924217192472,
6,parcelated_audio/13/13_18.aiff,0,6,6,6,,,,,0,17,17,17,,,,,,,,,,,,,,,,,,,,,,,,,,,,,,,,,,,,,,,,,,,,,,,,,,,,,,,,,,,,4958.465180697211,None,4958.465483466047,None,9,1.0189446249860339,4959.998507491022,None,4959.998507491022,None,4959.998507491022,None,4959.998507491022,None,,,,,,,,,,,,,,,,l,001,2019_Sep_25_0014,body_behavioural,3.2.1,59.81924217192472,
6,parcelated_audio/13/13_19.aiff,0,6,6,6,,,,,0,18,18,18,,,,,,,,,,,,,,,,,,,,,,,,,,,,,,,,,,,,,,,,,,,,,,,,,,,,,,,,,,,,4961.0993308092,None,4961.098887874046,None,9,11.496824142988771,4971.282460428018,None,4971.282460428018,None,4971.282460428018,None,4971.282460428018,None,,,,,,,,,,,,,,,,l,001,2019_Sep_25_0014,body_behavioural,3.2.1,59.81924217192472,
6,parcelated_audio/13/13_20.aiff,0,6,6,6,,,,,0,19,19,19,,,,,,,,,,,,,,,,,,,,,,,,,,,,,,,,,,,,,,,,,,,,,,,,,,,,,,,,,,,,4982.867282971216,None,4982.868117736012,None,9,1.4482521699974313,4990.801474664011,None,4990.801474664011,None,4990.801474664011,None,4990.801474664011,None,,,,,,,,,,,,,,,,l,001,2019_Sep_25_0014,body_behavioural,3.2.1,59.81924217192472,
6,parcelated_audio/13/13_21.aiff,0,6,6,6,,,,,0,20,20,20,,,,,,,,,,,,,,,,,,,,,,,,,,,,,,,,,,,,,,,,,,,,,,,,,,,,,,,,,,,,4992.334754100244,None,4992.334189226036,None,9,0.4628572399960831,4997.484444169037,None,4997.484444169037,None,4997.484444169037,None,4997.484444169037,None,,,,,,,,,,,,,,,,l,001,2019_Sep_25_0014,body_behavioural,3.2.1,59.81924217192472,
6,parcelated_audio/13/13_22.aiff,0,6,6,6,,,,,0,21,21,21,,,,,,,,,,,,,,,,,,,,,,,,,,,,,,,,,,,,,,,,,,,,,,,,,,,,,,,,,,,,4998.018068925245,None,4998.018019749026,None,9,0.35815887502394617,5001.318885849032,None,5001.318885849032,None,5001.318885849032,None,5001.318885849032,None,,,,,,,,,,,,,,,,l,001,2019_Sep_25_0014,body_behavioural,3.2.1,59.81924217192472,
6,parcelated_audio/13/13_23.aiff,0,6,6,6,,,,,0,22,22,22,,,,,,,,,,,,,,,,,,,,,,,,,,,,,,,,,,,,,,,,,,,,,,,,,,,,,,,,,,,,5001.752133757225,None,5001.753145401017,None,9,0.40580960002262145,5005.151812181051,None,5005.151812181051,None,5005.151812181051,None,5005.151812181051,None,,,,,,,,,,,,,,,,l,001,2019_Sep_25_0014,body_behavioural,3.2.1,59.81924217192472,
6,parcelated_audio/13/13_24.aiff,0,6,6,6,,,,,0,23,23,23,,,,,,,,,,,,,,,,,,,,,,,,,,,,,,,,,,,,,,,,,,,,,,,,,,,,,,,,,,,,5005.636358262214,None,5005.635348194046,None,9,0.266765590000432,5010.903351059009,None,5010.903351059009,None,5010.903351059009,None,5010.903351059009,None,,,,,,,,,,,,,,,,l,001,2019_Sep_25_0014,body_behavioural,3.2.1,59.81924217192472,
6,parcelated_audio/13/13_25.aiff,0,6,6,6,,,,,0,24,24,24,,,,,,,,,,,,,,,,,,,,,,,,,,,,,,,,,,,,,,,,,,,,,,,,,,,,,,,,,,,,5011.252728847205,None,5011.252455748036,None,9,0.25157099799253047,5017.9525919780135,None,5017.9525919780135,None,5017.9525919780135,None,5017.9525919780135,None,,,,,,,,,,,,,,,,l,001,2019_Sep_25_0014,body_behavioural,3.2.1,59.81924217192472,
6,parcelated_audio/13/13_26.aiff,0,6,6,6,,,,,0,25,25,25,,,,,,,,,,,,,,,,,,,,,,,,,,,,,,,,,,,,,,,,,,,,,,,,,,,,,,,,,,,,5018.319439340208,None,5018.3194085360155,None,9,0.3007069940213114,5028.053851752018,None,5028.053851752018,None,5028.053851752018,None,5028.053851752018,None,,,,,,,,,,,,,,,,l,001,2019_Sep_25_0014,body_behavioural,3.2.1,59.81924217192472,
6,parcelated_audio/13/13_27.aiff,0,6,6,6,,,,,0,26,26,26,,,,,,,,,,,,,,,,,,,,,,,,,,,,,,,,,,,,,,,,,,,,,,,,,,,,,,,,,,,,5028.45412918122,None,5028.453650584037,None,9,0.473812677024398,5035.737112594012,None,5035.737112594012,None,5035.737112594012,None,5035.737112594012,None,,,,,,,,,,,,,,,,l,001,2019_Sep_25_0014,body_behavioural,3.2.1,59.81924217192472,
6,parcelated_audio/13/13_28.aiff,0,6,6,6,,,,,0,27,27,27,,,,,,,,,,,,,,,,,,,,,,,,,,,,,,,,,,,,,,,,,,,,,,,,,,,,,,,,,,,,5036.30422351521,None,5036.304704509035,None,9,0.23682204098440707,5042.4877663660445,None,5042.4877663660445,None,5042.4877663660445,None,5042.4877663660445,None,,,,,,,,,,,,,,,,l,001,2019_Sep_25_0014,body_behavioural,3.2.1,59.81924217192472,
6,parcelated_audio/13/13_29.aiff,0,6,6,6,,,,,0,28,28,28,,,,,,,,,,,,,,,,,,,,,,,,,,,,,,,,,,,,,,,,,,,,,,,,,,,,,,,,,,,,5042.821958915214,None,5042.821710929042,None,1,0.6245069819851778,5048.071406383999,None,5048.071406383999,None,5048.071406383999,None,5048.071406383999,None,,,,,,,,,,,,,,,,l,001,2019_Sep_25_0014,body_behavioural,3.2.1,59.81924217192472,
6,parcelated_audio/13/13_30.aiff,0,6,6,6,,,,,0,29,29,29,,,,,,,,,,,,,,,,,,,,,,,,,,,,,,,,,,,,,,,,,,,,,,,,,,,,,,,,,,,,5048.787667387223,None,5048.788617758022,None,1,1.448881355987396,5054.2047654920025,None,5054.2047654920025,None,5054.2047654920025,None,5054.2047654920025,None,,,,,,,,,,,,,,,,l,001,2019_Sep_25_0014,body_behavioural,3.2.1,59.81924217192472,
6,parcelated_audio/13/13_31.aiff,0,6,6,6,,,,,0,30,30,30,,,,,,,,,,,,,,,,,,,,,,,,,,,,,,,,,,,,,,,,,,,,,,,,,,,,,,,,,,,,5055.721891385212,None,5055.722877384047,None,1,1.1833107600104995,5059.005922272045,None,5059.005922272045,None,5059.005922272045,None,5059.005922272045,None,,,,,,,,,,,,,,,,l,001,2019_Sep_25_0014,body_behavioural,3.2.1,59.81924217192472,
6,parcelated_audio/13/13_32.aiff,0,6,6,6,,,,,0,31,31,31,,,,,,,,,,,,,,,,,,,,,,,,,,,,,,,,,,,,,,,,,,,,,,,,,,,,,,,,,,,,5060.255711185222,None,5060.255633240042,None,1,0.31256725400453433,5063.705906392017,None,5063.705906392017,None,5063.705906392017,None,5063.705906392017,None,,,,,,,,,,,,,,,,l,001,2019_Sep_25_0014,body_behavioural,3.2.1,59.81924217192472,
6,parcelated_audio/13/13_33.aiff,0,6,6,6,,,,,0,32,32,32,,,,,,,,,,,,,,,,,,,,,,,,,,,,,,,,,,,,,,,,,,,,,,,,,,,,,,,,,,,,5064.106075540243,None,5064.105521254009,None,1,0.27128027396975085,5070.055915231002,None,5070.055915231002,None,5070.055915231002,None,5070.055915231002,None,,,,,,,,,,,,,,,,l,001,2019_Sep_25_0014,body_behavioural,3.2.1,59.81924217192472,
6,,0,6,6,6,,,,,,,,,,,,,,,,,,,,,,,,,,,,,,,,,,,,,,,,,,,,,,,,,,,,,,,,,,,,,,,,,,,,,,,,,,,,,,,,,,5070.38953193801,None,5070.38953193801,None,space,1.4494838530081324,5070.38953193801,None,,,,,,,,l,001,2019_Sep_25_0014,body_behavioural,3.2.1,59.81924217192472,
7,,0,7,7,7,0,0,0,0,,,,,,,,,,,,5071.873602376028,None,space,34.70457609498408,5071.873602376028,None,5071.873602376028,None,5106.608923771011,None,space,0.4722021129564382,5106.608923771011,None,5107.22566210205,None,5107.22566210205,None,5107.22566210205,None,5107.992504679016,None,space,1.2235599280102178,5107.992504679016,None,5109.52584217902,None,5109.52584217902,None,5109.52584217902,None,5109.52584217902,None,5109.52584217902,None,5109.52584217902,None,5109.52584217902,None,,,,,,,,,,,,,,,,,,,,,,,,,,,,,,,,,,,,,,,,,,l,001,2019_Sep_25_0014,body_behavioural,3.2.1,59.81924217192472,
7,parcelated_audio/31/31_1.aiff,0,7,7,7,,,,,0,0,0,0,,,,,,,,,,,,,,,,,,,,,,5110.6593764780555,None,5110.6593764780555,None,5110.6593764780555,None,,,,,,,,,,,,,,,,,,,,,5110.292908319039,None,space,0.29923428501933813,5110.292908319039,None,5111.076146581036,None,space,0.43374589999439195,5111.076146581036,None,5111.6937013572315,None,5111.693074726034,None,1,0.40282911603571847,5120.360689212044,None,5120.360689212044,None,5120.360689212044,None,5120.360689212044,None,,,,,,,,,,,,,,,,l,001,2019_Sep_25_0014,body_behavioural,3.2.1,59.81924217192472,
7,parcelated_audio/31/31_2.aiff,0,7,7,7,,,,,0,1,1,1,,,,,,,,,,,,,,,,,,,,,,,,,,,,,,,,,,,,,,,,,,,,,,,,,,,,,,,,,,,,5120.860060777224,None,5120.860388068017,None,9,0.9507049639942124,5125.343257762026,None,5125.343257762026,None,5125.343257762026,None,5125.343257762026,None,,,,,,,,,,,,,,,,l,001,2019_Sep_25_0014,body_behavioural,3.2.1,59.81924217192472,
7,parcelated_audio/31/31_3.aiff,0,7,7,7,,,,,0,2,2,2,,,,,,,,,,,,,,,,,,,,,,,,,,,,,,,,,,,,,,,,,,,,,,,,,,,,,,,,,,,,5126.377862975234,None,5126.377036574006,None,9,0.2421461860067211,5134.660962756025,None,5134.660962756025,None,5134.660962756025,None,5134.660962756025,None,,,,,,,,,,,,,,,,l,001,2019_Sep_25_0014,body_behavioural,3.2.1,59.81924217192472,
7,parcelated_audio/31/31_4.aiff,0,7,7,7,,,,,0,3,3,3,,,,,,,,,,,,,,,,,,,,,,,,,,,,,,,,,,,,,,,,,,,,,,,,,,,,,,,,,,,,5135.028605567233,None,5135.027381186024,None,9,0.3319909980054945,5145.078130092006,None,5145.078130092006,None,5145.078130092006,None,5145.078130092006,None,,,,,,,,,,,,,,,,l,001,2019_Sep_25_0014,body_behavioural,3.2.1,59.81924217192472,
7,parcelated_audio/31/31_5.aiff,0,7,7,7,,,,,0,4,4,4,,,,,,,,,,,,,,,,,,,,,,,,,,,,,,,,,,,,,,,,,,,,,,,,,,,,,,,,,,,,5145.54429692321,None,5145.544588988007,None,9,0.30344664002768695,5156.662258772005,None,5156.662258772005,None,5156.662258772005,None,5156.662258772005,None,,,,,,,,,,,,,,,,l,001,2019_Sep_25_0014,body_behavioural,3.2.1,59.81924217192472,
7,parcelated_audio/31/31_6.aiff,0,7,7,7,,,,,0,5,5,5,,,,,,,,,,,,,,,,,,,,,,,,,,,,,,,,,,,,,,,,,,,,,,,,,,,,,,,,,,,,5157.0630460502,None,5157.062536877056,None,9,0.34120908798649907,5162.363653794047,None,5162.363653794047,None,5162.363653794047,None,5162.363653794047,None,,,,,,,,,,,,,,,,l,001,2019_Sep_25_0014,body_behavioural,3.2.1,59.81924217192472,
7,parcelated_audio/31/31_7.aiff,0,7,7,7,,,,,0,6,6,6,,,,,,,,,,,,,,,,,,,,,,,,,,,,,,,,,,,,,,,,,,,,,,,,,,,,,,,,,,,,5162.797003025247,None,5162.796399324026,None,9,0.34839609201299027,5167.646140316036,None,5167.646140316036,None,5167.646140316036,None,5167.646140316036,None,,,,,,,,,,,,,,,,l,001,2019_Sep_25_0014,body_behavioural,3.2.1,59.81924217192472,
7,parcelated_audio/31/31_8.aiff,0,7,7,7,,,,,0,7,7,7,,,,,,,,,,,,,,,,,,,,,,,,,,,,,,,,,,,,,,,,,,,,,,,,,,,,,,,,,,,,5168.113028892258,None,5168.113826919056,None,9,0.2935884069884196,5176.547258681036,None,5176.547258681036,None,5176.547258681036,None,5176.547258681036,None,,,,,,,,,,,,,,,,l,001,2019_Sep_25_0014,body_behavioural,3.2.1,59.81924217192472,
7,parcelated_audio/31/31_9.aiff,0,7,7,7,,,,,0,8,8,8,,,,,,,,,,,,,,,,,,,,,,,,,,,,,,,,,,,,,,,,,,,,,,,,,,,,,,,,,,,,5176.9139106852235,None,5176.913553440012,None,9,0.27034150302642956,5181.9805767640355,None,5181.9805767640355,None,5181.9805767640355,None,5181.9805767640355,None,,,,,,,,,,,,,,,,l,001,2019_Sep_25_0014,body_behavioural,3.2.1,59.81924217192472,
7,parcelated_audio/31/31_10.aiff,0,7,7,7,,,,,0,9,9,9,,,,,,,,,,,,,,,,,,,,,,,,,,,,,,,,,,,,,,,,,,,,,,,,,,,,,,,,,,,,5182.331005841203,None,5182.330910129007,None,9,0.24111939797876403,5187.814335186034,None,5187.814335186034,None,5187.814335186034,None,5187.814335186034,None,,,,,,,,,,,,,,,,l,001,2019_Sep_25_0014,body_behavioural,3.2.1,59.81924217192472,
7,parcelated_audio/31/31_11.aiff,0,7,7,7,,,,,0,10,10,10,,,,,,,,,,,,,,,,,,,,,,,,,,,,,,,,,,,,,,,,,,,,,,,,,,,,,,,,,,,,5188.147477217251,None,5188.148440934019,None,9,0.28731822804547846,5198.36494727002,None,5198.36494727002,None,5198.36494727002,None,5198.36494727002,None,,,,,,,,,,,,,,,,l,001,2019_Sep_25_0014,body_behavioural,3.2.1,59.81924217192472,
7,parcelated_audio/31/31_12.aiff,0,7,7,7,,,,,0,11,11,11,,,,,,,,,,,,,,,,,,,,,,,,,,,,,,,,,,,,,,,,,,,,,,,,,,,,,,,,,,,,5198.749002187222,None,5198.749878581031,None,9,0.3275230369763449,5203.531752559007,None,5203.531752559007,None,5203.531752559007,None,5203.531752559007,None,,,,,,,,,,,,,,,,l,001,2019_Sep_25_0014,body_behavioural,3.2.1,59.81924217192472,
7,parcelated_audio/31/31_13.aiff,0,7,7,7,,,,,0,12,12,12,,,,,,,,,,,,,,,,,,,,,,,,,,,,,,,,,,,,,,,,,,,,,,,,,,,,,,,,,,,,5203.948333415203,None,5203.949719914002,None,9,0.2694472000002861,5211.266094436054,None,5211.266094436054,None,5211.266094436054,None,5211.266094436054,None,,,,,,,,,,,,,,,,l,001,2019_Sep_25_0014,body_behavioural,3.2.1,59.81924217192472,
7,parcelated_audio/31/31_14.aiff,0,7,7,7,,,,,0,13,13,13,,,,,,,,,,,,,,,,,,,,,,,,,,,,,,,,,,,,,,,,,,,,,,,,,,,,,,,,,,,,5211.650423912215,None,5211.649931886001,None,9,0.199882713961415,5217.766290380037,None,5217.766290380037,None,5217.766290380037,None,5217.766290380037,None,,,,,,,,,,,,,,,,l,001,2019_Sep_25_0014,body_behavioural,3.2.1,59.81924217192472,
7,parcelated_audio/31/31_15.aiff,0,7,7,7,,,,,0,14,14,14,,,,,,,,,,,,,,,,,,,,,,,,,,,,,,,,,,,,,,,,,,,,,,,,,,,,,,,,,,,,5218.050338080211,None,5218.049892439041,None,9,0.20008482999401167,5224.734345516015,None,5224.734345516015,None,5224.734345516015,None,5224.734345516015,None,,,,,,,,,,,,,,,,l,001,2019_Sep_25_0014,body_behavioural,3.2.1,59.81924217192472,
7,parcelated_audio/31/31_16.aiff,0,7,7,7,,,,,0,15,15,15,,,,,,,,,,,,,,,,,,,,,,,,,,,,,,,,,,,,,,,,,,,,,,,,,,,,,,,,,,,,5225.017177550239,None,5225.017052394047,None,9,0.30577132798498496,5231.434805200028,None,5231.434805200028,None,5231.434805200028,None,5231.434805200028,None,,,,,,,,,,,,,,,,l,001,2019_Sep_25_0014,body_behavioural,3.2.1,59.81924217192472,
7,parcelated_audio/31/31_17.aiff,0,7,7,7,,,,,0,16,16,16,,,,,,,,,,,,,,,,,,,,,,,,,,,,,,,,,,,,,,,,,,,,,,,,,,,,,,,,,,,,5231.835013275209,None,5231.835302724037,None,9,0.24409303202992305,5235.268615418056,None,5235.268615418056,None,5235.268615418056,None,5235.268615418056,None,,,,,,,,,,,,,,,,l,001,2019_Sep_25_0014,body_behavioural,3.2.1,59.81924217192472,
7,parcelated_audio/31/31_18.aiff,0,7,7,7,,,,,0,17,17,17,,,,,,,,,,,,,,,,,,,,,,,,,,,,,,,,,,,,,,,,,,,,,,,,,,,,,,,,,,,,5235.584541505203,None,5235.585062071041,None,9,0.25364934402750805,5240.184491361026,None,5240.184491361026,None,5240.184491361026,None,5240.184491361026,None,,,,,,,,,,,,,,,,l,001,2019_Sep_25_0014,body_behavioural,3.2.1,59.81924217192472,
7,parcelated_audio/31/31_19.aiff,0,7,7,7,,,,,0,18,18,18,,,,,,,,,,,,,,,,,,,,,,,,,,,,,,,,,,,,,,,,,,,,,,,,,,,,,,,,,,,,5240.534709672211,None,5240.534688898013,None,9,0.5353827530052513,5248.736259001016,None,5248.736259001016,None,5248.736259001016,None,5248.736259001016,None,,,,,,,,,,,,,,,,l,001,2019_Sep_25_0014,body_behavioural,3.2.1,59.81924217192472,
7,parcelated_audio/31/31_20.aiff,0,7,7,7,,,,,0,19,19,19,,,,,,,,,,,,,,,,,,,,,,,,,,,,,,,,,,,,,,,,,,,,,,,,,,,,,,,,,,,,5249.368730867223,None,5249.368739461002,None,9,38.12205817602808,5260.719425108051,None,5260.719425108051,None,5260.719425108051,None,5260.719425108051,None,,,,,,,,,,,,,,,,l,001,2019_Sep_25_0014,body_behavioural,3.2.1,59.81924217192472,
7,parcelated_audio/31/31_21.aiff,0,7,7,7,,,,,0,20,20,20,,,,,,,,,,,,,,,,,,,,,,,,,,,,,,,,,,,,,,,,,,,,,,,,,,,,,,,,,,,,5298.955108075228,None,5298.955476434028,None,9,0.2825200309744105,5309.206681864045,None,5309.206681864045,None,5309.206681864045,None,5309.206681864045,None,,,,,,,,,,,,,,,,l,001,2019_Sep_25_0014,body_behavioural,3.2.1,59.81924217192472,
7,parcelated_audio/31/31_22.aiff,0,7,7,7,,,,,0,21,21,21,,,,,,,,,,,,,,,,,,,,,,,,,,,,,,,,,,,,,,,,,,,,,,,,,,,,,,,,,,,,5309.5893084452255,None,5309.591160134005,None,9,1.104852150019724,5315.307334350015,None,5315.307334350015,None,5315.307334350015,None,5315.307334350015,None,,,,,,,,,,,,,,,,l,001,2019_Sep_25_0014,body_behavioural,3.2.1,59.81924217192472,
7,parcelated_audio/31/31_23.aiff,0,7,7,7,,,,,0,22,22,22,,,,,,,,,,,,,,,,,,,,,,,,,,,,,,,,,,,,,,,,,,,,,,,,,,,,,,,,,,,,5316.5230550052365,None,5316.52404473105,None,9,0.26745878998190165,5321.107834588038,None,5321.107834588038,None,5321.107834588038,None,5321.107834588038,None,,,,,,,,,,,,,,,,l,001,2019_Sep_25_0014,body_behavioural,3.2.1,59.81924217192472,
7,parcelated_audio/31/31_24.aiff,0,7,7,7,,,,,0,23,23,23,,,,,,,,,,,,,,,,,,,,,,,,,,,,,,,,,,,,,,,,,,,,,,,,,,,,,,,,,,,,5321.473832789226,None,5321.474097286002,None,9,0.245425820001401,5328.357256470015,None,5328.357256470015,None,5328.357256470015,None,5328.357256470015,None,,,,,,,,,,,,,,,,l,001,2019_Sep_25_0014,body_behavioural,3.2.1,59.81924217192472,
7,parcelated_audio/31/31_25.aiff,0,7,7,7,,,,,0,24,24,24,,,,,,,,,,,,,,,,,,,,,,,,,,,,,,,,,,,,,,,,,,,,,,,,,,,,,,,,,,,,5328.708098452247,None,5328.708345576015,None,9,0.36904132697964087,5340.058246408007,None,5340.058246408007,None,5340.058246408007,None,5340.058246408007,None,,,,,,,,,,,,,,,,l,001,2019_Sep_25_0014,body_behavioural,3.2.1,59.81924217192472,
7,parcelated_audio/31/31_26.aiff,0,7,7,7,,,,,0,25,25,25,,,,,,,,,,,,,,,,,,,,,,,,,,,,,,,,,,,,,,,,,,,,,,,,,,,,,,,,,,,,5340.508310142206,None,5340.509236714046,None,9,0.3129926919937134,5347.993594567,None,5347.993594567,None,5347.993594567,None,5347.993594567,None,,,,,,,,,,,,,,,,l,001,2019_Sep_25_0014,body_behavioural,3.2.1,59.81924217192472,
7,parcelated_audio/31/31_27.aiff,0,7,7,7,,,,,0,26,26,26,,,,,,,,,,,,,,,,,,,,,,,,,,,,,,,,,,,,,,,,,,,,,,,,,,,,,,,,,,,,5348.392807930242,None,5348.392143424018,None,9,0.2880635150359012,5352.743657138024,None,5352.743657138024,None,5352.743657138024,None,5352.743657138024,None,,,,,,,,,,,,,,,,l,001,2019_Sep_25_0014,body_behavioural,3.2.1,59.81924217192472,
7,parcelated_audio/31/31_28.aiff,0,7,7,7,,,,,0,27,27,27,,,,,,,,,,,,,,,,,,,,,,,,,,,,,,,,,,,,,,,,,,,,,,,,,,,,,,,,,,,,5353.125987875217,None,5353.125697831041,None,9,2.239852392987814,5358.159293769044,None,5358.159293769044,None,5358.159293769044,None,5358.159293769044,None,,,,,,,,,,,,,,,,l,001,2019_Sep_25_0014,body_behavioural,3.2.1,59.81924217192472,
