count,audio,instructText,trials.thisRepN,trials.thisTrialN,trials.thisN,trials.thisIndex,trials_7.thisRepN,trials_7.thisTrialN,trials_7.thisN,trials_7.thisIndex,trials_2.thisRepN,trials_2.thisTrialN,trials_2.thisN,trials_2.thisIndex,trials_3.thisRepN,trials_3.thisTrialN,trials_3.thisN,trials_3.thisIndex,trials_4.thisRepN,trials_4.thisTrialN,trials_4.thisN,trials_4.thisIndex,order of stories,order of perspectives,text_38.started,text_38.stopped,key_resp_8.keys,key_resp_8.rt,key_resp_8.started,key_resp_8.stopped,text_39.started,text_39.stopped,text_33.started,text_33.stopped,key_resp_5.keys,key_resp_5.rt,key_resp_5.started,key_resp_5.stopped,text_4.started,text_4.stopped,image.started,image.stopped,text_5.started,text_5.stopped,text_37.started,text_37.stopped,key_resp_7.keys,key_resp_7.rt,key_resp_7.started,key_resp_7.stopped,question1_2.started,question1_2.stopped,question2_2.started,question2_2.stopped,question3_2.started,question3_2.stopped,question4_2.started,question4_2.stopped,question5_2.started,question5_2.stopped,question6_2.started,question6_2.stopped,image_15.started,image_15.stopped,text_49.started,text_49.stopped,key_resp_15.keys,key_resp_15.rt,key_resp_15.started,key_resp_15.stopped,text_50.started,text_50.stopped,key_resp_14.keys,key_resp_14.rt,key_resp_14.started,key_resp_14.stopped,story_presses.keys,story_presses.rt,story_presses.started,story_presses.stopped,text_34.started,text_34.stopped,text_35.started,text_35.stopped,text.started,text.stopped,text_52.started,text_52.stopped,key_resp_16.keys,key_resp_16.rt,key_resp_16.started,key_resp_16.stopped,story time,text_45.started,text_45.stopped,key_resp_6.keys,key_resp_6.rt,key_resp_6.started,key_resp_6.stopped,key_resp_2.keys,key_resp_2.rt,key_resp_2.started,key_resp_2.stopped,text_6.started,text_6.stopped,text_24.started,text_24.stopped,text_41.started,text_41.stopped,key_resp_10.keys,key_resp_10.rt,key_resp_10.started,key_resp_10.stopped,text_42.started,text_42.stopped,text_51.started,text_51.stopped,recall,text_9.started,text_9.stopped,text_10.started,text_10.stopped,image_4.started,image_4.stopped,polygon.started,polygon.stopped,bottom_line.started,bottom_line.stopped,right_line_2.started,right_line_2.stopped,left_line.started,left_line.stopped,text_48.started,text_48.stopped,participant,session,date,expName,psychopyVersion,frameRate,
0,,,0,0,0,0,0,0,0,0,,,,,,,,,,,,,[23 11 13 34 44 32 21 42],"['Location' 'Location' 'Social' 'Location' 'Social' 'Social' 'Social'
 'Location']",17.07975582400104,None,space,0.8727403530065203,17.07975582400104,None,17.07975582400104,None,17.995845664001536,None,space,0.27663117299380247,17.995845664001536,None,18.579231292009354,None,18.579231292009354,None,18.579231292009354,None,28.964072194008622,None,space,0.43718482299300376,28.964072194008622,None,29.79750055600016,None,29.79750055600016,None,29.79750055600016,None,29.79750055600016,None,29.79750055600016,None,29.79750055600016,None,29.79750055600016,None,,,,,,,,,,,,,,,,,,,,,,,,,,,,,,,,,,,,,,,,,,,,,,,,,,,,,,,,,,,,,,,,,,,,,,,l_completion,001,2019_Oct_03_1522,body_behavioural,3.2.1,59.954718721282084,
0,parcelated_audio/23/23_1.ogg,,0,0,0,0,,,,,0,0,0,0,,,,,,,,,,,,,,,,,,,,,,,,,31.146881446009502,None,31.146881446009502,None,31.146881446009502,None,,,,,,,,,,,,,,,,,,,,,30.89667356600694,None,space,0.1684929149923846,30.89667356600694,None,31.530139256006805,None,space,0.44815486499282997,31.530139256006805,None,1,7.10831844000495,43.25443331099814,None,43.25443331099814,None,43.25443331099814,None,,,,,,,,,,,,,,,,,,,,,,,,,,,,,,,,,,,,,,,,,,,,,,,,,,,l_completion,001,2019_Oct_03_1522,body_behavioural,3.2.1,59.954718721282084,
0,parcelated_audio/23/23_2.ogg,,0,0,0,0,,,,,0,1,1,1,,,,,,,,,,,,,,,,,,,,,,,,,,,,,,,,,,,,,,,,,,,,,,,,,,,,,,,,,,,,,,,1,0.40628047700738534,57.417937869002344,None,57.417937869002344,None,57.417937869002344,None,,,,,,,,,,,,,,,,,,,,,,,,,,,,,,,,,,,,,,,,,,,,,,,,,,,l_completion,001,2019_Oct_03_1522,body_behavioural,3.2.1,59.954718721282084,
0,parcelated_audio/23/23_3.ogg,,0,0,0,0,,,,,0,2,2,2,,,,,,,,,,,,,,,,,,,,,,,,,,,,,,,,,,,,,,,,,,,,,,,,,,,,,,,,,,,,,,,1,5.614398432997405,63.73335567599861,None,63.73335567599861,None,63.73335567599861,None,,,,,,,,,,,,,,,,,,,,,,,,,,,,,,,,,,,,,,,,,,,,,,,,,,,l_completion,001,2019_Oct_03_1522,body_behavioural,3.2.1,59.954718721282084,
0,parcelated_audio/23/23_4.ogg,,0,0,0,0,,,,,0,3,3,3,,,,,,,,,,,,,,,,,,,,,,,,,,,,,,,,,,,,,,,,,,,,,,,,,,,,,,,,,,,,,,,1,810.811956747988,80.79201718600234,None,80.79201718600234,None,80.79201718600234,None,,,,,,,,,,,,,,,,,,,,,,,,,,,,,,,,,,,,,,,,,,,,,,,,,,,l_completion,001,2019_Oct_03_1522,body_behavioural,3.2.1,59.954718721282084,
0,parcelated_audio/23/23_5.ogg,,0,0,0,0,,,,,0,4,4,4,,,,,,,,,,,,,,,,,,,,,,,,,,,,,,,,,,,,,,,,,,,,,,,,,,,,,,,,,,,,,,,1,3.039879716001451,898.0743243110046,None,898.0743243110046,None,898.0743243110046,None,,,,,,,,,,,,,,,,,,,,,,,,,,,,,,,,,,,,,,,,,,,,,,,,,,,l_completion,001,2019_Oct_03_1522,body_behavioural,3.2.1,59.954718721282084,
0,parcelated_audio/23/23_6.ogg,,0,0,0,0,,,,,0,5,5,5,,,,,,,,,,,,,,,,,,,,,,,,,,,,,,,,,,,,,,,,,,,,,,,,,,,,,,,,,,,,,,,1,0.349980928003788,908.6740674790053,None,908.6740674790053,None,908.6740674790053,None,,,,,,,,,,,,,,,,,,,,,,,,,,,,,,,,,,,,,,,,,,,,,,,,,,,l_completion,001,2019_Oct_03_1522,body_behavioural,3.2.1,59.954718721282084,
0,parcelated_audio/23/23_7.ogg,,0,0,0,0,,,,,0,6,6,6,,,,,,,,,,,,,,,,,,,,,,,,,,,,,,,,,,,,,,,,,,,,,,,,,,,,,,,,,,,,,,,1,0.5067288300051587,915.9086154039978,None,915.9086154039978,None,915.9086154039978,None,,,,,,,,,,,,,,,,,,,,,,,,,,,,,,,,,,,,,,,,,,,,,,,,,,,l_completion,001,2019_Oct_03_1522,body_behavioural,3.2.1,59.954718721282084,
0,parcelated_audio/23/23_8.ogg,,0,0,0,0,,,,,0,7,7,7,,,,,,,,,,,,,,,,,,,,,,,,,,,,,,,,,,,,,,,,,,,,,,,,,,,,,,,,,,,,,,,1,0.41915462499309797,921.9584131209995,None,921.9584131209995,None,921.9584131209995,None,,,,,,,,,,,,,,,,,,,,,,,,,,,,,,,,,,,,,,,,,,,,,,,,,,,l_completion,001,2019_Oct_03_1522,body_behavioural,3.2.1,59.954718721282084,
0,parcelated_audio/23/23_9.ogg,,0,0,0,0,,,,,0,8,8,8,,,,,,,,,,,,,,,,,,,,,,,,,,,,,,,,,,,,,,,,,,,,,,,,,,,,,,,,,,,,,,,1,4.351166109001497,926.8919836810092,None,926.8919836810092,None,926.8919836810092,None,,,,,,,,,,,,,,,,,,,,,,,,,,,,,,,,,,,,,,,,,,,,,,,,,,,l_completion,001,2019_Oct_03_1522,body_behavioural,3.2.1,59.954718721282084,
0,parcelated_audio/23/23_10.ogg,,0,0,0,0,,,,,0,9,9,9,,,,,,,,,,,,,,,,,,,,,,,,,,,,,,,,,,,,,,,,,,,,,,,,,,,,,,,,,,,,,,,1,4.571166840993101,935.3258136710065,None,935.3258136710065,None,935.3258136710065,None,,,,,,,,,,,,,,,,,,,,,,,,,,,,,,,,,,,,,,,,,,,,,,,,,,,l_completion,001,2019_Oct_03_1522,body_behavioural,3.2.1,59.954718721282084,
0,parcelated_audio/23/23_11.ogg,,0,0,0,0,,,,,0,10,10,10,,,,,,,,,,,,,,,,,,,,,,,,,,,,,,,,,,,,,,,,,,,,,,,,,,,,,,,,,,,,,,,1,0.4618922490044497,948.1764085900068,None,948.1764085900068,None,948.1764085900068,None,,,,,,,,,,,,,,,,,,,,,,,,,,,,,,,,,,,,,,,,,,,,,,,,,,,l_completion,001,2019_Oct_03_1522,body_behavioural,3.2.1,59.954718721282084,
0,parcelated_audio/23/23_12.ogg,,0,0,0,0,,,,,0,11,11,11,,,,,,,,,,,,,,,,,,,,,,,,,,,,,,,,,,,,,,,,,,,,,,,,,,,,,,,,,,,,,,,1,0.41695059000630863,955.9113660410076,None,955.9113660410076,None,955.9113660410076,None,,,,,,,,,,,,,,,,,,,,,,,,,,,,,,,,,,,,,,,,,,,,,,,,,,,l_completion,001,2019_Oct_03_1522,body_behavioural,3.2.1,59.954718721282084,
0,parcelated_audio/23/23_13.ogg,,0,0,0,0,,,,,0,12,12,12,,,,,,,,,,,,,,,,,,,,,,,,,,,,,,,,,,,,,,,,,,,,,,,,,,,,,,,,,,,,,,,1,4.420492439996451,963.2621354160074,None,963.2621354160074,None,963.2621354160074,None,,,,,,,,,,,,,,,,,,,,,,,,,,,,,,,,,,,,,,,,,,,,,,,,,,,l_completion,001,2019_Oct_03_1522,body_behavioural,3.2.1,59.954718721282084,
0,parcelated_audio/23/23_14.ogg,,0,0,0,0,,,,,0,13,13,13,,,,,,,,,,,,,,,,,,,,,,,,,,,,,,,,,,,,,,,,,,,,,,,,,,,,,,,,,,,,,,,1,0.8611400350055192,972.1623462860007,None,972.1623462860007,None,972.1623462860007,None,,,,,,,,,,,,,,,,,,,,,,,,,,,,,,,,,,,,,,,,,,,,,,,,,,,l_completion,001,2019_Oct_03_1522,body_behavioural,3.2.1,59.954718721282084,
0,parcelated_audio/23/23_15.ogg,,0,0,0,0,,,,,0,14,14,14,,,,,,,,,,,,,,,,,,,,,,,,,,,,,,,,,,,,,,,,,,,,,,,,,,,,,,,,,,,,,,,1,0.9021360549959354,977.5628459610016,None,977.5628459610016,None,977.5628459610016,None,,,,,,,,,,,,,,,,,,,,,,,,,,,,,,,,,,,,,,,,,,,,,,,,,,,l_completion,001,2019_Oct_03_1522,body_behavioural,3.2.1,59.954718721282084,
0,parcelated_audio/23/23_16.ogg,,0,0,0,0,,,,,0,15,15,15,,,,,,,,,,,,,,,,,,,,,,,,,,,,,,,,,,,,,,,,,,,,,,,,,,,,,,,,,,,,,,,1,0.3531692779943114,985.180091924005,None,985.180091924005,None,985.180091924005,None,,,,,,,,,,,,,,,,,,,,,,,,,,,,,,,,,,,,,,,,,,,,,,,,,,,l_completion,001,2019_Oct_03_1522,body_behavioural,3.2.1,59.954718721282084,
0,parcelated_audio/23/23_17.ogg,,0,0,0,0,,,,,0,16,16,16,,,,,,,,,,,,,,,,,,,,,,,,,,,,,,,,,,,,,,,,,,,,,,,,,,,,,,,,,,,,,,,9,0.269965649000369,992.4298324310075,None,992.4298324310075,None,992.4298324310075,None,,,,,,,,,,,,,,,,,,,,,,,,,,,,,,,,,,,,,,,,,,,,,,,,,,,l_completion,001,2019_Oct_03_1522,body_behavioural,3.2.1,59.954718721282084,
0,parcelated_audio/23/23_18.ogg,,0,0,0,0,,,,,0,17,17,17,,,,,,,,,,,,,,,,,,,,,,,,,,,,,,,,,,,,,,,,,,,,,,,,,,,,,,,,,,,,,,,1,5.518149399998947,1004.8643370439968,None,1004.8643370439968,None,1004.8643370439968,None,,,,,,,,,,,,,,,,,,,,,,,,,,,,,,,,,,,,,,,,,,,,,,,,,,,l_completion,001,2019_Oct_03_1522,body_behavioural,3.2.1,59.954718721282084,
0,parcelated_audio/23/23_19.ogg,,0,0,0,0,,,,,0,18,18,18,,,,,,,,,,,,,,,,,,,,,,,,,,,,,,,,,,,,,,,,,,,,,,,,,,,,,,,,,,,,,,,1,0.46280403500713874,1016.2981236190099,None,1016.2981236190099,None,1016.2981236190099,None,,,,,,,,,,,,,,,,,,,,,,,,,,,,,,,,,,,,,,,,,,,,,,,,,,,l_completion,001,2019_Oct_03_1522,body_behavioural,3.2.1,59.954718721282084,
0,parcelated_audio/23/23_20.ogg,,0,0,0,0,,,,,0,19,19,19,,,,,,,,,,,,,,,,,,,,,,,,,,,,,,,,,,,,,,,,,,,,,,,,,,,,,,,,,,,,,,,1,0.28381951499613933,1019.781712741009,None,1019.781712741009,None,1019.781712741009,None,,,,,,,,,,,,,,,,,,,,,,,,,,,,,,,,,,,,,,,,,,,,,,,,,,,l_completion,001,2019_Oct_03_1522,body_behavioural,3.2.1,59.954718721282084,
0,parcelated_audio/23/23_21.ogg,,0,0,0,0,,,,,0,20,20,20,,,,,,,,,,,,,,,,,,,,,,,,,,,,,,,,,,,,,,,,,,,,,,,,,,,,,,,,,,,,,,,1,0.7043881749996217,1027.8657914810028,None,1027.8657914810028,None,1027.8657914810028,None,,,,,,,,,,,,,,,,,,,,,,,,,,,,,,,,,,,,,,,,,,,,,,,,,,,l_completion,001,2019_Oct_03_1522,body_behavioural,3.2.1,59.954718721282084,
0,parcelated_audio/23/23_22.ogg,,0,0,0,0,,,,,0,21,21,21,,,,,,,,,,,,,,,,,,,,,,,,,,,,,,,,,,,,,,,,,,,,,,,,,,,,,,,,,,,,,,,1,0.3060712899896316,1031.3666634539986,None,1031.3666634539986,None,1031.3666634539986,None,,,,,,,,,,,,,,,,,,,,,,,,,,,,,,,,,,,,,,,,,,,,,,,,,,,l_completion,001,2019_Oct_03_1522,body_behavioural,3.2.1,59.954718721282084,
0,parcelated_audio/23/23_23.ogg,,0,0,0,0,,,,,0,22,22,22,,,,,,,,,,,,,,,,,,,,,,,,,,,,,,,,,,,,,,,,,,,,,,,,,,,,,,,,,,,,,,,1,0.2637512630026322,1035.9994658939977,None,1035.9994658939977,None,1035.9994658939977,None,,,,,,,,,,,,,,,,,,,,,,,,,,,,,,,,,,,,,,,,,,,,,,,,,,,l_completion,001,2019_Oct_03_1522,body_behavioural,3.2.1,59.954718721282084,
0,parcelated_audio/23/23_24.ogg,,0,0,0,0,,,,,0,23,23,23,,,,,,,,,,,,,,,,,,,,,,,,,,,,,,,,,,,,,,,,,,,,,,,,,,,,,,,,,,,,,,,1,1.1210281149978982,1039.8331796359998,None,1039.8331796359998,None,1039.8331796359998,None,,,,,,,,,,,,,,,,,,,,,,,,,,,,,,,,,,,,,,,,,,,,,,,,,,,l_completion,001,2019_Oct_03_1522,body_behavioural,3.2.1,59.954718721282084,
0,parcelated_audio/23/23_25.ogg,,0,0,0,0,,,,,0,24,24,24,,,,,,,,,,,,,,,,,,,,,,,,,,,,,,,,,,,,,,,,,,,,,,,,,,,,,,,,,,,,,,,1,0.32887073000892997,1045.2507601840043,None,1045.2507601840043,None,1045.2507601840043,None,,,,,,,,,,,,,,,,,,,,,,,,,,,,,,,,,,,,,,,,,,,,,,,,,,,l_completion,001,2019_Oct_03_1522,body_behavioural,3.2.1,59.954718721282084,
0,parcelated_audio/23/23_26.ogg,,0,0,0,0,,,,,0,25,25,25,,,,,,,,,,,,,,,,,,,,,,,,,,,,,,,,,,,,,,,,,,,,,,,,,,,,,,,,,,,,,,,1,0.26419906999217346,1051.9338789160101,None,1051.9338789160101,None,1051.9338789160101,None,,,,,,,,,,,,,,,,,,,,,,,,,,,,,,,,,,,,,,,,,,,,,,,,,,,l_completion,001,2019_Oct_03_1522,body_behavioural,3.2.1,59.954718721282084,
0,parcelated_audio/23/23_27.ogg,,0,0,0,0,,,,,0,26,26,26,,,,,,,,,,,,,,,,,,,,,,,,,,,,,,,,,,,,,,,,,,,,,,,,,,,,,,,,,,,,,,,1,0.08259128699137364,1057.6009628410102,None,1057.6009628410102,None,1057.6009628410102,None,,,,,,,,,,,,,,,,,,,,,,,,,,,,,,,,,,,,,,,,,,,,,,,,,,,l_completion,001,2019_Oct_03_1522,body_behavioural,3.2.1,59.954718721282084,
0,parcelated_audio/23/23_28.ogg,,0,0,0,0,,,,,0,27,27,27,,,,,,,,,,,,,,,,,,,,,,,,,,,,,,,,,,,,,,,,,,,,,,,,,,,,,,,,,,,,,,,1,0.48082001000875607,1065.7515476910048,None,1065.7515476910048,None,1065.7515476910048,None,,,,,,,,,,,,,,,,,,,,,,,,,,,,,,,,,,,,,,,,,,,,,,,,,,,l_completion,001,2019_Oct_03_1522,body_behavioural,3.2.1,59.954718721282084,
0,parcelated_audio/23/23_29.ogg,,0,0,0,0,,,,,0,28,28,28,,,,,,,,,,,,,,,,,,,,,,,,,,,,,,,,,,,,,,,,,,,,,,,,,,,,,,,,,,,,,,,1,0.35006458999123424,1070.101869828999,None,1070.101869828999,None,1070.101869828999,None,,,,,,,,,,,,,,,,,,,,,,,,,,,,,,,,,,,,,,,,,,,,,,,,,,,l_completion,001,2019_Oct_03_1522,body_behavioural,3.2.1,59.954718721282084,
0,parcelated_audio/23/23_30.ogg,,0,0,0,0,,,,,0,29,29,29,,,,,,,,,,,,,,,,,,,,,,,,,,,,,,,,,,,,,,,,,,,,,,,,,,,,,,,,,,,,,,,1,1.6434815219981829,1076.485616571008,None,1076.485616571008,None,1076.485616571008,None,,,,,,,,,,,,,,,,,,,,,,,,,,,,,,,,,,,,,,,,,,,,,,,,,,,l_completion,001,2019_Oct_03_1522,body_behavioural,3.2.1,59.954718721282084,
0,parcelated_audio/23/23_31.ogg,,0,0,0,0,,,,,0,30,30,30,,,,,,,,,,,,,,,,,,,,,,,,,,,,,,,,,,,,,,,,,,,,,,,,,,,,,,,,,,,,,,,1,0.4963349399913568,1080.2526065810089,None,1080.2526065810089,None,1080.2526065810089,None,,,,,,,,,,,,,,,,,,,,,,,,,,,,,,,,,,,,,,,,,,,,,,,,,,,l_completion,001,2019_Oct_03_1522,body_behavioural,3.2.1,59.954718721282084,
0,parcelated_audio/23/23_32.ogg,,0,0,0,0,,,,,0,31,31,31,,,,,,,,,,,,,,,,,,,,,,,,,,,,,,,,,,,,,,,,,,,,,,,,,,,,,,,,,,,,,,,1,0.966729576990474,1084.4861345060053,None,1084.4861345060053,None,1084.4861345060053,None,,,,,,,,,,,,,,,,,,,,,,,,,,,,,,,,,,,,,,,,,,,,,,,,,,,l_completion,001,2019_Oct_03_1522,body_behavioural,3.2.1,59.954718721282084,
0,parcelated_audio/23/23_33.ogg,,0,0,0,0,,,,,0,32,32,32,,,,,,,,,,,,,,,,,,,,,,,,,,,,,,,,,,,,,,,,,,,,,,,,,,,,,,,,,,,,,,,1,0.25902726499771234,1091.636768604003,None,1091.636768604003,None,1091.636768604003,None,,,,,,,,,,,,,,,,,,,,,,,,,,,,,,,,,,,,,,,,,,,,,,,,,,,l_completion,001,2019_Oct_03_1522,body_behavioural,3.2.1,59.954718721282084,
0,parcelated_audio/23/23_34.ogg,,0,0,0,0,,,,,0,33,33,33,,,,,,,,,,,,,,,,,,,,,,,,,,,,,,,,,,,,,,,,,,,,,,,,,,,,,,,,,,,,,,,1,0.4568339669931447,1095.6036492760031,None,1095.6036492760031,None,1095.6036492760031,None,,,,,,,,,,,,,,,,,,,,,,,,,,,,,,,,,,,,,,,,,,,,,,,,,,,l_completion,001,2019_Oct_03_1522,body_behavioural,3.2.1,59.954718721282084,
0,parcelated_audio/23/23_35.ogg,,0,0,0,0,,,,,0,34,34,34,,,,,,,,,,,,,,,,,,,,,,,,,,,,,,,,,,,,,,,,,,,,,,,,,,,,,,,,,,,,,,,1,0.27074451799853705,1100.5039568860084,None,1100.5039568860084,None,1100.5039568860084,None,,,,,,,,,,,,,,,,,,,,,,,,,,,,,,,,,,,,,,,,,,,,,,,,,,,l_completion,001,2019_Oct_03_1522,body_behavioural,3.2.1,59.954718721282084,
0,parcelated_audio/23/23_36.ogg,,0,0,0,0,,,,,0,35,35,35,,,,,,,,,,,,,,,,,,,,,,,,,,,,,,,,,,,,,,,,,,,,,,,,,,,,,,,,,,,,,,,1,0.3249982999986969,1105.5710795540072,None,1105.5710795540072,None,1105.5710795540072,None,,,,,,,,,,,,,,,,,,,,,,,,,,,,,,,,,,,,,,,,,,,,,,,,,,,l_completion,001,2019_Oct_03_1522,body_behavioural,3.2.1,59.954718721282084,
0,parcelated_audio/23/23_37.ogg,,0,0,0,0,,,,,0,36,36,36,,,,,,,,,,,,,,,,,,,,,,,,,,,,,,,,,,,,,,,,,,,,,,,,,,,,,,,,,,,,,,,1,0.332244406992686,1110.821489991009,None,1110.821489991009,None,1110.821489991009,None,,,,,,,,,,,,,,,,,,,,,,,,,,,,,,,,,,,,,,,,,,,,,,,,,,,l_completion,001,2019_Oct_03_1522,body_behavioural,3.2.1,59.954718721282084,
0,parcelated_audio/23/23_38.ogg,,0,0,0,0,,,,,0,37,37,37,,,,,,,,,,,,,,,,,,,,,,,,,,,,,,,,,,,,,,,,,,,,,,,,,,,,,,,,,,,,,,,1,0.2975091300031636,1118.7885772110021,None,1118.7885772110021,None,1118.7885772110021,None,,,,,,,,,,,,,,,,,,,,,,,,,,,,,,,,,,,,,,,,,,,,,,,,,,,l_completion,001,2019_Oct_03_1522,body_behavioural,3.2.1,59.954718721282084,
0,parcelated_audio/23/23_39.ogg,,0,0,0,0,,,,,0,38,38,38,,,,,,,,,,,,,,,,,,,,,,,,,,,,,,,,,,,,,,,,,,,,,,,,,,,,,,,,,,,,,,,1,0.22457366000162438,1125.4723822910018,None,1125.4723822910018,None,1125.4723822910018,None,,,,,,,,,,,,,,,,,,,,,,,,,,,,,,,,,,,,,,,,,,,,,,,,,,,l_completion,001,2019_Oct_03_1522,body_behavioural,3.2.1,59.954718721282084,
0,,,0,0,0,0,,,,,,,,,,,,,,,,,,,,,,,,,,,,,,,,,,,,,,,,,,,,,,,,,,,,,,,,,,,,,,,,,,,,,,,,,,,,,,,1125.7723999739974,None,1125.7723999739974,None,space,1.0184596180042718,1125.7723999739974,None,,,,,,,,,,,,,,,,,,,,,,,,,,,,,,,,,,,,,,,,,,,l_completion,001,2019_Oct_03_1522,body_behavioural,3.2.1,59.954718721282084,
1,,,0,1,1,1,0,0,0,0,,,,,,,,,,,,,,,1126.856126921004,None,space,0.38081982200674247,1126.856126921004,None,1126.856126921004,None,1127.2572474589979,None,space,0.37659112000255845,1127.2572474589979,None,1127.7401756089967,None,1127.7401756089967,None,1127.7401756089967,None,1128.2891505809966,None,space,0.7895862079894869,1128.2891505809966,None,1129.4069498910103,None,1129.4069498910103,None,1129.4069498910103,None,1129.4069498910103,None,1129.4069498910103,None,1129.4069498910103,None,1129.4069498910103,None,,,,,,,,,,,,,,,,,,,,,,,,,,,,,,,,,,,,,,,,,,,,,,,,,,,,,,,,,,,,,,,,,,,,,,,l_completion,001,2019_Oct_03_1522,body_behavioural,3.2.1,59.954718721282084,
1,parcelated_audio/11/11_1.ogg,,0,1,1,1,,,,,0,0,0,0,,,,,,,,,,,,,,,,,,,,,,,,,1134.4897569940076,None,1134.4897569940076,None,1134.4897569940076,None,,,,,,,,,,,,,,,,,,,,,1133.2575467360002,None,space,1.1621443630137946,1133.2575467360002,None,1140.7081673610082,None,space,0.39374726300593466,1140.7081673610082,None,9,1.216233219995047,1153.3081731709972,None,1153.3081731709972,None,1153.3081731709972,None,,,,,,,,,,,,,,,,,,,,,,,,,,,,,,,,,,,,,,,,,,,,,,,,,,,l_completion,001,2019_Oct_03_1522,body_behavioural,3.2.1,59.954718721282084,
1,parcelated_audio/11/11_2.ogg,,0,1,1,1,,,,,0,1,1,1,,,,,,,,,,,,,,,,,,,,,,,,,,,,,,,,,,,,,,,,,,,,,,,,,,,,,,,,,,,,,,,9,0.14972776900685858,1159.1585943690006,None,1159.1585943690006,None,1159.1585943690006,None,,,,,,,,,,,,,,,,,,,,,,,,,,,,,,,,,,,,,,,,,,,,,,,,,,,l_completion,001,2019_Oct_03_1522,body_behavioural,3.2.1,59.954718721282084,
1,parcelated_audio/11/11_3.ogg,,0,1,1,1,,,,,0,2,2,2,,,,,,,,,,,,,,,,,,,,,,,,,,,,,,,,,,,,,,,,,,,,,,,,,,,,,,,,,,,,,,,9,0.2489713440008927,1164.4416327360086,None,1164.4416327360086,None,1164.4416327360086,None,,,,,,,,,,,,,,,,,,,,,,,,,,,,,,,,,,,,,,,,,,,,,,,,,,,l_completion,001,2019_Oct_03_1522,body_behavioural,3.2.1,59.954718721282084,
1,parcelated_audio/11/11_4.ogg,,0,1,1,1,,,,,0,3,3,3,,,,,,,,,,,,,,,,,,,,,,,,,,,,,,,,,,,,,,,,,,,,,,,,,,,,,,,,,,,,,,,9,0.3827573499875143,1173.8928302860004,None,1173.8928302860004,None,1173.8928302860004,None,,,,,,,,,,,,,,,,,,,,,,,,,,,,,,,,,,,,,,,,,,,,,,,,,,,l_completion,001,2019_Oct_03_1522,body_behavioural,3.2.1,59.954718721282084,
1,parcelated_audio/11/11_5.ogg,,0,1,1,1,,,,,0,4,4,4,,,,,,,,,,,,,,,,,,,,,,,,,,,,,,,,,,,,,,,,,,,,,,,,,,,,,,,,,,,,,,,9,0.28882323000289034,1180.1600675740046,None,1180.1600675740046,None,1180.1600675740046,None,,,,,,,,,,,,,,,,,,,,,,,,,,,,,,,,,,,,,,,,,,,,,,,,,,,l_completion,001,2019_Oct_03_1522,body_behavioural,3.2.1,59.954718721282084,
1,parcelated_audio/11/11_6.ogg,,0,1,1,1,,,,,0,5,5,5,,,,,,,,,,,,,,,,,,,,,,,,,,,,,,,,,,,,,,,,,,,,,,,,,,,,,,,,,,,,,,,9,0.30095302799600177,1185.1604777940083,None,1185.1604777940083,None,1185.1604777940083,None,,,,,,,,,,,,,,,,,,,,,,,,,,,,,,,,,,,,,,,,,,,,,,,,,,,l_completion,001,2019_Oct_03_1522,body_behavioural,3.2.1,59.954718721282084,
1,parcelated_audio/11/11_7.ogg,,0,1,1,1,,,,,0,6,6,6,,,,,,,,,,,,,,,,,,,,,,,,,,,,,,,,,,,,,,,,,,,,,,,,,,,,,,,,,,,,,,,9,0.3240727579977829,1192.161304031004,None,1192.161304031004,None,1192.161304031004,None,,,,,,,,,,,,,,,,,,,,,,,,,,,,,,,,,,,,,,,,,,,,,,,,,,,l_completion,001,2019_Oct_03_1522,body_behavioural,3.2.1,59.954718721282084,
1,parcelated_audio/11/11_8.ogg,,0,1,1,1,,,,,0,7,7,7,,,,,,,,,,,,,,,,,,,,,,,,,,,,,,,,,,,,,,,,,,,,,,,,,,,,,,,,,,,,,,,9,0.29633380500308704,1198.3950866310042,None,1198.3950866310042,None,1198.3950866310042,None,,,,,,,,,,,,,,,,,,,,,,,,,,,,,,,,,,,,,,,,,,,,,,,,,,,l_completion,001,2019_Oct_03_1522,body_behavioural,3.2.1,59.954718721282084,
1,parcelated_audio/11/11_9.ogg,,0,1,1,1,,,,,0,8,8,8,,,,,,,,,,,,,,,,,,,,,,,,,,,,,,,,,,,,,,,,,,,,,,,,,,,,,,,,,,,,,,,9,0.7183560869889334,1203.0943183339987,None,1203.0943183339987,None,1203.0943183339987,None,,,,,,,,,,,,,,,,,,,,,,,,,,,,,,,,,,,,,,,,,,,,,,,,,,,l_completion,001,2019_Oct_03_1522,body_behavioural,3.2.1,59.954718721282084,
1,parcelated_audio/11/11_10.ogg,,0,1,1,1,,,,,0,9,9,9,,,,,,,,,,,,,,,,,,,,,,,,,,,,,,,,,,,,,,,,,,,,,,,,,,,,,,,,,,,,,,,9,0.07959176199801732,1208.5621430340107,None,1208.5621430340107,None,1208.5621430340107,None,,,,,,,,,,,,,,,,,,,,,,,,,,,,,,,,,,,,,,,,,,,,,,,,,,,l_completion,001,2019_Oct_03_1522,body_behavioural,3.2.1,59.954718721282084,
1,parcelated_audio/11/11_11.ogg,,0,1,1,1,,,,,0,10,10,10,,,,,,,,,,,,,,,,,,,,,,,,,,,,,,,,,,,,,,,,,,,,,,,,,,,,,,,,,,,,,,,9,0.06528326700208709,1211.9621220690024,None,1211.9621220690024,None,1211.9621220690024,None,,,,,,,,,,,,,,,,,,,,,,,,,,,,,,,,,,,,,,,,,,,,,,,,,,,l_completion,001,2019_Oct_03_1522,body_behavioural,3.2.1,59.954718721282084,
1,parcelated_audio/11/11_12.ogg,,0,1,1,1,,,,,0,11,11,11,,,,,,,,,,,,,,,,,,,,,,,,,,,,,,,,,,,,,,,,,,,,,,,,,,,,,,,,,,,,,,,9,0.8157339619938284,1215.0285216240009,None,1215.0285216240009,None,1215.0285216240009,None,,,,,,,,,,,,,,,,,,,,,,,,,,,,,,,,,,,,,,,,,,,,,,,,,,,l_completion,001,2019_Oct_03_1522,body_behavioural,3.2.1,59.954718721282084,
1,parcelated_audio/11/11_13.ogg,,0,1,1,1,,,,,0,12,12,12,,,,,,,,,,,,,,,,,,,,,,,,,,,,,,,,,,,,,,,,,,,,,,,,,,,,,,,,,,,,,,,9,0.10739921301137656,1219.2954465810035,None,1219.2954465810035,None,1219.2954465810035,None,,,,,,,,,,,,,,,,,,,,,,,,,,,,,,,,,,,,,,,,,,,,,,,,,,,l_completion,001,2019_Oct_03_1522,body_behavioural,3.2.1,59.954718721282084,
1,parcelated_audio/11/11_14.ogg,,0,1,1,1,,,,,0,13,13,13,,,,,,,,,,,,,,,,,,,,,,,,,,,,,,,,,,,,,,,,,,,,,,,,,,,,,,,,,,,,,,,9,0.21993361999921035,1222.2456391160085,None,1222.2456391160085,None,1222.2456391160085,None,,,,,,,,,,,,,,,,,,,,,,,,,,,,,,,,,,,,,,,,,,,,,,,,,,,l_completion,001,2019_Oct_03_1522,body_behavioural,3.2.1,59.954718721282084,
1,parcelated_audio/11/11_15.ogg,,0,1,1,1,,,,,0,14,14,14,,,,,,,,,,,,,,,,,,,,,,,,,,,,,,,,,,,,,,,,,,,,,,,,,,,,,,,,,,,,,,,9,0.40210348200344015,1233.7964500660019,None,1233.7964500660019,None,1233.7964500660019,None,,,,,,,,,,,,,,,,,,,,,,,,,,,,,,,,,,,,,,,,,,,,,,,,,,,l_completion,001,2019_Oct_03_1522,body_behavioural,3.2.1,59.954718721282084,
1,parcelated_audio/11/11_16.ogg,,0,1,1,1,,,,,0,15,15,15,,,,,,,,,,,,,,,,,,,,,,,,,,,,,,,,,,,,,,,,,,,,,,,,,,,,,,,,,,,,,,,9,0.35040572501020506,1237.3640498809982,None,1237.3640498809982,None,1237.3640498809982,None,,,,,,,,,,,,,,,,,,,,,,,,,,,,,,,,,,,,,,,,,,,,,,,,,,,l_completion,001,2019_Oct_03_1522,body_behavioural,3.2.1,59.954718721282084,
1,parcelated_audio/11/11_17.ogg,,0,1,1,1,,,,,0,16,16,16,,,,,,,,,,,,,,,,,,,,,,,,,,,,,,,,,,,,,,,,,,,,,,,,,,,,,,,,,,,,,,,9,0.6936211450083647,1244.8471677240013,None,1244.8471677240013,None,1244.8471677240013,None,,,,,,,,,,,,,,,,,,,,,,,,,,,,,,,,,,,,,,,,,,,,,,,,,,,l_completion,001,2019_Oct_03_1522,body_behavioural,3.2.1,59.954718721282084,
1,parcelated_audio/11/11_18.ogg,,0,1,1,1,,,,,0,17,17,17,,,,,,,,,,,,,,,,,,,,,,,,,,,,,,,,,,,,,,,,,,,,,,,,,,,,,,,,,,,,,,,9,0.5116638649924425,1253.1482309940038,None,1253.1482309940038,None,1253.1482309940038,None,,,,,,,,,,,,,,,,,,,,,,,,,,,,,,,,,,,,,,,,,,,,,,,,,,,l_completion,001,2019_Oct_03_1522,body_behavioural,3.2.1,59.954718721282084,
1,parcelated_audio/11/11_19.ogg,,0,1,1,1,,,,,0,18,18,18,,,,,,,,,,,,,,,,,,,,,,,,,,,,,,,,,,,,,,,,,,,,,,,,,,,,,,,,,,,,,,,9,0.8503819619945716,1258.348142265997,None,1258.348142265997,None,1258.348142265997,None,,,,,,,,,,,,,,,,,,,,,,,,,,,,,,,,,,,,,,,,,,,,,,,,,,,l_completion,001,2019_Oct_03_1522,body_behavioural,3.2.1,59.954718721282084,
1,parcelated_audio/11/11_20.ogg,,0,1,1,1,,,,,0,19,19,19,,,,,,,,,,,,,,,,,,,,,,,,,,,,,,,,,,,,,,,,,,,,,,,,,,,,,,,,,,,,,,,9,0.7570917000120971,1264.265891875999,None,1264.265891875999,None,1264.265891875999,None,,,,,,,,,,,,,,,,,,,,,,,,,,,,,,,,,,,,,,,,,,,,,,,,,,,l_completion,001,2019_Oct_03_1522,body_behavioural,3.2.1,59.954718721282084,
1,parcelated_audio/11/11_21.ogg,,0,1,1,1,,,,,0,20,20,20,,,,,,,,,,,,,,,,,,,,,,,,,,,,,,,,,,,,,,,,,,,,,,,,,,,,,,,,,,,,,,,9,0.3763263470027596,1273.9166221909982,None,1273.9166221909982,None,1273.9166221909982,None,,,,,,,,,,,,,,,,,,,,,,,,,,,,,,,,,,,,,,,,,,,,,,,,,,,l_completion,001,2019_Oct_03_1522,body_behavioural,3.2.1,59.954718721282084,
1,parcelated_audio/11/11_22.ogg,,0,1,1,1,,,,,0,21,21,21,,,,,,,,,,,,,,,,,,,,,,,,,,,,,,,,,,,,,,,,,,,,,,,,,,,,,,,,,,,,,,,9,1.3823628499958431,1277.7494611209986,None,1277.7494611209986,None,1277.7494611209986,None,,,,,,,,,,,,,,,,,,,,,,,,,,,,,,,,,,,,,,,,,,,,,,,,,,,l_completion,001,2019_Oct_03_1522,body_behavioural,3.2.1,59.954718721282084,
1,parcelated_audio/11/11_23.ogg,,0,1,1,1,,,,,0,22,22,22,,,,,,,,,,,,,,,,,,,,,,,,,,,,,,,,,,,,,,,,,,,,,,,,,,,,,,,,,,,,,,,9,0.8004652620002162,1284.0172313240037,None,1284.0172313240037,None,1284.0172313240037,None,,,,,,,,,,,,,,,,,,,,,,,,,,,,,,,,,,,,,,,,,,,,,,,,,,,l_completion,001,2019_Oct_03_1522,body_behavioural,3.2.1,59.954718721282084,
1,parcelated_audio/11/11_24.ogg,,0,1,1,1,,,,,0,23,23,23,,,,,,,,,,,,,,,,,,,,,,,,,,,,,,,,,,,,,,,,,,,,,,,,,,,,,,,,,,,,,,,9,0.7349649899988435,1288.6011139640032,None,1288.6011139640032,None,1288.6011139640032,None,,,,,,,,,,,,,,,,,,,,,,,,,,,,,,,,,,,,,,,,,,,,,,,,,,,l_completion,001,2019_Oct_03_1522,body_behavioural,3.2.1,59.954718721282084,
1,parcelated_audio/11/11_25.ogg,,0,1,1,1,,,,,0,24,24,24,,,,,,,,,,,,,,,,,,,,,,,,,,,,,,,,,,,,,,,,,,,,,,,,,,,,,,,,,,,,,,,9,0.39690627199888695,1294.2006511439977,None,1294.2006511439977,None,1294.2006511439977,None,,,,,,,,,,,,,,,,,,,,,,,,,,,,,,,,,,,,,,,,,,,,,,,,,,,l_completion,001,2019_Oct_03_1522,body_behavioural,3.2.1,59.954718721282084,
1,parcelated_audio/11/11_26.ogg,,0,1,1,1,,,,,0,25,25,25,,,,,,,,,,,,,,,,,,,,,,,,,,,,,,,,,,,,,,,,,,,,,,,,,,,,,,,,,,,,,,,9,0.42649891501059756,1299.734301450997,None,1299.734301450997,None,1299.734301450997,None,,,,,,,,,,,,,,,,,,,,,,,,,,,,,,,,,,,,,,,,,,,,,,,,,,,l_completion,001,2019_Oct_03_1522,body_behavioural,3.2.1,59.954718721282084,
1,parcelated_audio/11/11_27.ogg,,0,1,1,1,,,,,0,26,26,26,,,,,,,,,,,,,,,,,,,,,,,,,,,,,,,,,,,,,,,,,,,,,,,,,,,,,,,,,,,,,,,9,0.429081402005977,1304.3013126709993,None,1304.3013126709993,None,1304.3013126709993,None,,,,,,,,,,,,,,,,,,,,,,,,,,,,,,,,,,,,,,,,,,,,,,,,,,,l_completion,001,2019_Oct_03_1522,body_behavioural,3.2.1,59.954718721282084,
1,parcelated_audio/11/11_28.ogg,,0,1,1,1,,,,,0,27,27,27,,,,,,,,,,,,,,,,,,,,,,,,,,,,,,,,,,,,,,,,,,,,,,,,,,,,,,,,,,,,,,,9,0.2685922579985345,1308.2685240610008,None,1308.2685240610008,None,1308.2685240610008,None,,,,,,,,,,,,,,,,,,,,,,,,,,,,,,,,,,,,,,,,,,,,,,,,,,,l_completion,001,2019_Oct_03_1522,body_behavioural,3.2.1,59.954718721282084,
1,parcelated_audio/11/11_29.ogg,,0,1,1,1,,,,,0,28,28,28,,,,,,,,,,,,,,,,,,,,,,,,,,,,,,,,,,,,,,,,,,,,,,,,,,,,,,,,,,,,,,,9,0.418399545000284,1312.851992128999,None,1312.851992128999,None,1312.851992128999,None,,,,,,,,,,,,,,,,,,,,,,,,,,,,,,,,,,,,,,,,,,,,,,,,,,,l_completion,001,2019_Oct_03_1522,body_behavioural,3.2.1,59.954718721282084,
1,parcelated_audio/11/11_30.ogg,,0,1,1,1,,,,,0,29,29,29,,,,,,,,,,,,,,,,,,,,,,,,,,,,,,,,,,,,,,,,,,,,,,,,,,,,,,,,,,,,,,,9,0.8141404519992648,1317.9356480709976,None,1317.9356480709976,None,1317.9356480709976,None,,,,,,,,,,,,,,,,,,,,,,,,,,,,,,,,,,,,,,,,,,,,,,,,,,,l_completion,001,2019_Oct_03_1522,body_behavioural,3.2.1,59.954718721282084,
1,parcelated_audio/11/11_31.ogg,,0,1,1,1,,,,,0,30,30,30,,,,,,,,,,,,,,,,,,,,,,,,,,,,,,,,,,,,,,,,,,,,,,,,,,,,,,,,,,,,,,,9,0.7347454400005518,1323.7192417820042,None,1323.7192417820042,None,1323.7192417820042,None,,,,,,,,,,,,,,,,,,,,,,,,,,,,,,,,,,,,,,,,,,,,,,,,,,,l_completion,001,2019_Oct_03_1522,body_behavioural,3.2.1,59.954718721282084,
1,parcelated_audio/11/11_32.ogg,,0,1,1,1,,,,,0,31,31,31,,,,,,,,,,,,,,,,,,,,,,,,,,,,,,,,,,,,,,,,,,,,,,,,,,,,,,,,,,,,,,,9,0.18150322001019958,1328.669688185997,None,1328.669688185997,None,1328.669688185997,None,,,,,,,,,,,,,,,,,,,,,,,,,,,,,,,,,,,,,,,,,,,,,,,,,,,l_completion,001,2019_Oct_03_1522,body_behavioural,3.2.1,59.954718721282084,
1,parcelated_audio/11/11_33.ogg,,0,1,1,1,,,,,0,32,32,32,,,,,,,,,,,,,,,,,,,,,,,,,,,,,,,,,,,,,,,,,,,,,,,,,,,,,,,,,,,,,,,9,0.8550536080001621,1331.5032534310012,None,1331.5032534310012,None,1331.5032534310012,None,,,,,,,,,,,,,,,,,,,,,,,,,,,,,,,,,,,,,,,,,,,,,,,,,,,l_completion,001,2019_Oct_03_1522,body_behavioural,3.2.1,59.954718721282084,
1,parcelated_audio/11/11_34.ogg,,0,1,1,1,,,,,0,33,33,33,,,,,,,,,,,,,,,,,,,,,,,,,,,,,,,,,,,,,,,,,,,,,,,,,,,,,,,,,,,,,,,1,0.7284062899998389,1335.8206638340052,None,1335.8206638340052,None,1335.8206638340052,None,,,,,,,,,,,,,,,,,,,,,,,,,,,,,,,,,,,,,,,,,,,,,,,,,,,l_completion,001,2019_Oct_03_1522,body_behavioural,3.2.1,59.954718721282084,
1,parcelated_audio/11/11_35.ogg,,0,1,1,1,,,,,0,34,34,34,,,,,,,,,,,,,,,,,,,,,,,,,,,,,,,,,,,,,,,,,,,,,,,,,,,,,,,,,,,,,,,1,0.9617583570070565,1341.0380181009969,None,1341.0380181009969,None,1341.0380181009969,None,,,,,,,,,,,,,,,,,,,,,,,,,,,,,,,,,,,,,,,,,,,,,,,,,,,l_completion,001,2019_Oct_03_1522,body_behavioural,3.2.1,59.954718721282084,
1,parcelated_audio/11/11_36.ogg,,0,1,1,1,,,,,0,35,35,35,,,,,,,,,,,,,,,,,,,,,,,,,,,,,,,,,,,,,,,,,,,,,,,,,,,,,,,,,,,,,,,1,0.6458418130059727,1351.155284391003,None,1351.155284391003,None,1351.155284391003,None,,,,,,,,,,,,,,,,,,,,,,,,,,,,,,,,,,,,,,,,,,,,,,,,,,,l_completion,001,2019_Oct_03_1522,body_behavioural,3.2.1,59.954718721282084,
1,parcelated_audio/11/11_37.ogg,,0,1,1,1,,,,,0,36,36,36,,,,,,,,,,,,,,,,,,,,,,,,,,,,,,,,,,,,,,,,,,,,,,,,,,,,,,,,,,,,,,,1,0.5144651099981274,1356.105148474002,None,1356.105148474002,None,1356.105148474002,None,,,,,,,,,,,,,,,,,,,,,,,,,,,,,,,,,,,,,,,,,,,,,,,,,,,l_completion,001,2019_Oct_03_1522,body_behavioural,3.2.1,59.954718721282084,
1,parcelated_audio/11/11_38.ogg,,0,1,1,1,,,,,0,37,37,37,,,,,,,,,,,,,,,,,,,,,,,,,,,,,,,,,,,,,,,,,,,,,,,,,,,,,,,,,,,,,,,1,0.4385138170036953,1362.9220156060037,None,1362.9220156060037,None,1362.9220156060037,None,,,,,,,,,,,,,,,,,,,,,,,,,,,,,,,,,,,,,,,,,,,,,,,,,,,l_completion,001,2019_Oct_03_1522,body_behavioural,3.2.1,59.954718721282084,
1,parcelated_audio/11/11_39.ogg,,0,1,1,1,,,,,0,38,38,38,,,,,,,,,,,,,,,,,,,,,,,,,,,,,,,,,,,,,,,,,,,,,,,,,,,,,,,,,,,,,,,1,0.2751237049960764,1368.722395566001,None,1368.722395566001,None,1368.722395566001,None,,,,,,,,,,,,,,,,,,,,,,,,,,,,,,,,,,,,,,,,,,,,,,,,,,,l_completion,001,2019_Oct_03_1522,body_behavioural,3.2.1,59.954718721282084,
1,parcelated_audio/11/11_40.ogg,,0,1,1,1,,,,,0,39,39,39,,,,,,,,,,,,,,,,,,,,,,,,,,,,,,,,,,,,,,,,,,,,,,,,,,,,,,,,,,,,,,,1,0.12237489499966614,1374.8076961810002,None,1374.8076961810002,None,1374.8076961810002,None,,,,,,,,,,,,,,,,,,,,,,,,,,,,,,,,,,,,,,,,,,,,,,,,,,,l_completion,001,2019_Oct_03_1522,body_behavioural,3.2.1,59.954718721282084,
1,parcelated_audio/11/11_41.ogg,,0,1,1,1,,,,,0,40,40,40,,,,,,,,,,,,,,,,,,,,,,,,,,,,,,,,,,,,,,,,,,,,,,,,,,,,,,,,,,,,,,,1,0.4454678559995955,1381.223541993997,None,1381.223541993997,None,1381.223541993997,None,,,,,,,,,,,,,,,,,,,,,,,,,,,,,,,,,,,,,,,,,,,,,,,,,,,l_completion,001,2019_Oct_03_1522,body_behavioural,3.2.1,59.954718721282084,
1,,,0,1,1,1,,,,,,,,,,,,,,,,,,,,,,,,,,,,,,,,,,,,,,,,,,,,,,,,,,,,,,,,,,,,,,,,,,,,,,,,,,,,,,,1381.7077857960103,None,1381.7077857960103,None,space,1.12366166501306,1381.7077857960103,None,,,,,,,,,,,,,,,,,,,,,,,,,,,,,,,,,,,,,,,,,,,l_completion,001,2019_Oct_03_1522,body_behavioural,3.2.1,59.954718721282084,
2,,,0,2,2,2,0,0,0,0,,,,,,,,,,,,,,,1382.8900615260063,None,space,0.4953708329994697,1382.8900615260063,None,1382.8900615260063,None,1383.4082949440053,None,space,0.4091053669981193,1383.4082949440053,None,1383.9235887880059,None,1383.9235887880059,None,1383.9235887880059,None,1384.3909330190072,None,space,0.7025136500014924,1384.3909330190072,None,1385.4746596839977,None,1385.4746596839977,None,1385.4746596839977,None,1385.4746596839977,None,1385.4746596839977,None,1385.4746596839977,None,1385.4746596839977,None,,,,,,,,,,,,,,,,,,,,,,,,,,,,,,,,,,,,,,,,,,,,,,,,,,,,,,,,,,,,,,,,,,,,,,,l_completion,001,2019_Oct_03_1522,body_behavioural,3.2.1,59.954718721282084,
2,parcelated_audio/13/13_1.ogg,,0,2,2,2,,,,,0,0,0,0,,,,,,,,,,,,,,,,,,,,,,,,,1390.223940263997,None,1390.223940263997,None,1390.223940263997,None,,,,,,,,,,,,,,,,,,,,,1389.7905453190033,None,space,0.3590879289986333,1389.7905453190033,None,1390.6583950710046,None,space,0.47319022699957713,1390.6583950710046,None,9,1.083491657002014,1402.9916128610057,None,1402.9916128610057,None,1402.9916128610057,None,,,,,,,,,,,,,,,,,,,,,,,,,,,,,,,,,,,,,,,,,,,,,,,,,,,l_completion,001,2019_Oct_03_1522,body_behavioural,3.2.1,59.954718721282084,
2,parcelated_audio/13/13_2.ogg,,0,2,2,2,,,,,0,1,1,1,,,,,,,,,,,,,,,,,,,,,,,,,,,,,,,,,,,,,,,,,,,,,,,,,,,,,,,,,,,,,,,9,0.27910257001349237,1410.3256627360097,None,1410.3256627360097,None,1410.3256627360097,None,,,,,,,,,,,,,,,,,,,,,,,,,,,,,,,,,,,,,,,,,,,,,,,,,,,l_completion,001,2019_Oct_03_1522,body_behavioural,3.2.1,59.954718721282084,
2,parcelated_audio/13/13_3.ogg,,0,2,2,2,,,,,0,2,2,2,,,,,,,,,,,,,,,,,,,,,,,,,,,,,,,,,,,,,,,,,,,,,,,,,,,,,,,,,,,,,,,9,0.4956002679973608,1419.092537331002,None,1419.092537331002,None,1419.092537331002,None,,,,,,,,,,,,,,,,,,,,,,,,,,,,,,,,,,,,,,,,,,,,,,,,,,,l_completion,001,2019_Oct_03_1522,body_behavioural,3.2.1,59.954718721282084,
2,parcelated_audio/13/13_4.ogg,,0,2,2,2,,,,,0,3,3,3,,,,,,,,,,,,,,,,,,,,,,,,,,,,,,,,,,,,,,,,,,,,,,,,,,,,,,,,,,,,,,,9,0.28010947500297334,1429.9604255440063,None,1429.9604255440063,None,1429.9604255440063,None,,,,,,,,,,,,,,,,,,,,,,,,,,,,,,,,,,,,,,,,,,,,,,,,,,,l_completion,001,2019_Oct_03_1522,body_behavioural,3.2.1,59.954718721282084,
2,parcelated_audio/13/13_5.ogg,,0,2,2,2,,,,,0,4,4,4,,,,,,,,,,,,,,,,,,,,,,,,,,,,,,,,,,,,,,,,,,,,,,,,,,,,,,,,,,,,,,,9,0.2741379799990682,1436.4111118560104,None,1436.4111118560104,None,1436.4111118560104,None,,,,,,,,,,,,,,,,,,,,,,,,,,,,,,,,,,,,,,,,,,,,,,,,,,,l_completion,001,2019_Oct_03_1522,body_behavioural,3.2.1,59.954718721282084,
2,parcelated_audio/13/13_6.ogg,,0,2,2,2,,,,,0,5,5,5,,,,,,,,,,,,,,,,,,,,,,,,,,,,,,,,,,,,,,,,,,,,,,,,,,,,,,,,,,,,,,,9,0.30438256000343245,1441.5274509309966,None,1441.5274509309966,None,1441.5274509309966,None,,,,,,,,,,,,,,,,,,,,,,,,,,,,,,,,,,,,,,,,,,,,,,,,,,,l_completion,001,2019_Oct_03_1522,body_behavioural,3.2.1,59.954718721282084,
2,parcelated_audio/13/13_7.ogg,,0,2,2,2,,,,,0,6,6,6,,,,,,,,,,,,,,,,,,,,,,,,,,,,,,,,,,,,,,,,,,,,,,,,,,,,,,,,,,,,,,,9,0.38552200500271283,1449.628026475999,None,1449.628026475999,None,1449.628026475999,None,,,,,,,,,,,,,,,,,,,,,,,,,,,,,,,,,,,,,,,,,,,,,,,,,,,l_completion,001,2019_Oct_03_1522,body_behavioural,3.2.1,59.954718721282084,
2,parcelated_audio/13/13_8.ogg,,0,2,2,2,,,,,0,7,7,7,,,,,,,,,,,,,,,,,,,,,,,,,,,,,,,,,,,,,,,,,,,,,,,,,,,,,,,,,,,,,,,9,0.30016536299081054,1455.478385814,None,1455.478385814,None,1455.478385814,None,,,,,,,,,,,,,,,,,,,,,,,,,,,,,,,,,,,,,,,,,,,,,,,,,,,l_completion,001,2019_Oct_03_1522,body_behavioural,3.2.1,59.954718721282084,
2,parcelated_audio/13/13_9.ogg,,0,2,2,2,,,,,0,8,8,8,,,,,,,,,,,,,,,,,,,,,,,,,,,,,,,,,,,,,,,,,,,,,,,,,,,,,,,,,,,,,,,1,0.7890424649958732,1460.5296267540107,None,1460.5296267540107,None,1460.5296267540107,None,,,,,,,,,,,,,,,,,,,,,,,,,,,,,,,,,,,,,,,,,,,,,,,,,,,l_completion,001,2019_Oct_03_1522,body_behavioural,3.2.1,59.954718721282084,
2,parcelated_audio/13/13_10.ogg,,0,2,2,2,,,,,0,9,9,9,,,,,,,,,,,,,,,,,,,,,,,,,,,,,,,,,,,,,,,,,,,,,,,,,,,,,,,,,,,,,,,9,1.352791591998539,1467.246524014001,None,1467.246524014001,None,1467.246524014001,None,,,,,,,,,,,,,,,,,,,,,,,,,,,,,,,,,,,,,,,,,,,,,,,,,,,l_completion,001,2019_Oct_03_1522,body_behavioural,3.2.1,59.954718721282084,
2,parcelated_audio/13/13_11.ogg,,0,2,2,2,,,,,0,10,10,10,,,,,,,,,,,,,,,,,,,,,,,,,,,,,,,,,,,,,,,,,,,,,,,,,,,,,,,,,,,,,,,9,0.35306227300316095,1473.2463389210025,None,1473.2463389210025,None,1473.2463389210025,None,,,,,,,,,,,,,,,,,,,,,,,,,,,,,,,,,,,,,,,,,,,,,,,,,,,l_completion,001,2019_Oct_03_1522,body_behavioural,3.2.1,59.954718721282084,
2,parcelated_audio/13/13_12.ogg,,0,2,2,2,,,,,0,11,11,11,,,,,,,,,,,,,,,,,,,,,,,,,,,,,,,,,,,,,,,,,,,,,,,,,,,,,,,,,,,,,,,9,0.35900106000190135,1482.214785714008,None,1482.214785714008,None,1482.214785714008,None,,,,,,,,,,,,,,,,,,,,,,,,,,,,,,,,,,,,,,,,,,,,,,,,,,,l_completion,001,2019_Oct_03_1522,body_behavioural,3.2.1,59.954718721282084,
2,parcelated_audio/13/13_13.ogg,,0,2,2,2,,,,,0,12,12,12,,,,,,,,,,,,,,,,,,,,,,,,,,,,,,,,,,,,,,,,,,,,,,,,,,,,,,,,,,,,,,,9,0.08024142800422851,1492.6317675340106,None,1492.6317675340106,None,1492.6317675340106,None,,,,,,,,,,,,,,,,,,,,,,,,,,,,,,,,,,,,,,,,,,,,,,,,,,,l_completion,001,2019_Oct_03_1522,body_behavioural,3.2.1,59.954718721282084,
2,parcelated_audio/13/13_14.ogg,,0,2,2,2,,,,,0,13,13,13,,,,,,,,,,,,,,,,,,,,,,,,,,,,,,,,,,,,,,,,,,,,,,,,,,,,,,,,,,,,,,,9,0.32164193999778945,1501.0482604240096,None,1501.0482604240096,None,1501.0482604240096,None,,,,,,,,,,,,,,,,,,,,,,,,,,,,,,,,,,,,,,,,,,,,,,,,,,,l_completion,001,2019_Oct_03_1522,body_behavioural,3.2.1,59.954718721282084,
2,parcelated_audio/13/13_15.ogg,,0,2,2,2,,,,,0,14,14,14,,,,,,,,,,,,,,,,,,,,,,,,,,,,,,,,,,,,,,,,,,,,,,,,,,,,,,,,,,,,,,,9,0.2552282049873611,1510.1657101559977,None,1510.1657101559977,None,1510.1657101559977,None,,,,,,,,,,,,,,,,,,,,,,,,,,,,,,,,,,,,,,,,,,,,,,,,,,,l_completion,001,2019_Oct_03_1522,body_behavioural,3.2.1,59.954718721282084,
2,parcelated_audio/13/13_16.ogg,,0,2,2,2,,,,,0,15,15,15,,,,,,,,,,,,,,,,,,,,,,,,,,,,,,,,,,,,,,,,,,,,,,,,,,,,,,,,,,,,,,,9,0.280212683006539,1512.866473881004,None,1512.866473881004,None,1512.866473881004,None,,,,,,,,,,,,,,,,,,,,,,,,,,,,,,,,,,,,,,,,,,,,,,,,,,,l_completion,001,2019_Oct_03_1522,body_behavioural,3.2.1,59.954718721282084,
2,parcelated_audio/13/13_17.ogg,,0,2,2,2,,,,,0,16,16,16,,,,,,,,,,,,,,,,,,,,,,,,,,,,,,,,,,,,,,,,,,,,,,,,,,,,,,,,,,,,,,,9,0.43150001199683174,1520.0996868390066,None,1520.0996868390066,None,1520.0996868390066,None,,,,,,,,,,,,,,,,,,,,,,,,,,,,,,,,,,,,,,,,,,,,,,,,,,,l_completion,001,2019_Oct_03_1522,body_behavioural,3.2.1,59.954718721282084,
2,parcelated_audio/13/13_18.ogg,,0,2,2,2,,,,,0,17,17,17,,,,,,,,,,,,,,,,,,,,,,,,,,,,,,,,,,,,,,,,,,,,,,,,,,,,,,,,,,,,,,,9,0.8408002450014465,1522.6164884309983,None,1522.6164884309983,None,1522.6164884309983,None,,,,,,,,,,,,,,,,,,,,,,,,,,,,,,,,,,,,,,,,,,,,,,,,,,,l_completion,001,2019_Oct_03_1522,body_behavioural,3.2.1,59.954718721282084,
2,parcelated_audio/13/13_19.ogg,,0,2,2,2,,,,,0,18,18,18,,,,,,,,,,,,,,,,,,,,,,,,,,,,,,,,,,,,,,,,,,,,,,,,,,,,,,,,,,,,,,,9,0.05026071499742102,1533.7838847640087,None,1533.7838847640087,None,1533.7838847640087,None,,,,,,,,,,,,,,,,,,,,,,,,,,,,,,,,,,,,,,,,,,,,,,,,,,,l_completion,001,2019_Oct_03_1522,body_behavioural,3.2.1,59.954718721282084,
2,parcelated_audio/13/13_20.ogg,,0,2,2,2,,,,,0,19,19,19,,,,,,,,,,,,,,,,,,,,,,,,,,,,,,,,,,,,,,,,,,,,,,,,,,,,,,,,,,,,,,,9,0.18781680800020695,1541.918555451004,None,1541.918555451004,None,1541.918555451004,None,,,,,,,,,,,,,,,,,,,,,,,,,,,,,,,,,,,,,,,,,,,,,,,,,,,l_completion,001,2019_Oct_03_1522,body_behavioural,3.2.1,59.954718721282084,
2,parcelated_audio/13/13_21.ogg,,0,2,2,2,,,,,0,20,20,20,,,,,,,,,,,,,,,,,,,,,,,,,,,,,,,,,,,,,,,,,,,,,,,,,,,,,,,,,,,,,,,9,0.05774597699928563,1547.401439474008,None,1547.401439474008,None,1547.401439474008,None,,,,,,,,,,,,,,,,,,,,,,,,,,,,,,,,,,,,,,,,,,,,,,,,,,,l_completion,001,2019_Oct_03_1522,body_behavioural,3.2.1,59.954718721282084,
2,parcelated_audio/13/13_22.ogg,,0,2,2,2,,,,,0,21,21,21,,,,,,,,,,,,,,,,,,,,,,,,,,,,,,,,,,,,,,,,,,,,,,,,,,,,,,,,,,,,,,,9,2.9434563179966062,1550.9189779290027,None,1550.9189779290027,None,1550.9189779290027,None,,,,,,,,,,,,,,,,,,,,,,,,,,,,,,,,,,,,,,,,,,,,,,,,,,,l_completion,001,2019_Oct_03_1522,body_behavioural,3.2.1,59.954718721282084,
2,parcelated_audio/13/13_23.ogg,,0,2,2,2,,,,,0,22,22,22,,,,,,,,,,,,,,,,,,,,,,,,,,,,,,,,,,,,,,,,,,,,,,,,,,,,,,,,,,,,,,,9,1.2135786069993628,1557.4027851510036,None,1557.4027851510036,None,1557.4027851510036,None,,,,,,,,,,,,,,,,,,,,,,,,,,,,,,,,,,,,,,,,,,,,,,,,,,,l_completion,001,2019_Oct_03_1522,body_behavioural,3.2.1,59.954718721282084,
2,parcelated_audio/13/13_24.ogg,,0,2,2,2,,,,,0,23,23,23,,,,,,,,,,,,,,,,,,,,,,,,,,,,,,,,,,,,,,,,,,,,,,,,,,,,,,,,,,,,,,,9,1.3987068849964999,1564.0026191210054,None,1564.0026191210054,None,1564.0026191210054,None,,,,,,,,,,,,,,,,,,,,,,,,,,,,,,,,,,,,,,,,,,,,,,,,,,,l_completion,001,2019_Oct_03_1522,body_behavioural,3.2.1,59.954718721282084,
2,parcelated_audio/13/13_25.ogg,,0,2,2,2,,,,,0,24,24,24,,,,,,,,,,,,,,,,,,,,,,,,,,,,,,,,,,,,,,,,,,,,,,,,,,,,,,,,,,,,,,,9,0.891884686992853,1572.2373250740056,None,1572.2373250740056,None,1572.2373250740056,None,,,,,,,,,,,,,,,,,,,,,,,,,,,,,,,,,,,,,,,,,,,,,,,,,,,l_completion,001,2019_Oct_03_1522,body_behavioural,3.2.1,59.954718721282084,
2,parcelated_audio/13/13_26.ogg,,0,2,2,2,,,,,0,25,25,25,,,,,,,,,,,,,,,,,,,,,,,,,,,,,,,,,,,,,,,,,,,,,,,,,,,,,,,,,,,,,,,9,1.0188699249993078,1583.0039025809965,None,1583.0039025809965,None,1583.0039025809965,None,,,,,,,,,,,,,,,,,,,,,,,,,,,,,,,,,,,,,,,,,,,,,,,,,,,l_completion,001,2019_Oct_03_1522,body_behavioural,3.2.1,59.954718721282084,
2,parcelated_audio/13/13_27.ogg,,0,2,2,2,,,,,0,26,26,26,,,,,,,,,,,,,,,,,,,,,,,,,,,,,,,,,,,,,,,,,,,,,,,,,,,,,,,,,,,,,,,9,2.7005637499969453,1591.4546274160093,None,1591.4546274160093,None,1591.4546274160093,None,,,,,,,,,,,,,,,,,,,,,,,,,,,,,,,,,,,,,,,,,,,,,,,,,,,l_completion,001,2019_Oct_03_1522,body_behavioural,3.2.1,59.954718721282084,
2,parcelated_audio/13/13_28.ogg,,0,2,2,2,,,,,0,27,27,27,,,,,,,,,,,,,,,,,,,,,,,,,,,,,,,,,,,,,,,,,,,,,,,,,,,,,,,,,,,,,,,9,2.0537287629995262,1600.47188418101,None,1600.47188418101,None,1600.47188418101,None,,,,,,,,,,,,,,,,,,,,,,,,,,,,,,,,,,,,,,,,,,,,,,,,,,,l_completion,001,2019_Oct_03_1522,body_behavioural,3.2.1,59.954718721282084,
2,parcelated_audio/13/13_29.ogg,,0,2,2,2,,,,,0,28,28,28,,,,,,,,,,,,,,,,,,,,,,,,,,,,,,,,,,,,,,,,,,,,,,,,,,,,,,,,,,,,,,,9,1.1066482530004578,1607.8890151090018,None,1607.8890151090018,None,1607.8890151090018,None,,,,,,,,,,,,,,,,,,,,,,,,,,,,,,,,,,,,,,,,,,,,,,,,,,,l_completion,001,2019_Oct_03_1522,body_behavioural,3.2.1,59.954718721282084,
2,parcelated_audio/13/13_30.ogg,,0,2,2,2,,,,,0,29,29,29,,,,,,,,,,,,,,,,,,,,,,,,,,,,,,,,,,,,,,,,,,,,,,,,,,,,,,,,,,,,,,,9,1.2988664849981433,1614.5896026109986,None,1614.5896026109986,None,1614.5896026109986,None,,,,,,,,,,,,,,,,,,,,,,,,,,,,,,,,,,,,,,,,,,,,,,,,,,,l_completion,001,2019_Oct_03_1522,body_behavioural,3.2.1,59.954718721282084,
2,parcelated_audio/13/13_31.ogg,,0,2,2,2,,,,,0,30,30,30,,,,,,,,,,,,,,,,,,,,,,,,,,,,,,,,,,,,,,,,,,,,,,,,,,,,,,,,,,,,,,,9,179.81758754300245,1619.2897066340083,None,1619.2897066340083,None,1619.2897066340083,None,,,,,,,,,,,,,,,,,,,,,,,,,,,,,,,,,,,,,,,,,,,,,,,,,,,l_completion,001,2019_Oct_03_1522,body_behavioural,3.2.1,59.954718721282084,
2,parcelated_audio/13/13_32.ogg,,0,2,2,2,,,,,0,31,31,31,,,,,,,,,,,,,,,,,,,,,,,,,,,,,,,,,,,,,,,,,,,,,,,,,,,,,,,,,,,,,,,9,1.754512129991781,1802.7364520660049,None,1802.7364520660049,None,1802.7364520660049,None,,,,,,,,,,,,,,,,,,,,,,,,,,,,,,,,,,,,,,,,,,,,,,,,,,,l_completion,001,2019_Oct_03_1522,body_behavioural,3.2.1,59.954718721282084,
2,parcelated_audio/13/13_33.ogg,,0,2,2,2,,,,,0,32,32,32,,,,,,,,,,,,,,,,,,,,,,,,,,,,,,,,,,,,,,,,,,,,,,,,,,,,,,,,,,,,,,,9,189.75832040500245,1810.6030127289996,None,1810.6030127289996,None,1810.6030127289996,None,,,,,,,,,,,,,,,,,,,,,,,,,,,,,,,,,,,,,,,,,,,,,,,,,,,l_completion,001,2019_Oct_03_1522,body_behavioural,3.2.1,59.954718721282084,
2,,,0,2,2,2,,,,,,,,,,,,,,,,,,,,,,,,,,,,,,,,,,,,,,,,,,,,,,,,,,,,,,,,,,,,,,,,,,,,,,,,,,,,,,,2000.400176604002,None,2000.400176604002,None,space,0.8159002870088443,2000.400176604002,None,,,,,,,,,,,,,,,,,,,,,,,,,,,,,,,,,,,,,,,,,,,l_completion,001,2019_Oct_03_1522,body_behavioural,3.2.1,59.954718721282084,
3,,,0,3,3,3,0,0,0,0,,,,,,,,,,,,,,,2001.2494940160104,None,space,0.3194395570026245,2001.2494940160104,None,2001.2494940160104,None,2001.6003884310048,None,space,0.3066251550044399,2001.6003884310048,None,2002.0494523689995,None,2002.0494523689995,None,2002.0494523689995,None,2002.4994932010013,None,space,0.4782771500031231,2002.4994932010013,None,2003.3670187440002,None,2003.3670187440002,None,2003.3670187440002,None,2003.3670187440002,None,2003.3670187440002,None,2003.3670187440002,None,2003.3670187440002,None,,,,,,,,,,,,,,,,,,,,,,,,,,,,,,,,,,,,,,,,,,,,,,,,,,,,,,,,,,,,,,,,,,,,,,,l_completion,001,2019_Oct_03_1522,body_behavioural,3.2.1,59.954718721282084,
3,parcelated_audio/34/34_1.ogg,,0,3,3,3,,,,,0,0,0,0,,,,,,,,,,,,,,,,,,,,,,,,,2004.9996484010044,None,2004.9996484010044,None,2004.9996484010044,None,,,,,,,,,,,,,,,,,,,,,2004.5673322509974,None,space,0.3602503020083532,2004.5673322509974,None,2005.532988431005,None,space,0.5925833100045566,2005.532988431005,None,9,0.2927770879905438,2015.0503674110078,None,2015.0503674110078,None,2015.0503674110078,None,,,,,,,,,,,,,,,,,,,,,,,,,,,,,,,,,,,,,,,,,,,,,,,,,,,l_completion,001,2019_Oct_03_1522,body_behavioural,3.2.1,59.954718721282084,
3,parcelated_audio/34/34_2.ogg,,0,3,3,3,,,,,0,1,1,1,,,,,,,,,,,,,,,,,,,,,,,,,,,,,,,,,,,,,,,,,,,,,,,,,,,,,,,,,,,,,,,9,1.5638176249922253,2020.0507606739993,None,2020.0507606739993,None,2020.0507606739993,None,,,,,,,,,,,,,,,,,,,,,,,,,,,,,,,,,,,,,,,,,,,,,,,,,,,l_completion,001,2019_Oct_03_1522,body_behavioural,3.2.1,59.954718721282084,
3,parcelated_audio/34/34_3.ogg,,0,3,3,3,,,,,0,2,2,2,,,,,,,,,,,,,,,,,,,,,,,,,,,,,,,,,,,,,,,,,,,,,,,,,,,,,,,,,,,,,,,9,0.9835873949923553,2026.4191125409998,None,2026.4191125409998,None,2026.4191125409998,None,,,,,,,,,,,,,,,,,,,,,,,,,,,,,,,,,,,,,,,,,,,,,,,,,,,l_completion,001,2019_Oct_03_1522,body_behavioural,3.2.1,59.954718721282084,
3,parcelated_audio/34/34_4.ogg,,0,3,3,3,,,,,0,3,3,3,,,,,,,,,,,,,,,,,,,,,,,,,,,,,,,,,,,,,,,,,,,,,,,,,,,,,,,,,,,,,,,9,0.24317765301384497,2037.1858845840034,None,2037.1858845840034,None,2037.1858845840034,None,,,,,,,,,,,,,,,,,,,,,,,,,,,,,,,,,,,,,,,,,,,,,,,,,,,l_completion,001,2019_Oct_03_1522,body_behavioural,3.2.1,59.954718721282084,
3,parcelated_audio/34/34_5.ogg,,0,3,3,3,,,,,0,4,4,4,,,,,,,,,,,,,,,,,,,,,,,,,,,,,,,,,,,,,,,,,,,,,,,,,,,,,,,,,,,,,,,9,0.27643845199781936,2047.9693829489988,None,2047.9693829489988,None,2047.9693829489988,None,,,,,,,,,,,,,,,,,,,,,,,,,,,,,,,,,,,,,,,,,,,,,,,,,,,l_completion,001,2019_Oct_03_1522,body_behavioural,3.2.1,59.954718721282084,
3,parcelated_audio/34/34_6.ogg,,0,3,3,3,,,,,0,5,5,5,,,,,,,,,,,,,,,,,,,,,,,,,,,,,,,,,,,,,,,,,,,,,,,,,,,,,,,,,,,,,,,9,0.2509248949936591,2057.1032457310066,None,2057.1032457310066,None,2057.1032457310066,None,,,,,,,,,,,,,,,,,,,,,,,,,,,,,,,,,,,,,,,,,,,,,,,,,,,l_completion,001,2019_Oct_03_1522,body_behavioural,3.2.1,59.954718721282084,
3,parcelated_audio/34/34_7.ogg,,0,3,3,3,,,,,0,6,6,6,,,,,,,,,,,,,,,,,,,,,,,,,,,,,,,,,,,,,,,,,,,,,,,,,,,,,,,,,,,,,,,9,0.26536763001058716,2063.486990928999,None,2063.486990928999,None,2063.486990928999,None,,,,,,,,,,,,,,,,,,,,,,,,,,,,,,,,,,,,,,,,,,,,,,,,,,,l_completion,001,2019_Oct_03_1522,body_behavioural,3.2.1,59.954718721282084,
3,parcelated_audio/34/34_8.ogg,,0,3,3,3,,,,,0,7,7,7,,,,,,,,,,,,,,,,,,,,,,,,,,,,,,,,,,,,,,,,,,,,,,,,,,,,,,,,,,,,,,,9,0.28995366500748787,2071.870990700001,None,2071.870990700001,None,2071.870990700001,None,,,,,,,,,,,,,,,,,,,,,,,,,,,,,,,,,,,,,,,,,,,,,,,,,,,l_completion,001,2019_Oct_03_1522,body_behavioural,3.2.1,59.954718721282084,
3,parcelated_audio/34/34_9.ogg,,0,3,3,3,,,,,0,8,8,8,,,,,,,,,,,,,,,,,,,,,,,,,,,,,,,,,,,,,,,,,,,,,,,,,,,,,,,,,,,,,,,9,0.28614967899920885,2077.0889315710083,None,2077.0889315710083,None,2077.0889315710083,None,,,,,,,,,,,,,,,,,,,,,,,,,,,,,,,,,,,,,,,,,,,,,,,,,,,l_completion,001,2019_Oct_03_1522,body_behavioural,3.2.1,59.954718721282084,
3,parcelated_audio/34/34_10.ogg,,0,3,3,3,,,,,0,9,9,9,,,,,,,,,,,,,,,,,,,,,,,,,,,,,,,,,,,,,,,,,,,,,,,,,,,,,,,,,,,,,,,9,0.2845531639904948,2084.5058542540064,None,2084.5058542540064,None,2084.5058542540064,None,,,,,,,,,,,,,,,,,,,,,,,,,,,,,,,,,,,,,,,,,,,,,,,,,,,l_completion,001,2019_Oct_03_1522,body_behavioural,3.2.1,59.954718721282084,
3,parcelated_audio/34/34_11.ogg,,0,3,3,3,,,,,0,10,10,10,,,,,,,,,,,,,,,,,,,,,,,,,,,,,,,,,,,,,,,,,,,,,,,,,,,,,,,,,,,,,,,9,0.32211122701119166,2088.389481229009,None,2088.389481229009,None,2088.389481229009,None,,,,,,,,,,,,,,,,,,,,,,,,,,,,,,,,,,,,,,,,,,,,,,,,,,,l_completion,001,2019_Oct_03_1522,body_behavioural,3.2.1,59.954718721282084,
3,parcelated_audio/34/34_12.ogg,,0,3,3,3,,,,,0,11,11,11,,,,,,,,,,,,,,,,,,,,,,,,,,,,,,,,,,,,,,,,,,,,,,,,,,,,,,,,,,,,,,,9,0.47562985500553623,2096.9893917459995,None,2096.9893917459995,None,2096.9893917459995,None,,,,,,,,,,,,,,,,,,,,,,,,,,,,,,,,,,,,,,,,,,,,,,,,,,,l_completion,001,2019_Oct_03_1522,body_behavioural,3.2.1,59.954718721282084,
3,parcelated_audio/34/34_13.ogg,,0,3,3,3,,,,,0,12,12,12,,,,,,,,,,,,,,,,,,,,,,,,,,,,,,,,,,,,,,,,,,,,,,,,,,,,,,,,,,,,,,,9,0.6487412930000573,2101.4897024740058,None,2101.4897024740058,None,2101.4897024740058,None,,,,,,,,,,,,,,,,,,,,,,,,,,,,,,,,,,,,,,,,,,,,,,,,,,,l_completion,001,2019_Oct_03_1522,body_behavioural,3.2.1,59.954718721282084,
3,parcelated_audio/34/34_14.ogg,,0,3,3,3,,,,,0,13,13,13,,,,,,,,,,,,,,,,,,,,,,,,,,,,,,,,,,,,,,,,,,,,,,,,,,,,,,,,,,,,,,,9,0.5567239030060591,2106.907668355998,None,2106.907668355998,None,2106.907668355998,None,,,,,,,,,,,,,,,,,,,,,,,,,,,,,,,,,,,,,,,,,,,,,,,,,,,l_completion,001,2019_Oct_03_1522,body_behavioural,3.2.1,59.954718721282084,
3,parcelated_audio/34/34_15.ogg,,0,3,3,3,,,,,0,14,14,14,,,,,,,,,,,,,,,,,,,,,,,,,,,,,,,,,,,,,,,,,,,,,,,,,,,,,,,,,,,,,,,9,0.3149082330055535,2111.841011714001,None,2111.841011714001,None,2111.841011714001,None,,,,,,,,,,,,,,,,,,,,,,,,,,,,,,,,,,,,,,,,,,,,,,,,,,,l_completion,001,2019_Oct_03_1522,body_behavioural,3.2.1,59.954718721282084,
3,parcelated_audio/34/34_16.ogg,,0,3,3,3,,,,,0,15,15,15,,,,,,,,,,,,,,,,,,,,,,,,,,,,,,,,,,,,,,,,,,,,,,,,,,,,,,,,,,,,,,,9,1.0156758149969392,2125.29130640901,None,2125.29130640901,None,2125.29130640901,None,,,,,,,,,,,,,,,,,,,,,,,,,,,,,,,,,,,,,,,,,,,,,,,,,,,l_completion,001,2019_Oct_03_1522,body_behavioural,3.2.1,59.954718721282084,
3,parcelated_audio/34/34_17.ogg,,0,3,3,3,,,,,0,16,16,16,,,,,,,,,,,,,,,,,,,,,,,,,,,,,,,,,,,,,,,,,,,,,,,,,,,,,,,,,,,,,,,9,0.1865019169927109,2135.4092724390066,None,2135.4092724390066,None,2135.4092724390066,None,,,,,,,,,,,,,,,,,,,,,,,,,,,,,,,,,,,,,,,,,,,,,,,,,,,l_completion,001,2019_Oct_03_1522,body_behavioural,3.2.1,59.954718721282084,
3,parcelated_audio/34/34_18.ogg,,0,3,3,3,,,,,0,17,17,17,,,,,,,,,,,,,,,,,,,,,,,,,,,,,,,,,,,,,,,,,,,,,,,,,,,,,,,,,,,,,,,9,0.04712962200574111,2141.593084218999,None,2141.593084218999,None,2141.593084218999,None,,,,,,,,,,,,,,,,,,,,,,,,,,,,,,,,,,,,,,,,,,,,,,,,,,,l_completion,001,2019_Oct_03_1522,body_behavioural,3.2.1,59.954718721282084,
3,parcelated_audio/34/34_19.ogg,,0,3,3,3,,,,,0,18,18,18,,,,,,,,,,,,,,,,,,,,,,,,,,,,,,,,,,,,,,,,,,,,,,,,,,,,,,,,,,,,,,,9,0.3119749250035966,2147.9928605840105,None,2147.9928605840105,None,2147.9928605840105,None,,,,,,,,,,,,,,,,,,,,,,,,,,,,,,,,,,,,,,,,,,,,,,,,,,,l_completion,001,2019_Oct_03_1522,body_behavioural,3.2.1,59.954718721282084,
3,parcelated_audio/34/34_20.ogg,,0,3,3,3,,,,,0,19,19,19,,,,,,,,,,,,,,,,,,,,,,,,,,,,,,,,,,,,,,,,,,,,,,,,,,,,,,,,,,,,,,,9,0.27163146300881635,2156.8935015559982,None,2156.8935015559982,None,2156.8935015559982,None,,,,,,,,,,,,,,,,,,,,,,,,,,,,,,,,,,,,,,,,,,,,,,,,,,,l_completion,001,2019_Oct_03_1522,body_behavioural,3.2.1,59.954718721282084,
3,parcelated_audio/34/34_21.ogg,,0,3,3,3,,,,,0,20,20,20,,,,,,,,,,,,,,,,,,,,,,,,,,,,,,,,,,,,,,,,,,,,,,,,,,,,,,,,,,,,,,,9,0.25126668500888627,2163.677252276,None,2163.677252276,None,2163.677252276,None,,,,,,,,,,,,,,,,,,,,,,,,,,,,,,,,,,,,,,,,,,,,,,,,,,,l_completion,001,2019_Oct_03_1522,body_behavioural,3.2.1,59.954718721282084,
3,parcelated_audio/34/34_22.ogg,,0,3,3,3,,,,,0,21,21,21,,,,,,,,,,,,,,,,,,,,,,,,,,,,,,,,,,,,,,,,,,,,,,,,,,,,,,,,,,,,,,,9,0.2507692369981669,2169.2118126440037,None,2169.2118126440037,None,2169.2118126440037,None,,,,,,,,,,,,,,,,,,,,,,,,,,,,,,,,,,,,,,,,,,,,,,,,,,,l_completion,001,2019_Oct_03_1522,body_behavioural,3.2.1,59.954718721282084,
3,parcelated_audio/34/34_23.ogg,,0,3,3,3,,,,,0,22,22,22,,,,,,,,,,,,,,,,,,,,,,,,,,,,,,,,,,,,,,,,,,,,,,,,,,,,,,,,,,,,,,,9,0.2465402469970286,2177.445781383998,None,2177.445781383998,None,2177.445781383998,None,,,,,,,,,,,,,,,,,,,,,,,,,,,,,,,,,,,,,,,,,,,,,,,,,,,l_completion,001,2019_Oct_03_1522,body_behavioural,3.2.1,59.954718721282084,
3,parcelated_audio/34/34_24.ogg,,0,3,3,3,,,,,0,23,23,23,,,,,,,,,,,,,,,,,,,,,,,,,,,,,,,,,,,,,,,,,,,,,,,,,,,,,,,,,,,,,,,9,0.21360056000412442,2183.628724713999,None,2183.628724713999,None,2183.628724713999,None,,,,,,,,,,,,,,,,,,,,,,,,,,,,,,,,,,,,,,,,,,,,,,,,,,,l_completion,001,2019_Oct_03_1522,body_behavioural,3.2.1,59.954718721282084,
3,parcelated_audio/34/34_25.ogg,,0,3,3,3,,,,,0,24,24,24,,,,,,,,,,,,,,,,,,,,,,,,,,,,,,,,,,,,,,,,,,,,,,,,,,,,,,,,,,,,,,,9,0.27923692000331357,2190.5458283240005,None,2190.5458283240005,None,2190.5458283240005,None,,,,,,,,,,,,,,,,,,,,,,,,,,,,,,,,,,,,,,,,,,,,,,,,,,,l_completion,001,2019_Oct_03_1522,body_behavioural,3.2.1,59.954718721282084,
3,parcelated_audio/34/34_26.ogg,,0,3,3,3,,,,,0,25,25,25,,,,,,,,,,,,,,,,,,,,,,,,,,,,,,,,,,,,,,,,,,,,,,,,,,,,,,,,,,,,,,,9,0.2970309219963383,2200.613846021006,None,2200.613846021006,None,2200.613846021006,None,,,,,,,,,,,,,,,,,,,,,,,,,,,,,,,,,,,,,,,,,,,,,,,,,,,l_completion,001,2019_Oct_03_1522,body_behavioural,3.2.1,59.954718721282084,
3,parcelated_audio/34/34_27.ogg,,0,3,3,3,,,,,0,26,26,26,,,,,,,,,,,,,,,,,,,,,,,,,,,,,,,,,,,,,,,,,,,,,,,,,,,,,,,,,,,,,,,9,0.1246923229919048,2208.530397146009,None,2208.530397146009,None,2208.530397146009,None,,,,,,,,,,,,,,,,,,,,,,,,,,,,,,,,,,,,,,,,,,,,,,,,,,,l_completion,001,2019_Oct_03_1522,body_behavioural,3.2.1,59.954718721282084,
3,,,0,3,3,3,,,,,,,,,,,,,,,,,,,,,,,,,,,,,,,,,,,,,,,,,,,,,,,,,,,,,,,,,,,,,,,,,,,,,,,,,,,,,,,2208.682546626005,None,2208.682546626005,None,space,2.158279142997344,2208.682546626005,None,,,,,,,,,,,,,,,,,,,,,,,,,,,,,,,,,,,,,,,,,,,l_completion,001,2019_Oct_03_1522,body_behavioural,3.2.1,59.954718721282084,
4,,,0,4,4,4,0,0,0,0,,,,,,,,,,,,,,,2210.865677100999,None,space,0.32309919700492173,2210.865677100999,None,2210.865677100999,None,2211.2152232990047,None,space,0.2656481820013141,2211.2152232990047,None,2211.580629641001,None,2211.580629641001,None,2211.580629641001,None,2211.980633366009,None,space,0.664061240007868,2211.980633366009,None,2212.982385401003,None,2212.982385401003,None,2212.982385401003,None,2212.982385401003,None,2212.982385401003,None,2212.982385401003,None,2212.982385401003,None,,,,,,,,,,,,,,,,,,,,,,,,,,,,,,,,,,,,,,,,,,,,,,,,,,,,,,,,,,,,,,,,,,,,,,,l_completion,001,2019_Oct_03_1522,body_behavioural,3.2.1,59.954718721282084,
4,parcelated_audio/44/44_1.ogg,,0,4,4,4,,,,,0,0,0,0,,,,,,,,,,,,,,,,,,,,,,,,,2214.5474839490053,None,2214.5474839490053,None,2214.5474839490053,None,,,,,,,,,,,,,,,,,,,,,2214.297497986001,None,space,0.17018118299893104,2214.297497986001,None,2214.9317442059983,None,space,0.6457858750072774,2214.9317442059983,None,9,0.268339336005738,2223.6814293790085,None,2223.6814293790085,None,2223.6814293790085,None,,,,,,,,,,,,,,,,,,,,,,,,,,,,,,,,,,,,,,,,,,,,,,,,,,,l_completion,001,2019_Oct_03_1522,body_behavioural,3.2.1,59.954718721282084,
4,parcelated_audio/44/44_2.ogg,,0,4,4,4,,,,,0,1,1,1,,,,,,,,,,,,,,,,,,,,,,,,,,,,,,,,,,,,,,,,,,,,,,,,,,,,,,,,,,,,,,,1,1.3299367019935744,2233.2331401460106,None,2233.2331401460106,None,2233.2331401460106,None,,,,,,,,,,,,,,,,,,,,,,,,,,,,,,,,,,,,,,,,,,,,,,,,,,,l_completion,001,2019_Oct_03_1522,body_behavioural,3.2.1,59.954718721282084,
4,parcelated_audio/44/44_3.ogg,,0,4,4,4,,,,,0,2,2,2,,,,,,,,,,,,,,,,,,,,,,,,,,,,,,,,,,,,,,,,,,,,,,,,,,,,,,,,,,,,,,,1,0.5688639979925938,2240.1492347059975,None,2240.1492347059975,None,2240.1492347059975,None,,,,,,,,,,,,,,,,,,,,,,,,,,,,,,,,,,,,,,,,,,,,,,,,,,,l_completion,001,2019_Oct_03_1522,body_behavioural,3.2.1,59.954718721282084,
4,parcelated_audio/44/44_4.ogg,,0,4,4,4,,,,,0,3,3,3,,,,,,,,,,,,,,,,,,,,,,,,,,,,,,,,,,,,,,,,,,,,,,,,,,,,,,,,,,,,,,,1,0.08056724700145423,2245.949662159008,None,2245.949662159008,None,2245.949662159008,None,,,,,,,,,,,,,,,,,,,,,,,,,,,,,,,,,,,,,,,,,,,,,,,,,,,l_completion,001,2019_Oct_03_1522,body_behavioural,3.2.1,59.954718721282084,
4,parcelated_audio/44/44_5.ogg,,0,4,4,4,,,,,0,4,4,4,,,,,,,,,,,,,,,,,,,,,,,,,,,,,,,,,,,,,,,,,,,,,,,,,,,,,,,,,,,,,,,1,2.6396063340071123,2252.4000421439996,None,2252.4000421439996,None,2252.4000421439996,None,,,,,,,,,,,,,,,,,,,,,,,,,,,,,,,,,,,,,,,,,,,,,,,,,,,l_completion,001,2019_Oct_03_1522,body_behavioural,3.2.1,59.954718721282084,
4,parcelated_audio/44/44_6.ogg,,0,4,4,4,,,,,0,5,5,5,,,,,,,,,,,,,,,,,,,,,,,,,,,,,,,,,,,,,,,,,,,,,,,,,,,,,,,,,,,,,,,1,5.108601236992399,2262.167605526003,None,2262.167605526003,None,2262.167605526003,None,,,,,,,,,,,,,,,,,,,,,,,,,,,,,,,,,,,,,,,,,,,,,,,,,,,l_completion,001,2019_Oct_03_1522,body_behavioural,3.2.1,59.954718721282084,
4,parcelated_audio/44/44_7.ogg,,0,4,4,4,,,,,0,6,6,6,,,,,,,,,,,,,,,,,,,,,,,,,,,,,,,,,,,,,,,,,,,,,,,,,,,,,,,,,,,,,,,1,1.3080195180082228,2273.4186754640104,None,2273.4186754640104,None,2273.4186754640104,None,,,,,,,,,,,,,,,,,,,,,,,,,,,,,,,,,,,,,,,,,,,,,,,,,,,l_completion,001,2019_Oct_03_1522,body_behavioural,3.2.1,59.954718721282084,
4,parcelated_audio/44/44_8.ogg,,0,4,4,4,,,,,0,7,7,7,,,,,,,,,,,,,,,,,,,,,,,,,,,,,,,,,,,,,,,,,,,,,,,,,,,,,,,,,,,,,,,1,0.8945993679953972,2279.135207733998,None,2279.135207733998,None,2279.135207733998,None,,,,,,,,,,,,,,,,,,,,,,,,,,,,,,,,,,,,,,,,,,,,,,,,,,,l_completion,001,2019_Oct_03_1522,body_behavioural,3.2.1,59.954718721282084,
4,parcelated_audio/44/44_9.ogg,,0,4,4,4,,,,,0,8,8,8,,,,,,,,,,,,,,,,,,,,,,,,,,,,,,,,,,,,,,,,,,,,,,,,,,,,,,,,,,,,,,,1,4.476920572997187,2283.8690294840053,None,2283.8690294840053,None,2283.8690294840053,None,,,,,,,,,,,,,,,,,,,,,,,,,,,,,,,,,,,,,,,,,,,,,,,,,,,l_completion,001,2019_Oct_03_1522,body_behavioural,3.2.1,59.954718721282084,
4,parcelated_audio/44/44_10.ogg,,0,4,4,4,,,,,0,9,9,9,,,,,,,,,,,,,,,,,,,,,,,,,,,,,,,,,,,,,,,,,,,,,,,,,,,,,,,,,,,,,,,1,1.1898144699953264,2298.603278645998,None,2298.603278645998,None,2298.603278645998,None,,,,,,,,,,,,,,,,,,,,,,,,,,,,,,,,,,,,,,,,,,,,,,,,,,,l_completion,001,2019_Oct_03_1522,body_behavioural,3.2.1,59.954718721282084,
4,parcelated_audio/44/44_11.ogg,,0,4,4,4,,,,,0,10,10,10,,,,,,,,,,,,,,,,,,,,,,,,,,,,,,,,,,,,,,,,,,,,,,,,,,,,,,,,,,,,,,,1,5.557199014991056,2303.4869528090057,None,2303.4869528090057,None,2303.4869528090057,None,,,,,,,,,,,,,,,,,,,,,,,,,,,,,,,,,,,,,,,,,,,,,,,,,,,l_completion,001,2019_Oct_03_1522,body_behavioural,3.2.1,59.954718721282084,
4,parcelated_audio/44/44_12.ogg,,0,4,4,4,,,,,0,11,11,11,,,,,,,,,,,,,,,,,,,,,,,,,,,,,,,,,,,,,,,,,,,,,,,,,,,,,,,,,,,,,,,1,16.13084096799139,2319.7881014059967,None,2319.7881014059967,None,2319.7881014059967,None,,,,,,,,,,,,,,,,,,,,,,,,,,,,,,,,,,,,,,,,,,,,,,,,,,,l_completion,001,2019_Oct_03_1522,body_behavioural,3.2.1,59.954718721282084,
4,parcelated_audio/44/44_13.ogg,,0,4,4,4,,,,,0,12,12,12,,,,,,,,,,,,,,,,,,,,,,,,,,,,,,,,,,,,,,,,,,,,,,,,,,,,,,,,,,,,,,,1,9.689040042998386,2343.2069609040045,None,2343.2069609040045,None,2343.2069609040045,None,,,,,,,,,,,,,,,,,,,,,,,,,,,,,,,,,,,,,,,,,,,,,,,,,,,l_completion,001,2019_Oct_03_1522,body_behavioural,3.2.1,59.954718721282084,
4,parcelated_audio/44/44_14.ogg,,0,4,4,4,,,,,0,13,13,13,,,,,,,,,,,,,,,,,,,,,,,,,,,,,,,,,,,,,,,,,,,,,,,,,,,,,,,,,,,,,,,1,11.977547400005278,2359.341396104006,None,2359.341396104006,None,2359.341396104006,None,,,,,,,,,,,,,,,,,,,,,,,,,,,,,,,,,,,,,,,,,,,,,,,,,,,l_completion,001,2019_Oct_03_1522,body_behavioural,3.2.1,59.954718721282084,
4,parcelated_audio/44/44_15.ogg,,0,4,4,4,,,,,0,14,14,14,,,,,,,,,,,,,,,,,,,,,,,,,,,,,,,,,,,,,,,,,,,,,,,,,,,,,,,,,,,,,,,1,2.58727311999246,2375.54194330101,None,2375.54194330101,None,2375.54194330101,None,,,,,,,,,,,,,,,,,,,,,,,,,,,,,,,,,,,,,,,,,,,,,,,,,,,l_completion,001,2019_Oct_03_1522,body_behavioural,3.2.1,59.954718721282084,
4,parcelated_audio/44/44_16.ogg,,0,4,4,4,,,,,0,15,15,15,,,,,,,,,,,,,,,,,,,,,,,,,,,,,,,,,,,,,,,,,,,,,,,,,,,,,,,,,,,,,,,1,0.6328913970064605,2382.3096882259997,None,2382.3096882259997,None,2382.3096882259997,None,,,,,,,,,,,,,,,,,,,,,,,,,,,,,,,,,,,,,,,,,,,,,,,,,,,l_completion,001,2019_Oct_03_1522,body_behavioural,3.2.1,59.954718721282084,
4,parcelated_audio/44/44_17.ogg,,0,4,4,4,,,,,0,16,16,16,,,,,,,,,,,,,,,,,,,,,,,,,,,,,,,,,,,,,,,,,,,,,,,,,,,,,,,,,,,,,,,1,26.01948056500987,2391.542997041004,None,2391.542997041004,None,2391.542997041004,None,,,,,,,,,,,,,,,,,,,,,,,,,,,,,,,,,,,,,,,,,,,,,,,,,,,l_completion,001,2019_Oct_03_1522,body_behavioural,3.2.1,59.954718721282084,
4,parcelated_audio/44/44_18.ogg,,0,4,4,4,,,,,0,17,17,17,,,,,,,,,,,,,,,,,,,,,,,,,,,,,,,,,,,,,,,,,,,,,,,,,,,,,,,,,,,,,,,1,6.311027991992887,2427.563380064006,None,2427.563380064006,None,2427.563380064006,None,,,,,,,,,,,,,,,,,,,,,,,,,,,,,,,,,,,,,,,,,,,,,,,,,,,l_completion,001,2019_Oct_03_1522,body_behavioural,3.2.1,59.954718721282084,
4,parcelated_audio/44/44_19.ogg,,0,4,4,4,,,,,0,18,18,18,,,,,,,,,,,,,,,,,,,,,,,,,,,,,,,,,,,,,,,,,,,,,,,,,,,,,,,,,,,,,,,1,3.7987152749992674,2444.980573601002,None,2444.980573601002,None,2444.980573601002,None,,,,,,,,,,,,,,,,,,,,,,,,,,,,,,,,,,,,,,,,,,,,,,,,,,,l_completion,001,2019_Oct_03_1522,body_behavioural,3.2.1,59.954718721282084,
4,parcelated_audio/44/44_20.ogg,,0,4,4,4,,,,,0,19,19,19,,,,,,,,,,,,,,,,,,,,,,,,,,,,,,,,,,,,,,,,,,,,,,,,,,,,,,,,,,,,,,,1,0.12930558300286066,2457.1320052439987,None,2457.1320052439987,None,2457.1320052439987,None,,,,,,,,,,,,,,,,,,,,,,,,,,,,,,,,,,,,,,,,,,,,,,,,,,,l_completion,001,2019_Oct_03_1522,body_behavioural,3.2.1,59.954718721282084,
4,parcelated_audio/44/44_21.ogg,,0,4,4,4,,,,,0,20,20,20,,,,,,,,,,,,,,,,,,,,,,,,,,,,,,,,,,,,,,,,,,,,,,,,,,,,,,,,,,,,,,,1,9.970991702997708,2466.315230581007,None,2466.315230581007,None,2466.315230581007,None,,,,,,,,,,,,,,,,,,,,,,,,,,,,,,,,,,,,,,,,,,,,,,,,,,,l_completion,001,2019_Oct_03_1522,body_behavioural,3.2.1,59.954718721282084,
4,parcelated_audio/44/44_22.ogg,,0,4,4,4,,,,,0,21,21,21,,,,,,,,,,,,,,,,,,,,,,,,,,,,,,,,,,,,,,,,,,,,,,,,,,,,,,,,,,,,,,,1,0.41336016499553807,2481.349780356002,None,2481.349780356002,None,2481.349780356002,None,,,,,,,,,,,,,,,,,,,,,,,,,,,,,,,,,,,,,,,,,,,,,,,,,,,l_completion,001,2019_Oct_03_1522,body_behavioural,3.2.1,59.954718721282084,
4,parcelated_audio/44/44_23.ogg,,0,4,4,4,,,,,0,22,22,22,,,,,,,,,,,,,,,,,,,,,,,,,,,,,,,,,,,,,,,,,,,,,,,,,,,,,,,,,,,,,,,1,1.1439721420028945,2488.5497071889986,None,2488.5497071889986,None,2488.5497071889986,None,,,,,,,,,,,,,,,,,,,,,,,,,,,,,,,,,,,,,,,,,,,,,,,,,,,l_completion,001,2019_Oct_03_1522,body_behavioural,3.2.1,59.954718721282084,
4,parcelated_audio/44/44_24.ogg,,0,4,4,4,,,,,0,23,23,23,,,,,,,,,,,,,,,,,,,,,,,,,,,,,,,,,,,,,,,,,,,,,,,,,,,,,,,,,,,,,,,1,11.46035326999845,2498.583713319007,None,2498.583713319007,None,2498.583713319007,None,,,,,,,,,,,,,,,,,,,,,,,,,,,,,,,,,,,,,,,,,,,,,,,,,,,l_completion,001,2019_Oct_03_1522,body_behavioural,3.2.1,59.954718721282084,
4,parcelated_audio/44/44_25.ogg,,0,4,4,4,,,,,0,24,24,24,,,,,,,,,,,,,,,,,,,,,,,,,,,,,,,,,,,,,,,,,,,,,,,,,,,,,,,,,,,,,,,1,0.9092444419948151,2516.485057209007,None,2516.485057209007,None,2516.485057209007,None,,,,,,,,,,,,,,,,,,,,,,,,,,,,,,,,,,,,,,,,,,,,,,,,,,,l_completion,001,2019_Oct_03_1522,body_behavioural,3.2.1,59.954718721282084,
4,parcelated_audio/44/44_26.ogg,,0,4,4,4,,,,,0,25,25,25,,,,,,,,,,,,,,,,,,,,,,,,,,,,,,,,,,,,,,,,,,,,,,,,,,,,,,,,,,,,,,,1,0.3443617619923316,2522.4019700500066,None,2522.4019700500066,None,2522.4019700500066,None,,,,,,,,,,,,,,,,,,,,,,,,,,,,,,,,,,,,,,,,,,,,,,,,,,,l_completion,001,2019_Oct_03_1522,body_behavioural,3.2.1,59.954718721282084,
4,parcelated_audio/44/44_27.ogg,,0,4,4,4,,,,,0,26,26,26,,,,,,,,,,,,,,,,,,,,,,,,,,,,,,,,,,,,,,,,,,,,,,,,,,,,,,,,,,,,,,,1,0.44397066299279686,2529.8536971690046,None,2529.8536971690046,None,2529.8536971690046,None,,,,,,,,,,,,,,,,,,,,,,,,,,,,,,,,,,,,,,,,,,,,,,,,,,,l_completion,001,2019_Oct_03_1522,body_behavioural,3.2.1,59.954718721282084,
4,parcelated_audio/44/44_28.ogg,,0,4,4,4,,,,,0,27,27,27,,,,,,,,,,,,,,,,,,,,,,,,,,,,,,,,,,,,,,,,,,,,,,,,,,,,,,,,,,,,,,,1,6.0973697129957145,2541.720493806002,None,2541.720493806002,None,2541.720493806002,None,,,,,,,,,,,,,,,,,,,,,,,,,,,,,,,,,,,,,,,,,,,,,,,,,,,l_completion,001,2019_Oct_03_1522,body_behavioural,3.2.1,59.954718721282084,
4,,,0,4,4,4,,,,,,,,,,,,,,,,,,,,,,,,,,,,,,,,,,,,,,,,,,,,,,,,,,,,,,,,,,,,,,,,,,,,,,,,,,,,,,,2547.8546365040092,None,2547.8546365040092,None,space,33.235671514994465,2547.8546365040092,None,,,,,,,,,,,,,,,,,,,,,,,,,,,,,,,,,,,,,,,,,,,l_completion,001,2019_Oct_03_1522,body_behavioural,3.2.1,59.954718721282084,
5,,,0,5,5,5,0,0,0,0,,,,,,,,,,,,,,,2581.1400925940106,None,space,0.3360496300010709,2581.1400925940106,None,2581.1400925940106,None,2581.5066540240077,None,space,0.37640886699955445,2581.5066540240077,None,2581.9736272360024,None,2581.9736272360024,None,2581.9736272360024,None,2607.624518276003,None,space,0.32974541498697363,2607.624518276003,None,2608.2913521660084,None,2608.2913521660084,None,2608.2913521660084,None,2608.2913521660084,None,2608.2913521660084,None,2608.2913521660084,None,2608.2913521660084,None,,,,,,,,,,,,,,,,,,,,,,,,,,,,,,,,,,,,,,,,,,,,,,,,,,,,,,,,,,,,,,,,,,,,,,,l_completion,001,2019_Oct_03_1522,body_behavioural,3.2.1,59.954718721282084,
5,parcelated_audio/32/32_1.ogg,,0,5,5,5,,,,,0,0,0,0,,,,,,,,,,,,,,,,,,,,,,,,,2609.2256710290094,None,2609.2256710290094,None,2609.2256710290094,None,,,,,,,,,,,,,,,,,,,,,2608.975657781004,None,space,0.17454540998733137,2608.975657781004,None,2609.4919440660015,None,space,0.3533450980030466,2609.4919440660015,None,1,298.3164498380065,2621.409398406002,None,2621.409398406002,None,2621.409398406002,None,,,,,,,,,,,,,,,,,,,,,,,,,,,,,,,,,,,,,,,,,,,,,,,,,,,l_completion,001,2019_Oct_03_1522,body_behavioural,3.2.1,59.954718721282084,
5,parcelated_audio/32/32_2.ogg,,0,5,5,5,,,,,0,1,1,1,,,,,,,,,,,,,,,,,,,,,,,,,,,,,,,,,,,,,,,,,,,,,,,,,,,,,,,,,,,,,,,1,1.3277037579973694,2928.263598071004,None,2928.263598071004,None,2928.263598071004,None,,,,,,,,,,,,,,,,,,,,,,,,,,,,,,,,,,,,,,,,,,,,,,,,,,,l_completion,001,2019_Oct_03_1522,body_behavioural,3.2.1,59.954718721282084,
5,parcelated_audio/32/32_3.ogg,,0,5,5,5,,,,,0,2,2,2,,,,,,,,,,,,,,,,,,,,,,,,,,,,,,,,,,,,,,,,,,,,,,,,,,,,,,,,,,,,,,,1,6.522232311006519,2935.27613865101,None,2935.27613865101,None,2935.27613865101,None,,,,,,,,,,,,,,,,,,,,,,,,,,,,,,,,,,,,,,,,,,,,,,,,,,,l_completion,001,2019_Oct_03_1522,body_behavioural,3.2.1,59.954718721282084,
5,parcelated_audio/32/32_4.ogg,,0,5,5,5,,,,,0,3,3,3,,,,,,,,,,,,,,,,,,,,,,,,,,,,,,,,,,,,,,,,,,,,,,,,,,,,,,,,,,,,,,,1,0.7560752199933631,2948.631148155997,None,2948.631148155997,None,2948.631148155997,None,,,,,,,,,,,,,,,,,,,,,,,,,,,,,,,,,,,,,,,,,,,,,,,,,,,l_completion,001,2019_Oct_03_1522,body_behavioural,3.2.1,59.954718721282084,
5,parcelated_audio/32/32_5.ogg,,0,5,5,5,,,,,0,4,4,4,,,,,,,,,,,,,,,,,,,,,,,,,,,,,,,,,,,,,,,,,,,,,,,,,,,,,,,,,,,,,,,1,3.215778514990234,2961.194169171009,None,2961.194169171009,None,2961.194169171009,None,,,,,,,,,,,,,,,,,,,,,,,,,,,,,,,,,,,,,,,,,,,,,,,,,,,l_completion,001,2019_Oct_03_1522,body_behavioural,3.2.1,59.954718721282084,
5,parcelated_audio/32/32_6.ogg,,0,5,5,5,,,,,0,5,5,5,,,,,,,,,,,,,,,,,,,,,,,,,,,,,,,,,,,,,,,,,,,,,,,,,,,,,,,,,,,,,,,1,2.1671878369961632,2973.07022325501,None,2973.07022325501,None,2973.07022325501,None,,,,,,,,,,,,,,,,,,,,,,,,,,,,,,,,,,,,,,,,,,,,,,,,,,,l_completion,001,2019_Oct_03_1522,body_behavioural,3.2.1,59.954718721282084,
5,parcelated_audio/32/32_7.ogg,,0,5,5,5,,,,,0,6,6,6,,,,,,,,,,,,,,,,,,,,,,,,,,,,,,,,,,,,,,,,,,,,,,,,,,,,,,,,,,,,,,,1,0.1335173580009723,2978.766678205997,None,2978.766678205997,None,2978.766678205997,None,,,,,,,,,,,,,,,,,,,,,,,,,,,,,,,,,,,,,,,,,,,,,,,,,,,l_completion,001,2019_Oct_03_1522,body_behavioural,3.2.1,59.954718721282084,
5,parcelated_audio/32/32_8.ogg,,0,5,5,5,,,,,0,7,7,7,,,,,,,,,,,,,,,,,,,,,,,,,,,,,,,,,,,,,,,,,,,,,,,,,,,,,,,,,,,,,,,1,15.160257392999483,2983.5216357300087,None,2983.5216357300087,None,2983.5216357300087,None,,,,,,,,,,,,,,,,,,,,,,,,,,,,,,,,,,,,,,,,,,,,,,,,,,,l_completion,001,2019_Oct_03_1522,body_behavioural,3.2.1,59.954718721282084,
5,parcelated_audio/32/32_9.ogg,,0,5,5,5,,,,,0,8,8,8,,,,,,,,,,,,,,,,,,,,,,,,,,,,,,,,,,,,,,,,,,,,,,,,,,,,,,,,,,,,,,,1,0.31088748000911437,3007.51842244601,None,3007.51842244601,None,3007.51842244601,None,,,,,,,,,,,,,,,,,,,,,,,,,,,,,,,,,,,,,,,,,,,,,,,,,,,l_completion,001,2019_Oct_03_1522,body_behavioural,3.2.1,59.954718721282084,
5,parcelated_audio/32/32_10.ogg,,0,5,5,5,,,,,0,9,9,9,,,,,,,,,,,,,,,,,,,,,,,,,,,,,,,,,,,,,,,,,,,,,,,,,,,,,,,,,,,,,,,1,1.146427258005133,3012.6524051140004,None,3012.6524051140004,None,3012.6524051140004,None,,,,,,,,,,,,,,,,,,,,,,,,,,,,,,,,,,,,,,,,,,,,,,,,,,,l_completion,001,2019_Oct_03_1522,body_behavioural,3.2.1,59.954718721282084,
5,parcelated_audio/32/32_11.ogg,,0,5,5,5,,,,,0,10,10,10,,,,,,,,,,,,,,,,,,,,,,,,,,,,,,,,,,,,,,,,,,,,,,,,,,,,,,,,,,,,,,,1,0.879791576997377,3020.0029328110104,None,3020.0029328110104,None,3020.0029328110104,None,,,,,,,,,,,,,,,,,,,,,,,,,,,,,,,,,,,,,,,,,,,,,,,,,,,l_completion,001,2019_Oct_03_1522,body_behavioural,3.2.1,59.954718721282084,
5,parcelated_audio/32/32_12.ogg,,0,5,5,5,,,,,0,11,11,11,,,,,,,,,,,,,,,,,,,,,,,,,,,,,,,,,,,,,,,,,,,,,,,,,,,,,,,,,,,,,,,9,0.24244511999131646,3030.4711327510013,None,3030.4711327510013,None,3030.4711327510013,None,,,,,,,,,,,,,,,,,,,,,,,,,,,,,,,,,,,,,,,,,,,,,,,,,,,l_completion,001,2019_Oct_03_1522,body_behavioural,3.2.1,59.954718721282084,
5,parcelated_audio/32/32_13.ogg,,0,5,5,5,,,,,0,12,12,12,,,,,,,,,,,,,,,,,,,,,,,,,,,,,,,,,,,,,,,,,,,,,,,,,,,,,,,,,,,,,,,9,0.2084363640024094,3040.4718165810045,None,3040.4718165810045,None,3040.4718165810045,None,,,,,,,,,,,,,,,,,,,,,,,,,,,,,,,,,,,,,,,,,,,,,,,,,,,l_completion,001,2019_Oct_03_1522,body_behavioural,3.2.1,59.954718721282084,
5,parcelated_audio/32/32_14.ogg,,0,5,5,5,,,,,0,13,13,13,,,,,,,,,,,,,,,,,,,,,,,,,,,,,,,,,,,,,,,,,,,,,,,,,,,,,,,,,,,,,,,9,0.24446526500105392,3048.9061010190053,None,3048.9061010190053,None,3048.9061010190053,None,,,,,,,,,,,,,,,,,,,,,,,,,,,,,,,,,,,,,,,,,,,,,,,,,,,l_completion,001,2019_Oct_03_1522,body_behavioural,3.2.1,59.954718721282084,
5,parcelated_audio/32/32_15.ogg,,0,5,5,5,,,,,0,14,14,14,,,,,,,,,,,,,,,,,,,,,,,,,,,,,,,,,,,,,,,,,,,,,,,,,,,,,,,,,,,,,,,1,0.8898525120021077,3056.155919990997,None,3056.155919990997,None,3056.155919990997,None,,,,,,,,,,,,,,,,,,,,,,,,,,,,,,,,,,,,,,,,,,,,,,,,,,,l_completion,001,2019_Oct_03_1522,body_behavioural,3.2.1,59.954718721282084,
5,parcelated_audio/32/32_16.ogg,,0,5,5,5,,,,,0,15,15,15,,,,,,,,,,,,,,,,,,,,,,,,,,,,,,,,,,,,,,,,,,,,,,,,,,,,,,,,,,,,,,,1,0.23815192499023397,3064.806642084004,None,3064.806642084004,None,3064.806642084004,None,,,,,,,,,,,,,,,,,,,,,,,,,,,,,,,,,,,,,,,,,,,,,,,,,,,l_completion,001,2019_Oct_03_1522,body_behavioural,3.2.1,59.954718721282084,
5,parcelated_audio/32/32_17.ogg,,0,5,5,5,,,,,0,16,16,16,,,,,,,,,,,,,,,,,,,,,,,,,,,,,,,,,,,,,,,,,,,,,,,,,,,,,,,,,,,,,,,1,0.33403633198759053,3073.4741866440017,None,3073.4741866440017,None,3073.4741866440017,None,,,,,,,,,,,,,,,,,,,,,,,,,,,,,,,,,,,,,,,,,,,,,,,,,,,l_completion,001,2019_Oct_03_1522,body_behavioural,3.2.1,59.954718721282084,
5,parcelated_audio/32/32_18.ogg,,0,5,5,5,,,,,0,17,17,17,,,,,,,,,,,,,,,,,,,,,,,,,,,,,,,,,,,,,,,,,,,,,,,,,,,,,,,,,,,,,,,1,0.2974835349887144,3078.240556124001,None,3078.240556124001,None,3078.240556124001,None,,,,,,,,,,,,,,,,,,,,,,,,,,,,,,,,,,,,,,,,,,,,,,,,,,,l_completion,001,2019_Oct_03_1522,body_behavioural,3.2.1,59.954718721282084,
5,parcelated_audio/32/32_19.ogg,,0,5,5,5,,,,,0,18,18,18,,,,,,,,,,,,,,,,,,,,,,,,,,,,,,,,,,,,,,,,,,,,,,,,,,,,,,,,,,,,,,,1,0.28193502499198075,3086.709292836007,None,3086.709292836007,None,3086.709292836007,None,,,,,,,,,,,,,,,,,,,,,,,,,,,,,,,,,,,,,,,,,,,,,,,,,,,l_completion,001,2019_Oct_03_1522,body_behavioural,3.2.1,59.954718721282084,
5,parcelated_audio/32/32_20.ogg,,0,5,5,5,,,,,0,19,19,19,,,,,,,,,,,,,,,,,,,,,,,,,,,,,,,,,,,,,,,,,,,,,,,,,,,,,,,,,,,,,,,1,0.824247287993785,3098.0091210160026,None,3098.0091210160026,None,3098.0091210160026,None,,,,,,,,,,,,,,,,,,,,,,,,,,,,,,,,,,,,,,,,,,,,,,,,,,,l_completion,001,2019_Oct_03_1522,body_behavioural,3.2.1,59.954718721282084,
5,parcelated_audio/32/32_21.ogg,,0,5,5,5,,,,,0,20,20,20,,,,,,,,,,,,,,,,,,,,,,,,,,,,,,,,,,,,,,,,,,,,,,,,,,,,,,,,,,,,,,,1,1.3040327900089324,3107.8098196659994,None,3107.8098196659994,None,3107.8098196659994,None,,,,,,,,,,,,,,,,,,,,,,,,,,,,,,,,,,,,,,,,,,,,,,,,,,,l_completion,001,2019_Oct_03_1522,body_behavioural,3.2.1,59.954718721282084,
5,parcelated_audio/32/32_22.ogg,,0,5,5,5,,,,,0,21,21,21,,,,,,,,,,,,,,,,,,,,,,,,,,,,,,,,,,,,,,,,,,,,,,,,,,,,,,,,,,,,,,,1,6.3708439330075635,3123.310760049004,None,3123.310760049004,None,3123.310760049004,None,,,,,,,,,,,,,,,,,,,,,,,,,,,,,,,,,,,,,,,,,,,,,,,,,,,l_completion,001,2019_Oct_03_1522,body_behavioural,3.2.1,59.954718721282084,
5,parcelated_audio/32/32_23.ogg,,0,5,5,5,,,,,0,22,22,22,,,,,,,,,,,,,,,,,,,,,,,,,,,,,,,,,,,,,,,,,,,,,,,,,,,,,,,,,,,,,,,1,3.3769346100016264,3138.878618146002,None,3138.878618146002,None,3138.878618146002,None,,,,,,,,,,,,,,,,,,,,,,,,,,,,,,,,,,,,,,,,,,,,,,,,,,,l_completion,001,2019_Oct_03_1522,body_behavioural,3.2.1,59.954718721282084,
5,parcelated_audio/32/32_24.ogg,,0,5,5,5,,,,,0,23,23,23,,,,,,,,,,,,,,,,,,,,,,,,,,,,,,,,,,,,,,,,,,,,,,,,,,,,,,,,,,,,,,,1,2.7241222970042145,3153.695588331,None,3153.695588331,None,3153.695588331,None,,,,,,,,,,,,,,,,,,,,,,,,,,,,,,,,,,,,,,,,,,,,,,,,,,,l_completion,001,2019_Oct_03_1522,body_behavioural,3.2.1,59.954718721282084,
5,parcelated_audio/32/32_25.ogg,,0,5,5,5,,,,,0,24,24,24,,,,,,,,,,,,,,,,,,,,,,,,,,,,,,,,,,,,,,,,,,,,,,,,,,,,,,,,,,,,,,,1,1.1415741429955233,3162.613627031009,None,3162.613627031009,None,3162.613627031009,None,,,,,,,,,,,,,,,,,,,,,,,,,,,,,,,,,,,,,,,,,,,,,,,,,,,l_completion,001,2019_Oct_03_1522,body_behavioural,3.2.1,59.954718721282084,
5,parcelated_audio/32/32_26.ogg,,0,5,5,5,,,,,0,25,25,25,,,,,,,,,,,,,,,,,,,,,,,,,,,,,,,,,,,,,,,,,,,,,,,,,,,,,,,,,,,,,,,1,0.5699792650120798,3177.2312875890057,None,3177.2312875890057,None,3177.2312875890057,None,,,,,,,,,,,,,,,,,,,,,,,,,,,,,,,,,,,,,,,,,,,,,,,,,,,l_completion,001,2019_Oct_03_1522,body_behavioural,3.2.1,59.954718721282084,
5,parcelated_audio/32/32_27.ogg,,0,5,5,5,,,,,0,26,26,26,,,,,,,,,,,,,,,,,,,,,,,,,,,,,,,,,,,,,,,,,,,,,,,,,,,,,,,,,,,,,,,1,1.088121164997574,3184.8978023110103,None,3184.8978023110103,None,3184.8978023110103,None,,,,,,,,,,,,,,,,,,,,,,,,,,,,,,,,,,,,,,,,,,,,,,,,,,,l_completion,001,2019_Oct_03_1522,body_behavioural,3.2.1,59.954718721282084,
5,parcelated_audio/32/32_28.ogg,,0,5,5,5,,,,,0,27,27,27,,,,,,,,,,,,,,,,,,,,,,,,,,,,,,,,,,,,,,,,,,,,,,,,,,,,,,,,,,,,,,,1,8.05178042499756,3192.832330834004,None,3192.832330834004,None,3192.832330834004,None,,,,,,,,,,,,,,,,,,,,,,,,,,,,,,,,,,,,,,,,,,,,,,,,,,,l_completion,001,2019_Oct_03_1522,body_behavioural,3.2.1,59.954718721282084,
5,parcelated_audio/32/32_29.ogg,,0,5,5,5,,,,,0,28,28,28,,,,,,,,,,,,,,,,,,,,,,,,,,,,,,,,,,,,,,,,,,,,,,,,,,,,,,,,,,,,,,,1,2.0415309899981366,3203.6663023810106,None,3203.6663023810106,None,3203.6663023810106,None,,,,,,,,,,,,,,,,,,,,,,,,,,,,,,,,,,,,,,,,,,,,,,,,,,,l_completion,001,2019_Oct_03_1522,body_behavioural,3.2.1,59.954718721282084,
5,parcelated_audio/32/32_30.ogg,,0,5,5,5,,,,,0,29,29,29,,,,,,,,,,,,,,,,,,,,,,,,,,,,,,,,,,,,,,,,,,,,,,,,,,,,,,,,,,,,,,,1,0.009393547006766312,3212.8996730640065,None,3212.8996730640065,None,3212.8996730640065,None,,,,,,,,,,,,,,,,,,,,,,,,,,,,,,,,,,,,,,,,,,,,,,,,,,,l_completion,001,2019_Oct_03_1522,body_behavioural,3.2.1,59.954718721282084,
5,parcelated_audio/32/32_31.ogg,,0,5,5,5,,,,,0,30,30,30,,,,,,,,,,,,,,,,,,,,,,,,,,,,,,,,,,,,,,,,,,,,,,,,,,,,,,,,,,,,,,,1,1.0381050930009224,3219.400119391008,None,3219.400119391008,None,3219.400119391008,None,,,,,,,,,,,,,,,,,,,,,,,,,,,,,,,,,,,,,,,,,,,,,,,,,,,l_completion,001,2019_Oct_03_1522,body_behavioural,3.2.1,59.954718721282084,
5,parcelated_audio/32/32_32.ogg,,0,5,5,5,,,,,0,31,31,31,,,,,,,,,,,,,,,,,,,,,,,,,,,,,,,,,,,,,,,,,,,,,,,,,,,,,,,,,,,,,,,1,2.9377643420011736,3230.334884406009,None,3230.334884406009,None,3230.334884406009,None,,,,,,,,,,,,,,,,,,,,,,,,,,,,,,,,,,,,,,,,,,,,,,,,,,,l_completion,001,2019_Oct_03_1522,body_behavioural,3.2.1,59.954718721282084,
5,parcelated_audio/32/32_33.ogg,,0,5,5,5,,,,,0,32,32,32,,,,,,,,,,,,,,,,,,,,,,,,,,,,,,,,,,,,,,,,,,,,,,,,,,,,,,,,,,,,,,,1,0.8203261779999593,3239.1854742740106,None,3239.1854742740106,None,3239.1854742740106,None,,,,,,,,,,,,,,,,,,,,,,,,,,,,,,,,,,,,,,,,,,,,,,,,,,,l_completion,001,2019_Oct_03_1522,body_behavioural,3.2.1,59.954718721282084,
5,,,0,5,5,5,,,,,,,,,,,,,,,,,,,,,,,,,,,,,,,,,,,,,,,,,,,,,,,,,,,,,,,,,,,,,,,,,,,,,,,,,,,,,,,3240.0518993340083,None,3240.0518993340083,None,space,23.151146425007028,3240.0518993340083,None,,,,,,,,,,,,,,,,,,,,,,,,,,,,,,,,,,,,,,,,,,,l_completion,001,2019_Oct_03_1522,body_behavioural,3.2.1,59.954718721282084,
6,,,0,6,6,6,0,0,0,0,,,,,,,,,,,,,,,3263.2373078009987,None,space,0.33362529300211463,3263.2373078009987,None,3263.2373078009987,None,3263.6038170460088,None,space,0.28315898499567993,3263.6038170460088,None,3264.03734514401,None,3264.03734514401,None,3264.03734514401,None,3264.4375054289994,None,space,1.07333214499522,3264.4375054289994,None,3265.870505346,None,3265.870505346,None,3265.870505346,None,3265.870505346,None,3265.870505346,None,3265.870505346,None,3265.870505346,None,,,,,,,,,,,,,,,,,,,,,,,,,,,,,,,,,,,,,,,,,,,,,,,,,,,,,,,,,,,,,,,,,,,,,,,l_completion,001,2019_Oct_03_1522,body_behavioural,3.2.1,59.954718721282084,
6,parcelated_audio/21/21_1.ogg,,0,6,6,6,,,,,0,0,0,0,,,,,,,,,,,,,,,,,,,,,,,,,3267.0872014640045,None,3267.0872014640045,None,3267.0872014640045,None,,,,,,,,,,,,,,,,,,,,,3266.9534133560082,None,space,0.09727272999589331,3266.9534133560082,None,3267.6206909660104,None,space,2.7297355469927425,3267.6206909660104,None,1,2.7258653769968078,3284.7889287739963,None,3284.7889287739963,None,3284.7889287739963,None,,,,,,,,,,,,,,,,,,,,,,,,,,,,,,,,,,,,,,,,,,,,,,,,,,,l_completion,001,2019_Oct_03_1522,body_behavioural,3.2.1,59.954718721282084,
6,parcelated_audio/21/21_2.ogg,,0,6,6,6,,,,,0,1,1,1,,,,,,,,,,,,,,,,,,,,,,,,,,,,,,,,,,,,,,,,,,,,,,,,,,,,,,,,,,,,,,,1,2.6864590600016527,3295.1063701910025,None,3295.1063701910025,None,3295.1063701910025,None,,,,,,,,,,,,,,,,,,,,,,,,,,,,,,,,,,,,,,,,,,,,,,,,,,,l_completion,001,2019_Oct_03_1522,body_behavioural,3.2.1,59.954718721282084,
6,parcelated_audio/21/21_3.ogg,,0,6,6,6,,,,,0,2,2,2,,,,,,,,,,,,,,,,,,,,,,,,,,,,,,,,,,,,,,,,,,,,,,,,,,,,,,,,,,,,,,,1,1.6347532229992794,3305.657206446005,None,3305.657206446005,None,3305.657206446005,None,,,,,,,,,,,,,,,,,,,,,,,,,,,,,,,,,,,,,,,,,,,,,,,,,,,l_completion,001,2019_Oct_03_1522,body_behavioural,3.2.1,59.954718721282084,
6,parcelated_audio/21/21_4.ogg,,0,6,6,6,,,,,0,3,3,3,,,,,,,,,,,,,,,,,,,,,,,,,,,,,,,,,,,,,,,,,,,,,,,,,,,,,,,,,,,,,,,1,0.2388752429978922,3318.4575024990045,None,3318.4575024990045,None,3318.4575024990045,None,,,,,,,,,,,,,,,,,,,,,,,,,,,,,,,,,,,,,,,,,,,,,,,,,,,l_completion,001,2019_Oct_03_1522,body_behavioural,3.2.1,59.954718721282084,
6,parcelated_audio/21/21_5.ogg,,0,6,6,6,,,,,0,4,4,4,,,,,,,,,,,,,,,,,,,,,,,,,,,,,,,,,,,,,,,,,,,,,,,,,,,,,,,,,,,,,,,1,0.6144000819913344,3323.891171591007,None,3323.891171591007,None,3323.891171591007,None,,,,,,,,,,,,,,,,,,,,,,,,,,,,,,,,,,,,,,,,,,,,,,,,,,,l_completion,001,2019_Oct_03_1522,body_behavioural,3.2.1,59.954718721282084,
6,parcelated_audio/21/21_6.ogg,,0,6,6,6,,,,,0,5,5,5,,,,,,,,,,,,,,,,,,,,,,,,,,,,,,,,,,,,,,,,,,,,,,,,,,,,,,,,,,,,,,,1,2.253107803000603,3332.808893611,None,3332.808893611,None,3332.808893611,None,,,,,,,,,,,,,,,,,,,,,,,,,,,,,,,,,,,,,,,,,,,,,,,,,,,l_completion,001,2019_Oct_03_1522,body_behavioural,3.2.1,59.954718721282084,
6,parcelated_audio/21/21_7.ogg,,0,6,6,6,,,,,0,6,6,6,,,,,,,,,,,,,,,,,,,,,,,,,,,,,,,,,,,,,,,,,,,,,,,,,,,,,,,,,,,,,,,1,1.7879260150075424,3339.7417690410075,None,3339.7417690410075,None,3339.7417690410075,None,,,,,,,,,,,,,,,,,,,,,,,,,,,,,,,,,,,,,,,,,,,,,,,,,,,l_completion,001,2019_Oct_03_1522,body_behavioural,3.2.1,59.954718721282084,
6,parcelated_audio/21/21_8.ogg,,0,6,6,6,,,,,0,7,7,7,,,,,,,,,,,,,,,,,,,,,,,,,,,,,,,,,,,,,,,,,,,,,,,,,,,,,,,,,,,,,,,1,4.992826692003291,3352.5599774840084,None,3352.5599774840084,None,3352.5599774840084,None,,,,,,,,,,,,,,,,,,,,,,,,,,,,,,,,,,,,,,,,,,,,,,,,,,,l_completion,001,2019_Oct_03_1522,body_behavioural,3.2.1,59.954718721282084,
6,parcelated_audio/21/21_9.ogg,,0,6,6,6,,,,,0,8,8,8,,,,,,,,,,,,,,,,,,,,,,,,,,,,,,,,,,,,,,,,,,,,,,,,,,,,,,,,,,,,,,,1,1.1907918520009844,3365.111083764001,None,3365.111083764001,None,3365.111083764001,None,,,,,,,,,,,,,,,,,,,,,,,,,,,,,,,,,,,,,,,,,,,,,,,,,,,l_completion,001,2019_Oct_03_1522,body_behavioural,3.2.1,59.954718721282084,
6,parcelated_audio/21/21_10.ogg,,0,6,6,6,,,,,0,9,9,9,,,,,,,,,,,,,,,,,,,,,,,,,,,,,,,,,,,,,,,,,,,,,,,,,,,,,,,,,,,,,,,9,119.5238027430023,3373.311521880998,None,3373.311521880998,None,3373.311521880998,None,,,,,,,,,,,,,,,,,,,,,,,,,,,,,,,,,,,,,,,,,,,,,,,,,,,l_completion,001,2019_Oct_03_1522,body_behavioural,3.2.1,59.954718721282084,
6,parcelated_audio/21/21_11.ogg,,0,6,6,6,,,,,0,10,10,10,,,,,,,,,,,,,,,,,,,,,,,,,,,,,,,,,,,,,,,,,,,,,,,,,,,,,,,,,,,,,,,9,0.24742571999377105,3500.0862590140023,None,3500.0862590140023,None,3500.0862590140023,None,,,,,,,,,,,,,,,,,,,,,,,,,,,,,,,,,,,,,,,,,,,,,,,,,,,l_completion,001,2019_Oct_03_1522,body_behavioural,3.2.1,59.954718721282084,
6,parcelated_audio/21/21_12.ogg,,0,6,6,6,,,,,0,11,11,11,,,,,,,,,,,,,,,,,,,,,,,,,,,,,,,,,,,,,,,,,,,,,,,,,,,,,,,,,,,,,,,9,0.2560550150083145,3508.7869202410075,None,3508.7869202410075,None,3508.7869202410075,None,,,,,,,,,,,,,,,,,,,,,,,,,,,,,,,,,,,,,,,,,,,,,,,,,,,l_completion,001,2019_Oct_03_1522,body_behavioural,3.2.1,59.954718721282084,
6,parcelated_audio/21/21_13.ogg,,0,6,6,6,,,,,0,12,12,12,,,,,,,,,,,,,,,,,,,,,,,,,,,,,,,,,,,,,,,,,,,,,,,,,,,,,,,,,,,,,,,9,0.2900267679942772,3512.520453500998,None,3512.520453500998,None,3512.520453500998,None,,,,,,,,,,,,,,,,,,,,,,,,,,,,,,,,,,,,,,,,,,,,,,,,,,,l_completion,001,2019_Oct_03_1522,body_behavioural,3.2.1,59.954718721282084,
6,parcelated_audio/21/21_14.ogg,,0,6,6,6,,,,,0,13,13,13,,,,,,,,,,,,,,,,,,,,,,,,,,,,,,,,,,,,,,,,,,,,,,,,,,,,,,,,,,,,,,,9,5.839783713003271,3518.38755121101,None,3518.38755121101,None,3518.38755121101,None,,,,,,,,,,,,,,,,,,,,,,,,,,,,,,,,,,,,,,,,,,,,,,,,,,,l_completion,001,2019_Oct_03_1522,body_behavioural,3.2.1,59.954718721282084,
6,parcelated_audio/21/21_15.ogg,,0,6,6,6,,,,,0,14,14,14,,,,,,,,,,,,,,,,,,,,,,,,,,,,,,,,,,,,,,,,,,,,,,,,,,,,,,,,,,,,,,,9,1.0823223519983003,3531.20580245601,None,3531.20580245601,None,3531.20580245601,None,,,,,,,,,,,,,,,,,,,,,,,,,,,,,,,,,,,,,,,,,,,,,,,,,,,l_completion,001,2019_Oct_03_1522,body_behavioural,3.2.1,59.954718721282084,
6,parcelated_audio/21/21_16.ogg,,0,6,6,6,,,,,0,15,15,15,,,,,,,,,,,,,,,,,,,,,,,,,,,,,,,,,,,,,,,,,,,,,,,,,,,,,,,,,,,,,,,9,0.29603800299810246,3538.4889613609994,None,3538.4889613609994,None,3538.4889613609994,None,,,,,,,,,,,,,,,,,,,,,,,,,,,,,,,,,,,,,,,,,,,,,,,,,,,l_completion,001,2019_Oct_03_1522,body_behavioural,3.2.1,59.954718721282084,
6,parcelated_audio/21/21_17.ogg,,0,6,6,6,,,,,0,16,16,16,,,,,,,,,,,,,,,,,,,,,,,,,,,,,,,,,,,,,,,,,,,,,,,,,,,,,,,,,,,,,,,9,150.42218105999928,3541.089153634006,None,3541.089153634006,None,3541.089153634006,None,,,,,,,,,,,,,,,,,,,,,,,,,,,,,,,,,,,,,,,,,,,,,,,,,,,l_completion,001,2019_Oct_03_1522,body_behavioural,3.2.1,59.954718721282084,
6,parcelated_audio/21/21_18.ogg,,0,6,6,6,,,,,0,17,17,17,,,,,,,,,,,,,,,,,,,,,,,,,,,,,,,,,,,,,,,,,,,,,,,,,,,,,,,,,,,,,,,9,8.017705949998344,3704.81706436901,None,3704.81706436901,None,3704.81706436901,None,,,,,,,,,,,,,,,,,,,,,,,,,,,,,,,,,,,,,,,,,,,,,,,,,,,l_completion,001,2019_Oct_03_1522,body_behavioural,3.2.1,59.954718721282084,
6,parcelated_audio/21/21_19.ogg,,0,6,6,6,,,,,0,18,18,18,,,,,,,,,,,,,,,,,,,,,,,,,,,,,,,,,,,,,,,,,,,,,,,,,,,,,,,,,,,,,,,9,0.42547728700446896,3715.867880966005,None,3715.867880966005,None,3715.867880966005,None,,,,,,,,,,,,,,,,,,,,,,,,,,,,,,,,,,,,,,,,,,,,,,,,,,,l_completion,001,2019_Oct_03_1522,body_behavioural,3.2.1,59.954718721282084,
6,parcelated_audio/21/21_20.ogg,,0,6,6,6,,,,,0,19,19,19,,,,,,,,,,,,,,,,,,,,,,,,,,,,,,,,,,,,,,,,,,,,,,,,,,,,,,,,,,,,,,,9,0.5577638350077905,3725.1850984460034,None,3725.1850984460034,None,3725.1850984460034,None,,,,,,,,,,,,,,,,,,,,,,,,,,,,,,,,,,,,,,,,,,,,,,,,,,,l_completion,001,2019_Oct_03_1522,body_behavioural,3.2.1,59.954718721282084,
6,parcelated_audio/21/21_21.ogg,,0,6,6,6,,,,,0,20,20,20,,,,,,,,,,,,,,,,,,,,,,,,,,,,,,,,,,,,,,,,,,,,,,,,,,,,,,,,,,,,,,,9,3.3333026399923256,3736.902645754002,None,3736.902645754002,None,3736.902645754002,None,,,,,,,,,,,,,,,,,,,,,,,,,,,,,,,,,,,,,,,,,,,,,,,,,,,l_completion,001,2019_Oct_03_1522,body_behavioural,3.2.1,59.954718721282084,
6,parcelated_audio/21/21_22.ogg,,0,6,6,6,,,,,0,21,21,21,,,,,,,,,,,,,,,,,,,,,,,,,,,,,,,,,,,,,,,,,,,,,,,,,,,,,,,,,,,,,,,9,0.19714971000212245,3751.236934036002,None,3751.236934036002,None,3751.236934036002,None,,,,,,,,,,,,,,,,,,,,,,,,,,,,,,,,,,,,,,,,,,,,,,,,,,,l_completion,001,2019_Oct_03_1522,body_behavioural,3.2.1,59.954718721282084,
6,parcelated_audio/21/21_23.ogg,,0,6,6,6,,,,,0,22,22,22,,,,,,,,,,,,,,,,,,,,,,,,,,,,,,,,,,,,,,,,,,,,,,,,,,,,,,,,,,,,,,,9,1.6236120670073433,3756.5539893910027,None,3756.5539893910027,None,3756.5539893910027,None,,,,,,,,,,,,,,,,,,,,,,,,,,,,,,,,,,,,,,,,,,,,,,,,,,,l_completion,001,2019_Oct_03_1522,body_behavioural,3.2.1,59.954718721282084,
6,parcelated_audio/21/21_24.ogg,,0,6,6,6,,,,,0,23,23,23,,,,,,,,,,,,,,,,,,,,,,,,,,,,,,,,,,,,,,,,,,,,,,,,,,,,,,,,,,,,,,,9,0.5131958470010431,3762.8877294190024,None,3762.8877294190024,None,3762.8877294190024,None,,,,,,,,,,,,,,,,,,,,,,,,,,,,,,,,,,,,,,,,,,,,,,,,,,,l_completion,001,2019_Oct_03_1522,body_behavioural,3.2.1,59.954718721282084,
6,parcelated_audio/21/21_25.ogg,,0,6,6,6,,,,,0,24,24,24,,,,,,,,,,,,,,,,,,,,,,,,,,,,,,,,,,,,,,,,,,,,,,,,,,,,,,,,,,,,,,,9,0.6388913550035795,3772.9885718139994,None,3772.9885718139994,None,3772.9885718139994,None,,,,,,,,,,,,,,,,,,,,,,,,,,,,,,,,,,,,,,,,,,,,,,,,,,,l_completion,001,2019_Oct_03_1522,body_behavioural,3.2.1,59.954718721282084,
6,parcelated_audio/21/21_26.ogg,,0,6,6,6,,,,,0,25,25,25,,,,,,,,,,,,,,,,,,,,,,,,,,,,,,,,,,,,,,,,,,,,,,,,,,,,,,,,,,,,,,,9,0.4653678500035312,3777.755421570997,None,3777.755421570997,None,3777.755421570997,None,,,,,,,,,,,,,,,,,,,,,,,,,,,,,,,,,,,,,,,,,,,,,,,,,,,l_completion,001,2019_Oct_03_1522,body_behavioural,3.2.1,59.954718721282084,
6,parcelated_audio/21/21_27.ogg,,0,6,6,6,,,,,0,26,26,26,,,,,,,,,,,,,,,,,,,,,,,,,,,,,,,,,,,,,,,,,,,,,,,,,,,,,,,,,,,,,,,9,0.928932562994305,3785.5568981760007,None,3785.5568981760007,None,3785.5568981760007,None,,,,,,,,,,,,,,,,,,,,,,,,,,,,,,,,,,,,,,,,,,,,,,,,,,,l_completion,001,2019_Oct_03_1522,body_behavioural,3.2.1,59.954718721282084,
6,parcelated_audio/21/21_28.ogg,,0,6,6,6,,,,,0,27,27,27,,,,,,,,,,,,,,,,,,,,,,,,,,,,,,,,,,,,,,,,,,,,,,,,,,,,,,,,,,,,,,,9,1.4934103050036356,3792.7398413610063,None,3792.7398413610063,None,3792.7398413610063,None,,,,,,,,,,,,,,,,,,,,,,,,,,,,,,,,,,,,,,,,,,,,,,,,,,,l_completion,001,2019_Oct_03_1522,body_behavioural,3.2.1,59.954718721282084,
6,parcelated_audio/21/21_29.ogg,,0,6,6,6,,,,,0,28,28,28,,,,,,,,,,,,,,,,,,,,,,,,,,,,,,,,,,,,,,,,,,,,,,,,,,,,,,,,,,,,,,,9,1.9512177400029032,3798.6239841689967,None,3798.6239841689967,None,3798.6239841689967,None,,,,,,,,,,,,,,,,,,,,,,,,,,,,,,,,,,,,,,,,,,,,,,,,,,,l_completion,001,2019_Oct_03_1522,body_behavioural,3.2.1,59.954718721282084,
6,parcelated_audio/21/21_30.ogg,,0,6,6,6,,,,,0,29,29,29,,,,,,,,,,,,,,,,,,,,,,,,,,,,,,,,,,,,,,,,,,,,,,,,,,,,,,,,,,,,,,,9,4.938915687991539,3805.974996666002,None,3805.974996666002,None,3805.974996666002,None,,,,,,,,,,,,,,,,,,,,,,,,,,,,,,,,,,,,,,,,,,,,,,,,,,,l_completion,001,2019_Oct_03_1522,body_behavioural,3.2.1,59.954718721282084,
6,,,0,6,6,6,,,,,,,,,,,,,,,,,,,,,,,,,,,,,,,,,,,,,,,,,,,,,,,,,,,,,,,,,,,,,,,,,,,,,,,,,,,,,,,3810.9435811239964,None,3810.9435811239964,None,space,2.5630359850038076,3810.9435811239964,None,,,,,,,,,,,,,,,,,,,,,,,,,,,,,,,,,,,,,,,,,,,l_completion,001,2019_Oct_03_1522,body_behavioural,3.2.1,59.954718721282084,
7,,,0,7,7,7,0,0,0,0,,,,,,,,,,,,,,,3813.5248591560085,None,space,0.5105049980047625,3813.5248591560085,None,3813.5248591560085,None,3814.0586775840056,None,space,0.49066202199901454,3814.0586775840056,None,3814.65856386401,None,3814.65856386401,None,3814.65856386401,None,3815.091224566,None,space,0.6371739800088108,3815.091224566,None,3816.0920020210033,None,3816.0920020210033,None,3816.0920020210033,None,3816.0920020210033,None,3816.0920020210033,None,3816.0920020210033,None,3816.0920020210033,None,,,,,,,,,,,,,,,,,,,,,,,,,,,,,,,,,,,,,,,,,,,,,,,,,,,,,,,,,,,,,,,,,,,,,,,l_completion,001,2019_Oct_03_1522,body_behavioural,3.2.1,59.954718721282084,
7,parcelated_audio/42/42_1.ogg,,0,7,7,7,,,,,0,0,0,0,,,,,,,,,,,,,,,,,,,,,,,,,3817.6081713059975,None,3817.6081713059975,None,3817.6081713059975,None,,,,,,,,,,,,,,,,,,,,,3817.458776191008,None,space,0.06837393999740016,3817.458776191008,None,3818.2580836510024,None,space,0.4559843700117199,3818.2580836510024,None,1,1.5411308619950432,3827.292608593998,None,3827.292608593998,None,3827.292608593998,None,,,,,,,,,,,,,,,,,,,,,,,,,,,,,,,,,,,,,,,,,,,,,,,,,,,l_completion,001,2019_Oct_03_1522,body_behavioural,3.2.1,59.954718721282084,
7,parcelated_audio/42/42_2.ogg,,0,7,7,7,,,,,0,1,1,1,,,,,,,,,,,,,,,,,,,,,,,,,,,,,,,,,,,,,,,,,,,,,,,,,,,,,,,,,,,,,,,9,4.490815625002142,3841.6930699840013,None,3841.6930699840013,None,3841.6930699840013,None,,,,,,,,,,,,,,,,,,,,,,,,,,,,,,,,,,,,,,,,,,,,,,,,,,,l_completion,001,2019_Oct_03_1522,body_behavioural,3.2.1,59.954718721282084,
7,parcelated_audio/42/42_3.ogg,,0,7,7,7,,,,,0,2,2,2,,,,,,,,,,,,,,,,,,,,,,,,,,,,,,,,,,,,,,,,,,,,,,,,,,,,,,,,,,,,,,,9,1.5119343449914595,3856.62754891401,None,3856.62754891401,None,3856.62754891401,None,,,,,,,,,,,,,,,,,,,,,,,,,,,,,,,,,,,,,,,,,,,,,,,,,,,l_completion,001,2019_Oct_03_1522,body_behavioural,3.2.1,59.954718721282084,
7,parcelated_audio/42/42_4.ogg,,0,7,7,7,,,,,0,3,3,3,,,,,,,,,,,,,,,,,,,,,,,,,,,,,,,,,,,,,,,,,,,,,,,,,,,,,,,,,,,,,,,9,2.3078982529987115,3871.9785834860086,None,3871.9785834860086,None,3871.9785834860086,None,,,,,,,,,,,,,,,,,,,,,,,,,,,,,,,,,,,,,,,,,,,,,,,,,,,l_completion,001,2019_Oct_03_1522,body_behavioural,3.2.1,59.954718721282084,
7,parcelated_audio/42/42_5.ogg,,0,7,7,7,,,,,0,4,4,4,,,,,,,,,,,,,,,,,,,,,,,,,,,,,,,,,,,,,,,,,,,,,,,,,,,,,,,,,,,,,,,9,3.1456354100082535,3885.8968174839974,None,3885.8968174839974,None,3885.8968174839974,None,,,,,,,,,,,,,,,,,,,,,,,,,,,,,,,,,,,,,,,,,,,,,,,,,,,l_completion,001,2019_Oct_03_1522,body_behavioural,3.2.1,59.954718721282084,
7,parcelated_audio/42/42_6.ogg,,0,7,7,7,,,,,0,5,5,5,,,,,,,,,,,,,,,,,,,,,,,,,,,,,,,,,,,,,,,,,,,,,,,,,,,,,,,,,,,,,,,9,2.4603450650029117,3895.6801728790015,None,3895.6801728790015,None,3895.6801728790015,None,,,,,,,,,,,,,,,,,,,,,,,,,,,,,,,,,,,,,,,,,,,,,,,,,,,l_completion,001,2019_Oct_03_1522,body_behavioural,3.2.1,59.954718721282084,
7,parcelated_audio/42/42_7.ogg,,0,7,7,7,,,,,0,6,6,6,,,,,,,,,,,,,,,,,,,,,,,,,,,,,,,,,,,,,,,,,,,,,,,,,,,,,,,,,,,,,,,9,1.8376626250101253,3903.464099776,None,3903.464099776,None,3903.464099776,None,,,,,,,,,,,,,,,,,,,,,,,,,,,,,,,,,,,,,,,,,,,,,,,,,,,l_completion,001,2019_Oct_03_1522,body_behavioural,3.2.1,59.954718721282084,
7,parcelated_audio/42/42_8.ogg,,0,7,7,7,,,,,0,7,7,7,,,,,,,,,,,,,,,,,,,,,,,,,,,,,,,,,,,,,,,,,,,,,,,,,,,,,,,,,,,,,,,9,0.8076577699976042,3908.6153575010103,None,3908.6153575010103,None,3908.6153575010103,None,,,,,,,,,,,,,,,,,,,,,,,,,,,,,,,,,,,,,,,,,,,,,,,,,,,l_completion,001,2019_Oct_03_1522,body_behavioural,3.2.1,59.954718721282084,
7,parcelated_audio/42/42_9.ogg,,0,7,7,7,,,,,0,8,8,8,,,,,,,,,,,,,,,,,,,,,,,,,,,,,,,,,,,,,,,,,,,,,,,,,,,,,,,,,,,,,,,9,1.5280275980039733,3918.1157481990085,None,3918.1157481990085,None,3918.1157481990085,None,,,,,,,,,,,,,,,,,,,,,,,,,,,,,,,,,,,,,,,,,,,,,,,,,,,l_completion,001,2019_Oct_03_1522,body_behavioural,3.2.1,59.954718721282084,
7,parcelated_audio/42/42_10.ogg,,0,7,7,7,,,,,0,9,9,9,,,,,,,,,,,,,,,,,,,,,,,,,,,,,,,,,,,,,,,,,,,,,,,,,,,,,,,,,,,,,,,9,0.8460525989939924,3924.099157721008,None,3924.099157721008,None,3924.099157721008,None,,,,,,,,,,,,,,,,,,,,,,,,,,,,,,,,,,,,,,,,,,,,,,,,,,,l_completion,001,2019_Oct_03_1522,body_behavioural,3.2.1,59.954718721282084,
7,parcelated_audio/42/42_11.ogg,,0,7,7,7,,,,,0,10,10,10,,,,,,,,,,,,,,,,,,,,,,,,,,,,,,,,,,,,,,,,,,,,,,,,,,,,,,,,,,,,,,,9,1.972937765007373,3930.0660012610024,None,3930.0660012610024,None,3930.0660012610024,None,,,,,,,,,,,,,,,,,,,,,,,,,,,,,,,,,,,,,,,,,,,,,,,,,,,l_completion,001,2019_Oct_03_1522,body_behavioural,3.2.1,59.954718721282084,
7,parcelated_audio/42/42_12.ogg,,0,7,7,7,,,,,0,11,11,11,,,,,,,,,,,,,,,,,,,,,,,,,,,,,,,,,,,,,,,,,,,,,,,,,,,,,,,,,,,,,,,9,1.1401757629937492,3938.1503905760037,None,3938.1503905760037,None,3938.1503905760037,None,,,,,,,,,,,,,,,,,,,,,,,,,,,,,,,,,,,,,,,,,,,,,,,,,,,l_completion,001,2019_Oct_03_1522,body_behavioural,3.2.1,59.954718721282084,
7,parcelated_audio/42/42_13.ogg,,0,7,7,7,,,,,0,12,12,12,,,,,,,,,,,,,,,,,,,,,,,,,,,,,,,,,,,,,,,,,,,,,,,,,,,,,,,,,,,,,,,9,1.0603208370011998,3946.6010430140013,None,3946.6010430140013,None,3946.6010430140013,None,,,,,,,,,,,,,,,,,,,,,,,,,,,,,,,,,,,,,,,,,,,,,,,,,,,l_completion,001,2019_Oct_03_1522,body_behavioural,3.2.1,59.954718721282084,
7,parcelated_audio/42/42_14.ogg,,0,7,7,7,,,,,0,13,13,13,,,,,,,,,,,,,,,,,,,,,,,,,,,,,,,,,,,,,,,,,,,,,,,,,,,,,,,,,,,,,,,9,0.2501831800036598,3952.551636424003,None,3952.551636424003,None,3952.551636424003,None,,,,,,,,,,,,,,,,,,,,,,,,,,,,,,,,,,,,,,,,,,,,,,,,,,,l_completion,001,2019_Oct_03_1522,body_behavioural,3.2.1,59.954718721282084,
7,parcelated_audio/42/42_15.ogg,,0,7,7,7,,,,,0,14,14,14,,,,,,,,,,,,,,,,,,,,,,,,,,,,,,,,,,,,,,,,,,,,,,,,,,,,,,,,,,,,,,,9,0.3735602469969308,3958.8012893459963,None,3958.8012893459963,None,3958.8012893459963,None,,,,,,,,,,,,,,,,,,,,,,,,,,,,,,,,,,,,,,,,,,,,,,,,,,,l_completion,001,2019_Oct_03_1522,body_behavioural,3.2.1,59.954718721282084,
7,parcelated_audio/42/42_16.ogg,,0,7,7,7,,,,,0,15,15,15,,,,,,,,,,,,,,,,,,,,,,,,,,,,,,,,,,,,,,,,,,,,,,,,,,,,,,,,,,,,,,,9,0.9133250649902038,3964.885846760997,None,3964.885846760997,None,3964.885846760997,None,,,,,,,,,,,,,,,,,,,,,,,,,,,,,,,,,,,,,,,,,,,,,,,,,,,l_completion,001,2019_Oct_03_1522,body_behavioural,3.2.1,59.954718721282084,
7,parcelated_audio/42/42_17.ogg,,0,7,7,7,,,,,0,16,16,16,,,,,,,,,,,,,,,,,,,,,,,,,,,,,,,,,,,,,,,,,,,,,,,,,,,,,,,,,,,,,,,9,0.2698475799988955,3975.636201336005,None,3975.636201336005,None,3975.636201336005,None,,,,,,,,,,,,,,,,,,,,,,,,,,,,,,,,,,,,,,,,,,,,,,,,,,,l_completion,001,2019_Oct_03_1522,body_behavioural,3.2.1,59.954718721282084,
7,parcelated_audio/42/42_18.ogg,,0,7,7,7,,,,,0,17,17,17,,,,,,,,,,,,,,,,,,,,,,,,,,,,,,,,,,,,,,,,,,,,,,,,,,,,,,,,,,,,,,,9,0.2227740249945782,3981.5028312259965,None,3981.5028312259965,None,3981.5028312259965,None,,,,,,,,,,,,,,,,,,,,,,,,,,,,,,,,,,,,,,,,,,,,,,,,,,,l_completion,001,2019_Oct_03_1522,body_behavioural,3.2.1,59.954718721282084,
7,parcelated_audio/42/42_19.ogg,,0,7,7,7,,,,,0,18,18,18,,,,,,,,,,,,,,,,,,,,,,,,,,,,,,,,,,,,,,,,,,,,,,,,,,,,,,,,,,,,,,,9,0.47857829999702517,3991.0377492260013,None,3991.0377492260013,None,3991.0377492260013,None,,,,,,,,,,,,,,,,,,,,,,,,,,,,,,,,,,,,,,,,,,,,,,,,,,,l_completion,001,2019_Oct_03_1522,body_behavioural,3.2.1,59.954718721282084,
7,parcelated_audio/42/42_20.ogg,,0,7,7,7,,,,,0,19,19,19,,,,,,,,,,,,,,,,,,,,,,,,,,,,,,,,,,,,,,,,,,,,,,,,,,,,,,,,,,,,,,,9,0.1634993749903515,3996.3204600559984,None,3996.3204600559984,None,3996.3204600559984,None,,,,,,,,,,,,,,,,,,,,,,,,,,,,,,,,,,,,,,,,,,,,,,,,,,,l_completion,001,2019_Oct_03_1522,body_behavioural,3.2.1,59.954718721282084,
7,parcelated_audio/42/42_21.ogg,,0,7,7,7,,,,,0,20,20,20,,,,,,,,,,,,,,,,,,,,,,,,,,,,,,,,,,,,,,,,,,,,,,,,,,,,,,,,,,,,,,,9,0.0666858150070766,4006.52118275901,None,4006.52118275901,None,4006.52118275901,None,,,,,,,,,,,,,,,,,,,,,,,,,,,,,,,,,,,,,,,,,,,,,,,,,,,l_completion,001,2019_Oct_03_1522,body_behavioural,3.2.1,59.954718721282084,
7,parcelated_audio/42/42_22.ogg,,0,7,7,7,,,,,0,21,21,21,,,,,,,,,,,,,,,,,,,,,,,,,,,,,,,,,,,,,,,,,,,,,,,,,,,,,,,,,,,,,,,9,0.8812479420012096,4011.5048999810097,None,4011.5048999810097,None,4011.5048999810097,None,,,,,,,,,,,,,,,,,,,,,,,,,,,,,,,,,,,,,,,,,,,,,,,,,,,l_completion,001,2019_Oct_03_1522,body_behavioural,3.2.1,59.954718721282084,
7,parcelated_audio/42/42_23.ogg,,0,7,7,7,,,,,0,22,22,22,,,,,,,,,,,,,,,,,,,,,,,,,,,,,,,,,,,,,,,,,,,,,,,,,,,,,,,,,,,,,,,9,0.5363375829911092,4018.738589244007,None,4018.738589244007,None,4018.738589244007,None,,,,,,,,,,,,,,,,,,,,,,,,,,,,,,,,,,,,,,,,,,,,,,,,,,,l_completion,001,2019_Oct_03_1522,body_behavioural,3.2.1,59.954718721282084,
7,parcelated_audio/42/42_24.ogg,,0,7,7,7,,,,,0,23,23,23,,,,,,,,,,,,,,,,,,,,,,,,,,,,,,,,,,,,,,,,,,,,,,,,,,,,,,,,,,,,,,,9,1.5909411579923471,4027.8892512210004,None,4027.8892512210004,None,4027.8892512210004,None,,,,,,,,,,,,,,,,,,,,,,,,,,,,,,,,,,,,,,,,,,,,,,,,,,,l_completion,001,2019_Oct_03_1522,body_behavioural,3.2.1,59.954718721282084,
7,parcelated_audio/42/42_25.ogg,,0,7,7,7,,,,,0,24,24,24,,,,,,,,,,,,,,,,,,,,,,,,,,,,,,,,,,,,,,,,,,,,,,,,,,,,,,,,,,,,,,,9,0.93371384999773,4035.8403390410094,None,4035.8403390410094,None,4035.8403390410094,None,,,,,,,,,,,,,,,,,,,,,,,,,,,,,,,,,,,,,,,,,,,,,,,,,,,l_completion,001,2019_Oct_03_1522,body_behavioural,3.2.1,59.954718721282084,
7,parcelated_audio/42/42_26.ogg,,0,7,7,7,,,,,0,25,25,25,,,,,,,,,,,,,,,,,,,,,,,,,,,,,,,,,,,,,,,,,,,,,,,,,,,,,,,,,,,,,,,9,3.0125535179977305,4042.79033071101,None,4042.79033071101,None,4042.79033071101,None,,,,,,,,,,,,,,,,,,,,,,,,,,,,,,,,,,,,,,,,,,,,,,,,,,,l_completion,001,2019_Oct_03_1522,body_behavioural,3.2.1,59.954718721282084,
7,parcelated_audio/42/42_27.ogg,,0,7,7,7,,,,,0,26,26,26,,,,,,,,,,,,,,,,,,,,,,,,,,,,,,,,,,,,,,,,,,,,,,,,,,,,,,,,,,,,,,,9,1.6853950200020336,4053.6259867290064,None,4053.6259867290064,None,4053.6259867290064,None,,,,,,,,,,,,,,,,,,,,,,,,,,,,,,,,,,,,,,,,,,,,,,,,,,,l_completion,001,2019_Oct_03_1522,body_behavioural,3.2.1,59.954718721282084,
7,parcelated_audio/42/42_28.ogg,,0,7,7,7,,,,,0,27,27,27,,,,,,,,,,,,,,,,,,,,,,,,,,,,,,,,,,,,,,,,,,,,,,,,,,,,,,,,,,,,,,,9,0.31614605999493506,4061.1253692460014,None,4061.1253692460014,None,4061.1253692460014,None,,,,,,,,,,,,,,,,,,,,,,,,,,,,,,,,,,,,,,,,,,,,,,,,,,,l_completion,001,2019_Oct_03_1522,body_behavioural,3.2.1,59.954718721282084,
7,parcelated_audio/42/42_29.ogg,,0,7,7,7,,,,,0,28,28,28,,,,,,,,,,,,,,,,,,,,,,,,,,,,,,,,,,,,,,,,,,,,,,,,,,,,,,,,,,,,,,,9,1.8582268900063355,4068.4591283240006,None,4068.4591283240006,None,4068.4591283240006,None,,,,,,,,,,,,,,,,,,,,,,,,,,,,,,,,,,,,,,,,,,,,,,,,,,,l_completion,001,2019_Oct_03_1522,body_behavioural,3.2.1,59.954718721282084,
7,parcelated_audio/42/42_30.ogg,,0,7,7,7,,,,,0,29,29,29,,,,,,,,,,,,,,,,,,,,,,,,,,,,,,,,,,,,,,,,,,,,,,,,,,,,,,,,,,,,,,,9,0.47763073799433187,4081.326987444001,None,4081.326987444001,None,4081.326987444001,None,,,,,,,,,,,,,,,,,,,,,,,,,,,,,,,,,,,,,,,,,,,,,,,,,,,l_completion,001,2019_Oct_03_1522,body_behavioural,3.2.1,59.954718721282084,
7,parcelated_audio/42/42_31.ogg,,0,7,7,7,,,,,0,30,30,30,,,,,,,,,,,,,,,,,,,,,,,,,,,,,,,,,,,,,,,,,,,,,,,,,,,,,,,,,,,,,,,9,1.1019976170064183,4088.143416911,None,4088.143416911,None,4088.143416911,None,,,,,,,,,,,,,,,,,,,,,,,,,,,,,,,,,,,,,,,,,,,,,,,,,,,l_completion,001,2019_Oct_03_1522,body_behavioural,3.2.1,59.954718721282084,
7,parcelated_audio/42/42_32.ogg,,0,7,7,7,,,,,0,31,31,31,,,,,,,,,,,,,,,,,,,,,,,,,,,,,,,,,,,,,,,,,,,,,,,,,,,,,,,,,,,,,,,9,2.300299902999541,4097.544089691,None,4097.544089691,None,4097.544089691,None,,,,,,,,,,,,,,,,,,,,,,,,,,,,,,,,,,,,,,,,,,,,,,,,,,,l_completion,001,2019_Oct_03_1522,body_behavioural,3.2.1,59.954718721282084,
7,parcelated_audio/42/42_33.ogg,,0,7,7,7,,,,,0,32,32,32,,,,,,,,,,,,,,,,,,,,,,,,,,,,,,,,,,,,,,,,,,,,,,,,,,,,,,,,,,,,,,,9,4.380164499991224,4107.045728270998,None,4107.045728270998,None,4107.045728270998,None,,,,,,,,,,,,,,,,,,,,,,,,,,,,,,,,,,,,,,,,,,,,,,,,,,,l_completion,001,2019_Oct_03_1522,body_behavioural,3.2.1,59.954718721282084,
