count,storyText,locationEvent,socialEvent,story,locationEventSize,socialEventSize,socialAnswer,locationAnswer,instructText,trials.thisRepN,trials.thisTrialN,trials.thisN,trials.thisIndex,trials_7.thisRepN,trials_7.thisTrialN,trials_7.thisN,trials_7.thisIndex,trials_2.thisRepN,trials_2.thisTrialN,trials_2.thisN,trials_2.thisIndex,trials_3.thisRepN,trials_3.thisTrialN,trials_3.thisN,trials_3.thisIndex,trials_4.thisRepN,trials_4.thisTrialN,trials_4.thisN,trials_4.thisIndex,trials_5.thisRepN,trials_5.thisTrialN,trials_5.thisN,trials_5.thisIndex,trials_6.thisRepN,trials_6.thisTrialN,trials_6.thisN,trials_6.thisIndex,trials_8.thisRepN,trials_8.thisTrialN,trials_8.thisN,trials_8.thisIndex,order of stories,order of perspectives,participant 2 order - stories,participant 2 order  - schemas types,key_resp_8.keys,key_resp_8.rt,key_resp_5.keys,key_resp_5.rt,key_resp_7.keys,key_resp_7.rt,key_resp_15.keys,key_resp_15.rt,key_resp_14.keys,key_resp_14.rt,story_presses.keys,story_presses.rt,story time,key_resp_6.keys,key_resp_6.rt,key_resp_2.keys,key_resp_2.rt,key_resp_10.keys,key_resp_10.rt,recall,recall time,key_resp_12.keys,key_resp_12.rt,key_resp_3.keys,key_resp_3.rt,key_resp_11.keys,key_resp_11.rt,question1_answer,order of question,question2_answer,question3_answer,question4_answer,question5_answer,question6_answer,question7_answer,question8_answer,questions time,key_resp_13.keys,key_resp_13.rt,participant,session,date,expName,psychopyVersion,frameRate,
0,,,,,,,,,,0,0,0,0,0,0,0,0,,,,,,,,,,,,,,,,,,,,,,,,,[42 44 31 13 33 22 11 24 41 12 23 34 43 32 21 14],"['Social' 'Location' 'Social' 'Social' 'Location' 'Location' 'Location'
 'Social' 'Social' 'Location' 'Social' 'Location' 'Location' 'Social'
 'Location' 'Social']",[41 12 23 34 43 32 21 14],"['Social' 'Location' 'Social' 'Location' 'Location' 'Social' 'Location'
 'Social']",space,39.77386397495866,space,1.4528490230441093,space,6.586807761981618,,,,,,,,,,,,,,,,,,,,,,,,,,,,,,,,,,061419_p1,001,2019_Jun_14_1401,body_behavioural,3.0.4,59.981604842409226,
0,David saw Anna for the first time when she burst into the airport frazzled with her half-zipped bag skidding behind her.,1,1,42.0,,,,,,0,0,0,0,,,,,0,0,0,0,,,,,,,,,,,,,,,,,,,,,,,,,,,,,,,space,4.4532768270000815,space,1.8196594279725105,1,19.254155458009336,,,,,,,,,,,,,,,,,,,,,,,,,,,,061419_p1,001,2019_Jun_14_1401,body_behavioural,3.0.4,59.981604842409226,
0,"He had three hours until his flight and was reading a book on the laptop he was holding in the entrance to the airport, but she had only 35 minutes and was hoping to spend as little time in the entrance as possible. ",1,1,None,,,,,,0,0,0,0,,,,,0,1,1,1,,,,,,,,,,,,,,,,,,,,,,,,,,,,,,,,,,,1,20.985414210008457,,,,,,,,,,,,,,,,,,,,,,,,,,,,061419_p1,001,2019_Jun_14_1401,body_behavioural,3.0.4,59.981604842409226,
0,"Anna, a few strides into the airport, suddenly realized to her dismay that her shoes were untied, so she hunched over to tie them.",1,1,None,,,,,,0,0,0,0,,,,,0,2,2,2,,,,,,,,,,,,,,,,,,,,,,,,,,,,,,,,,,,1,6.403565030021127,,,,,,,,,,,,,,,,,,,,,,,,,,,,061419_p1,001,2019_Jun_14_1401,body_behavioural,3.0.4,59.981604842409226,
0,"David, who had been intrigued by Anna, observed that someone with a tall cart of luggage was heading straight for where she was kneeling and that both her and the person driving the cart were oblivious to the impeding collision. ",1,1,None,,,,,,0,0,0,0,,,,,0,3,3,3,,,,,,,,,,,,,,,,,,,,,,,,,,,,,,,,,,,1,10.20345225703204,,,,,,,,,,,,,,,,,,,,,,,,,,,,061419_p1,001,2019_Jun_14_1401,body_behavioural,3.0.4,59.981604842409226,
0,"After a few moment of deliberation, David decided to intervene, and he ran in front of the cart pushing her out of the way just in the nick of time, and they tumbled on the airport floor. ",1,2,None,,,,,,0,0,0,0,,,,,0,4,4,4,,,,,,,,,,,,,,,,,,,,,,,,,,,,,,,,,,,1,9.287740300002042,,,,,,,,,,,,,,,,,,,,,,,,,,,,061419_p1,001,2019_Jun_14_1401,body_behavioural,3.0.4,59.981604842409226,
0,"Anna, bewildered, looked up and saw the cart pass by and then looked at David. ",1,2,None,,,,,,0,0,0,0,,,,,0,5,5,5,,,,,,,,,,,,,,,,,,,,,,,,,,,,,,,,,,,1,8.086833482026123,,,,,,,,,,,,,,,,,,,,,,,,,,,,061419_p1,001,2019_Jun_14_1401,body_behavioural,3.0.4,59.981604842409226,
0,He flashed a smile.,1,2,None,,,,,,0,0,0,0,,,,,0,6,6,6,,,,,,,,,,,,,,,,,,,,,,,,,,,,,,,,,,,1,2.353109414980281,,,,,,,,,,,,,,,,,,,,,,,,,,,,061419_p1,001,2019_Jun_14_1401,body_behavioural,3.0.4,59.981604842409226,
0,“Were you ever a gymnast?,1,2,None,,,,,,0,0,0,0,,,,,0,7,7,7,,,,,,,,,,,,,,,,,,,,,,,,,,,,,,,,,,,1,9.754163882986177,,,,,,,,,,,,,,,,,,,,,,,,,,,,061419_p1,001,2019_Jun_14_1401,body_behavioural,3.0.4,59.981604842409226,
0," That was a nice tumble,” he said.",1,2,None,,,,,,0,0,0,0,,,,,0,8,8,8,,,,,,,,,,,,,,,,,,,,,,,,,,,,,,,,,,,1,3.33600288501475,,,,,,,,,,,,,,,,,,,,,,,,,,,,061419_p1,001,2019_Jun_14_1401,body_behavioural,3.0.4,59.981604842409226,
0,"She managed a chuckle and said, “Actually yes, but I’d say that deserved a score of zero.",1,2,None,,,,,,0,0,0,0,,,,,0,9,9,9,,,,,,,,,,,,,,,,,,,,,,,,,,,,,,,,,,,1,3.186192920024041,,,,,,,,,,,,,,,,,,,,,,,,,,,,061419_p1,001,2019_Jun_14_1401,body_behavioural,3.0.4,59.981604842409226,
0,Wow- I almost got smooshed by that cart.”,1,2,None,,,,,,0,0,0,0,,,,,0,10,10,10,,,,,,,,,,,,,,,,,,,,,,,,,,,,,,,,,,,1,3.45265534700593,,,,,,,,,,,,,,,,,,,,,,,,,,,,061419_p1,001,2019_Jun_14_1401,body_behavioural,3.0.4,59.981604842409226,
0,Her head was still spinning as she stared at the handsome stranger who had saved her. ,1,2,None,,,,,,0,0,0,0,,,,,0,11,11,11,,,,,,,,,,,,,,,,,,,,,,,,,,,,,,,,,,,1,4.584982843021862,,,,,,,,,,,,,,,,,,,,,,,,,,,,061419_p1,001,2019_Jun_14_1401,body_behavioural,3.0.4,59.981604842409226,
0,David helped her up and had to keep holding on to her arms to steady her even once they were standing.,1,2,None,,,,,,0,0,0,0,,,,,0,12,12,12,,,,,,,,,,,,,,,,,,,,,,,,,,,,,,,,,,,1,9.420336487994064,,,,,,,,,,,,,,,,,,,,,,,,,,,,061419_p1,001,2019_Jun_14_1401,body_behavioural,3.0.4,59.981604842409226,
0,"“I’m really late for my flight,” she said. ",1,2,None,,,,,,0,0,0,0,,,,,0,13,13,13,,,,,,,,,,,,,,,,,,,,,,,,,,,,,,,,,,,1,2.2843598300241865,,,,,,,,,,,,,,,,,,,,,,,,,,,,061419_p1,001,2019_Jun_14_1401,body_behavioural,3.0.4,59.981604842409226,
0,"“Don't worry,” said David, "let me help you get to your gate." ",1,2,None,,,,,,0,0,0,0,,,,,0,14,14,14,,,,,,,,,,,,,,,,,,,,,,,,,,,,,,,,,,,1,6.220780135015957,,,,,,,,,,,,,,,,,,,,,,,,,,,,061419_p1,001,2019_Jun_14_1401,body_behavioural,3.0.4,59.981604842409226,
0,He waved off her half-hearted protests. ,1,2,None,,,,,,0,0,0,0,,,,,0,15,15,15,,,,,,,,,,,,,,,,,,,,,,,,,,,,,,,,,,,1,4.133411198039539,,,,,,,,,,,,,,,,,,,,,,,,,,,,061419_p1,001,2019_Jun_14_1401,body_behavioural,3.0.4,59.981604842409226,
0,“Really- I have plenty of time and nothing better to do.” he said. ,1,2,None,,,,,,0,0,0,0,,,,,0,16,16,16,,,,,,,,,,,,,,,,,,,,,,,,,,,,,,,,,,,1,5.6700214970042,,,,,,,,,,,,,,,,,,,,,,,,,,,,061419_p1,001,2019_Jun_14_1401,body_behavioural,3.0.4,59.981604842409226,
0,"At security, the line was not long, but since Anna’s flight was so soon the security guard allowed them to go to the front of the line.",2,2,None,,,,,,0,0,0,0,,,,,0,17,17,17,,,,,,,,,,,,,,,,,,,,,,,,,,,,,,,,,,,9,20.4873850439908,,,,,,,,,,,,,,,,,,,,,,,,,,,,061419_p1,001,2019_Jun_14_1401,body_behavioural,3.0.4,59.981604842409226,
0,"They had to wait however, because there was a strange malfunction of the metal detector. ",2,2,None,,,,,,0,0,0,0,,,,,0,18,18,18,,,,,,,,,,,,,,,,,,,,,,,,,,,,,,,,,,,1,6.687748690019362,,,,,,,,,,,,,,,,,,,,,,,,,,,,061419_p1,001,2019_Jun_14_1401,body_behavioural,3.0.4,59.981604842409226,
0,"In this span of time, they managed to find out that they had gone to the same high school and that Anna had graduated 3 years before David. ",2,2,None,,,,,,0,0,0,0,,,,,0,19,19,19,,,,,,,,,,,,,,,,,,,,,,,,,,,,,,,,,,,9,11.003758875012863,,,,,,,,,,,,,,,,,,,,,,,,,,,,061419_p1,001,2019_Jun_14_1401,body_behavioural,3.0.4,59.981604842409226,
0,They hurriedly took off their shoes and coats.,2,2,None,,,,,,0,0,0,0,,,,,0,20,20,20,,,,,,,,,,,,,,,,,,,,,,,,,,,,,,,,,,,9,6.771827805030625,,,,,,,,,,,,,,,,,,,,,,,,,,,,061419_p1,001,2019_Jun_14_1401,body_behavioural,3.0.4,59.981604842409226,
0,"Anna placed her purse and suitcase on the conveyor belt, and David put his backpack on the conveyor belt as well, with his laptop in a separate bin. ",2,2,None,,,,,,0,0,0,0,,,,,0,21,21,21,,,,,,,,,,,,,,,,,,,,,,,,,,,,,,,,,,,1,10.670238707971293,,,,,,,,,,,,,,,,,,,,,,,,,,,,061419_p1,001,2019_Jun_14_1401,body_behavioural,3.0.4,59.981604842409226,
0,Both of them went through the metal detector without any problems. ,2,2,None,,,,,,0,0,0,0,,,,,0,22,22,22,,,,,,,,,,,,,,,,,,,,,,,,,,,,,,,,,,,1,10.069957658008207,,,,,,,,,,,,,,,,,,,,,,,,,,,,061419_p1,001,2019_Jun_14_1401,body_behavioural,3.0.4,59.981604842409226,
0,"As they were rushing to put their shoes and coats on, they shared when they were coming back. ",2,2,None,,,,,,0,0,0,0,,,,,0,23,23,23,,,,,,,,,,,,,,,,,,,,,,,,,,,,,,,,,,,1,3.0867661379743367,,,,,,,,,,,,,,,,,,,,,,,,,,,,061419_p1,001,2019_Jun_14_1401,body_behavioural,3.0.4,59.981604842409226,
0,"In a moment of boldness, David asked, “When we're back in town next Tuesday, is there any chance you'd want to get dinner?",2,3,None,,,,,,0,0,0,0,,,,,0,24,24,24,,,,,,,,,,,,,,,,,,,,,,,,,,,,,,,,,,,1,7.603162162995432,,,,,,,,,,,,,,,,,,,,,,,,,,,,061419_p1,001,2019_Jun_14_1401,body_behavioural,3.0.4,59.981604842409226,
0,"I know we just met, but when life throws a luggage cart at you it seems like we should listen. “",2,3,None,,,,,,0,0,0,0,,,,,0,25,25,25,,,,,,,,,,,,,,,,,,,,,,,,,,,,,,,,,,,1,4.870337268977892,,,,,,,,,,,,,,,,,,,,,,,,,,,,061419_p1,001,2019_Jun_14_1401,body_behavioural,3.0.4,59.981604842409226,
0,"She stopped packing, and said with a smile, “Yes I would love that.”",2,3,None,,,,,,0,0,0,0,,,,,0,26,26,26,,,,,,,,,,,,,,,,,,,,,,,,,,,,,,,,,,,1,4.0367492249934,,,,,,,,,,,,,,,,,,,,,,,,,,,,061419_p1,001,2019_Jun_14_1401,body_behavioural,3.0.4,59.981604842409226,
0,"On the concourse, they were running to get to Anna’s gate, J37, which was at the end of the terminal. ",3,3,None,,,,,,0,0,0,0,,,,,0,27,27,27,,,,,,,,,,,,,,,,,,,,,,,,,,,,,,,,,,,9,5.703378317004535,,,,,,,,,,,,,,,,,,,,,,,,,,,,061419_p1,001,2019_Jun_14_1401,body_behavioural,3.0.4,59.981604842409226,
0,"David took her suitcase, grabbed her hand, and weaved crowd of people.",3,3,None,,,,,,0,0,0,0,,,,,0,28,28,28,,,,,,,,,,,,,,,,,,,,,,,,,,,,,,,,,,,1,1.8863959780428559,,,,,,,,,,,,,,,,,,,,,,,,,,,,061419_p1,001,2019_Jun_14_1401,body_behavioural,3.0.4,59.981604842409226,
0,People passing them were giving them funny looks because Anna looked so bewildered.,3,3,None,,,,,,0,0,0,0,,,,,0,29,29,29,,,,,,,,,,,,,,,,,,,,,,,,,,,,,,,,,,,1,6.436727738997433,,,,,,,,,,,,,,,,,,,,,,,,,,,,061419_p1,001,2019_Jun_14_1401,body_behavioural,3.0.4,59.981604842409226,
0,"Before getting to the gate, explaining that she would sprint the rest of the way, Anna fished out a crumpled business card from her pocket and handed it to David, who handed her the suitcase.",3,4,None,,,,,,0,0,0,0,,,,,0,30,30,30,,,,,,,,,,,,,,,,,,,,,,,,,,,,,,,,,,,9,9.319884274969809,,,,,,,,,,,,,,,,,,,,,,,,,,,,061419_p1,001,2019_Jun_14_1401,body_behavioural,3.0.4,59.981604842409226,
0,"She gave him one last embarrassed smile, thanked him, and hurried away.",3,4,None,,,,,,0,0,0,0,,,,,0,31,31,31,,,,,,,,,,,,,,,,,,,,,,,,,,,,,,,,,,,1,2.169817052956205,,,,,,,,,,,,,,,,,,,,,,,,,,,,061419_p1,001,2019_Jun_14_1401,body_behavioural,3.0.4,59.981604842409226,
0,"David looked at his watch which read 10:55 AM, 5 minutes before her flight was supposed to leave. ",3,4,None,,,,,,0,0,0,0,,,,,0,32,32,32,,,,,,,,,,,,,,,,,,,,,,,,,,,,,,,,,,,1,3.7675123299704865,,,,,,,,,,,,,,,,,,,,,,,,,,,,061419_p1,001,2019_Jun_14_1401,body_behavioural,3.0.4,59.981604842409226,
0,"At the gate, Anna waved to the flight attendant who motioned for her to hurry and she boarded the plane. ",4,4,None,,,,,,0,0,0,0,,,,,0,33,33,33,,,,,,,,,,,,,,,,,,,,,,,,,,,,,,,,,,,1,5.836629882978741,,,,,,,,,,,,,,,,,,,,,,,,,,,,061419_p1,001,2019_Jun_14_1401,body_behavioural,3.0.4,59.981604842409226,
0,"She slid into her window seat 7D in business class, and barely containing her glee, she hugged the plastic-wrapped blanket. ",4,4,None,,,,,,0,0,0,0,,,,,0,34,34,34,,,,,,,,,,,,,,,,,,,,,,,,,,,,,,,,,,,1,5.253353475010954,,,,,,,,,,,,,,,,,,,,,,,,,,,,061419_p1,001,2019_Jun_14_1401,body_behavioural,3.0.4,59.981604842409226,
0,"She was thankful that she had not only made it onto the plane in time, but also that she had been clumsy enough to forget to tie her shoes.",4,4,None,,,,,,0,0,0,0,,,,,0,35,35,35,,,,,,,,,,,,,,,,,,,,,,,,,,,,,,,,,,,1,9.403397971007507,,,,,,,,,,,,,,,,,,,,,,,,,,,,061419_p1,001,2019_Jun_14_1401,body_behavioural,3.0.4,59.981604842409226,
0,,,,,,,,,,0,0,0,0,,,,,,,,,,,,,,,,,,,,,,,,,,,,,,,,,,,,,,,,,,,,,,,,,,,,,,,,,,,,,,,,,,,,,,,,061419_p1,001,2019_Jun_14_1401,body_behavioural,3.0.4,59.981604842409226,
1,,,,,,,,,,0,1,1,1,0,0,0,0,,,,,,,,,,,,,,,,,,,,,,,,,,,,,space,2.867485894996207,space,0.9028727390104905,space,6.837272830016445,,,,,,,,,,,,,,,,,,,,,,,,,,,,,,,,,,061419_p1,001,2019_Jun_14_1401,body_behavioural,3.0.4,59.981604842409226,
1,"Ariana hurried into the classroom, and Leon did a double-take when he saw her, almost dropping the eraser he had in his hand. ",1.0,1.0,44.0,,,,,,0,1,1,1,,,,,0,0,0,0,,,,,,,,,,,,,,,,,,,,,,,,,,,,,,,space,2.5531154299969785,space,0.9868570219841786,1,8.553402692021336,,,,,,,,,,,,,,,,,,,,,,,,,,,,061419_p1,001,2019_Jun_14_1401,body_behavioural,3.0.4,59.981604842409226,
1,"This was his first day in college, and he had assumed that he wouldn’t know anyone on campus, but he had a strong feeling that he had seen her somewhere before. ",1.0,1.0,None,,,,,,0,1,1,1,,,,,0,1,1,1,,,,,,,,,,,,,,,,,,,,,,,,,,,,,,,,,,,1,6.286308935028501,,,,,,,,,,,,,,,,,,,,,,,,,,,,061419_p1,001,2019_Jun_14_1401,body_behavioural,3.0.4,59.981604842409226,
1,They were in a small classroom with rows of chairs with foldable desks.,1.0,1.0,None,,,,,,0,1,1,1,,,,,0,2,2,2,,,,,,,,,,,,,,,,,,,,,,,,,,,,,,,,,,,9,15.570921064994764,,,,,,,,,,,,,,,,,,,,,,,,,,,,061419_p1,001,2019_Jun_14_1401,body_behavioural,3.0.4,59.981604842409226,
1,These faced the speaker’s podium and a blackboard on wheels. ,None,None,None,,,,,,0,1,1,1,,,,,0,3,3,3,,,,,,,,,,,,,,,,,,,,,,,,,,,,,,,,,,,1,9.270982694986742,,,,,,,,,,,,,,,,,,,,,,,,,,,,061419_p1,001,2019_Jun_14_1401,body_behavioural,3.0.4,59.981604842409226,
1,"There were no windows in the room, since they were down in the basement of the History Department.",1.0,1.0,None,,,,,,0,1,1,1,,,,,0,4,4,4,,,,,,,,,,,,,,,,,,,,,,,,,,,,,,,,,,,1,3.270520085003227,,,,,,,,,,,,,,,,,,,,,,,,,,,,061419_p1,001,2019_Jun_14_1401,body_behavioural,3.0.4,59.981604842409226,
1,"Leon, trying to figure out where he had seen her before, could not stop looking over at Ariana.",1.0,1.0,None,,,,,,0,1,1,1,,,,,0,5,5,5,,,,,,,,,,,,,,,,,,,,,,,,,,,,,,,,,,,9,4.203324119967874,,,,,,,,,,,,,,,,,,,,,,,,,,,,061419_p1,001,2019_Jun_14_1401,body_behavioural,3.0.4,59.981604842409226,
1,Ariana was oblivious to Leon’s gaze and was only focused on getting ready for class. ,1.0,1.0,None,,,,,,0,1,1,1,,,,,0,6,6,6,,,,,,,,,,,,,,,,,,,,,,,,,,,,,,,,,,,1,4.103579104994424,,,,,,,,,,,,,,,,,,,,,,,,,,,,061419_p1,001,2019_Jun_14_1401,body_behavioural,3.0.4,59.981604842409226,
1,"“Good morning, everyone,” the professor began.",2.0,1.0,None,,,,,,0,1,1,1,,,,,0,7,7,7,,,,,,,,,,,,,,,,,,,,,,,,,,,,,,,,,,,1,6.50350668199826,,,,,,,,,,,,,,,,,,,,,,,,,,,,061419_p1,001,2019_Jun_14_1401,body_behavioural,3.0.4,59.981604842409226,
1,“Welcome to History of Egypt. ,2.0,1.0,None,,,,,,0,1,1,1,,,,,0,8,8,8,,,,,,,,,,,,,,,,,,,,,,,,,,,,,,,,,,,1,1.083463670045603,,,,,,,,,,,,,,,,,,,,,,,,,,,,061419_p1,001,2019_Jun_14_1401,body_behavioural,3.0.4,59.981604842409226,
1,"Today we will be talking about mummification, one of the most famous and often misunderstood customs in ancient Egyptian society.”",2.0,1.0,None,,,,,,0,1,1,1,,,,,0,9,9,9,,,,,,,,,,,,,,,,,,,,,,,,,,,,,,,,,,,1,4.303964699967764,,,,,,,,,,,,,,,,,,,,,,,,,,,,061419_p1,001,2019_Jun_14_1401,body_behavioural,3.0.4,59.981604842409226,
1,Leon and Ariana began taking notes. ,2.0,1.0,None,,,,,,0,1,1,1,,,,,0,10,10,10,,,,,,,,,,,,,,,,,,,,,,,,,,,,,,,,,,,1,1.7527671509888023,,,,,,,,,,,,,,,,,,,,,,,,,,,,061419_p1,001,2019_Jun_14_1401,body_behavioural,3.0.4,59.981604842409226,
1,"Within a few minutes, Leon found his attention wandering from the lecture and back to Ariana, and he decided to do something about it by putting a note on her desk.",2.0,2.0,None,,,,,,0,1,1,1,,,,,0,11,11,11,,,,,,,,,,,,,,,,,,,,,,,,,,,,,,,,,,,9,7.386455299973022,,,,,,,,,,,,,,,,,,,,,,,,,,,,061419_p1,001,2019_Jun_14_1401,body_behavioural,3.0.4,59.981604842409226,
1,"“Are you from LA?” it read, “Sorry to distract you from mummies, but you look really familiar.”",2.0,2.0,None,,,,,,0,1,1,1,,,,,0,12,12,12,,,,,,,,,,,,,,,,,,,,,,,,,,,,,,,,,,,1,2.819482038030401,,,,,,,,,,,,,,,,,,,,,,,,,,,,061419_p1,001,2019_Jun_14_1401,body_behavioural,3.0.4,59.981604842409226,
1,"She looked at the note with surprise, and then turned to notice Leon for the first time. ",2.0,2.0,None,,,,,,0,1,1,1,,,,,0,13,13,13,,,,,,,,,,,,,,,,,,,,,,,,,,,,,,,,,,,1,8.253357186971698,,,,,,,,,,,,,,,,,,,,,,,,,,,,061419_p1,001,2019_Jun_14_1401,body_behavioural,3.0.4,59.981604842409226,
1,She instantly liked him when she saw him.,2.0,2.0,None,,,,,,0,1,1,1,,,,,0,14,14,14,,,,,,,,,,,,,,,,,,,,,,,,,,,,,,,,,,,1,1.4687647800310515,,,,,,,,,,,,,,,,,,,,,,,,,,,,061419_p1,001,2019_Jun_14_1401,body_behavioural,3.0.4,59.981604842409226,
1,She thought he looked trustworthy and genuine.,2.0,2.0,None,,,,,,0,1,1,1,,,,,0,15,15,15,,,,,,,,,,,,,,,,,,,,,,,,,,,,,,,,,,,1,1.153636529983487,,,,,,,,,,,,,,,,,,,,,,,,,,,,061419_p1,001,2019_Jun_14_1401,body_behavioural,3.0.4,59.981604842409226,
1,"Ariana passed the note back to Leon, and she had replied, “No, but maybe my twin and I were separated at birth.”",2.0,2.0,None,,,,,,0,1,1,1,,,,,0,16,16,16,,,,,,,,,,,,,,,,,,,,,,,,,,,,,,,,,,,1,3.603519143012818,,,,,,,,,,,,,,,,,,,,,,,,,,,,061419_p1,001,2019_Jun_14_1401,body_behavioural,3.0.4,59.981604842409226,
1,"The professor continued, “One may well question why the ancient Egyptians spent so much time and effort on their funerary practices.",3.0,2.0,None,,,,,,0,1,1,1,,,,,0,17,17,17,,,,,,,,,,,,,,,,,,,,,,,,,,,,,,,,,,,9,5.737448974978179,,,,,,,,,,,,,,,,,,,,,,,,,,,,061419_p1,001,2019_Jun_14_1401,body_behavioural,3.0.4,59.981604842409226,
1,"Not only was the mummification process itself a complicated affair, but there were also elaborate rituals before, during, and after death.",3.0,2.0,None,,,,,,0,1,1,1,,,,,0,18,18,18,,,,,,,,,,,,,,,,,,,,,,,,,,,,,,,,,,,1,3.453342619992327,,,,,,,,,,,,,,,,,,,,,,,,,,,,061419_p1,001,2019_Jun_14_1401,body_behavioural,3.0.4,59.981604842409226,
1,The practice required teams of experts with years of training and took a total of 70 days to complete.” ,3.0,2.0,None,,,,,,0,1,1,1,,,,,0,19,19,19,,,,,,,,,,,,,,,,,,,,,,,,,,,,,,,,,,,1,5.486727648007218,,,,,,,,,,,,,,,,,,,,,,,,,,,,061419_p1,001,2019_Jun_14_1401,body_behavioural,3.0.4,59.981604842409226,
1,"They passed notes back and forth the whole class like they were in high school, and Leon wrote in one, “Would you like to go on a walk this evening?”",3.0,3.0,None,,,,,,0,1,1,1,,,,,0,20,20,20,,,,,,,,,,,,,,,,,,,,,,,,,,,,,,,,,,,9,4.9838027249788865,,,,,,,,,,,,,,,,,,,,,,,,,,,,061419_p1,001,2019_Jun_14_1401,body_behavioural,3.0.4,59.981604842409226,
1,"When Ariana read this, she looked at him and nodded her head",3.0,3.0,None,,,,,,0,1,1,1,,,,,0,21,21,21,,,,,,,,,,,,,,,,,,,,,,,,,,,,,,,,,,,1,1.853249904990662,,,,,,,,,,,,,,,,,,,,,,,,,,,,061419_p1,001,2019_Jun_14_1401,body_behavioural,3.0.4,59.981604842409226,
1,"She wrote back on the slip of paper, “Let’s meet at 8 in front of my dorm, Patton Hall.”",3.0,3.0,None,,,,,,0,1,1,1,,,,,0,22,22,22,,,,,,,,,,,,,,,,,,,,,,,,,,,,,,,,,,,1,1.636500540014822,,,,,,,,,,,,,,,,,,,,,,,,,,,,061419_p1,001,2019_Jun_14_1401,body_behavioural,3.0.4,59.981604842409226,
1,The professor ended the lecture and announced to the class that they would have their first quiz next class on Friday on mummification. ,4.0,3.0,None,,,,,,0,1,1,1,,,,,0,23,23,23,,,,,,,,,,,,,,,,,,,,,,,,,,,,,,,,,,,9,5.836542640987318,,,,,,,,,,,,,,,,,,,,,,,,,,,,061419_p1,001,2019_Jun_14_1401,body_behavioural,3.0.4,59.981604842409226,
1,Everyone packed up and filed out of the classroom except for Ariana and Leon. ,4.0,3.0,None,,,,,,0,1,1,1,,,,,0,24,24,24,,,,,,,,,,,,,,,,,,,,,,,,,,,,,,,,,,,9,6.7699347720481455,,,,,,,,,,,,,,,,,,,,,,,,,,,,061419_p1,001,2019_Jun_14_1401,body_behavioural,3.0.4,59.981604842409226,
1,"Ariana spoke first, “I have to go to my next class.”",4.0,4.0,None,,,,,,0,1,1,1,,,,,0,25,25,25,,,,,,,,,,,,,,,,,,,,,,,,,,,,,,,,,,,1,7.021773065964226,,,,,,,,,,,,,,,,,,,,,,,,,,,,061419_p1,001,2019_Jun_14_1401,body_behavioural,3.0.4,59.981604842409226,
1,"She looked at the clock which read noon and headed for the door saying, “I should run, but I’ll see you later tonight!” ",4.0,4.0,None,,,,,,0,1,1,1,,,,,0,26,26,26,,,,,,,,,,,,,,,,,,,,,,,,,,,,,,,,,,,1,2.7204420369816944,,,,,,,,,,,,,,,,,,,,,,,,,,,,061419_p1,001,2019_Jun_14_1401,body_behavioural,3.0.4,59.981604842409226,
1,"She waved as she ran out the door, and Leon was still pondering where he had known her before, even more convinced that they had met before having heard her voice.",4.0,4.0,None,,,,,,0,1,1,1,,,,,0,27,27,27,,,,,,,,,,,,,,,,,,,,,,,,,,,,,,,,,,,1,4.65344919799827,,,,,,,,,,,,,,,,,,,,,,,,,,,,061419_p1,001,2019_Jun_14_1401,body_behavioural,3.0.4,59.981604842409226,
1,,,,,,,,,,0,1,1,1,,,,,,,,,,,,,,,,,,,,,,,,,,,,,,,,,,,,,,,,,,,,,,,,,,,,,,,,,,,,,,,,,,,,,,,,061419_p1,001,2019_Jun_14_1401,body_behavioural,3.0.4,59.981604842409226,
2,,,,,,,,,,0,2,2,2,0,0,0,0,,,,,,,,,,,,,,,,,,,,,,,,,,,,,space,3.203314082988072,space,0.6863900650059804,space,6.534423359960783,,,,,,,,,,,,,,,,,,,,,,,,,,,,,,,,,,061419_p1,001,2019_Jun_14_1401,body_behavioural,3.0.4,59.981604842409226,
2,,,,,,,,,,0,2,2,2,1,0,1,0,,,,,,,,,,,,,,,,,,,,,,,,,,,,,,,,,space,1.2701438629883341,,,,,,,,,,,,,,,,,,,,,,,,,,,,,,,,,,061419_p1,001,2019_Jun_14_1401,body_behavioural,3.0.4,59.981604842409226,
2,,,,,,,,,,0,2,2,2,2,0,2,0,,,,,,,,,,,,,,,,,,,,,,,,,,,,,,,,,space,0.5028564259991981,,,,,,,,,,,,,,,,,,,,,,,,,,,,,,,,,,061419_p1,001,2019_Jun_14_1401,body_behavioural,3.0.4,59.981604842409226,
2,,,,,,,,,,0,2,2,2,3,0,3,0,,,,,,,,,,,,,,,,,,,,,,,,,,,,,,,,,space,0.519579975050874,,,,,,,,,,,,,,,,,,,,,,,,,,,,,,,,,,061419_p1,001,2019_Jun_14_1401,body_behavioural,3.0.4,59.981604842409226,
2,Mr. Shelton and Mr. Gordon shook hands inside the waiting area of the restaurant: lunch today was about big business. ,1,1,31.0,,,,,,0,2,2,2,,,,,0,0,0,0,,,,,,,,,,,,,,,,,,,,,,,,,,,,,,,space,2.136944764992222,space,0.5531344619812444,1,9.55399656802183,,,,,,,,,,,,,,,,,,,,,,,,,,,,061419_p1,001,2019_Jun_14_1401,body_behavioural,3.0.4,59.981604842409226,
2,They were both in the airplane manufacturing industry.,1,1,None,,,,,,0,2,2,2,,,,,0,1,1,1,,,,,,,,,,,,,,,,,,,,,,,,,,,,,,,,,,,1,2.6197087499895133,,,,,,,,,,,,,,,,,,,,,,,,,,,,061419_p1,001,2019_Jun_14_1401,body_behavioural,3.0.4,59.981604842409226,
2,"Mr. Shelton was the CFO of a larger, well-established company and had been in the aviation business for decades.",1,1,None,,,,,,0,2,2,2,,,,,0,2,2,2,,,,,,,,,,,,,,,,,,,,,,,,,,,,,,,,,,,1,3.720529135025572,,,,,,,,,,,,,,,,,,,,,,,,,,,,061419_p1,001,2019_Jun_14_1401,body_behavioural,3.0.4,59.981604842409226,
2,Mr. Gordon was the CEO of a smaller but technologically-advanced company that was projected to disrupt the airplane manufacturing market. ,1,1,None,,,,,,0,2,2,2,,,,,0,3,3,3,,,,,,,,,,,,,,,,,,,,,,,,,,,,,,,,,,,1,3.3205784099991433,,,,,,,,,,,,,,,,,,,,,,,,,,,,061419_p1,001,2019_Jun_14_1401,body_behavioural,3.0.4,59.981604842409226,
2,"They chose to meet at an old steakhouse with dark wood paneling on the floor and ceilings, taxidermy animals on the walls, and a candelabra on every table.",1,1,None,,,,,,0,2,2,2,,,,,0,4,4,4,,,,,,,,,,,,,,,,,,,,,,,,,,,,,,,,,,,1,9.287837694981135,,,,,,,,,,,,,,,,,,,,,,,,,,,,061419_p1,001,2019_Jun_14_1401,body_behavioural,3.0.4,59.981604842409226,
2,The waitress seated them at their table in the back. ,2,1,None,,,,,,0,2,2,2,,,,,0,5,5,5,,,,,,,,,,,,,,,,,,,,,,,,,,,,,,,,,,,1,1.7367295400472358,,,,,,,,,,,,,,,,,,,,,,,,,,,,061419_p1,001,2019_Jun_14_1401,body_behavioural,3.0.4,59.981604842409226,
2,"She brought out the menus, and they briefly chatted about personal happenings. ",2,1,None,,,,,,0,2,2,2,,,,,0,6,6,6,,,,,,,,,,,,,,,,,,,,,,,,,,,,,,,,,,,1,4.087055663054343,,,,,,,,,,,,,,,,,,,,,,,,,,,,061419_p1,001,2019_Jun_14_1401,body_behavioural,3.0.4,59.981604842409226,
2,"Mr. Gordon took out a picture of his daughter and talked about her recent engagement, and Mr. Gordon mentioned his purchase of a Tesla. ",2,1,None,,,,,,0,2,2,2,,,,,0,7,7,7,,,,,,,,,,,,,,,,,,,,,,,,,,,,,,,,,,,9,5.48666225100169,,,,,,,,,,,,,,,,,,,,,,,,,,,,061419_p1,001,2019_Jun_14_1401,body_behavioural,3.0.4,59.981604842409226,
2,They also looked over the menus which were heavy and covered in felt.,2,1,None,,,,,,0,2,2,2,,,,,0,8,8,8,,,,,,,,,,,,,,,,,,,,,,,,,,,,,,,,,,,9,12.81998847797513,,,,,,,,,,,,,,,,,,,,,,,,,,,,061419_p1,001,2019_Jun_14_1401,body_behavioural,3.0.4,59.981604842409226,
2,Flipping to the back of the menu brought one to a lengthy drink selection.,2,1,None,,,,,,0,2,2,2,,,,,0,9,9,9,,,,,,,,,,,,,,,,,,,,,,,,,,,,,,,,,,,1,2.519157381961122,,,,,,,,,,,,,,,,,,,,,,,,,,,,061419_p1,001,2019_Jun_14_1401,body_behavioural,3.0.4,59.981604842409226,
2,Mr. Shelton got serious and brought the conversation around to business.,2,2,None,,,,,,0,2,2,2,,,,,0,10,10,10,,,,,,,,,,,,,,,,,,,,,,,,,,,,,,,,,,,9,3.0532345400424674,,,,,,,,,,,,,,,,,,,,,,,,,,,,061419_p1,001,2019_Jun_14_1401,body_behavioural,3.0.4,59.981604842409226,
2,"“Mr. Gordon, we really admire what you’re doing at your company.",2,2,None,,,,,,0,2,2,2,,,,,0,11,11,11,,,,,,,,,,,,,,,,,,,,,,,,,,,,,,,,,,,1,2.019194146967493,,,,,,,,,,,,,,,,,,,,,,,,,,,,061419_p1,001,2019_Jun_14_1401,body_behavioural,3.0.4,59.981604842409226,
2,We think it’s genius; we want to support your vision and make this tiny company of yours internationally known.,2,2,None,,,,,,0,2,2,2,,,,,0,12,12,12,,,,,,,,,,,,,,,,,,,,,,,,,,,,,,,,,,,1,3.450866675004363,,,,,,,,,,,,,,,,,,,,,,,,,,,,061419_p1,001,2019_Jun_14_1401,body_behavioural,3.0.4,59.981604842409226,
2,"But honestly, your company doesn’t have the resources to reach international markets right now.",2,2,None,,,,,,0,2,2,2,,,,,0,13,13,13,,,,,,,,,,,,,,,,,,,,,,,,,,,,,,,,,,,1,1.8536862450418994,,,,,,,,,,,,,,,,,,,,,,,,,,,,061419_p1,001,2019_Jun_14_1401,body_behavioural,3.0.4,59.981604842409226,
2,"Maybe in a few years you could, but by that time, other companies may have already filled your niche.",2,2,None,,,,,,0,2,2,2,,,,,0,14,14,14,,,,,,,,,,,,,,,,,,,,,,,,,,,,,,,,,,,1,3.5700440520304255,,,,,,,,,,,,,,,,,,,,,,,,,,,,061419_p1,001,2019_Jun_14_1401,body_behavioural,3.0.4,59.981604842409226,
2,I think we should join forces.”,2,2,None,,,,,,0,2,2,2,,,,,0,15,15,15,,,,,,,,,,,,,,,,,,,,,,,,,,,,,,,,,,,1,1.2526678059948608,,,,,,,,,,,,,,,,,,,,,,,,,,,,061419_p1,001,2019_Jun_14_1401,body_behavioural,3.0.4,59.981604842409226,
2,The waitress arrived and asked if they were ready to order.,3,2,None,,,,,,0,2,2,2,,,,,0,16,16,16,,,,,,,,,,,,,,,,,,,,,,,,,,,,,,,,,,,9,2.870682367007248,,,,,,,,,,,,,,,,,,,,,,,,,,,,061419_p1,001,2019_Jun_14_1401,body_behavioural,3.0.4,59.981604842409226,
2,"Mr. Gordon chose the medium-rare steak and a martini, and Mr. Shelton ordered the veal and a manhattan. ",3,2,None,,,,,,0,2,2,2,,,,,0,17,17,17,,,,,,,,,,,,,,,,,,,,,,,,,,,,,,,,,,,1,2.1033734799711965,,,,,,,,,,,,,,,,,,,,,,,,,,,,061419_p1,001,2019_Jun_14_1401,body_behavioural,3.0.4,59.981604842409226,
2,"Then Mr. Shelton continued, “Look, I’ve talked to other members of the board, and we are prepared to offer $600 million to buy your company. ",3,2,None,,,,,,0,2,2,2,,,,,0,18,18,18,,,,,,,,,,,,,,,,,,,,,,,,,,,,,,,,,,,9,4.767008079972584,,,,,,,,,,,,,,,,,,,,,,,,,,,,061419_p1,001,2019_Jun_14_1401,body_behavioural,3.0.4,59.981604842409226,
2,"We'd keep on all of your current employees, and you would join as the director of your company branch.” ",3,2,None,,,,,,0,2,2,2,,,,,0,19,19,19,,,,,,,,,,,,,,,,,,,,,,,,,,,,,,,,,,,1,7.270775157958269,,,,,,,,,,,,,,,,,,,,,,,,,,,,061419_p1,001,2019_Jun_14_1401,body_behavioural,3.0.4,59.981604842409226,
2,"Mr. Gordon looked at Mr. Shelton skeptically for a few moments considering his response until he said, “Mr. Shelton, I think that you make a compelling offer, but there are definitely some disadvantages to attaching our small, streamlined productions to a large company like yours.",3,3,None,,,,,,0,2,2,2,,,,,0,20,20,20,,,,,,,,,,,,,,,,,,,,,,,,,,,,,,,,,,,1,6.853600364993326,,,,,,,,,,,,,,,,,,,,,,,,,,,,061419_p1,001,2019_Jun_14_1401,body_behavioural,3.0.4,59.981604842409226,
2,"We operate in a very different way than a large company, and the kind of administrative complexity that makes the scale of your productions possible would suffocate our business.",3,3,None,,,,,,0,2,2,2,,,,,0,21,21,21,,,,,,,,,,,,,,,,,,,,,,,,,,,,,,,,,,,1,4.703587219992187,,,,,,,,,,,,,,,,,,,,,,,,,,,,061419_p1,001,2019_Jun_14_1401,body_behavioural,3.0.4,59.981604842409226,
2,"With our product, scaling-up doesn’t necessarily make sense.” ",3,3,None,,,,,,0,2,2,2,,,,,0,22,22,22,,,,,,,,,,,,,,,,,,,,,,,,,,,,,,,,,,,1,6.370794204995036,,,,,,,,,,,,,,,,,,,,,,,,,,,,061419_p1,001,2019_Jun_14_1401,body_behavioural,3.0.4,59.981604842409226,
2,Mr. Shelton had expected this response and had come prepared.,3,3,None,,,,,,0,2,2,2,,,,,0,23,23,23,,,,,,,,,,,,,,,,,,,,,,,,,,,,,,,,,,,9,4.4532533349702135,,,,,,,,,,,,,,,,,,,,,,,,,,,,061419_p1,001,2019_Jun_14_1401,body_behavioural,3.0.4,59.981604842409226,
2,He began laying out the details of how he had handled similar acquisitions successfully in the past.,3,3,None,,,,,,0,2,2,2,,,,,0,24,24,24,,,,,,,,,,,,,,,,,,,,,,,,,,,,,,,,,,,1,3.237015313003212,,,,,,,,,,,,,,,,,,,,,,,,,,,,061419_p1,001,2019_Jun_14_1401,body_behavioural,3.0.4,59.981604842409226,
2,"He also played out projections of how Mr. Gordon’s company could out-compete their own main competitor in the industry, TechJet, by using the resources of a larger corporation. ",3,3,None,,,,,,0,2,2,2,,,,,0,25,25,25,,,,,,,,,,,,,,,,,,,,,,,,,,,,,,,,,,,1,5.619895765034016,,,,,,,,,,,,,,,,,,,,,,,,,,,,061419_p1,001,2019_Jun_14_1401,body_behavioural,3.0.4,59.981604842409226,
2,"Mr. Gordon was impressed, and they went back and forth hashing out what the company configuration would look like post-merger. ",3,3,None,,,,,,0,2,2,2,,,,,0,26,26,26,,,,,,,,,,,,,,,,,,,,,,,,,,,,,,,,,,,1,3.6869336219970137,,,,,,,,,,,,,,,,,,,,,,,,,,,,061419_p1,001,2019_Jun_14_1401,body_behavioural,3.0.4,59.981604842409226,
2,The waitress brought out their food on a large tray.,4,3,None,,,,,,0,2,2,2,,,,,0,27,27,27,,,,,,,,,,,,,,,,,,,,,,,,,,,,,,,,,,,9,2.2365383579744957,,,,,,,,,,,,,,,,,,,,,,,,,,,,061419_p1,001,2019_Jun_14_1401,body_behavioural,3.0.4,59.981604842409226,
2,“Oh this looks so good!” Mr. Gordon said. ,4,3,None,,,,,,0,2,2,2,,,,,0,28,28,28,,,,,,,,,,,,,,,,,,,,,,,,,,,,,,,,,,,1,1.2673607949982397,,,,,,,,,,,,,,,,,,,,,,,,,,,,061419_p1,001,2019_Jun_14_1401,body_behavioural,3.0.4,59.981604842409226,
2, “Can I get you anything else?” the waitress asked.,4,3,None,,,,,,0,2,2,2,,,,,0,29,29,29,,,,,,,,,,,,,,,,,,,,,,,,,,,,,,,,,,,1,2.4341311819734983,,,,,,,,,,,,,,,,,,,,,,,,,,,,061419_p1,001,2019_Jun_14_1401,body_behavioural,3.0.4,59.981604842409226,
2,They declined and began to eat. ,4,3,None,,,,,,0,2,2,2,,,,,0,30,30,30,,,,,,,,,,,,,,,,,,,,,,,,,,,,,,,,,,,9,1.719873288006056,,,,,,,,,,,,,,,,,,,,,,,,,,,,061419_p1,001,2019_Jun_14_1401,body_behavioural,3.0.4,59.981604842409226,
2,The meal was subpar- they both found the meat to be a bit overcooked and dry. ,4,3,None,,,,,,0,2,2,2,,,,,0,31,31,31,,,,,,,,,,,,,,,,,,,,,,,,,,,,,,,,,,,1,4.303562201966997,,,,,,,,,,,,,,,,,,,,,,,,,,,,061419_p1,001,2019_Jun_14_1401,body_behavioural,3.0.4,59.981604842409226,
2,"Mr. Gordon, after taking a contemplative bite and swallowing, said, “Mr. Shelton, I think we have a deal. ",4,4,None,,,,,,0,2,2,2,,,,,0,32,32,32,,,,,,,,,,,,,,,,,,,,,,,,,,,,,,,,,,,1,8.770328097976744,,,,,,,,,,,,,,,,,,,,,,,,,,,,061419_p1,001,2019_Jun_14_1401,body_behavioural,3.0.4,59.981604842409226,
2,"If you can guarantee that I can still have the final say in the all the work done by my team, I think this could be beneficial for both of us.",4,4,None,,,,,,0,2,2,2,,,,,0,33,33,33,,,,,,,,,,,,,,,,,,,,,,,,,,,,,,,,,,,1,4.52039328601677,,,,,,,,,,,,,,,,,,,,,,,,,,,,061419_p1,001,2019_Jun_14_1401,body_behavioural,3.0.4,59.981604842409226,
2,I propose a toast to the merging of our companies.”,4,4,None,,,,,,0,2,2,2,,,,,0,34,34,34,,,,,,,,,,,,,,,,,,,,,,,,,,,,,,,,,,,1,1.6506606350303628,,,,,,,,,,,,,,,,,,,,,,,,,,,,061419_p1,001,2019_Jun_14_1401,body_behavioural,3.0.4,59.981604842409226,
2,Mr. Shelton grinned and lifted his martini to clink glasses.,4,4,None,,,,,,0,2,2,2,,,,,0,35,35,35,,,,,,,,,,,,,,,,,,,,,,,,,,,,,,,,,,,1,1.5197250850033015,,,,,,,,,,,,,,,,,,,,,,,,,,,,061419_p1,001,2019_Jun_14_1401,body_behavioural,3.0.4,59.981604842409226,
2,"He said, “Cheers to a lifelong partnership and to the growth of our company.” ",4,4,None,,,,,,0,2,2,2,,,,,0,36,36,36,,,,,,,,,,,,,,,,,,,,,,,,,,,,,,,,,,,1,1.2864479100098833,,,,,,,,,,,,,,,,,,,,,,,,,,,,061419_p1,001,2019_Jun_14_1401,body_behavioural,3.0.4,59.981604842409226,
2,,,,,,,,,,0,2,2,2,,,,,,,,,,,,,,,,,,,,,,,,,,,,,,,,,,,,,,,,,,,,,,,,,,,,,,,,,,,,,,,,,,,,,,,,061419_p1,001,2019_Jun_14_1401,body_behavioural,3.0.4,59.981604842409226,
3,,,,,,,,,,0,3,3,3,0,0,0,0,,,,,,,,,,,,,,,,,,,,,,,,,,,,,space,1.136434497020673,space,1.252797010994982,space,0.6673559100017883,,,,,,,,,,,,,,,,,,,,,,,,,,,,,,,,,,061419_p1,001,2019_Jun_14_1401,body_behavioural,3.0.4,59.981604842409226,
3,The grocery store was not the place Emmanuella and Liam wanted to be at the moment considering that they had been fighting to the point where Emmanuella was thinking of breaking up with Liam.,1.0,1.0,13.0,,,,,,0,3,3,3,,,,,0,0,0,0,,,,,,,,,,,,,,,,,,,,,,,,,,,,,,,space,0.9865403520525433,space,0.7872637680266052,1,8.236993055033963,,,,,,,,,,,,,,,,,,,,,,,,,,,,061419_p1,001,2019_Jun_14_1401,body_behavioural,3.0.4,59.981604842409226,
3,Emmanuella had been thinking of breaking up with Liam for the past 5 months.,None,None,None,,,,,,0,3,3,3,,,,,0,1,1,1,,,,,,,,,,,,,,,,,,,,,,,,,,,,,,,,,,,1,7.390803540998604,,,,,,,,,,,,,,,,,,,,,,,,,,,,061419_p1,001,2019_Jun_14_1401,body_behavioural,3.0.4,59.981604842409226,
3,"Despite the current tension, they had to go grocery shopping because they were hosting a dinner party for friends that evening and had little at home with which to cook. ",1.0,1.0,None,,,,,,0,3,3,3,,,,,0,2,2,2,,,,,,,,,,,,,,,,,,,,,,,,,,,,,,,,,,,9,6.601122165040579,,,,,,,,,,,,,,,,,,,,,,,,,,,,061419_p1,001,2019_Jun_14_1401,body_behavioural,3.0.4,59.981604842409226,
3,"The grocery store smelled like lavender upon entering and was dimly lit with pine shelves in the entrance and obscure, organic products displayed on them.",1.0,1.0,None,,,,,,0,3,3,3,,,,,0,3,3,3,,,,,,,,,,,,,,,,,,,,,,,,,,,,,,,,,,,1,8.920352418033872,,,,,,,,,,,,,,,,,,,,,,,,,,,,061419_p1,001,2019_Jun_14_1401,body_behavioural,3.0.4,59.981604842409226,
3,"In the pasta section, Emmanuella grabbed a few boxes of bow-tie pasta.",2.0,1.0,None,,,,,,0,3,3,3,,,,,0,4,4,4,,,,,,,,,,,,,,,,,,,,,,,,,,,,,,,,,,,9,7.8036757570225745,,,,,,,,,,,,,,,,,,,,,,,,,,,,061419_p1,001,2019_Jun_14_1401,body_behavioural,3.0.4,59.981604842409226,
3,"“I guess we are having a pasta dish tonight,” Liam said.",2.0,1.0,None,,,,,,0,3,3,3,,,,,0,5,5,5,,,,,,,,,,,,,,,,,,,,,,,,,,,,,,,,,,,1,1.7005607369937934,,,,,,,,,,,,,,,,,,,,,,,,,,,,061419_p1,001,2019_Jun_14_1401,body_behavioural,3.0.4,59.981604842409226,
3,"Emmanuella looked back at him and said, “Well if you were going to actually help cook, I would be fine with something else.”",2.0,1.0,None,,,,,,0,3,3,3,,,,,0,6,6,6,,,,,,,,,,,,,,,,,,,,,,,,,,,,,,,,,,,1,2.903202635992784,,,,,,,,,,,,,,,,,,,,,,,,,,,,061419_p1,001,2019_Jun_14_1401,body_behavioural,3.0.4,59.981604842409226,
3,"Liam sighed, and finally said, “You know- you don’t want me to help.",2.0,1.0,None,,,,,,0,3,3,3,,,,,0,7,7,7,,,,,,,,,,,,,,,,,,,,,,,,,,,,,,,,,,,1,4.920565385022201,,,,,,,,,,,,,,,,,,,,,,,,,,,,061419_p1,001,2019_Jun_14_1401,body_behavioural,3.0.4,59.981604842409226,
3,"I try to, but it seems like I always get in the way!” ",2.0,1.0,None,,,,,,0,3,3,3,,,,,0,8,8,8,,,,,,,,,,,,,,,,,,,,,,,,,,,,,,,,,,,1,3.1528055630042218,,,,,,,,,,,,,,,,,,,,,,,,,,,,061419_p1,001,2019_Jun_14_1401,body_behavioural,3.0.4,59.981604842409226,
3,Emmanuella shook her head and dropped the pasta boxes in the basket she was holding.,2.0,1.0,None,,,,,,0,3,3,3,,,,,0,9,9,9,,,,,,,,,,,,,,,,,,,,,,,,,,,,,,,,,,,9,2.520417655003257,,,,,,,,,,,,,,,,,,,,,,,,,,,,061419_p1,001,2019_Jun_14_1401,body_behavioural,3.0.4,59.981604842409226,
3," “Like you even try,” she mumbled to herself. ",2.0,1.0,None,,,,,,0,3,3,3,,,,,0,10,10,10,,,,,,,,,,,,,,,,,,,,,,,,,,,,,,,,,,,1,2.837186870048754,,,,,,,,,,,,,,,,,,,,,,,,,,,,061419_p1,001,2019_Jun_14_1401,body_behavioural,3.0.4,59.981604842409226,
3,She continued down the aisle and studied a jar of vodka sauce and a can of olives before putting them in the basket as well. ,2.0,1.0,None,,,,,,0,3,3,3,,,,,0,11,11,11,,,,,,,,,,,,,,,,,,,,,,,,,,,,,,,,,,,1,3.2368184599909,,,,,,,,,,,,,,,,,,,,,,,,,,,,061419_p1,001,2019_Jun_14_1401,body_behavioural,3.0.4,59.981604842409226,
3,"Emmanuella suddenly wrinkled her eyebrows, turned to Liam, and said, “I want to break up since I’m tired of the constant fighting. ",2.0,2.0,None,,,,,,0,3,3,3,,,,,0,12,12,12,,,,,,,,,,,,,,,,,,,,,,,,,,,,,,,,,,,9,5.45344633795321,,,,,,,,,,,,,,,,,,,,,,,,,,,,061419_p1,001,2019_Jun_14_1401,body_behavioural,3.0.4,59.981604842409226,
3,"I was going to wait until after this horribly-timed dinner party tonight to talk about this, but I might as well say it now.",2.0,2.0,None,,,,,,0,3,3,3,,,,,0,13,13,13,,,,,,,,,,,,,,,,,,,,,,,,,,,,,,,,,,,1,2.736450965050608,,,,,,,,,,,,,,,,,,,,,,,,,,,,061419_p1,001,2019_Jun_14_1401,body_behavioural,3.0.4,59.981604842409226,
3,"I feel like when we try to do anything anymore it ends up unpleasant for the stupidest reasons, and I am just past trying to work things out.”",2.0,2.0,None,,,,,,0,3,3,3,,,,,0,14,14,14,,,,,,,,,,,,,,,,,,,,,,,,,,,,,,,,,,,1,3.2528802740271203,,,,,,,,,,,,,,,,,,,,,,,,,,,,061419_p1,001,2019_Jun_14_1401,body_behavioural,3.0.4,59.981604842409226,
3,Liam was nodding automatically.,2.0,2.0,None,,,,,,0,3,3,3,,,,,0,15,15,15,,,,,,,,,,,,,,,,,,,,,,,,,,,,,,,,,,,1,1.7361138389678672,,,,,,,,,,,,,,,,,,,,,,,,,,,,061419_p1,001,2019_Jun_14_1401,body_behavioural,3.0.4,59.981604842409226,
3,"In the checkout area, there was only one station open, Station 2, but it was not very crowded.",3.0,2.0,None,,,,,,0,3,3,3,,,,,0,16,16,16,,,,,,,,,,,,,,,,,,,,,,,,,,,,,,,,,,,9,3.6866469999658875,,,,,,,,,,,,,,,,,,,,,,,,,,,,061419_p1,001,2019_Jun_14_1401,body_behavioural,3.0.4,59.981604842409226,
3,They got in line.,3.0,2.0,None,,,,,,0,3,3,3,,,,,0,17,17,17,,,,,,,,,,,,,,,,,,,,,,,,,,,,,,,,,,,1,0.7868543119984679,,,,,,,,,,,,,,,,,,,,,,,,,,,,061419_p1,001,2019_Jun_14_1401,body_behavioural,3.0.4,59.981604842409226,
3,"Liam gazed in the direction of the magazines, but his eyes were glazed over as he was working things out in his head while Emmanuella scrutinized the pasta sauce again. ",3.0,2.0,None,,,,,,0,3,3,3,,,,,0,18,18,18,,,,,,,,,,,,,,,,,,,,,,,,,,,,,,,,,,,1,5.553602126950864,,,,,,,,,,,,,,,,,,,,,,,,,,,,061419_p1,001,2019_Jun_14_1401,body_behavioural,3.0.4,59.981604842409226,
3,"After a few minutes of thinking, Liam recollected himself, turned to her, and sighed, “Yes, I think the same thing.",3.0,3.0,None,,,,,,0,3,3,3,,,,,0,19,19,19,,,,,,,,,,,,,,,,,,,,,,,,,,,,,,,,,,,1,4.019906731962692,,,,,,,,,,,,,,,,,,,,,,,,,,,,061419_p1,001,2019_Jun_14_1401,body_behavioural,3.0.4,59.981604842409226,
3,I think we should break up because we could definitely be happier with other people.” ,3.0,3.0,None,,,,,,0,3,3,3,,,,,0,20,20,20,,,,,,,,,,,,,,,,,,,,,,,,,,,,,,,,,,,1,4.519391416979488,,,,,,,,,,,,,,,,,,,,,,,,,,,,061419_p1,001,2019_Jun_14_1401,body_behavioural,3.0.4,59.981604842409226,
3,Emmanuella nodded as she listened. ,3.0,3.0,None,,,,,,0,3,3,3,,,,,0,21,21,21,,,,,,,,,,,,,,,,,,,,,,,,,,,,,,,,,,,1,1.7365630250424147,,,,,,,,,,,,,,,,,,,,,,,,,,,,061419_p1,001,2019_Jun_14_1401,body_behavioural,3.0.4,59.981604842409226,
3,The cashier scanned their groceries.,4.0,3.0,None,,,,,,0,3,3,3,,,,,0,22,22,22,,,,,,,,,,,,,,,,,,,,,,,,,,,,,,,,,,,9,2.2668957919813693,,,,,,,,,,,,,,,,,,,,,,,,,,,,061419_p1,001,2019_Jun_14_1401,body_behavioural,3.0.4,59.981604842409226,
3,"The cost came to $30, and Emmanuella paid with her credit card.",4.0,3.0,None,,,,,,0,3,3,3,,,,,0,23,23,23,,,,,,,,,,,,,,,,,,,,,,,,,,,,,,,,,,,1,2.2199159300071187,,,,,,,,,,,,,,,,,,,,,,,,,,,,061419_p1,001,2019_Jun_14_1401,body_behavioural,3.0.4,59.981604842409226,
3,"She asked Liam politely to take the bags, and he obliged, following her to the exit. ",4.0,3.0,None,,,,,,0,3,3,3,,,,,0,24,24,24,,,,,,,,,,,,,,,,,,,,,,,,,,,,,,,,,,,9,3.437240512983408,,,,,,,,,,,,,,,,,,,,,,,,,,,,061419_p1,001,2019_Jun_14_1401,body_behavioural,3.0.4,59.981604842409226,
3,"Filled with a sudden wave of sadness, Emmanuella said, “Liam, I think we are making the right decision- this is good.”",4.0,4.0,None,,,,,,0,3,3,3,,,,,0,25,25,25,,,,,,,,,,,,,,,,,,,,,,,,,,,,,,,,,,,1,2.269877059967257,,,,,,,,,,,,,,,,,,,,,,,,,,,,061419_p1,001,2019_Jun_14_1401,body_behavioural,3.0.4,59.981604842409226,
3,"“I agree,” he said, relieved at the hope he was entertaining that they had just gotten through their last fight. ",4.0,4.0,None,,,,,,0,3,3,3,,,,,0,26,26,26,,,,,,,,,,,,,,,,,,,,,,,,,,,,,,,,,,,1,4.2701077070087194,,,,,,,,,,,,,,,,,,,,,,,,,,,,061419_p1,001,2019_Jun_14_1401,body_behavioural,3.0.4,59.981604842409226,
3,"“I think we can still host this dinner tonight, as long as you're still on board,” Emmanuella said.",4.0,4.0,None,,,,,,0,3,3,3,,,,,0,27,27,27,,,,,,,,,,,,,,,,,,,,,,,,,,,,,,,,,,,9,5.353341900045052,,,,,,,,,,,,,,,,,,,,,,,,,,,,061419_p1,001,2019_Jun_14_1401,body_behavioural,3.0.4,59.981604842409226,
3,"Liam nodded, “Yes, let’s just not tell anyone we’ve broken up tonight.” ",4.0,4.0,None,,,,,,0,3,3,3,,,,,0,28,28,28,,,,,,,,,,,,,,,,,,,,,,,,,,,,,,,,,,,1,1.4523020639899187,,,,,,,,,,,,,,,,,,,,,,,,,,,,061419_p1,001,2019_Jun_14_1401,body_behavioural,3.0.4,59.981604842409226,
3,"Emmanuella laughed, “Whoever leaks it loses their right to the cat.”",4.0,4.0,None,,,,,,0,3,3,3,,,,,0,29,29,29,,,,,,,,,,,,,,,,,,,,,,,,,,,,,,,,,,,1,4.186594709986821,,,,,,,,,,,,,,,,,,,,,,,,,,,,061419_p1,001,2019_Jun_14_1401,body_behavioural,3.0.4,59.981604842409226,
3,"Liam chuckled and responded, “Hey!",4.0,4.0,None,,,,,,0,3,3,3,,,,,0,30,30,30,,,,,,,,,,,,,,,,,,,,,,,,,,,,,,,,,,,1,1.6197936960379593,,,,,,,,,,,,,,,,,,,,,,,,,,,,061419_p1,001,2019_Jun_14_1401,body_behavioural,3.0.4,59.981604842409226,
3,Luna is mine and I want her back.”,4.0,4.0,None,,,,,,0,3,3,3,,,,,0,31,31,31,,,,,,,,,,,,,,,,,,,,,,,,,,,,,,,,,,,1,4.336733684991486,,,,,,,,,,,,,,,,,,,,,,,,,,,,061419_p1,001,2019_Jun_14_1401,body_behavioural,3.0.4,59.981604842409226,
3,"Emmanuella rolled her eyes, knowing the cat would be a whole other issue to sort out later.
",4.0,4.0,None,,,,,,0,3,3,3,,,,,0,32,32,32,,,,,,,,,,,,,,,,,,,,,,,,,,,,,,,,,,,1,4.970502834999934,,,,,,,,,,,,,,,,,,,,,,,,,,,,061419_p1,001,2019_Jun_14_1401,body_behavioural,3.0.4,59.981604842409226,
3,,,,,,,,,,0,3,3,3,,,,,,,,,,,,,,,,,,,,,,,,,,,,,,,,,,,,,,,,,,,,,,,,,,,,,,,,,,,,,,,,,,,,,,,,061419_p1,001,2019_Jun_14_1401,body_behavioural,3.0.4,59.981604842409226,
4,,,,,,,,,,0,4,4,4,0,0,0,0,,,,,,,,,,,,,,,,,,,,,,,,,,,,,space,2.1205625230213627,space,0.719717021973338,space,0.4679681300185621,,,,,,,,,,,,,,,,,,,,,,,,,,,,,,,,,,061419_p1,001,2019_Jun_14_1401,body_behavioural,3.0.4,59.981604842409226,
4,"Ms. Bianchi and Ms. Morrison walked into the grocery store at the same time, and, after a moment of mutual recognition, greeted each other with a handshake.",1.0,1.0,33.0,,,,,,0,4,4,4,,,,,0,0,0,0,,,,,,,,,,,,,,,,,,,,,,,,,,,,,,,space,0.5358129430096596,space,0.5530823349836282,1,10.386303816980217,,,,,,,,,,,,,,,,,,,,,,,,,,,,061419_p1,001,2019_Jun_14_1401,body_behavioural,3.0.4,59.981604842409226,
4,"They were standing in the entrance of the grocery store, which had displays of pumpkins, candy, and halloween decorations set up in different stations around the door. ",1.0,1.0,None,,,,,,0,4,4,4,,,,,0,1,1,1,,,,,,,,,,,,,,,,,,,,,,,,,,,,,,,,,,,1,3.553623530024197,,,,,,,,,,,,,,,,,,,,,,,,,,,,061419_p1,001,2019_Jun_14_1401,body_behavioural,3.0.4,59.981604842409226,
4,"“Thank you again for inviting me here to discuss my business proposal,” said Ms. Bianchi.",1.0,1.0,None,,,,,,0,4,4,4,,,,,0,2,2,2,,,,,,,,,,,,,,,,,,,,,,,,,,,,,,,,,,,1,2.118927725998219,,,,,,,,,,,,,,,,,,,,,,,,,,,,061419_p1,001,2019_Jun_14_1401,body_behavioural,3.0.4,59.981604842409226,
4,“It’s a pleasure to be out of the office.” ,1.0,1.0,None,,,,,,0,4,4,4,,,,,0,3,3,3,,,,,,,,,,,,,,,,,,,,,,,,,,,,,,,,,,,1,1.5858670479501598,,,,,,,,,,,,,,,,,,,,,,,,,,,,061419_p1,001,2019_Jun_14_1401,body_behavioural,3.0.4,59.981604842409226,
4,"As an account representative for an Italian cheese company that was trying to expand its outreach to American grocery stores, this meeting was pivotal for Ms. Bianchi.",1.0,1.0,None,,,,,,0,4,4,4,,,,,0,4,4,4,,,,,,,,,,,,,,,,,,,,,,,,,,,,,,,,,,,9,4.336957782972604,,,,,,,,,,,,,,,,,,,,,,,,,,,,061419_p1,001,2019_Jun_14_1401,body_behavioural,3.0.4,59.981604842409226,
4,"Her sales target, Ms. Morrison, was the senior product manager for a corporate grocer and she had a say in the products distributed in stores across the West Coast.",1.0,1.0,None,,,,,,0,4,4,4,,,,,0,5,5,5,,,,,,,,,,,,,,,,,,,,,,,,,,,,,,,,,,,1,19.304025878023822,,,,,,,,,,,,,,,,,,,,,,,,,,,,061419_p1,001,2019_Jun_14_1401,body_behavioural,3.0.4,59.981604842409226,
4,"Ms. Morrison was also known for doing things unconventionally: for example, she said that she liked to make deals with suppliers in the place where the products were sold- “to keep their minds focused on what’s important.” ",1.0,1.0,None,,,,,,0,4,4,4,,,,,0,6,6,6,,,,,,,,,,,,,,,,,,,,,,,,,,,,,,,,,,,9,7.853936992003582,,,,,,,,,,,,,,,,,,,,,,,,,,,,061419_p1,001,2019_Jun_14_1401,body_behavioural,3.0.4,59.981604842409226,
4,"In the cheese section of the grocery store, Ms. Morrison motioned to the parmesan.",2.0,1.0,None,,,,,,0,4,4,4,,,,,0,7,7,7,,,,,,,,,,,,,,,,,,,,,,,,,,,,,,,,,,,9,6.503517905017361,,,,,,,,,,,,,,,,,,,,,,,,,,,,061419_p1,001,2019_Jun_14_1401,body_behavioural,3.0.4,59.981604842409226,
4,“We have quite a selection here.,2.0,1.0,None,,,,,,0,4,4,4,,,,,0,8,8,8,,,,,,,,,,,,,,,,,,,,,,,,,,,,,,,,,,,1,1.2528122649528086,,,,,,,,,,,,,,,,,,,,,,,,,,,,061419_p1,001,2019_Jun_14_1401,body_behavioural,3.0.4,59.981604842409226,
4,I don’t know that we need an additional section for gourmet cheeses.” ,2.0,1.0,None,,,,,,0,4,4,4,,,,,0,9,9,9,,,,,,,,,,,,,,,,,,,,,,,,,,,,,,,,,,,1,2.253207234025467,,,,,,,,,,,,,,,,,,,,,,,,,,,,061419_p1,001,2019_Jun_14_1401,body_behavioural,3.0.4,59.981604842409226,
4," Ms. Bianchi did not hesitate but launched into her pitch: “Ms. Morrison, I think you would agree that selling food is more than just providing variety, but also about providing the highest quality.",2.0,2.0,None,,,,,,0,4,4,4,,,,,0,10,10,10,,,,,,,,,,,,,,,,,,,,,,,,,,,,,,,,,,,1,7.570369769993704,,,,,,,,,,,,,,,,,,,,,,,,,,,,061419_p1,001,2019_Jun_14_1401,body_behavioural,3.0.4,59.981604842409226,
4,You don’t have cheeses made in America that are like ours- it is true.,2.0,2.0,None,,,,,,0,4,4,4,,,,,0,11,11,11,,,,,,,,,,,,,,,,,,,,,,,,,,,,,,,,,,,1,4.153261890052818,,,,,,,,,,,,,,,,,,,,,,,,,,,,061419_p1,001,2019_Jun_14_1401,body_behavioural,3.0.4,59.981604842409226,
4,The availability of a product of excellent quality leads to the appreciation of the product.,2.0,2.0,None,,,,,,0,4,4,4,,,,,0,12,12,12,,,,,,,,,,,,,,,,,,,,,,,,,,,,,,,,,,,1,4.236617440008558,,,,,,,,,,,,,,,,,,,,,,,,,,,,061419_p1,001,2019_Jun_14_1401,body_behavioural,3.0.4,59.981604842409226,
4,"Your consumers will want to buy other, finer products to compliment that first ingredient, and suddenly your customer will be consuming in a new, more profitable way.",2.0,2.0,None,,,,,,0,4,4,4,,,,,0,13,13,13,,,,,,,,,,,,,,,,,,,,,,,,,,,,,,,,,,,1,8.070170356018934,,,,,,,,,,,,,,,,,,,,,,,,,,,,061419_p1,001,2019_Jun_14_1401,body_behavioural,3.0.4,59.981604842409226,
4,"I propose that you give it a shot: buy $1500 worth of cheese products for a few stores, and see how the sales increase not only in our cheeses but also in products related to cheeses: crackers, jams, olives.”",2.0,2.0,None,,,,,,0,4,4,4,,,,,0,14,14,14,,,,,,,,,,,,,,,,,,,,,,,,,,,,,,,,,,,1,6.986890072003007,,,,,,,,,,,,,,,,,,,,,,,,,,,,061419_p1,001,2019_Jun_14_1401,body_behavioural,3.0.4,59.981604842409226,
4,"Ms. Bianchi picked up a box of crackers by the cheese section, and said, “Here, I will buy these, and we can try some of our cheeses that I've brought with me.”",2.0,2.0,None,,,,,,0,4,4,4,,,,,0,15,15,15,,,,,,,,,,,,,,,,,,,,,,,,,,,,,,,,,,,9,4.034051260037813,,,,,,,,,,,,,,,,,,,,,,,,,,,,061419_p1,001,2019_Jun_14_1401,body_behavioural,3.0.4,59.981604842409226,
4,"Ms. Morrison, who was thinking about the proposed offer, nodded in agreement and said, “That sounds like a great idea, but those crackers are on me.”",2.0,2.0,None,,,,,,0,4,4,4,,,,,0,16,16,16,,,,,,,,,,,,,,,,,,,,,,,,,,,,,,,,,,,1,4.534514908038545,,,,,,,,,,,,,,,,,,,,,,,,,,,,061419_p1,001,2019_Jun_14_1401,body_behavioural,3.0.4,59.981604842409226,
4,She took the crackers from Ms. Bianchi and also picked up a bottle of ketchup and a case of sparkling water “for later.”,2.0,2.0,None,,,,,,0,4,4,4,,,,,0,17,17,17,,,,,,,,,,,,,,,,,,,,,,,,,,,,,,,,,,,1,4.386586468026508,,,,,,,,,,,,,,,,,,,,,,,,,,,,061419_p1,001,2019_Jun_14_1401,body_behavioural,3.0.4,59.981604842409226,
4,It was very busy in the checkout area.,3.0,2.0,None,,,,,,0,4,4,4,,,,,0,18,18,18,,,,,,,,,,,,,,,,,,,,,,,,,,,,,,,,,,,9,1.619843624997884,,,,,,,,,,,,,,,,,,,,,,,,,,,,061419_p1,001,2019_Jun_14_1401,body_behavioural,3.0.4,59.981604842409226,
4,"People were stocking up for Halloween parties and trick-or-treating, and there were 10 aisles open. ",3.0,2.0,None,,,,,,0,4,4,4,,,,,0,19,19,19,,,,,,,,,,,,,,,,,,,,,,,,,,,,,,,,,,,1,3.1863171049626544,,,,,,,,,,,,,,,,,,,,,,,,,,,,061419_p1,001,2019_Jun_14_1401,body_behavioural,3.0.4,59.981604842409226,
4,They stepped into lane 6 and waited.,3.0,2.0,None,,,,,,0,4,4,4,,,,,0,20,20,20,,,,,,,,,,,,,,,,,,,,,,,,,,,,,,,,,,,1,3.5532735149608925,,,,,,,,,,,,,,,,,,,,,,,,,,,,061419_p1,001,2019_Jun_14_1401,body_behavioural,3.0.4,59.981604842409226,
4,Ms. Bianchi handed to Ms. Morrison a packet with printed graphs of the increase in profits that several other stores in Italy had seen after starting to carry their products.,3.0,2.0,None,,,,,,0,4,4,4,,,,,0,21,21,21,,,,,,,,,,,,,,,,,,,,,,,,,,,,,,,,,,,9,8.70277359499596,,,,,,,,,,,,,,,,,,,,,,,,,,,,061419_p1,001,2019_Jun_14_1401,body_behavioural,3.0.4,59.981604842409226,
4,"After a couple minutes of thinking, Ms. Morrison widened her eyes and said confidently, “You know what, I think you've convinced me that this could work. ",3.0,3.0,None,,,,,,0,4,4,4,,,,,0,22,22,22,,,,,,,,,,,,,,,,,,,,,,,,,,,,,,,,,,,1,5.803616409015376,,,,,,,,,,,,,,,,,,,,,,,,,,,,061419_p1,001,2019_Jun_14_1401,body_behavioural,3.0.4,59.981604842409226,
4,We've been trying to find a way to add a little European cachet to our stores.,3.0,3.0,None,,,,,,0,4,4,4,,,,,0,23,23,23,,,,,,,,,,,,,,,,,,,,,,,,,,,,,,,,,,,1,4.586157229030505,,,,,,,,,,,,,,,,,,,,,,,,,,,,061419_p1,001,2019_Jun_14_1401,body_behavioural,3.0.4,59.981604842409226,
4,"Our competitor, Orange Grocers, hasn’t expanded in this direction yet, and I’d like to beat them to it. ",3.0,3.0,None,,,,,,0,4,4,4,,,,,0,24,24,24,,,,,,,,,,,,,,,,,,,,,,,,,,,,,,,,,,,1,3.4856573499855585,,,,,,,,,,,,,,,,,,,,,,,,,,,,061419_p1,001,2019_Jun_14_1401,body_behavioural,3.0.4,59.981604842409226,
4,There's still a problem though- I'm worried we'll be paying out the nose for the import taxes.,3.0,3.0,None,,,,,,0,4,4,4,,,,,0,25,25,25,,,,,,,,,,,,,,,,,,,,,,,,,,,,,,,,,,,1,3.8371459739864804,,,,,,,,,,,,,,,,,,,,,,,,,,,,061419_p1,001,2019_Jun_14_1401,body_behavioural,3.0.4,59.981604842409226,
4,Is that the case?",3.0,3.0,None,,,,,,0,4,4,4,,,,,0,26,26,26,,,,,,,,,,,,,,,,,,,,,,,,,,,,,,,,,,,1,1.686295359977521,,,,,,,,,,,,,,,,,,,,,,,,,,,,061419_p1,001,2019_Jun_14_1401,body_behavioural,3.0.4,59.981604842409226,
4,"It was Ms. Morrison’s turn to check out, and the cashier chatted with Ms. Morrison as she scanned the items.",4.0,3.0,None,,,,,,0,4,4,4,,,,,0,27,27,27,,,,,,,,,,,,,,,,,,,,,,,,,,,,,,,,,,,9,5.753430051961914,,,,,,,,,,,,,,,,,,,,,,,,,,,,061419_p1,001,2019_Jun_14_1401,body_behavioural,3.0.4,59.981604842409226,
4,Ms. Morrison was also distinguished for knowing most of the employees personally. ,None,None,None,,,,,,0,4,4,4,,,,,0,28,28,28,,,,,,,,,,,,,,,,,,,,,,,,,,,,,,,,,,,1,4.744407882972155,,,,,,,,,,,,,,,,,,,,,,,,,,,,061419_p1,001,2019_Jun_14_1401,body_behavioural,3.0.4,59.981604842409226,
4,Ms. Bianchi watched in amusement as Ms. Morrison paid the $23 price by writing a check. ,4.0,3.0,None,,,,,,0,4,4,4,,,,,0,29,29,29,,,,,,,,,,,,,,,,,,,,,,,,,,,,,,,,,,,1,4.186219009978231,,,,,,,,,,,,,,,,,,,,,,,,,,,,061419_p1,001,2019_Jun_14_1401,body_behavioural,3.0.4,59.981604842409226,
4,"After Ms. Bianci addressed Ms. Morrison’s concerns, they came to an agreement and would have enough cheese shipments, $20,000 worth, to different stores to qualify for a subsidized import tax. ",4.0,4.0,None,,,,,,0,4,4,4,,,,,0,30,30,30,,,,,,,,,,,,,,,,,,,,,,,,,,,,,,,,,,,9,9.504182901000604,,,,,,,,,,,,,,,,,,,,,,,,,,,,061419_p1,001,2019_Jun_14_1401,body_behavioural,3.0.4,59.981604842409226,
4,"Ms. Morrison had had a small bottle of champagne in her purse, and she pulled it out and popped it in celebration of their deal. ",4.0,4.0,None,,,,,,0,4,4,4,,,,,0,31,31,31,,,,,,,,,,,,,,,,,,,,,,,,,,,,,,,,,,,1,2.8705207830062136,,,,,,,,,,,,,,,,,,,,,,,,,,,,061419_p1,001,2019_Jun_14_1401,body_behavioural,3.0.4,59.981604842409226,
4,Ms. Bianchi decided that she loved doing business with Americans. ,4.0,4.0,None,,,,,,0,4,4,4,,,,,0,32,32,32,,,,,,,,,,,,,,,,,,,,,,,,,,,,,,,,,,,1,2.5035196629469283,,,,,,,,,,,,,,,,,,,,,,,,,,,,061419_p1,001,2019_Jun_14_1401,body_behavioural,3.0.4,59.981604842409226,
4,,,,,,,,,,0,4,4,4,,,,,,,,,,,,,,,,,,,,,,,,,,,,,,,,,,,,,,,,,,,,,,,,,,,,,,,,,,,,,,,,,,,,,,,,061419_p1,001,2019_Jun_14_1401,body_behavioural,3.0.4,59.981604842409226,
5,,,,,,,,,,0,5,5,5,0,0,0,0,,,,,,,,,,,,,,,,,,,,,,,,,,,,,space,3.3007034769980237,space,0.5033045830205083,space,0.7036949089961126,,,,,,,,,,,,,,,,,,,,,,,,,,,,,,,,,,061419_p1,001,2019_Jun_14_1401,body_behavioural,3.0.4,59.981604842409226,
5,"Sven and Isabel walked hurriedly from the cab into the Barcelona Airport after an incredible week with Isabel’s family, and this had wiped away any doubts Sven had had about his decision to propose. ",1,1,22.0,,,,,,0,5,5,5,,,,,0,0,0,0,,,,,,,,,,,,,,,,,,,,,,,,,,,,,,,space,1.9530717830057256,space,1.1191634850110859,1,11.600950021005701,,,,,,,,,,,,,,,,,,,,,,,,,,,,061419_p1,001,2019_Jun_14_1401,body_behavioural,3.0.4,59.981604842409226,
5,They had only been dating for 11 months so this was the first time he had met her family. ,1,1,None,,,,,,0,5,5,5,,,,,0,1,1,1,,,,,,,,,,,,,,,,,,,,,,,,,,,,,,,,,,,1,2.4538182169781066,,,,,,,,,,,,,,,,,,,,,,,,,,,,061419_p1,001,2019_Jun_14_1401,body_behavioural,3.0.4,59.981604842409226,
5,"They were pressed for time at the airport, with an hour and 15 minutes until their flight would take off to go back to the US, but they already had their online boarding passes and no checked luggage. ",1,1,None,,,,,,0,5,5,5,,,,,0,2,2,2,,,,,,,,,,,,,,,,,,,,,,,,,,,,,,,,,,,9,8.73442991200136,,,,,,,,,,,,,,,,,,,,,,,,,,,,061419_p1,001,2019_Jun_14_1401,body_behavioural,3.0.4,59.981604842409226,
5,"Isabel stopped to rummage through her purse to look for her phone, and meanwhile Sven turned his back to her and took the velvet box out of his backpack, opening it to look at the ring he had bought her.",1,2,None,,,,,,0,5,5,5,,,,,0,3,3,3,,,,,,,,,,,,,,,,,,,,,,,,,,,,,,,,,,,1,4.893936969980132,,,,,,,,,,,,,,,,,,,,,,,,,,,,061419_p1,001,2019_Jun_14_1401,body_behavioural,3.0.4,59.981604842409226,
5,"He had received her parents’ blessing during the trip, and he was almost giddy with excitement. ",1,2,None,,,,,,0,5,5,5,,,,,0,4,4,4,,,,,,,,,,,,,,,,,,,,,,,,,,,,,,,,,,,1,1.803246819996275,,,,,,,,,,,,,,,,,,,,,,,,,,,,061419_p1,001,2019_Jun_14_1401,body_behavioural,3.0.4,59.981604842409226,
5,"He tilted the ring backward and forward, despite having already studied it daily since purchasing it a few weeks ago. ",1,2,None,,,,,,0,5,5,5,,,,,0,5,5,5,,,,,,,,,,,,,,,,,,,,,,,,,,,,,,,,,,,1,2.1374752830015495,,,,,,,,,,,,,,,,,,,,,,,,,,,,061419_p1,001,2019_Jun_14_1401,body_behavioural,3.0.4,59.981604842409226,
5,"It was a simple design, with two pink diamonds on a silver band.",1,2,None,,,,,,0,5,5,5,,,,,0,6,6,6,,,,,,,,,,,,,,,,,,,,,,,,,,,,,,,,,,,1,2.7695555849932134,,,,,,,,,,,,,,,,,,,,,,,,,,,,061419_p1,001,2019_Jun_14_1401,body_behavioural,3.0.4,59.981604842409226,
5,"“Sven, I’m good,” Isabel said. ",1,2,None,,,,,,0,5,5,5,,,,,0,7,7,7,,,,,,,,,,,,,,,,,,,,,,,,,,,,,,,,,,,9,6.036670361994766,,,,,,,,,,,,,,,,,,,,,,,,,,,,061419_p1,001,2019_Jun_14_1401,body_behavioural,3.0.4,59.981604842409226,
5,Sven closed the box and discretely put it in his pocket.,1,2,None,,,,,,0,5,5,5,,,,,0,8,8,8,,,,,,,,,,,,,,,,,,,,,,,,,,,,,,,,,,,1,2.886612501984928,,,,,,,,,,,,,,,,,,,,,,,,,,,,061419_p1,001,2019_Jun_14_1401,body_behavioural,3.0.4,59.981604842409226,
5,"They entered the security line, weaving through the roped walkways to the front. ",2,2,None,,,,,,0,5,5,5,,,,,0,9,9,9,,,,,,,,,,,,,,,,,,,,,,,,,,,,,,,,,,,9,6.503559075004887,,,,,,,,,,,,,,,,,,,,,,,,,,,,061419_p1,001,2019_Jun_14_1401,body_behavioural,3.0.4,59.981604842409226,
5,"When they were up, Isabel realized her laptop was buried somewhere in her duffle bag. ",2,2,None,,,,,,0,5,5,5,,,,,0,10,10,10,,,,,,,,,,,,,,,,,,,,,,,,,,,,,,,,,,,1,7.469649805978406,,,,,,,,,,,,,,,,,,,,,,,,,,,,061419_p1,001,2019_Jun_14_1401,body_behavioural,3.0.4,59.981604842409226,
5,"Luckily, at the same time, there was a stall in the line because someone ahead of them had a suspicious amount of metal pieces on his person. ",2,2,None,,,,,,0,5,5,5,,,,,0,11,11,11,,,,,,,,,,,,,,,,,,,,,,,,,,,,,,,,,,,1,5.436820778006222,,,,,,,,,,,,,,,,,,,,,,,,,,,,061419_p1,001,2019_Jun_14_1401,body_behavioural,3.0.4,59.981604842409226,
5,Sven had to hold the growing mound of objects Isabel pulled from her bag until she unearthed the laptop and set it in a bin.,2,2,None,,,,,,0,5,5,5,,,,,0,12,12,12,,,,,,,,,,,,,,,,,,,,,,,,,,,,,,,,,,,1,10.270532029971946,,,,,,,,,,,,,,,,,,,,,,,,,,,,061419_p1,001,2019_Jun_14_1401,body_behavioural,3.0.4,59.981604842409226,
5,"She then gave her bag to Sven, unstrapped her heels, and took the bag back from Sven.",2,2,None,,,,,,0,5,5,5,,,,,0,13,13,13,,,,,,,,,,,,,,,,,,,,,,,,,,,,,,,,,,,1,5.6040664309985,,,,,,,,,,,,,,,,,,,,,,,,,,,,061419_p1,001,2019_Jun_14_1401,body_behavioural,3.0.4,59.981604842409226,
5,"Sven, relieved of his holding duties, hurriedly deposited his own backpack on the belt, and took off his shoes. ",2,2,None,,,,,,0,5,5,5,,,,,0,14,14,14,,,,,,,,,,,,,,,,,,,,,,,,,,,,,,,,,,,1,2.754119874967728,,,,,,,,,,,,,,,,,,,,,,,,,,,,061419_p1,001,2019_Jun_14_1401,body_behavioural,3.0.4,59.981604842409226,
5,"Sven went into the millimeter wave scanner after Isabel, put his hands up, and the metal bars whirled around him.",2,2,None,,,,,,0,5,5,5,,,,,0,15,15,15,,,,,,,,,,,,,,,,,,,,,,,,,,,,,,,,,,,1,3.384252354968339,,,,,,,,,,,,,,,,,,,,,,,,,,,,061419_p1,001,2019_Jun_14_1401,body_behavioural,3.0.4,59.981604842409226,
5,The security guard asked Sven to wait. ,2,2,None,,,,,,0,5,5,5,,,,,0,16,16,16,,,,,,,,,,,,,,,,,,,,,,,,,,,,,,,,,,,1,1.200742631976027,,,,,,,,,,,,,,,,,,,,,,,,,,,,061419_p1,001,2019_Jun_14_1401,body_behavioural,3.0.4,59.981604842409226,
5,"After looking at the monitor, the security guard said, “Sir, please empty your pockets,”.",2,2,None,,,,,,0,5,5,5,,,,,0,17,17,17,,,,,,,,,,,,,,,,,,,,,,,,,,,,,,,,,,,9,4.169709515990689,,,,,,,,,,,,,,,,,,,,,,,,,,,,061419_p1,001,2019_Jun_14_1401,body_behavioural,3.0.4,59.981604842409226,
5,"Isabel, shoeless and wrinkling her eyebrows at Sven, looked at him expectantly.",2,2,None,,,,,,0,5,5,5,,,,,0,18,18,18,,,,,,,,,,,,,,,,,,,,,,,,,,,,,,,,,,,1,10.703702285012696,,,,,,,,,,,,,,,,,,,,,,,,,,,,061419_p1,001,2019_Jun_14_1401,body_behavioural,3.0.4,59.981604842409226,
5,"Realizing that he had forgotten the ring in his pocket, he grabbed Isabel’s, got down on one knee, and opening the velvet box, said, “Isabel, this isn't quite how I'd planned this, but - will you marry me?”",2,3,None,,,,,,0,5,5,5,,,,,0,19,19,19,,,,,,,,,,,,,,,,,,,,,,,,,,,,,,,,,,,1,7.303565307985991,,,,,,,,,,,,,,,,,,,,,,,,,,,,061419_p1,001,2019_Jun_14_1401,body_behavioural,3.0.4,59.981604842409226,
5,He held the ring up to her. ,2,3,None,,,,,,0,5,5,5,,,,,0,20,20,20,,,,,,,,,,,,,,,,,,,,,,,,,,,,,,,,,,,1,4.953486515034456,,,,,,,,,,,,,,,,,,,,,,,,,,,,061419_p1,001,2019_Jun_14_1401,body_behavioural,3.0.4,59.981604842409226,
5,The security guard stood shocked.,2,3,None,,,,,,0,5,5,5,,,,,0,21,21,21,,,,,,,,,,,,,,,,,,,,,,,,,,,,,,,,,,,1,2.0038424840313382,,,,,,,,,,,,,,,,,,,,,,,,,,,,061419_p1,001,2019_Jun_14_1401,body_behavioural,3.0.4,59.981604842409226,
5,All the people who were putting their shoes back on and gathering their belongings stopped and walked closer to the couple.,2,3,None,,,,,,0,5,5,5,,,,,0,22,22,22,,,,,,,,,,,,,,,,,,,,,,,,,,,,,,,,,,,1,4.0533482049941085,,,,,,,,,,,,,,,,,,,,,,,,,,,,061419_p1,001,2019_Jun_14_1401,body_behavioural,3.0.4,59.981604842409226,
5,Isabel didn’t know what to do since she was far too shy to respond in front of all the people around.,2,3,None,,,,,,0,5,5,5,,,,,0,23,23,23,,,,,,,,,,,,,,,,,,,,,,,,,,,,,,,,,,,9,3.685584689024836,,,,,,,,,,,,,,,,,,,,,,,,,,,,061419_p1,001,2019_Jun_14_1401,body_behavioural,3.0.4,59.981604842409226,
5,"Without responding to Sven, she frantically grabbed her and Sven’s shoes, leaving Sven to retrieve the rest, and she quickly walked onto the concourse.",3,3,None,,,,,,0,5,5,5,,,,,0,24,24,24,,,,,,,,,,,,,,,,,,,,,,,,,,,,,,,,,,,1,10.053781550028361,,,,,,,,,,,,,,,,,,,,,,,,,,,,061419_p1,001,2019_Jun_14_1401,body_behavioural,3.0.4,59.981604842409226,
5,"Sven, terrified, grabbed everything and hurried after Isabel onto the concourse shoeless.",3,3,None,,,,,,0,5,5,5,,,,,0,25,25,25,,,,,,,,,,,,,,,,,,,,,,,,,,,,,,,,,,,1,4.253599327988923,,,,,,,,,,,,,,,,,,,,,,,,,,,,061419_p1,001,2019_Jun_14_1401,body_behavioural,3.0.4,59.981604842409226,
5,Sven eventually caught up to her with their bags and the open ring box.,3,3,None,,,,,,0,5,5,5,,,,,0,26,26,26,,,,,,,,,,,,,,,,,,,,,,,,,,,,,,,,,,,1,3.652726939995773,,,,,,,,,,,,,,,,,,,,,,,,,,,,061419_p1,001,2019_Jun_14_1401,body_behavioural,3.0.4,59.981604842409226,
5,"She stopped and with wide, excited eyes, shouted, “Of course yes, Sven!” ",3,4,None,,,,,,0,5,5,5,,,,,0,27,27,27,,,,,,,,,,,,,,,,,,,,,,,,,,,,,,,,,,,1,3.7529208560008556,,,,,,,,,,,,,,,,,,,,,,,,,,,,061419_p1,001,2019_Jun_14_1401,body_behavioural,3.0.4,59.981604842409226,
5,"They dropped their belongings and hugged, and Sven put the ring onto Isabel’s finger. ",3,4,None,,,,,,0,5,5,5,,,,,0,28,28,28,,,,,,,,,,,,,,,,,,,,,,,,,,,,,,,,,,,1,2.286459802999161,,,,,,,,,,,,,,,,,,,,,,,,,,,,061419_p1,001,2019_Jun_14_1401,body_behavioural,3.0.4,59.981604842409226,
5,"“Isabel, you scared me!” he said. ",3,4,None,,,,,,0,5,5,5,,,,,0,29,29,29,,,,,,,,,,,,,,,,,,,,,,,,,,,,,,,,,,,1,2.0531679849955253,,,,,,,,,,,,,,,,,,,,,,,,,,,,061419_p1,001,2019_Jun_14_1401,body_behavioural,3.0.4,59.981604842409226,
5,"After getting their shoes back on, they practically floated to gate C40.",3,4,None,,,,,,0,5,5,5,,,,,0,30,30,30,,,,,,,,,,,,,,,,,,,,,,,,,,,,,,,,,,,1,2.134014425042551,,,,,,,,,,,,,,,,,,,,,,,,,,,,061419_p1,001,2019_Jun_14_1401,body_behavioural,3.0.4,59.981604842409226,
5,Sven was so happy he even high-fived a confused shoe-shine attendant as they passed.,3,4,None,,,,,,0,5,5,5,,,,,0,31,31,31,,,,,,,,,,,,,,,,,,,,,,,,,,,,,,,,,,,1,3.6865398479858413,,,,,,,,,,,,,,,,,,,,,,,,,,,,061419_p1,001,2019_Jun_14_1401,body_behavioural,3.0.4,59.981604842409226,
5,Isabel texted her best friend telling her the news as they walked. ,3,4,None,,,,,,0,5,5,5,,,,,0,32,32,32,,,,,,,,,,,,,,,,,,,,,,,,,,,,,,,,,,,1,2.3700357970083132,,,,,,,,,,,,,,,,,,,,,,,,,,,,061419_p1,001,2019_Jun_14_1401,body_behavioural,3.0.4,59.981604842409226,
5,"Having arrived at their gate, they waited, until the attendant called for passengers, and they scanned their tickets to board the plane.",4,4,None,,,,,,0,5,5,5,,,,,0,33,33,33,,,,,,,,,,,,,,,,,,,,,,,,,,,,,,,,,,,9,8.553622427978553,,,,,,,,,,,,,,,,,,,,,,,,,,,,061419_p1,001,2019_Jun_14_1401,body_behavioural,3.0.4,59.981604842409226,
5,"They walked through the connecting tunnel to the plane and sat together in first class, in seats 2A and 2B.",4,4,None,,,,,,0,5,5,5,,,,,0,34,34,34,,,,,,,,,,,,,,,,,,,,,,,,,,,,,,,,,,,1,3.8864350559888408,,,,,,,,,,,,,,,,,,,,,,,,,,,,061419_p1,001,2019_Jun_14_1401,body_behavioural,3.0.4,59.981604842409226,
5,"Some of their neighboring passengers who had witnessed the proposal at security congratulated them, and a woman next to them showed them that she had been live-tweeting the whole event and that it was already going viral online.",4,4,None,,,,,,0,5,5,5,,,,,0,35,35,35,,,,,,,,,,,,,,,,,,,,,,,,,,,,,,,,,,,1,4.969589595042635,,,,,,,,,,,,,,,,,,,,,,,,,,,,061419_p1,001,2019_Jun_14_1401,body_behavioural,3.0.4,59.981604842409226,
5,"Isabel slid down in her seat with her hands over her face, embarrassed and overjoyed at the same time.
",4,4,None,,,,,,0,5,5,5,,,,,0,36,36,36,,,,,,,,,,,,,,,,,,,,,,,,,,,,,,,,,,,1,2.387436898017768,,,,,,,,,,,,,,,,,,,,,,,,,,,,061419_p1,001,2019_Jun_14_1401,body_behavioural,3.0.4,59.981604842409226,
5,,,,,,,,,,0,5,5,5,,,,,,,,,,,,,,,,,,,,,,,,,,,,,,,,,,,,,,,,,,,,,,,,,,,,,,,,,,,,,,,,,,,,,,,,061419_p1,001,2019_Jun_14_1401,body_behavioural,3.0.4,59.981604842409226,
6,,,,,,,,,,0,6,6,6,0,0,0,0,,,,,,,,,,,,,,,,,,,,,,,,,,,,,space,4.8196221250109375,space,0.8701677800272591,space,0.769071084971074,,,,,,,,,,,,,,,,,,,,,,,,,,,,,,,,,,061419_p1,001,2019_Jun_14_1401,body_behavioural,3.0.4,59.981604842409226,
6,"Thomas, dreading the approaching breakup conversation he was about to start, got to Annika’s Finer Diner late but Sadie, his girlfriend, was not there yet.",1,1,11.0,None,None,None,None,,0,6,6,6,,,,,0,0,0,0,,,,,,,,,,,,,,,,,,,,,,,,,,,,,,,space,0.7530457899556495,space,1.0369121030089445,1,20.237571227014996,,,,,,,,,,,,,,,,,,,,,,,,,,,,061419_p1,001,2019_Jun_14_1401,body_behavioural,3.0.4,59.981604842409226,
6,Thomas had been thinking about breaking up with her for 2 months now.,1,1,None,None,None,1.0,None,,0,6,6,6,,,,,0,1,1,1,,,,,,,,,,,,,,,,,,,,,,,,,,,,,,,,,,,1,1.9191557869780809,,,,,,,,,,,,,,,,,,,,,,,,,,,,061419_p1,001,2019_Jun_14_1401,body_behavioural,3.0.4,59.981604842409226,
6,"The restaurant he had chosen to meet at was reminiscent of a diner from the 70’s; there was black and white checkerboard tiling on the floor, a long bar in the front, and booths and stools with red, leather upholstery. ",1,1,None,None,None,None,1.0,,0,6,6,6,,,,,0,2,2,2,,,,,,,,,,,,,,,,,,,,,,,,,,,,,,,,,,,9,4.136046641971916,,,,,,,,,,,,,,,,,,,,,,,,,,,,061419_p1,001,2019_Jun_14_1401,body_behavioural,3.0.4,59.981604842409226,
6,"A bell chimed as the door swung open, and Sadie entered to find Thomas ruminating at the bar.",1,1,None,None,None,None,None,,0,6,6,6,,,,,0,3,3,3,,,,,,,,,,,,,,,,,,,,,,,,,,,,,,,,,,,9,13.036061897000764,,,,,,,,,,,,,,,,,,,,,,,,,,,,061419_p1,001,2019_Jun_14_1401,body_behavioural,3.0.4,59.981604842409226,
6,"He stood up and gave her a side hug, asking quickly, “How was your day?”",1,1,None,None,None,None,None,,0,6,6,6,,,,,0,4,4,4,,,,,,,,,,,,,,,,,,,,,,,,,,,,,,,,,,,1,1.6338191700051539,,,,,,,,,,,,,,,,,,,,,,,,,,,,061419_p1,001,2019_Jun_14_1401,body_behavioural,3.0.4,59.981604842409226,
6,"She clung onto him, “It was okay- I missed you today.”",1,1,None,None,None,None,None,,0,6,6,6,,,,,0,5,5,5,,,,,,,,,,,,,,,,,,,,,,,,,,,,,,,,,,,1,3.3041565180174075,,,,,,,,,,,,,,,,,,,,,,,,,,,,061419_p1,001,2019_Jun_14_1401,body_behavioural,3.0.4,59.981604842409226,
6,"He looked away and addressed the hostess coming towards them, “Can we have a booth in the back?”",1,1,None,None,None,None,None,,0,6,6,6,,,,,0,6,6,6,,,,,,,,,,,,,,,,,,,,,,,,,,,,,,,,,,,1,2.119816018966958,,,,,,,,,,,,,,,,,,,,,,,,,,,,061419_p1,001,2019_Jun_14_1401,body_behavioural,3.0.4,59.981604842409226,
6,"She shrugged and after loudly popping her bubblegum replied, “Sure, honey.”",1,1,None,9.0,None,None,None,,0,6,6,6,,,,,0,7,7,7,,,,,,,,,,,,,,,,,,,,,,,,,,,,,,,,,,,1,2.769369896966964,,,,,,,,,,,,,,,,,,,,,,,,,,,,061419_p1,001,2019_Jun_14_1401,body_behavioural,3.0.4,59.981604842409226,
6,She seated them at a booth in the back corner of the diner.  ,2,1,None,None,None,None,None,,0,6,6,6,,,,,0,8,8,8,,,,,,,,,,,,,,,,,,,,,,,,,,,,,,,,,,,1,2.1507664149976335,,,,,,,,,,,,,,,,,,,,,,,,,,,,061419_p1,001,2019_Jun_14_1401,body_behavioural,3.0.4,59.981604842409226,
6,Sadie slipped into the cushioned seat and grabbed Thomas’ hand.,2,1,None,None,None,None,None,,0,6,6,6,,,,,0,9,9,9,,,,,,,,,,,,,,,,,,,,,,,,,,,,,,,,,,,1,2.4704804979846813,,,,,,,,,,,,,,,,,,,,,,,,,,,,061419_p1,001,2019_Jun_14_1401,body_behavioural,3.0.4,59.981604842409226,
6,“Tell me about your day!” she sang.,2,1,None,None,None,None,None,,0,6,6,6,,,,,0,10,10,10,,,,,,,,,,,,,,,,,,,,,,,,,,,,,,,,,,,1,0.9372823600424454,,,,,,,,,,,,,,,,,,,,,,,,,,,,061419_p1,001,2019_Jun_14_1401,body_behavioural,3.0.4,59.981604842409226,
6,He looked at her silently and pulled his hand slowly from hers as a puzzled look grew on Sadie’s face. ,2,1,None,None,None,None,None,,0,6,6,6,,,,,0,11,11,11,,,,,,,,,,,,,,,,,,,,,,,,,,,,,,,,,,,9,11.170473200036213,,,,,,,,,,,,,,,,,,,,,,,,,,,,061419_p1,001,2019_Jun_14_1401,body_behavioural,3.0.4,59.981604842409226,
6,Thomas looked away and took a deep breath. ,2,1,None,None,None,None,None,,0,6,6,6,,,,,0,12,12,12,,,,,,,,,,,,,,,,,,,,,,,,,,,,,,,,,,,1,2.5009013439994305,,,,,,,,,,,,,,,,,,,,,,,,,,,,061419_p1,001,2019_Jun_14_1401,body_behavioural,3.0.4,59.981604842409226,
6,"Sadie asked, “What’s wrong?” ",2,1,None,None,None,None,None,,0,6,6,6,,,,,0,13,13,13,,,,,,,,,,,,,,,,,,,,,,,,,,,,,,,,,,,1,0.7197512650163844,,,,,,,,,,,,,,,,,,,,,,,,,,,,061419_p1,001,2019_Jun_14_1401,body_behavioural,3.0.4,59.981604842409226,
6,Thomas picked at his fingernails.,2,1,None,None,22.0,None,None,,0,6,6,6,,,,,0,14,14,14,,,,,,,,,,,,,,,,,,,,,,,,,,,,,,,,,,,1,4.6510006680036895,,,,,,,,,,,,,,,,,,,,,,,,,,,,061419_p1,001,2019_Jun_14_1401,body_behavioural,3.0.4,59.981604842409226,
6,"After a few moments, Thomas let out a deep breath and said, “Sadie, I’ve been thinking, and I need a break from this relationship because I need to figure out my career path on my own.”",2,2,None,None,None,None,None,,0,6,6,6,,,,,0,15,15,15,,,,,,,,,,,,,,,,,,,,,,,,,,,,,,,,,,,1,4.686959337966982,,,,,,,,,,,,,,,,,,,,,,,,,,,,061419_p1,001,2019_Jun_14_1401,body_behavioural,3.0.4,59.981604842409226,
6,Sadie sat back in her seat.,2,2,None,None,None,None,None,,0,6,6,6,,,,,0,16,16,16,,,,,,,,,,,,,,,,,,,,,,,,,,,,,,,,,,,1,0.8035661099711433,,,,,,,,,,,,,,,,,,,,,,,,,,,,061419_p1,001,2019_Jun_14_1401,body_behavioural,3.0.4,59.981604842409226,
6,"Thomas continued, “Things have been really picking up at work, and I’m not sure that this is the job I want to do anymore.",2,2,None,None,None,None,None,,0,6,6,6,,,,,0,17,17,17,,,,,,,,,,,,,,,,,,,,,,,,,,,,,,,,,,,1,4.686828689009417,,,,,,,,,,,,,,,,,,,,,,,,,,,,061419_p1,001,2019_Jun_14_1401,body_behavioural,3.0.4,59.981604842409226,
6,"Plus, it’s been really overwhelming between working and figuring out if I should change careers, and I really feel like I need more time to figure it out.” ",2,2,None,17.0,None,None,None,,0,6,6,6,,,,,0,18,18,18,,,,,,,,,,,,,,,,,,,,,,,,,,,,,,,,,,,1,3.9698710249504074,,,,,,,,,,,,,,,,,,,,,,,,,,,,061419_p1,001,2019_Jun_14_1401,body_behavioural,3.0.4,59.981604842409226,
6,"The waiter appeared and cheerily asked, “Have you decided what you would like?”",3,2,None,None,None,None,None,,0,6,6,6,,,,,0,19,19,19,,,,,,,,,,,,,,,,,,,,,,,,,,,,,,,,,,,1,2.4698225549655035,,,,,,,,,,,,,,,,,,,,,,,,,,,,061419_p1,001,2019_Jun_14_1401,body_behavioural,3.0.4,59.981604842409226,
6,"Thomas and Sadie realized there were menus on the table, and they glanced at them quickly.",3,2,None,None,None,None,None,,0,6,6,6,,,,,0,20,20,20,,,,,,,,,,,,,,,,,,,,,,,,,,,,,,,,,,,1,5.9034055719967,,,,,,,,,,,,,,,,,,,,,,,,,,,,061419_p1,001,2019_Jun_14_1401,body_behavioural,3.0.4,59.981604842409226,
6,"The menus were laminated posters with silly names for all the foods, and since they didn’t want to read through each item description, they settled on familiar orders.",3,2,None,None,None,None,None,,0,6,6,6,,,,,0,21,21,21,,,,,,,,,,,,,,,,,,,,,,,,,,,,,,,,,,,1,5.470620589971077,,,,,,,,,,,,,,,,,,,,,,,,,,,,061419_p1,001,2019_Jun_14_1401,body_behavioural,3.0.4,59.981604842409226,
6,"“I’ll have a burger, no tomatoes,” Thomas said.",3,2,None,None,None,None,None,,0,6,6,6,,,,,0,22,22,22,,,,,,,,,,,,,,,,,,,,,,,,,,,,,,,,,,,1,1.6706972329993732,,,,,,,,,,,,,,,,,,,,,,,,,,,,061419_p1,001,2019_Jun_14_1401,body_behavioural,3.0.4,59.981604842409226,
6,"Sadie asked about the reuben, and the waiter told her it was excellent.",3,2,None,None,None,None,None,,0,6,6,6,,,,,0,23,23,23,,,,,,,,,,,,,,,,,,,,,,,,,,,,,,,,,,,1,5.919822137977462,,,,,,,,,,,,,,,,,,,,,,,,,,,,061419_p1,001,2019_Jun_14_1401,body_behavioural,3.0.4,59.981604842409226,
6,"Confirming that that was all they’d like, the waiter walked away. ",3,2,None,None,None,None,None,,0,6,6,6,,,,,0,24,24,24,,,,,,,,,,,,,,,,,,,,,,,,,,,,,,,,,,,1,1.9174487839918584,,,,,,,,,,,,,,,,,,,,,,,,,,,,061419_p1,001,2019_Jun_14_1401,body_behavioural,3.0.4,59.981604842409226,
6,Sadie- not so quietly- burst into tears. ,3,3,None,None,None,None,None,,0,6,6,6,,,,,0,25,25,25,,,,,,,,,,,,,,,,,,,,,,,,,,,,,,,,,,,9,1.3365660330164246,,,,,,,,,,,,,,,,,,,,,,,,,,,,061419_p1,001,2019_Jun_14_1401,body_behavioural,3.0.4,59.981604842409226,
6,People sitting at the bar looked over and quickly averted their gaze when they figured what was happening. ,3,3,None,None,None,None,None,,0,6,6,6,,,,,0,26,26,26,,,,,,,,,,,,,,,,,,,,,,,,,,,,,,,,,,,1,4.653747588978149,,,,,,,,,,,,,,,,,,,,,,,,,,,,061419_p1,001,2019_Jun_14_1401,body_behavioural,3.0.4,59.981604842409226,
6,"She whispered, “Is this really what you want?",3,3,None,None,None,None,None,,0,6,6,6,,,,,0,27,27,27,,,,,,,,,,,,,,,,,,,,,,,,,,,,,,,,,,,1,1.1200768810231239,,,,,,,,,,,,,,,,,,,,,,,,,,,,061419_p1,001,2019_Jun_14_1401,body_behavioural,3.0.4,59.981604842409226,
6,"I don’t understand- things were fine, I thought. ",3,3,None,None,None,None,None,,0,6,6,6,,,,,0,28,28,28,,,,,,,,,,,,,,,,,,,,,,,,,,,,,,,,,,,1,1.5364742079982534,,,,,,,,,,,,,,,,,,,,,,,,,,,,061419_p1,001,2019_Jun_14_1401,body_behavioural,3.0.4,59.981604842409226,
6,I think we should stay together because we can change how much we hang out. ,3,3,None,None,None,None,None,,0,6,6,6,,,,,0,29,29,29,,,,,,,,,,,,,,,,,,,,,,,,,,,,,,,,,,,1,4.003047681006137,,,,,,,,,,,,,,,,,,,,,,,,,,,,061419_p1,001,2019_Jun_14_1401,body_behavioural,3.0.4,59.981604842409226,
6,"We don’t have to hang out all the time, or as much as we do now.”",3,3,None,None,None,None,None,,0,6,6,6,,,,,0,30,30,30,,,,,,,,,,,,,,,,,,,,,,,,,,,,,,,,,,,1,2.286274585989304,,,,,,,,,,,,,,,,,,,,,,,,,,,,061419_p1,001,2019_Jun_14_1401,body_behavioural,3.0.4,59.981604842409226,
6,Thomas chewed on his bottom lip and picked at his now bleeding hangnail. ,3,3,None,20.0,None,None,None,,0,6,6,6,,,,,0,31,31,31,,,,,,,,,,,,,,,,,,,,,,,,,,,,,,,,,,,1,2.5199158279574476,,,,,,,,,,,,,,,,,,,,,,,,,,,,061419_p1,001,2019_Jun_14_1401,body_behavioural,3.0.4,59.981604842409226,
6,The waiter appeared with the burger and reuben and set them in front of them.,4,3,None,None,None,None,None,,0,6,6,6,,,,,0,32,32,32,,,,,,,,,,,,,,,,,,,,,,,,,,,,,,,,,,,1,4.437460507964715,,,,,,,,,,,,,,,,,,,,,,,,,,,,061419_p1,001,2019_Jun_14_1401,body_behavioural,3.0.4,59.981604842409226,
6,“Is there anything else I can get for you two?,4,3,None,None,None,None,None,,0,6,6,6,,,,,0,33,33,33,,,,,,,,,,,,,,,,,,,,,,,,,,,,,,,,,,,9,4.0700356920133345,,,,,,,,,,,,,,,,,,,,,,,,,,,,061419_p1,001,2019_Jun_14_1401,body_behavioural,3.0.4,59.981604842409226,
6,Will you be getting dessert tonight?” he asked.,4,3,None,None,None,None,None,,0,6,6,6,,,,,0,34,34,34,,,,,,,,,,,,,,,,,,,,,,,,,,,,,,,,,,,1,3.4033341969479807,,,,,,,,,,,,,,,,,,,,,,,,,,,,061419_p1,001,2019_Jun_14_1401,body_behavioural,3.0.4,59.981604842409226,
6,"“Oh no, we’re good, thanks,” Thomas said blankly.",4,3,None,None,None,None,None,,0,6,6,6,,,,,0,35,35,35,,,,,,,,,,,,,,,,,,,,,,,,,,,,,,,,,,,9,5.370048375043552,,,,,,,,,,,,,,,,,,,,,,,,,,,,061419_p1,001,2019_Jun_14_1401,body_behavioural,3.0.4,59.981604842409226,
6," With the waiter gone, Sadie suddenly stood up, grabbed half of the reuben, and shook it at him as she growled, “Don’t follow me, and don’t talk to me anymore!",4,4,None,None,None,None,None,,0,6,6,6,,,,,0,36,36,36,,,,,,,,,,,,,,,,,,,,,,,,,,,,,,,,,,,1,4.519591593008954,,,,,,,,,,,,,,,,,,,,,,,,,,,,061419_p1,001,2019_Jun_14_1401,body_behavioural,3.0.4,59.981604842409226,
6,"Also, I want my polaroid camera and Beatles poster back!”",4,4,None,None,None,None,None,,0,6,6,6,,,,,0,37,37,37,,,,,,,,,,,,,,,,,,,,,,,,,,,,,,,,,,,1,2.11977188201854,,,,,,,,,,,,,,,,,,,,,,,,,,,,061419_p1,001,2019_Jun_14_1401,body_behavioural,3.0.4,59.981604842409226,
6,"She stormed off, and the bell above the door jingled cheerfully as the door closed behind her.",4,4,None,None,None,None,None,,0,6,6,6,,,,,0,38,38,38,,,,,,,,,,,,,,,,,,,,,,,,,,,,,,,,,,,1,1.919797760026995,,,,,,,,,,,,,,,,,,,,,,,,,,,,061419_p1,001,2019_Jun_14_1401,body_behavioural,3.0.4,59.981604842409226,
6,Thomas sat there for awhile surprised at how quickly everything had transpired. ,4,4,None,None,None,None,None,,0,6,6,6,,,,,0,39,39,39,,,,,,,,,,,,,,,,,,,,,,,,,,,,,,,,,,,1,5.703368704998866,,,,,,,,,,,,,,,,,,,,,,,,,,,,061419_p1,001,2019_Jun_14_1401,body_behavioural,3.0.4,59.981604842409226,
6,"He grabbed his burger and took a bite of it, creating a dry and fishy taste in his mouth.",4,4,None,None,None,None,None,,0,6,6,6,,,,,0,40,40,40,,,,,,,,,,,,,,,,,,,,,,,,,,,,,,,,,,,1,2.8362006829702295,,,,,,,,,,,,,,,,,,,,,,,,,,,,061419_p1,001,2019_Jun_14_1401,body_behavioural,3.0.4,59.981604842409226,
6,He dropped it back on his plate and wondered if the restaurant was responsible for the foul taste. ,4,4,None,13.0,5.0,None,None,,0,6,6,6,,,,,0,41,41,41,,,,,,,,,,,,,,,,,,,,,,,,,,,,,,,,,,,1,2.652793238987215,,,,,,,,,,,,,,,,,,,,,,,,,,,,061419_p1,001,2019_Jun_14_1401,body_behavioural,3.0.4,59.981604842409226,
6,,,,,,,,,,0,6,6,6,,,,,,,,,,,,,,,,,,,,,,,,,,,,,,,,,,,,,,,,,,,,,,,,,,,,,,,,,,,,,,,,,,,,,,,,061419_p1,001,2019_Jun_14_1401,body_behavioural,3.0.4,59.981604842409226,
7,,,,,,,,,,0,7,7,7,0,0,0,0,,,,,,,,,,,,,,,,,,,,,,,,,,,,,space,1.3368080100044608,space,0.569573970977217,space,0.5692608240060508,,,,,,,,,,,,,,,,,,,,,,,,,,,,,,,,,,061419_p1,001,2019_Jun_14_1401,body_behavioural,3.0.4,59.981604842409226,
7,"Lana walked into lecture holding hands with her boyfriend, Aaron, who was trying to contain his excitement about proposing to Lana in this class.",1,1,24.0,,,,,,0,7,7,7,,,,,0,0,0,0,,,,,,,,,,,,,,,,,,,,,,,,,,,,,,,space,0.6531607749639079,space,2.4029188550193794,1,17.371374722977635,,,,,,,,,,,,,,,,,,,,,,,,,,,,061419_p1,001,2019_Jun_14_1401,body_behavioural,3.0.4,59.981604842409226,
7,"Lana was lost in thought, puzzling over an integral on her problem set for another class.",1,1,None,,,,,,0,7,7,7,,,,,0,1,1,1,,,,,,,,,,,,,,,,,,,,,,,,,,,,,,,,,,,9,6.134353807021398,,,,,,,,,,,,,,,,,,,,,,,,,,,,061419_p1,001,2019_Jun_14_1401,body_behavioural,3.0.4,59.981604842409226,
7,"The lecture hall they had entered was the fanciest one at Princeton, with chandeliers, high ceilings, wood floors, and a large projector screen where chalkboards used to be. ",1,1,None,,,,,,0,7,7,7,,,,,0,2,2,2,,,,,,,,,,,,,,,,,,,,,,,,,,,,,,,,,,,9,8.91981620999286,,,,,,,,,,,,,,,,,,,,,,,,,,,,061419_p1,001,2019_Jun_14_1401,body_behavioural,3.0.4,59.981604842409226,
7,Aaron and Lana had met when they first started dating three years ago in freshman year.,1,1,None,,,,,,0,7,7,7,,,,,0,3,3,3,,,,,,,,,,,,,,,,,,,,,,,,,,,,,,,,,,,9,4.3533115679747425,,,,,,,,,,,,,,,,,,,,,,,,,,,,061419_p1,001,2019_Jun_14_1401,body_behavioural,3.0.4,59.981604842409226,
7,They coincidentally had another class together in this same lecture hall. ,1,1,None,,,,,,0,7,7,7,,,,,0,4,4,4,,,,,,,,,,,,,,,,,,,,,,,,,,,,,,,,,,,1,2.8863329829764552,,,,,,,,,,,,,,,,,,,,,,,,,,,,061419_p1,001,2019_Jun_14_1401,body_behavioural,3.0.4,59.981604842409226,
7,The professor caught Aaron's eye as he walked up to the front of the classroom and gave him a wink before the lecture began. ,1,1,None,,,,,,0,7,7,7,,,,,0,5,5,5,,,,,,,,,,,,,,,,,,,,,,,,,,,,,,,,,,,1,4.953165898041334,,,,,,,,,,,,,,,,,,,,,,,,,,,,061419_p1,001,2019_Jun_14_1401,body_behavioural,3.0.4,59.981604842409226,
7,Aaron flashed him a half-smile and nodded. ,1,1,None,,,,,,0,7,7,7,,,,,0,6,6,6,,,,,,,,,,,,,,,,,,,,,,,,,,,,,,,,,,,1,2.8008563879993744,,,,,,,,,,,,,,,,,,,,,,,,,,,,061419_p1,001,2019_Jun_14_1401,body_behavioural,3.0.4,59.981604842409226,
7,"The professor cleared his throat and said,“Alright, good afternoon, everyone!",2,1,None,,,,,,0,7,7,7,,,,,0,7,7,7,,,,,,,,,,,,,,,,,,,,,,,,,,,,,,,,,,,1,1.4167311020428315,,,,,,,,,,,,,,,,,,,,,,,,,,,,061419_p1,001,2019_Jun_14_1401,body_behavioural,3.0.4,59.981604842409226,
7,Welcome to another week of Introduction to Chemistry,2,1,None,,,,,,0,7,7,7,,,,,0,8,8,8,,,,,,,,,,,,,,,,,,,,,,,,,,,,,,,,,,,9,5.10337096801959,,,,,,,,,,,,,,,,,,,,,,,,,,,,061419_p1,001,2019_Jun_14_1401,body_behavioural,3.0.4,59.981604842409226,
7,This week the topic is ions.,2,1,None,,,,,,0,7,7,7,,,,,0,9,9,9,,,,,,,,,,,,,,,,,,,,,,,,,,,,,,,,,,,1,1.2838273629895411,,,,,,,,,,,,,,,,,,,,,,,,,,,,061419_p1,001,2019_Jun_14_1401,body_behavioural,3.0.4,59.981604842409226,
7,"Now, let me get my computer set up, one moment, class.”",2,1,None,,,,,,0,7,7,7,,,,,0,10,10,10,,,,,,,,,,,,,,,,,,,,,,,,,,,,,,,,,,,1,2.119830798008479,,,,,,,,,,,,,,,,,,,,,,,,,,,,061419_p1,001,2019_Jun_14_1401,body_behavioural,3.0.4,59.981604842409226,
7,Lana pulled out the problem set she was thinking about as Aaron unzipped the small pocket in his backpack and pulled out the ring.,2,2,None,,,,,,0,7,7,7,,,,,0,11,11,11,,,,,,,,,,,,,,,,,,,,,,,,,,,,,,,,,,,1,9.05106451496249,,,,,,,,,,,,,,,,,,,,,,,,,,,,061419_p1,001,2019_Jun_14_1401,body_behavioural,3.0.4,59.981604842409226,
7,"Turning away from her, he looked it over yet again. ",2,2,None,,,,,,0,7,7,7,,,,,0,12,12,12,,,,,,,,,,,,,,,,,,,,,,,,,,,,,,,,,,,1,5.787449155002832,,,,,,,,,,,,,,,,,,,,,,,,,,,,061419_p1,001,2019_Jun_14_1401,body_behavioural,3.0.4,59.981604842409226,
7,"Instead of one large diamond, there were 5 red diamonds embedded in a thick band. ",2,2,None,,,,,,0,7,7,7,,,,,0,13,13,13,,,,,,,,,,,,,,,,,,,,,,,,,,,,,,,,,,,1,4.20334902999457,,,,,,,,,,,,,,,,,,,,,,,,,,,,061419_p1,001,2019_Jun_14_1401,body_behavioural,3.0.4,59.981604842409226,
7,He knew Lana would like this because her style was more avant-garde than traditional.,2,2,None,,,,,,0,7,7,7,,,,,0,14,14,14,,,,,,,,,,,,,,,,,,,,,,,,,,,,,,,,,,,1,7.301131454994902,,,,,,,,,,,,,,,,,,,,,,,,,,,,061419_p1,001,2019_Jun_14_1401,body_behavioural,3.0.4,59.981604842409226,
7,"The professor said, “Remember, class, that the number of protons determines the identity of the element. ",3,2,None,,,,,,0,7,7,7,,,,,0,15,15,15,,,,,,,,,,,,,,,,,,,,,,,,,,,,,,,,,,,9,4.286120484990533,,,,,,,,,,,,,,,,,,,,,,,,,,,,061419_p1,001,2019_Jun_14_1401,body_behavioural,3.0.4,59.981604842409226,
7,"So for example, all atoms of sodium have 11 protons in the nucleus. ",3,2,None,,,,,,0,7,7,7,,,,,0,16,16,16,,,,,,,,,,,,,,,,,,,,,,,,,,,,,,,,,,,1,4.120186979009304,,,,,,,,,,,,,,,,,,,,,,,,,,,,061419_p1,001,2019_Jun_14_1401,body_behavioural,3.0.4,59.981604842409226,
7,"And if you look on the periodic table, the atomic number for sodium, the symbol is Na, is eleven.",3,2,None,,,,,,0,7,7,7,,,,,0,17,17,17,,,,,,,,,,,,,,,,,,,,,,,,,,,,,,,,,,,1,1.3196101899957284,,,,,,,,,,,,,,,,,,,,,,,,,,,,061419_p1,001,2019_Jun_14_1401,body_behavioural,3.0.4,59.981604842409226,
7,"An ion retains the same number of protons despite losing electrons, and therefore keeps the same identity in the periodic table. ",3,2,None,,,,,,0,7,7,7,,,,,0,18,18,18,,,,,,,,,,,,,,,,,,,,,,,,,,,,,,,,,,,1,1.5535222129547037,,,,,,,,,,,,,,,,,,,,,,,,,,,,061419_p1,001,2019_Jun_14_1401,body_behavioural,3.0.4,59.981604842409226,
7,Lana and Aaron tried to take notes during the lecture.,3,2,None,,,,,,0,7,7,7,,,,,0,19,19,19,,,,,,,,,,,,,,,,,,,,,,,,,,,,,,,,,,,9,1.8032398450304754,,,,,,,,,,,,,,,,,,,,,,,,,,,,061419_p1,001,2019_Jun_14_1401,body_behavioural,3.0.4,59.981604842409226,
7,"Right after talking about how two ions bond into one stable molecule by covalent bonds, the professor stopped the lecture, gave another wink to Aaron, and asked Lana to come to the front of the class to do a demonstration. ",3,3,None,,,,,,0,7,7,7,,,,,0,20,20,20,,,,,,,,,,,,,,,,,,,,,,,,,,,,,,,,,,,1,7.603062234004028,,,,,,,,,,,,,,,,,,,,,,,,,,,,061419_p1,001,2019_Jun_14_1401,body_behavioural,3.0.4,59.981604842409226,
7,"She walked to the front of the class confused, and the professor asked her to stand in the middle of the stage.",3,3,None,,,,,,0,7,7,7,,,,,0,21,21,21,,,,,,,,,,,,,,,,,,,,,,,,,,,,,,,,,,,1,2.4198344569886103,,,,,,,,,,,,,,,,,,,,,,,,,,,,061419_p1,001,2019_Jun_14_1401,body_behavioural,3.0.4,59.981604842409226,
7,"Then Aaron walked up and, taking Lana’s hand, got down on one knee. ",3,3,None,,,,,,0,7,7,7,,,,,0,22,22,22,,,,,,,,,,,,,,,,,,,,,,,,,,,,,,,,,,,1,1.5696527790278196,,,,,,,,,,,,,,,,,,,,,,,,,,,,061419_p1,001,2019_Jun_14_1401,body_behavioural,3.0.4,59.981604842409226,
7,The professor quickly switched to the last slide on the powerpoint which was a photo collage Aaron had sent him of pictures of Aaron and Lana. ,3,3,None,,,,,,0,7,7,7,,,,,0,23,23,23,,,,,,,,,,,,,,,,,,,,,,,,,,,,,,,,,,,1,3.4035924350027926,,,,,,,,,,,,,,,,,,,,,,,,,,,,061419_p1,001,2019_Jun_14_1401,body_behavioural,3.0.4,59.981604842409226,
7,"“It's time for us to make a bond of our own, Lana.”",3,3,None,,,,,,0,7,7,7,,,,,0,24,24,24,,,,,,,,,,,,,,,,,,,,,,,,,,,,,,,,,,,1,2.519916914985515,,,,,,,,,,,,,,,,,,,,,,,,,,,,061419_p1,001,2019_Jun_14_1401,body_behavioural,3.0.4,59.981604842409226,
7,He opened the small notebook he had in his hand and the ring was sitting on the page. ,3,3,None,,,,,,0,7,7,7,,,,,0,25,25,25,,,,,,,,,,,,,,,,,,,,,,,,,,,,,,,,,,,1,2.769894214987289,,,,,,,,,,,,,,,,,,,,,,,,,,,,061419_p1,001,2019_Jun_14_1401,body_behavioural,3.0.4,59.981604842409226,
7,“Will you marry me?” ,3,3,None,,,,,,0,7,7,7,,,,,0,26,26,26,,,,,,,,,,,,,,,,,,,,,,,,,,,,,,,,,,,1,0.7701054869685322,,,,,,,,,,,,,,,,,,,,,,,,,,,,061419_p1,001,2019_Jun_14_1401,body_behavioural,3.0.4,59.981604842409226,
7,"Lana had put her hand over her mouth and tears were streaming down her face, but finally, she said, “Yes!”",3,4,None,,,,,,0,7,7,7,,,,,0,27,27,27,,,,,,,,,,,,,,,,,,,,,,,,,,,,,,,,,,,1,2.7367740269983187,,,,,,,,,,,,,,,,,,,,,,,,,,,,061419_p1,001,2019_Jun_14_1401,body_behavioural,3.0.4,59.981604842409226,
7,"Aaron put the ring on her finger, and they hugged while the whole class applauded and cheered. ",3,4,None,,,,,,0,7,7,7,,,,,0,28,28,28,,,,,,,,,,,,,,,,,,,,,,,,,,,,,,,,,,,1,6.520075705018826,,,,,,,,,,,,,,,,,,,,,,,,,,,,061419_p1,001,2019_Jun_14_1401,body_behavioural,3.0.4,59.981604842409226,
7,Their friends who had been secretly waiting outside came into the class and hugged both of them.,3,4,None,,,,,,0,7,7,7,,,,,0,29,29,29,,,,,,,,,,,,,,,,,,,,,,,,,,,,,,,,,,,1,2.2865714550134726,,,,,,,,,,,,,,,,,,,,,,,,,,,,061419_p1,001,2019_Jun_14_1401,body_behavioural,3.0.4,59.981604842409226,
7,The professor gave Aaron a celebratory handshake.,3,4,None,,,,,,0,7,7,7,,,,,0,30,30,30,,,,,,,,,,,,,,,,,,,,,,,,,,,,,,,,,,,1,1.4032484050258063,,,,,,,,,,,,,,,,,,,,,,,,,,,,061419_p1,001,2019_Jun_14_1401,body_behavioural,3.0.4,59.981604842409226,
7,"They made their way back to their seats, and Lana pulled out her phone to text her sister",3,4,None,,,,,,0,7,7,7,,,,,0,31,31,31,,,,,,,,,,,,,,,,,,,,,,,,,,,,,,,,,,,1,1.8030419969581999,,,,,,,,,,,,,,,,,,,,,,,,,,,,061419_p1,001,2019_Jun_14_1401,body_behavioural,3.0.4,59.981604842409226,
7,"The professor dismissed the class, saying, “That was enough excitement for today!",4,4,None,,,,,,0,7,7,7,,,,,0,32,32,32,,,,,,,,,,,,,,,,,,,,,,,,,,,,,,,,,,,1,1.4005837430013344,,,,,,,,,,,,,,,,,,,,,,,,,,,,061419_p1,001,2019_Jun_14_1401,body_behavioural,3.0.4,59.981604842409226,
7,Don’t forget there’s a midterm exam next week on Monday on the material covered in the first 4 weeks of the semester.,4,4,None,,,,,,0,7,7,7,,,,,0,33,33,33,,,,,,,,,,,,,,,,,,,,,,,,,,,,,,,,,,,9,3.969901735021267,,,,,,,,,,,,,,,,,,,,,,,,,,,,061419_p1,001,2019_Jun_14_1401,body_behavioural,3.0.4,59.981604842409226,
7,"As everyone was packing up their notebooks and leaving, Lana and Aaron were surrounded by their friends eager to get a glimpse of the ring and congratulate them. ",4,4,None,,,,,,0,7,7,7,,,,,0,34,34,34,,,,,,,,,,,,,,,,,,,,,,,,,,,,,,,,,,,9,2.8031284250319004,,,,,,,,,,,,,,,,,,,,,,,,,,,,061419_p1,001,2019_Jun_14_1401,body_behavioural,3.0.4,59.981604842409226,
7,,,,,,,,,,0,7,7,7,,,,,,,,,,,,,,,,,,,,,,,,,,,,,,,,,,,,,,,,,,,,,,,,,,,,,,,,,,,,,,,,,,,,,,,,061419_p1,001,2019_Jun_14_1401,body_behavioural,3.0.4,59.981604842409226,
,,,,,,,,,,,,,,,,,,,,,,,,,,,,,,,,,,,,,,,,,,,,,,,,,,,,,,,,,,1704.0687997920322,space,3.18645756499609,,,,,,,,,,,,,,,,,,,,,,,,,061419_p1,001,2019_Jun_14_1401,body_behavioural,3.0.4,59.981604842409226,
,,,,,,,,,"In this next part of the experiment, please recall each story to the best of your ability.",,,,,,,,,,,,,0,0,0,0,,,,,,,,,,,,,,,,,,,,,,,,,,,,,,,,,,,,space,4.820000929990783,,,,,,,,,,,,,,,,,,,,,,,061419_p1,001,2019_Jun_14_1401,body_behavioural,3.0.4,59.981604842409226,
,,,,,,,,,"You will be presented with the story title, names, the images, and a blank text box for each story.",,,,,,,,,,,,,0,1,1,1,,,,,,,,,,,,,,,,,,,,,,,,,,,,,,,,,,,,space,3.5863740209606476,,,,,,,,,,,,,,,,,,,,,,,061419_p1,001,2019_Jun_14_1401,body_behavioural,3.0.4,59.981604842409226,
,,,,,,,,,Describe the story indicated with as many details as you can remember in the space provided. ,,,,,,,,,,,,,0,2,2,2,,,,,,,,,,,,,,,,,,,,,,,,,,,,,,,,,,,,space,1.5340616350295022,,,,,,,,,,,,,,,,,,,,,,,061419_p1,001,2019_Jun_14_1401,body_behavioural,3.0.4,59.981604842409226,
,,,,,,,,,"When you are finished recalling one story, to move onto the next one, press the ‘return’ key. ",,,,,,,,,,,,,0,3,3,3,,,,,,,,,,,,,,,,,,,,,,,,,,,,,,,,,,,,space,2.4507473399862647,,,,,,,,,,,,,,,,,,,,,,,061419_p1,001,2019_Jun_14_1401,body_behavioural,3.0.4,59.981604842409226,
,,,,,,,,,There is a 5 minute time limit to make your response. ,,,,,,,,,,,,,0,4,4,4,,,,,,,,,,,,,,,,,,,,,,,,,,,,,,,,,,,,space,1.2865346129983664,,,,,,,,,,,,,,,,,,,,,,,061419_p1,001,2019_Jun_14_1401,body_behavioural,3.0.4,59.981604842409226,
,,,,,,,,,Please note that you will not be able to capitalize any letters except for the first letter of your answer. This will not effect the scoring of your recall answer.,,,,,,,,,,,,,0,5,5,5,,,,,,,,,,,,,,,,,,,,,,,,,,,,,,,,,,,,space,6.320047347981017,,,,,,,,,,,,,,,,,,,,,,,061419_p1,001,2019_Jun_14_1401,body_behavioural,3.0.4,59.981604842409226,
0,,,,,,,,,,,,,,,,,,,,,,,,,,0,0,0,0,,,,,,,,,,,,,,,,,,,,,,,,,,,,,,,,,,space,1.286757275054697,"David was at the airport super early for his flight. like an hour. anna was running late for her flight. her shoes were untied so she bent over to tie them and someone with luggage almost hit her. david, looking at anna, pushed her out the way of the luggage and started flirting with her. she says she has to go to her gate and david walks her there. they go through security and undress and redress. then they get to anna's gate and she gets on the plane. before she gets on the plane she gives david her business card. she says she is going to return next tuesday or sometime soon and david asks her out on a date. she hugs a plastic blanket on the flight.",,,,,,,,,,,,,,,,,,,,061419_p1,001,2019_Jun_14_1401,body_behavioural,3.0.4,59.981604842409226,
1,,,,,,,,,,,,,,,,,,,,,,,,,,0,1,1,1,,,,,,,,,,,,,,,,,,,,,,,,,,,,,,,,,,space,1.2032322080340236,Leon and ariana are in an introduction to egypt class. the professor is talking about the process of embalming bodies and how long it took. leon sees ariana and swears that he knows her. he puts a sticky note on her desk to get her attention and ask her out. ariana sees the sticky note and agrees to go on the walk with him. class is over and she has to go to her next class. she runs to her next class and leon still does not know where he knows her from.,,,,,,,,,,,,,,,,,,,,061419_p1,001,2019_Jun_14_1401,body_behavioural,3.0.4,59.981604842409226,
2,,,,,,,,,,,,,,,,,,,,,,,,,,0,2,2,2,,,,,,,,,,,,,,,,,,,,,,,,,,,,,,,,,,space,1.1190610940102488,"Mr shelton is the ceo of a big airplane company. mr. gordon is the ceo of a new smaller airplane company. the ceos decide to go to lunch/dinner to discuss business. mr shelton tells mr. gordon that mr. shelton's company wants to buy out mr. gordon. mr. gordon, initially does not think that is a good idea and gives some pushback. they negotiate and mr. gordon finally agrees to sell his company to mr.shelton's company. mr. shelton feels that mr. gordon's company cant get to the international level without mr. shelton's company . mr. gordon wants to have the final say in what his company does. they agree to that condition and they have some dry steak and celebrate.",,,,,,,,,,,,,,,,,,,,061419_p1,001,2019_Jun_14_1401,body_behavioural,3.0.4,59.981604842409226,
3,,,,,,,,,,,,,,,,,,,,,,,,,,0,3,3,3,,,,,,,,,,,,,,,,,,,,,,,,,,,,,,,,,,space,1.0529497190145776,"Emmanuella and liam have been going out for a while. they are constantly fighting. on this day, they are having a dinner party at their house. they go to the supermarket to pick up some food for the party. one of them picks up pasta and liam says we are having a pasta dish. emmanuella berates him for not helping to cook. she picks up some pasta sauce and then says she wants to break up. liam agrees.  they still decide to have the party and not tell anyone they are broken up. then they make a bet on whoever tells the party that they are broken up, loses the right to the cat. emmanuela sees the cat issue causing another fight so she stops.",,,,,,,,,,,,,,,,,,,,061419_p1,001,2019_Jun_14_1401,body_behavioural,3.0.4,59.981604842409226,
4,,,,,,,,,,,,,,,,,,,,,,,,,,0,4,4,4,,,,,,,,,,,,,,,,,,,,,,,,,,,,,,,,,,space,0.819586972007528,Ms. bianchi and ms. morrison are in ms. morrison's supermarket. ms. bianchi is trying to persuade ms. morrison to but ms.bianchi's brand of european cheese. ms. bianchi tells ms. morrison that having european cheese/ ms.bianchi's brand will increase her sales and profitability as people will want to buy more of ms.bianchi's product. they try the cheese with crackers. ms. morrison pays 23 dollars for the crackers and cheese with a check. ms. morrison makes it a habit to know all of the employees at the supermarket.,,,,,,,,,,,,,,,,,,,,061419_p1,001,2019_Jun_14_1401,body_behavioural,3.0.4,59.981604842409226,
5,,,,,,,,,,,,,,,,,,,,,,,,,,0,5,5,5,,,,,,,,,,,,,,,,,,,,,,,,,,,,,,,,,,space,0.6858075769850984,Sven and isabel were in barcelona visiting isabel's parents. sven has a ring and wants to propose to isabel. sven received isabel's parents blessing. they head to the airport and sven looks over the ring a bit. the ring has pink diamonds in it .they go to the airport to leave barcelona and they go to security. sven was going to propose earlier to isabel but he put the ring back in his pocket. isabel is going thru the luggage to pull out her laptop for security. sven puts the ring in his pocket to hold stuff for isabel. isabel finds the laptop and puts in through security. sven goes thru security and the metal detector goes off due to the ring in his pocket. he proposes to isabel at security. she is so shocked that she  runs away. he runs after her and she says yes. they get on the plane happy and people are congratulating them and live streaming the event.,,,,,,,,,,,,,,,,,,,,061419_p1,001,2019_Jun_14_1401,body_behavioural,3.0.4,59.981604842409226,
6,,,,,,,,,,,,,,,,,,,,,,,,,,0,6,6,6,,,,,,,,,,,,,,,,,,,,,,,,,,,,,,,,,,space,0.5701759340008721,"Thomas and sadie have been going out but thomas wants to break up with sadie. thomas and sadie are at some restaurant. thomas has been thinking about breaking up with sadie for 2 months. sadie arrives at the restaurant and thomas asks if he and sadie can sit in the back. sadie starts asking thomas about his day but he become withdrawn and takes his hand away from sadie's. he then says that he wants to break up and sadie is taken aback. the waiter comes by and asks what they want. they didnt even look at the menus so thomas gets a burger and sadie get a reuben. thomas says that he needs to figure out what he wants to do with his career and he cant spend time with sadie like that. sadie offers to stay together but spend less time together. thomas refutes that. sadie gets up and takes half her reuben and shakes it at him and leaves. thomas sits at the restaurant, eating a fishy tasting burger.",,,,,,,,,,,,,,,,,,,,061419_p1,001,2019_Jun_14_1401,body_behavioural,3.0.4,59.981604842409226,
7,,,,,,,,,,,,,,,,,,,,,,,,,,0,7,7,7,,,,,,,,,,,,,,,,,,,,,,,,,,,,,,,,,,space,1.2505810220027342,"Aaron and lana are in an intro to chemistry course. they have been going out for a  while now. aaron is thinking about proposing to lana. lana was concerned about a problem from the problem set. aaron and lana go into class and the professor nods at aaron, aware of the proposal. the professor starts talking about ions and the professor calls lana up to the middle of the room. aaron tells her that it is time for them to make their own bond and he proposes to her with an avant garde 5 red diamond ring. she says yes and the class is cheering. the professor lets the class out early and says' thats enough excitement for today.",,,,,,,,,,,,,,,,,,,,061419_p1,001,2019_Jun_14_1401,body_behavioural,3.0.4,59.981604842409226,
,,,,,,,,,,,,,,,,,,,,,,,,,,,,,,,,,,,,,,,,,,,,,,,,,,,,,,,,,,,,,,,,,,3317.9945005600457,space,5.40327549999347,,,,,,,,,,,,,,,,,061419_p1,001,2019_Jun_14_1401,body_behavioural,3.0.4,59.981604842409226,
,,,,,,,,,"In this last part of the experiment, please answer 8 questions about each story.",,,,,,,,,,,,,,,,,,,,,0,0,0,0,,,,,,,,,,,,,,,,,,,,,,,,,,,,,,,,,,,,space,2.886322428006679,,,,,,,,,,,,,,,061419_p1,001,2019_Jun_14_1401,body_behavioural,3.0.4,59.981604842409226,
,,,,,,,,,Some of the questions are not related to the perspective you were asked to assume.,,,,,,,,,,,,,,,,,,,,,0,1,1,1,,,,,,,,,,,,,,,,,,,,,,,,,,,,,,,,,,,,space,3.185673187021166,,,,,,,,,,,,,,,061419_p1,001,2019_Jun_14_1401,body_behavioural,3.0.4,59.981604842409226,
,,,,,,,,,"We realize that we did not tell you to think of these questions during the story, but please do your best to answer them.",,,,,,,,,,,,,,,,,,,,,0,2,2,2,,,,,,,,,,,,,,,,,,,,,,,,,,,,,,,,,,,,space,3.8675847250269726,,,,,,,,,,,,,,,061419_p1,001,2019_Jun_14_1401,body_behavioural,3.0.4,59.981604842409226,
,,,,,,,,,"When you have finished typing your answer, hit ‘return’ to submit your answer to move onto the next question. ",,,,,,,,,,,,,,,,,,,,,0,3,3,3,,,,,,,,,,,,,,,,,,,,,,,,,,,,,,,,,,,,space,3.50381996500073,,,,,,,,,,,,,,,061419_p1,001,2019_Jun_14_1401,body_behavioural,3.0.4,59.981604842409226,
0,,,,,,,,,,,,,,,,,,,,,,,,,,,,,,,,,,0,0,0,0,,,,,,,,,,,,,,,,,,,,,,,,,,,,I forgot but i think 5 minutes before her plane leaves. 515 maybe 520,,,,,,space,1.269981007964816,David has an hour or more. anna has 15 minutes. shes in a rush.,non-primed first,Annas belt,37j,Anna sits in 6g,David is holding a book,Are you a gymnast,Next tuesday,I forgot but i think 5 minutes before her plane leaves. 515 maybe 520,,,,061419_p1,001,2019_Jun_14_1401,body_behavioural,3.0.4,59.981604842409226,
