count,storyText,locationEvent,socialEvent,story,locationEventSize,socialEventSize,socialAnswer,locationAnswer,instructText,trials.thisRepN,trials.thisTrialN,trials.thisN,trials.thisIndex,trials_7.thisRepN,trials_7.thisTrialN,trials_7.thisN,trials_7.thisIndex,trials_2.thisRepN,trials_2.thisTrialN,trials_2.thisN,trials_2.thisIndex,trials_3.thisRepN,trials_3.thisTrialN,trials_3.thisN,trials_3.thisIndex,trials_4.thisRepN,trials_4.thisTrialN,trials_4.thisN,trials_4.thisIndex,trials_5.thisRepN,trials_5.thisTrialN,trials_5.thisN,trials_5.thisIndex,trials_6.thisRepN,trials_6.thisTrialN,trials_6.thisN,trials_6.thisIndex,trials_8.thisRepN,trials_8.thisTrialN,trials_8.thisN,trials_8.thisIndex,order of stories,order of perspectives,participant 2 order - stories,participant 2 order  - schemas types,key_resp_8.keys,key_resp_8.rt,key_resp_5.keys,key_resp_5.rt,key_resp_7.keys,key_resp_7.rt,key_resp_15.keys,key_resp_15.rt,key_resp_14.keys,key_resp_14.rt,story_presses.keys,story_presses.rt,story time,key_resp_6.keys,key_resp_6.rt,key_resp_2.keys,key_resp_2.rt,key_resp_10.keys,key_resp_10.rt,recall,recall time,key_resp_12.keys,key_resp_12.rt,key_resp_3.keys,key_resp_3.rt,key_resp_11.keys,key_resp_11.rt,question1_answer,order of question,question2_answer,question3_answer,question4_answer,question5_answer,question6_answer,question7_answer,question8_answer,questions time,key_resp_13.keys,key_resp_13.rt,participant,session,date,expName,psychopyVersion,frameRate,
0,,,,,,,,,,0,0,0,0,0,0,0,0,,,,,,,,,,,,,,,,,,,,,,,,,[44 43 33 21 11 34 22 12 13 41 24 23 42 32 14 31],"['Social' 'Location' 'Social' 'Social' 'Location' 'Location' 'Location'
 'Social' 'Location' 'Location' 'Location' 'Social' 'Social' 'Location'
 'Social' 'Social']",[13 41 24 23 42 32 14 31],"['Location' 'Location' 'Location' 'Social' 'Social' 'Location' 'Social'
 'Social']",space,11.073920741007896,space,2.4032145910023246,space,6.153077224007575,,,,,,,,,,,,,,,,,,,,,,,,,,,,,,,,,,062519_p3,001,2019_Jun_25_1521,body_behavioural,3.0.4,59.90581105330847,
0,,,,,,,,,,0,0,0,0,1,0,1,0,,,,,,,,,,,,,,,,,,,,,,,,,,,,,,,,,space,0.4837747100100387,,,,,,,,,,,,,,,,,,,,,,,,,,,,,,,,,,062519_p3,001,2019_Jun_25_1521,body_behavioural,3.0.4,59.90581105330847,
0,"Ariana hurried into the classroom, and Leon did a double-take when he saw her, almost dropping the eraser he had in his hand. ",1.0,1.0,44.0,,,,,,0,0,0,0,,,,,0,0,0,0,,,,,,,,,,,,,,,,,,,,,,,,,,,,,,,space,5.920882509992225,space,3.3864736440009438,9,18.20294257698697,,,,,,,,,,,,,,,,,,,,,,,,,,,,062519_p3,001,2019_Jun_25_1521,body_behavioural,3.0.4,59.90581105330847,
0,"This was his first day in college, and he had assumed that he wouldn’t know anyone on campus, but he had a strong feeling that he had seen her somewhere before. ",1.0,1.0,None,,,,,,0,0,0,0,,,,,0,1,1,1,,,,,,,,,,,,,,,,,,,,,,,,,,,,,,,,,,,1,14.520757632999448,,,,,,,,,,,,,,,,,,,,,,,,,,,,062519_p3,001,2019_Jun_25_1521,body_behavioural,3.0.4,59.90581105330847,
0,They were in a small classroom with rows of chairs with foldable desks.,1.0,1.0,None,,,,,,0,0,0,0,,,,,0,2,2,2,,,,,,,,,,,,,,,,,,,,,,,,,,,,,,,,,,,1,6.804320374008967,,,,,,,,,,,,,,,,,,,,,,,,,,,,062519_p3,001,2019_Jun_25_1521,body_behavioural,3.0.4,59.90581105330847,
0,These faced the speaker’s podium and a blackboard on wheels. ,None,None,None,,,,,,0,0,0,0,,,,,0,3,3,3,,,,,,,,,,,,,,,,,,,,,,,,,,,,,,,,,,,1,4.786632332019508,,,,,,,,,,,,,,,,,,,,,,,,,,,,062519_p3,001,2019_Jun_25_1521,body_behavioural,3.0.4,59.90581105330847,
0,"There were no windows in the room, since they were down in the basement of the History Department.",1.0,1.0,None,,,,,,0,0,0,0,,,,,0,4,4,4,,,,,,,,,,,,,,,,,,,,,,,,,,,,,,,,,,,1,3.720217224006774,,,,,,,,,,,,,,,,,,,,,,,,,,,,062519_p3,001,2019_Jun_25_1521,body_behavioural,3.0.4,59.90581105330847,
0,"Leon, trying to figure out where he had seen her before, could not stop looking over at Ariana.",1.0,1.0,None,,,,,,0,0,0,0,,,,,0,5,5,5,,,,,,,,,,,,,,,,,,,,,,,,,,,,,,,,,,,1,6.487893687997712,,,,,,,,,,,,,,,,,,,,,,,,,,,,062519_p3,001,2019_Jun_25_1521,body_behavioural,3.0.4,59.90581105330847,
0,Ariana was oblivious to Leon’s gaze and was only focused on getting ready for class. ,1.0,1.0,None,,,,,,0,0,0,0,,,,,0,6,6,6,,,,,,,,,,,,,,,,,,,,,,,,,,,,,,,,,,,1,5.36947142900317,,,,,,,,,,,,,,,,,,,,,,,,,,,,062519_p3,001,2019_Jun_25_1521,body_behavioural,3.0.4,59.90581105330847,
0,"“Good morning, everyone,” the professor began.",2.0,1.0,None,,,,,,0,0,0,0,,,,,0,7,7,7,,,,,,,,,,,,,,,,,,,,,,,,,,,,,,,,,,,9,4.969367064011749,,,,,,,,,,,,,,,,,,,,,,,,,,,,062519_p3,001,2019_Jun_25_1521,body_behavioural,3.0.4,59.90581105330847,
0,“Welcome to History of Egypt. ,2.0,1.0,None,,,,,,0,0,0,0,,,,,0,8,8,8,,,,,,,,,,,,,,,,,,,,,,,,,,,,,,,,,,,9,1.3361157230101526,,,,,,,,,,,,,,,,,,,,,,,,,,,,062519_p3,001,2019_Jun_25_1521,body_behavioural,3.0.4,59.90581105330847,
0,"Today we will be talking about mummification, one of the most famous and often misunderstood customs in ancient Egyptian society.”",2.0,1.0,None,,,,,,0,0,0,0,,,,,0,9,9,9,,,,,,,,,,,,,,,,,,,,,,,,,,,,,,,,,,,1,6.386581248021685,,,,,,,,,,,,,,,,,,,,,,,,,,,,062519_p3,001,2019_Jun_25_1521,body_behavioural,3.0.4,59.90581105330847,
0,Leon and Ariana began taking notes. ,2.0,1.0,None,,,,,,0,0,0,0,,,,,0,10,10,10,,,,,,,,,,,,,,,,,,,,,,,,,,,,,,,,,,,1,2.4705783750105184,,,,,,,,,,,,,,,,,,,,,,,,,,,,062519_p3,001,2019_Jun_25_1521,body_behavioural,3.0.4,59.90581105330847,
0,"Within a few minutes, Leon found his attention wandering from the lecture and back to Ariana, and he decided to do something about it by putting a note on her desk.",2.0,2.0,None,,,,,,0,0,0,0,,,,,0,11,11,11,,,,,,,,,,,,,,,,,,,,,,,,,,,,,,,,,,,1,8.071498453005916,,,,,,,,,,,,,,,,,,,,,,,,,,,,062519_p3,001,2019_Jun_25_1521,body_behavioural,3.0.4,59.90581105330847,
0,"“Are you from LA?” it read, “Sorry to distract you from mummies, but you look really familiar.”",2.0,2.0,None,,,,,,0,0,0,0,,,,,0,12,12,12,,,,,,,,,,,,,,,,,,,,,,,,,,,,,,,,,,,9,7.653310731984675,,,,,,,,,,,,,,,,,,,,,,,,,,,,062519_p3,001,2019_Jun_25_1521,body_behavioural,3.0.4,59.90581105330847,
0,"She looked at the note with surprise, and then turned to notice Leon for the first time. ",2.0,2.0,None,,,,,,0,0,0,0,,,,,0,13,13,13,,,,,,,,,,,,,,,,,,,,,,,,,,,,,,,,,,,1,5.183352965977974,,,,,,,,,,,,,,,,,,,,,,,,,,,,062519_p3,001,2019_Jun_25_1521,body_behavioural,3.0.4,59.90581105330847,
0,She instantly liked him when she saw him.,2.0,2.0,None,,,,,,0,0,0,0,,,,,0,14,14,14,,,,,,,,,,,,,,,,,,,,,,,,,,,,,,,,,,,1,1.6024947430123575,,,,,,,,,,,,,,,,,,,,,,,,,,,,062519_p3,001,2019_Jun_25_1521,body_behavioural,3.0.4,59.90581105330847,
0,She thought he looked trustworthy and genuine.,2.0,2.0,None,,,,,,0,0,0,0,,,,,0,15,15,15,,,,,,,,,,,,,,,,,,,,,,,,,,,,,,,,,,,1,1.6197297479957342,,,,,,,,,,,,,,,,,,,,,,,,,,,,062519_p3,001,2019_Jun_25_1521,body_behavioural,3.0.4,59.90581105330847,
0,"Ariana passed the note back to Leon, and she had replied, “No, but maybe my twin and I were separated at birth.”",2.0,2.0,None,,,,,,0,0,0,0,,,,,0,16,16,16,,,,,,,,,,,,,,,,,,,,,,,,,,,,,,,,,,,1,7.102823691006051,,,,,,,,,,,,,,,,,,,,,,,,,,,,062519_p3,001,2019_Jun_25_1521,body_behavioural,3.0.4,59.90581105330847,
0,"The professor continued, “One may well question why the ancient Egyptians spent so much time and effort on their funerary practices.",3.0,2.0,None,,,,,,0,0,0,0,,,,,0,17,17,17,,,,,,,,,,,,,,,,,,,,,,,,,,,,,,,,,,,9,4.00292253299267,,,,,,,,,,,,,,,,,,,,,,,,,,,,062519_p3,001,2019_Jun_25_1521,body_behavioural,3.0.4,59.90581105330847,
0,"Not only was the mummification process itself a complicated affair, but there were also elaborate rituals before, during, and after death.",3.0,2.0,None,,,,,,0,0,0,0,,,,,0,18,18,18,,,,,,,,,,,,,,,,,,,,,,,,,,,,,,,,,,,1,3.752534494007705,,,,,,,,,,,,,,,,,,,,,,,,,,,,062519_p3,001,2019_Jun_25_1521,body_behavioural,3.0.4,59.90581105330847,
0,The practice required teams of experts with years of training and took a total of 70 days to complete.” ,3.0,2.0,None,,,,,,0,0,0,0,,,,,0,19,19,19,,,,,,,,,,,,,,,,,,,,,,,,,,,,,,,,,,,1,1.5683689579891507,,,,,,,,,,,,,,,,,,,,,,,,,,,,062519_p3,001,2019_Jun_25_1521,body_behavioural,3.0.4,59.90581105330847,
0,"They passed notes back and forth the whole class like they were in high school, and Leon wrote in one, “Would you like to go on a walk this evening?”",3.0,3.0,None,,,,,,0,0,0,0,,,,,0,20,20,20,,,,,,,,,,,,,,,,,,,,,,,,,,,,,,,,,,,9,5.336968444986269,,,,,,,,,,,,,,,,,,,,,,,,,,,,062519_p3,001,2019_Jun_25_1521,body_behavioural,3.0.4,59.90581105330847,
0,"When Ariana read this, she looked at him and nodded her head",3.0,3.0,None,,,,,,0,0,0,0,,,,,0,21,21,21,,,,,,,,,,,,,,,,,,,,,,,,,,,,,,,,,,,1,2.235857585998019,,,,,,,,,,,,,,,,,,,,,,,,,,,,062519_p3,001,2019_Jun_25_1521,body_behavioural,3.0.4,59.90581105330847,
0,"She wrote back on the slip of paper, “Let’s meet at 8 in front of my dorm, Patton Hall.”",3.0,3.0,None,,,,,,0,0,0,0,,,,,0,22,22,22,,,,,,,,,,,,,,,,,,,,,,,,,,,,,,,,,,,1,1.403294919990003,,,,,,,,,,,,,,,,,,,,,,,,,,,,062519_p3,001,2019_Jun_25_1521,body_behavioural,3.0.4,59.90581105330847,
0,The professor ended the lecture and announced to the class that they would have their first quiz next class on Friday on mummification. ,4.0,3.0,None,,,,,,0,0,0,0,,,,,0,23,23,23,,,,,,,,,,,,,,,,,,,,,,,,,,,,,,,,,,,9,3.9191360590048134,,,,,,,,,,,,,,,,,,,,,,,,,,,,062519_p3,001,2019_Jun_25_1521,body_behavioural,3.0.4,59.90581105330847,
0,Everyone packed up and filed out of the classroom except for Ariana and Leon. ,4.0,3.0,None,,,,,,0,0,0,0,,,,,0,24,24,24,,,,,,,,,,,,,,,,,,,,,,,,,,,,,,,,,,,1,8.884412437007995,,,,,,,,,,,,,,,,,,,,,,,,,,,,062519_p3,001,2019_Jun_25_1521,body_behavioural,3.0.4,59.90581105330847,
0,"Ariana spoke first, “I have to go to my next class.”",4.0,4.0,None,,,,,,0,0,0,0,,,,,0,25,25,25,,,,,,,,,,,,,,,,,,,,,,,,,,,,,,,,,,,1,3.836639726010617,,,,,,,,,,,,,,,,,,,,,,,,,,,,062519_p3,001,2019_Jun_25_1521,body_behavioural,3.0.4,59.90581105330847,
0,"She looked at the clock which read noon and headed for the door saying, “I should run, but I’ll see you later tonight!” ",4.0,4.0,None,,,,,,0,0,0,0,,,,,0,26,26,26,,,,,,,,,,,,,,,,,,,,,,,,,,,,,,,,,,,1,5.084552709013224,,,,,,,,,,,,,,,,,,,,,,,,,,,,062519_p3,001,2019_Jun_25_1521,body_behavioural,3.0.4,59.90581105330847,
0,"She waved as she ran out the door, and Leon was still pondering where he had known her before, even more convinced that they had met before having heard her voice.",4.0,4.0,None,,,,,,0,0,0,0,,,,,0,27,27,27,,,,,,,,,,,,,,,,,,,,,,,,,,,,,,,,,,,1,1.6863936220179312,,,,,,,,,,,,,,,,,,,,,,,,,,,,062519_p3,001,2019_Jun_25_1521,body_behavioural,3.0.4,59.90581105330847,
0,,,,,,,,,,0,0,0,0,,,,,,,,,,,,,,,,,,,,,,,,,,,,,,,,,,,,,,,,,,,,,,,,,,,,,,,,,,,,,,,,,,,,,,,,062519_p3,001,2019_Jun_25_1521,body_behavioural,3.0.4,59.90581105330847,
1,,,,,,,,,,0,1,1,1,0,0,0,0,,,,,,,,,,,,,,,,,,,,,,,,,,,,,space,1.686988871981157,space,0.970339777006302,space,1.1374944949930068,,,,,,,,,,,,,,,,,,,,,,,,,,,,,,,,,,062519_p3,001,2019_Jun_25_1521,body_behavioural,3.0.4,59.90581105330847,
1,"Carina and Simon, both distracted in thought, nearly ran into each other as they walked into the grocery store. ",1,1,43.0,,,,,,0,1,1,1,,,,,0,0,0,0,,,,,,,,,,,,,,,,,,,,,,,,,,,,,,,space,1.4870260120078456,space,2.069988299976103,9,22.338605742988875,,,,,,,,,,,,,,,,,,,,,,,,,,,,062519_p3,001,2019_Jun_25_1521,body_behavioural,3.0.4,59.90581105330847,
1,She nearly dropped the keys she was holding. ,1,1,None,,,,,,0,1,1,1,,,,,0,1,1,1,,,,,,,,,,,,,,,,,,,,,,,,,,,,,,,,,,,1,2.4201642260013614,,,,,,,,,,,,,,,,,,,,,,,,,,,,062519_p3,001,2019_Jun_25_1521,body_behavioural,3.0.4,59.90581105330847,
1,"The store they had entered looked like a warehouse, with high, black ceilings, industrial lights, and large packages of food. ",1,1,None,,,,,,0,1,1,1,,,,,0,2,2,2,,,,,,,,,,,,,,,,,,,,,,,,,,,,,,,,,,,1,5.370087391987909,,,,,,,,,,,,,,,,,,,,,,,,,,,,062519_p3,001,2019_Jun_25_1521,body_behavioural,3.0.4,59.90581105330847,
1,"In the meat section, Carina and Simon were looking over the same cuts of meat, because they were both preparing for barbecues.",2,1,None,,,,,,0,1,1,1,,,,,0,3,3,3,,,,,,,,,,,,,,,,,,,,,,,,,,,,,,,,,,,1,4.469130827987101,,,,,,,,,,,,,,,,,,,,,,,,,,,,062519_p3,001,2019_Jun_25_1521,body_behavioural,3.0.4,59.90581105330847,
1,"Simon had wanted to talk to Carina, and Carina had wanted to say something to Simon, but they felt embarrassed striking up a conversation with a stranger.",2,1,None,,,,,,0,1,1,1,,,,,0,4,4,4,,,,,,,,,,,,,,,,,,,,,,,,,,,,,,,,,,,1,4.534067792992573,,,,,,,,,,,,,,,,,,,,,,,,,,,,062519_p3,001,2019_Jun_25_1521,body_behavioural,3.0.4,59.90581105330847,
1,"Carina mustered the courage, turned to Simon and, pointing at a Cornish hen, asked, “Isn’t this meat cute?”",2,2,None,,,,,,0,1,1,1,,,,,0,5,5,5,,,,,,,,,,,,,,,,,,,,,,,,,,,,,,,,,,,1,4.070138909009984,,,,,,,,,,,,,,,,,,,,,,,,,,,,062519_p3,001,2019_Jun_25_1521,body_behavioural,3.0.4,59.90581105330847,
1,"He laughed, and said, “It is very cute.",2,2,None,,,,,,0,1,1,1,,,,,0,6,6,6,,,,,,,,,,,,,,,,,,,,,,,,,,,,,,,,,,,1,1.0537288460182026,,,,,,,,,,,,,,,,,,,,,,,,,,,,062519_p3,001,2019_Jun_25_1521,body_behavioural,3.0.4,59.90581105330847,
1,"Probably the younger brother of this guy,” and he picked up a regular-sized chicken.",2,2,None,,,,,,0,1,1,1,,,,,0,7,7,7,,,,,,,,,,,,,,,,,,,,,,,,,,,,,,,,,,,1,4.654422480001813,,,,,,,,,,,,,,,,,,,,,,,,,,,,062519_p3,001,2019_Jun_25_1521,body_behavioural,3.0.4,59.90581105330847,
1,"“Unlucky family,” she responded as she shook her head. ",2,2,None,,,,,,0,1,1,1,,,,,0,8,8,8,,,,,,,,,,,,,,,,,,,,,,,,,,,,,,,,,,,1,1.4008785920159426,,,,,,,,,,,,,,,,,,,,,,,,,,,,062519_p3,001,2019_Jun_25_1521,body_behavioural,3.0.4,59.90581105330847,
1,They chatted as they picked out a few last-minute groceries.,2,2,None,,,,,,0,1,1,1,,,,,0,9,9,9,,,,,,,,,,,,,,,,,,,,,,,,,,,,,,,,,,,1,2.2542020860128105,,,,,,,,,,,,,,,,,,,,,,,,,,,,062519_p3,001,2019_Jun_25_1521,body_behavioural,3.0.4,59.90581105330847,
1,"Simon helped Carina select the best ribs and his personal favorite barbecue sauce, and she helped him choose red peppers and spices for a vegetable kabob she recommended.",2,2,None,,,,,,0,1,1,1,,,,,0,10,10,10,,,,,,,,,,,,,,,,,,,,,,,,,,,,,,,,,,,1,3.053237293002894,,,,,,,,,,,,,,,,,,,,,,,,,,,,062519_p3,001,2019_Jun_25_1521,body_behavioural,3.0.4,59.90581105330847,
1,"In the checkout area, there were three lines open, and they went to the one labeled “8.”",3,2,None,,,,,,0,1,1,1,,,,,0,11,11,11,,,,,,,,,,,,,,,,,,,,,,,,,,,,,,,,,,,1,2.5533365349983796,,,,,,,,,,,,,,,,,,,,,,,,,,,,062519_p3,001,2019_Jun_25_1521,body_behavioural,3.0.4,59.90581105330847,
1,"Carina and Simon made jokes about the magazine covers while waiting in line, and they were laughing so hard their stomachs hurt. ",3,2,None,,,,,,0,1,1,1,,,,,0,12,12,12,,,,,,,,,,,,,,,,,,,,,,,,,,,,,,,,,,,1,5.868973189004464,,,,,,,,,,,,,,,,,,,,,,,,,,,,062519_p3,001,2019_Jun_25_1521,body_behavioural,3.0.4,59.90581105330847,
1,"Simon turned to face Carina and, while looking at her straight in the eyes, asked, “Would you like to go out to dinner with me?",3,3,None,,,,,,0,1,1,1,,,,,0,13,13,13,,,,,,,,,,,,,,,,,,,,,,,,,,,,,,,,,,,9,7.553843741014134,,,,,,,,,,,,,,,,,,,,,,,,,,,,062519_p3,001,2019_Jun_25_1521,body_behavioural,3.0.4,59.90581105330847,
1,Next Saturday we could tour around Harvard Square and get something to eat.,3,3,None,,,,,,0,1,1,1,,,,,0,14,14,14,,,,,,,,,,,,,,,,,,,,,,,,,,,,,,,,,,,1,2.8698916980065405,,,,,,,,,,,,,,,,,,,,,,,,,,,,062519_p3,001,2019_Jun_25_1521,body_behavioural,3.0.4,59.90581105330847,
1,"There are a lot of great places around there, and it’s really nice during the summer.”",3,3,None,,,,,,0,1,1,1,,,,,0,15,15,15,,,,,,,,,,,,,,,,,,,,,,,,,,,,,,,,,,,1,1.9673999669903424,,,,,,,,,,,,,,,,,,,,,,,,,,,,062519_p3,001,2019_Jun_25_1521,body_behavioural,3.0.4,59.90581105330847,
1,"Carina smiled, “I’d love to- that sounds great!”",3,3,None,,,,,,0,1,1,1,,,,,0,16,16,16,,,,,,,,,,,,,,,,,,,,,,,,,,,,,,,,,,,1,1.0505552009854,,,,,,,,,,,,,,,,,,,,,,,,,,,,062519_p3,001,2019_Jun_25_1521,body_behavioural,3.0.4,59.90581105330847,
1,The cashier scanned Carina’s groceries.,4,3,None,,,,,,0,1,1,1,,,,,0,17,17,17,,,,,,,,,,,,,,,,,,,,,,,,,,,,,,,,,,,1,11.0689905770123,,,,,,,,,,,,,,,,,,,,,,,,,,,,062519_p3,001,2019_Jun_25_1521,body_behavioural,3.0.4,59.90581105330847,
1,"Simon lifted up the divider on the conveyor belt and said to the cashier, “Actually, these are together.",4,3,None,,,,,,0,1,1,1,,,,,0,18,18,18,,,,,,,,,,,,,,,,,,,,,,,,,,,,,,,,,,,1,5.619461310998304,,,,,,,,,,,,,,,,,,,,,,,,,,,,062519_p3,001,2019_Jun_25_1521,body_behavioural,3.0.4,59.90581105330847,
1,"Carina, I’ve got it.",4,3,None,,,,,,0,1,1,1,,,,,0,19,19,19,,,,,,,,,,,,,,,,,,,,,,,,,,,,,,,,,,,1,1.2376135289960075,,,,,,,,,,,,,,,,,,,,,,,,,,,,062519_p3,001,2019_Jun_25_1521,body_behavioural,3.0.4,59.90581105330847,
1,This was kind-of a date today.”,4,3,None,,,,,,0,1,1,1,,,,,0,20,20,20,,,,,,,,,,,,,,,,,,,,,,,,,,,,,,,,,,,1,0.9869562370004132,,,,,,,,,,,,,,,,,,,,,,,,,,,,062519_p3,001,2019_Jun_25_1521,body_behavioural,3.0.4,59.90581105330847,
1,Carina blushed and laughed; she thought this was ridiculous but also very sweet. ,4,3,None,,,,,,0,1,1,1,,,,,0,21,21,21,,,,,,,,,,,,,,,,,,,,,,,,,,,,,,,,,,,1,2.253964003000874,,,,,,,,,,,,,,,,,,,,,,,,,,,,062519_p3,001,2019_Jun_25_1521,body_behavioural,3.0.4,59.90581105330847,
1,"The cashier rolled her eyes when they weren’t looking, and she scanned the rest of his items. ",4,3,None,,,,,,0,1,1,1,,,,,0,22,22,22,,,,,,,,,,,,,,,,,,,,,,,,,,,,,,,,,,,1,4.986608918989077,,,,,,,,,,,,,,,,,,,,,,,,,,,,062519_p3,001,2019_Jun_25_1521,body_behavioural,3.0.4,59.90581105330847,
1,"The total came to $52, and he paid with his credit card.",4,3,None,,,,,,0,1,1,1,,,,,0,23,23,23,,,,,,,,,,,,,,,,,,,,,,,,,,,,,,,,,,,1,1.75303095500567,,,,,,,,,,,,,,,,,,,,,,,,,,,,062519_p3,001,2019_Jun_25_1521,body_behavioural,3.0.4,59.90581105330847,
1,"Seeing that it was 4:30 PM on her phone, Carina gasped because she realized she was late for her own barbecue. ",4,4,None,,,,,,0,1,1,1,,,,,0,24,24,24,,,,,,,,,,,,,,,,,,,,,,,,,,,,,,,,,,,9,6.47055056100362,,,,,,,,,,,,,,,,,,,,,,,,,,,,062519_p3,001,2019_Jun_25_1521,body_behavioural,3.0.4,59.90581105330847,
1,Carina thanked Simon and took her groceries and ran. ,4,4,None,,,,,,0,1,1,1,,,,,0,25,25,25,,,,,,,,,,,,,,,,,,,,,,,,,,,,,,,,,,,1,4.500745217985241,,,,,,,,,,,,,,,,,,,,,,,,,,,,062519_p3,001,2019_Jun_25_1521,body_behavioural,3.0.4,59.90581105330847,
1,"“I hope her guests aren’t hungry,” the cashier remarked.",4,4,None,,,,,,0,1,1,1,,,,,0,26,26,26,,,,,,,,,,,,,,,,,,,,,,,,,,,,,,,,,,,1,5.553271584998583,,,,,,,,,,,,,,,,,,,,,,,,,,,,062519_p3,001,2019_Jun_25_1521,body_behavioural,3.0.4,59.90581105330847,
1,Simon was thoroughly charmed and barely heard the comment as he watched her go. ,4,4,None,,,,,,0,1,1,1,,,,,0,27,27,27,,,,,,,,,,,,,,,,,,,,,,,,,,,,,,,,,,,1,9.417894165992038,,,,,,,,,,,,,,,,,,,,,,,,,,,,062519_p3,001,2019_Jun_25_1521,body_behavioural,3.0.4,59.90581105330847,
1,,,,,,,,,,0,1,1,1,,,,,,,,,,,,,,,,,,,,,,,,,,,,,,,,,,,,,,,,,,,,,,,,,,,,,,,,,,,,,,,,,,,,,,,,062519_p3,001,2019_Jun_25_1521,body_behavioural,3.0.4,59.90581105330847,
2,,,,,,,,,,0,2,2,2,0,0,0,0,,,,,,,,,,,,,,,,,,,,,,,,,,,,,space,0.986100736015942,space,0.6534312760049943,space,0.5520997940038797,,,,,,,,,,,,,,,,,,,,,,,,,,,,,,,,,,062519_p3,001,2019_Jun_25_1521,body_behavioural,3.0.4,59.90581105330847,
2,,,,,,,,,,0,2,2,2,1,0,1,0,,,,,,,,,,,,,,,,,,,,,,,,,,,,,,,,,space,0.45307407501968555,,,,,,,,,,,,,,,,,,,,,,,,,,,,,,,,,,062519_p3,001,2019_Jun_25_1521,body_behavioural,3.0.4,59.90581105330847,
2,,,,,,,,,,0,2,2,2,2,0,2,0,,,,,,,,,,,,,,,,,,,,,,,,,,,,,,,,,space,0.5529336420004256,,,,,,,,,,,,,,,,,,,,,,,,,,,,,,,,,,062519_p3,001,2019_Jun_25_1521,body_behavioural,3.0.4,59.90581105330847,
2,"Ms. Bianchi and Ms. Morrison walked into the grocery store at the same time, and, after a moment of mutual recognition, greeted each other with a handshake.",1.0,1.0,33.0,,,,,,0,2,2,2,,,,,0,0,0,0,,,,,,,,,,,,,,,,,,,,,,,,,,,,,,,space,1.7856138320057653,space,2.087226109986659,1,13.070617629011394,,,,,,,,,,,,,,,,,,,,,,,,,,,,062519_p3,001,2019_Jun_25_1521,body_behavioural,3.0.4,59.90581105330847,
2,"They were standing in the entrance of the grocery store, which had displays of pumpkins, candy, and halloween decorations set up in different stations around the door. ",1.0,1.0,None,,,,,,0,2,2,2,,,,,0,1,1,1,,,,,,,,,,,,,,,,,,,,,,,,,,,,,,,,,,,1,5.669966437009862,,,,,,,,,,,,,,,,,,,,,,,,,,,,062519_p3,001,2019_Jun_25_1521,body_behavioural,3.0.4,59.90581105330847,
2,"“Thank you again for inviting me here to discuss my business proposal,” said Ms. Bianchi.",1.0,1.0,None,,,,,,0,2,2,2,,,,,0,2,2,2,,,,,,,,,,,,,,,,,,,,,,,,,,,,,,,,,,,1,2.2345891500008292,,,,,,,,,,,,,,,,,,,,,,,,,,,,062519_p3,001,2019_Jun_25_1521,body_behavioural,3.0.4,59.90581105330847,
2,“It’s a pleasure to be out of the office.” ,1.0,1.0,None,,,,,,0,2,2,2,,,,,0,3,3,3,,,,,,,,,,,,,,,,,,,,,,,,,,,,,,,,,,,1,0.8530030800029635,,,,,,,,,,,,,,,,,,,,,,,,,,,,062519_p3,001,2019_Jun_25_1521,body_behavioural,3.0.4,59.90581105330847,
2,"As an account representative for an Italian cheese company that was trying to expand its outreach to American grocery stores, this meeting was pivotal for Ms. Bianchi.",1.0,1.0,None,,,,,,0,2,2,2,,,,,0,4,4,4,,,,,,,,,,,,,,,,,,,,,,,,,,,,,,,,,,,1,6.903887940017739,,,,,,,,,,,,,,,,,,,,,,,,,,,,062519_p3,001,2019_Jun_25_1521,body_behavioural,3.0.4,59.90581105330847,
2,"Her sales target, Ms. Morrison, was the senior product manager for a corporate grocer and she had a say in the products distributed in stores across the West Coast.",1.0,1.0,None,,,,,,0,2,2,2,,,,,0,5,5,5,,,,,,,,,,,,,,,,,,,,,,,,,,,,,,,,,,,1,9.403816542006098,,,,,,,,,,,,,,,,,,,,,,,,,,,,062519_p3,001,2019_Jun_25_1521,body_behavioural,3.0.4,59.90581105330847,
2,"Ms. Morrison was also known for doing things unconventionally: for example, she said that she liked to make deals with suppliers in the place where the products were sold- “to keep their minds focused on what’s important.” ",1.0,1.0,None,,,,,,0,2,2,2,,,,,0,6,6,6,,,,,,,,,,,,,,,,,,,,,,,,,,,,,,,,,,,1,11.103431161987828,,,,,,,,,,,,,,,,,,,,,,,,,,,,062519_p3,001,2019_Jun_25_1521,body_behavioural,3.0.4,59.90581105330847,
2,"In the cheese section of the grocery store, Ms. Morrison motioned to the parmesan.",2.0,1.0,None,,,,,,0,2,2,2,,,,,0,7,7,7,,,,,,,,,,,,,,,,,,,,,,,,,,,,,,,,,,,9,7.037767347996123,,,,,,,,,,,,,,,,,,,,,,,,,,,,062519_p3,001,2019_Jun_25_1521,body_behavioural,3.0.4,59.90581105330847,
2,“We have quite a selection here.,2.0,1.0,None,,,,,,0,2,2,2,,,,,0,8,8,8,,,,,,,,,,,,,,,,,,,,,,,,,,,,,,,,,,,1,3.1041002359997947,,,,,,,,,,,,,,,,,,,,,,,,,,,,062519_p3,001,2019_Jun_25_1521,body_behavioural,3.0.4,59.90581105330847,
2,I don’t know that we need an additional section for gourmet cheeses.” ,2.0,1.0,None,,,,,,0,2,2,2,,,,,0,9,9,9,,,,,,,,,,,,,,,,,,,,,,,,,,,,,,,,,,,1,5.252997475996381,,,,,,,,,,,,,,,,,,,,,,,,,,,,062519_p3,001,2019_Jun_25_1521,body_behavioural,3.0.4,59.90581105330847,
2," Ms. Bianchi did not hesitate but launched into her pitch: “Ms. Morrison, I think you would agree that selling food is more than just providing variety, but also about providing the highest quality.",2.0,2.0,None,,,,,,0,2,2,2,,,,,0,10,10,10,,,,,,,,,,,,,,,,,,,,,,,,,,,,,,,,,,,1,9.0682060859981,,,,,,,,,,,,,,,,,,,,,,,,,,,,062519_p3,001,2019_Jun_25_1521,body_behavioural,3.0.4,59.90581105330847,
2,You don’t have cheeses made in America that are like ours- it is true.,2.0,2.0,None,,,,,,0,2,2,2,,,,,0,11,11,11,,,,,,,,,,,,,,,,,,,,,,,,,,,,,,,,,,,1,3.6200397619977593,,,,,,,,,,,,,,,,,,,,,,,,,,,,062519_p3,001,2019_Jun_25_1521,body_behavioural,3.0.4,59.90581105330847,
2,The availability of a product of excellent quality leads to the appreciation of the product.,2.0,2.0,None,,,,,,0,2,2,2,,,,,0,12,12,12,,,,,,,,,,,,,,,,,,,,,,,,,,,,,,,,,,,1,2.7376770960108843,,,,,,,,,,,,,,,,,,,,,,,,,,,,062519_p3,001,2019_Jun_25_1521,body_behavioural,3.0.4,59.90581105330847,
2,"Your consumers will want to buy other, finer products to compliment that first ingredient, and suddenly your customer will be consuming in a new, more profitable way.",2.0,2.0,None,,,,,,0,2,2,2,,,,,0,13,13,13,,,,,,,,,,,,,,,,,,,,,,,,,,,,,,,,,,,1,3.686013844999252,,,,,,,,,,,,,,,,,,,,,,,,,,,,062519_p3,001,2019_Jun_25_1521,body_behavioural,3.0.4,59.90581105330847,
2,"I propose that you give it a shot: buy $1500 worth of cheese products for a few stores, and see how the sales increase not only in our cheeses but also in products related to cheeses: crackers, jams, olives.”",2.0,2.0,None,,,,,,0,2,2,2,,,,,0,14,14,14,,,,,,,,,,,,,,,,,,,,,,,,,,,,,,,,,,,1,5.085921670979587,,,,,,,,,,,,,,,,,,,,,,,,,,,,062519_p3,001,2019_Jun_25_1521,body_behavioural,3.0.4,59.90581105330847,
2,"Ms. Bianchi picked up a box of crackers by the cheese section, and said, “Here, I will buy these, and we can try some of our cheeses that I've brought with me.”",2.0,2.0,None,,,,,,0,2,2,2,,,,,0,15,15,15,,,,,,,,,,,,,,,,,,,,,,,,,,,,,,,,,,,1,9.40310068699182,,,,,,,,,,,,,,,,,,,,,,,,,,,,062519_p3,001,2019_Jun_25_1521,body_behavioural,3.0.4,59.90581105330847,
2,"Ms. Morrison, who was thinking about the proposed offer, nodded in agreement and said, “That sounds like a great idea, but those crackers are on me.”",2.0,2.0,None,,,,,,0,2,2,2,,,,,0,16,16,16,,,,,,,,,,,,,,,,,,,,,,,,,,,,,,,,,,,1,6.436755164992064,,,,,,,,,,,,,,,,,,,,,,,,,,,,062519_p3,001,2019_Jun_25_1521,body_behavioural,3.0.4,59.90581105330847,
2,She took the crackers from Ms. Bianchi and also picked up a bottle of ketchup and a case of sparkling water “for later.”,2.0,2.0,None,,,,,,0,2,2,2,,,,,0,17,17,17,,,,,,,,,,,,,,,,,,,,,,,,,,,,,,,,,,,1,10.73783289300627,,,,,,,,,,,,,,,,,,,,,,,,,,,,062519_p3,001,2019_Jun_25_1521,body_behavioural,3.0.4,59.90581105330847,
2,It was very busy in the checkout area.,3.0,2.0,None,,,,,,0,2,2,2,,,,,0,18,18,18,,,,,,,,,,,,,,,,,,,,,,,,,,,,,,,,,,,9,2.9361624000011943,,,,,,,,,,,,,,,,,,,,,,,,,,,,062519_p3,001,2019_Jun_25_1521,body_behavioural,3.0.4,59.90581105330847,
2,"People were stocking up for Halloween parties and trick-or-treating, and there were 10 aisles open. ",3.0,2.0,None,,,,,,0,2,2,2,,,,,0,19,19,19,,,,,,,,,,,,,,,,,,,,,,,,,,,,,,,,,,,1,2.6528676159796305,,,,,,,,,,,,,,,,,,,,,,,,,,,,062519_p3,001,2019_Jun_25_1521,body_behavioural,3.0.4,59.90581105330847,
2,They stepped into lane 6 and waited.,3.0,2.0,None,,,,,,0,2,2,2,,,,,0,20,20,20,,,,,,,,,,,,,,,,,,,,,,,,,,,,,,,,,,,1,1.2535533269983716,,,,,,,,,,,,,,,,,,,,,,,,,,,,062519_p3,001,2019_Jun_25_1521,body_behavioural,3.0.4,59.90581105330847,
2,Ms. Bianchi handed to Ms. Morrison a packet with printed graphs of the increase in profits that several other stores in Italy had seen after starting to carry their products.,3.0,2.0,None,,,,,,0,2,2,2,,,,,0,21,21,21,,,,,,,,,,,,,,,,,,,,,,,,,,,,,,,,,,,1,5.35356125200633,,,,,,,,,,,,,,,,,,,,,,,,,,,,062519_p3,001,2019_Jun_25_1521,body_behavioural,3.0.4,59.90581105330847,
2,"After a couple minutes of thinking, Ms. Morrison widened her eyes and said confidently, “You know what, I think you've convinced me that this could work. ",3.0,3.0,None,,,,,,0,2,2,2,,,,,0,22,22,22,,,,,,,,,,,,,,,,,,,,,,,,,,,,,,,,,,,1,6.021177046990488,,,,,,,,,,,,,,,,,,,,,,,,,,,,062519_p3,001,2019_Jun_25_1521,body_behavioural,3.0.4,59.90581105330847,
2,We've been trying to find a way to add a little European cachet to our stores.,3.0,3.0,None,,,,,,0,2,2,2,,,,,0,23,23,23,,,,,,,,,,,,,,,,,,,,,,,,,,,,,,,,,,,1,4.970272325997939,,,,,,,,,,,,,,,,,,,,,,,,,,,,062519_p3,001,2019_Jun_25_1521,body_behavioural,3.0.4,59.90581105330847,
2,"Our competitor, Orange Grocers, hasn’t expanded in this direction yet, and I’d like to beat them to it. ",3.0,3.0,None,,,,,,0,2,2,2,,,,,0,24,24,24,,,,,,,,,,,,,,,,,,,,,,,,,,,,,,,,,,,1,4.102913987997454,,,,,,,,,,,,,,,,,,,,,,,,,,,,062519_p3,001,2019_Jun_25_1521,body_behavioural,3.0.4,59.90581105330847,
2,There's still a problem though- I'm worried we'll be paying out the nose for the import taxes.,3.0,3.0,None,,,,,,0,2,2,2,,,,,0,25,25,25,,,,,,,,,,,,,,,,,,,,,,,,,,,,,,,,,,,1,2.6175863509997725,,,,,,,,,,,,,,,,,,,,,,,,,,,,062519_p3,001,2019_Jun_25_1521,body_behavioural,3.0.4,59.90581105330847,
2,Is that the case?",3.0,3.0,None,,,,,,0,2,2,2,,,,,0,26,26,26,,,,,,,,,,,,,,,,,,,,,,,,,,,,,,,,,,,1,1.2009029260079842,,,,,,,,,,,,,,,,,,,,,,,,,,,,062519_p3,001,2019_Jun_25_1521,body_behavioural,3.0.4,59.90581105330847,
2,"It was Ms. Morrison’s turn to check out, and the cashier chatted with Ms. Morrison as she scanned the items.",4.0,3.0,None,,,,,,0,2,2,2,,,,,0,27,27,27,,,,,,,,,,,,,,,,,,,,,,,,,,,,,,,,,,,9,2.5842562509933487,,,,,,,,,,,,,,,,,,,,,,,,,,,,062519_p3,001,2019_Jun_25_1521,body_behavioural,3.0.4,59.90581105330847,
2,Ms. Morrison was also distinguished for knowing most of the employees personally. ,None,None,None,,,,,,0,2,2,2,,,,,0,28,28,28,,,,,,,,,,,,,,,,,,,,,,,,,,,,,,,,,,,1,1.934343216009438,,,,,,,,,,,,,,,,,,,,,,,,,,,,062519_p3,001,2019_Jun_25_1521,body_behavioural,3.0.4,59.90581105330847,
2,Ms. Bianchi watched in amusement as Ms. Morrison paid the $23 price by writing a check. ,4.0,3.0,None,,,,,,0,2,2,2,,,,,0,29,29,29,,,,,,,,,,,,,,,,,,,,,,,,,,,,,,,,,,,1,5.253485567984171,,,,,,,,,,,,,,,,,,,,,,,,,,,,062519_p3,001,2019_Jun_25_1521,body_behavioural,3.0.4,59.90581105330847,
2,"After Ms. Bianci addressed Ms. Morrison’s concerns, they came to an agreement and would have enough cheese shipments, $20,000 worth, to different stores to qualify for a subsidized import tax. ",4.0,4.0,None,,,,,,0,2,2,2,,,,,0,30,30,30,,,,,,,,,,,,,,,,,,,,,,,,,,,,,,,,,,,1,4.117538269987563,,,,,,,,,,,,,,,,,,,,,,,,,,,,062519_p3,001,2019_Jun_25_1521,body_behavioural,3.0.4,59.90581105330847,
2,"Ms. Morrison had had a small bottle of champagne in her purse, and she pulled it out and popped it in celebration of their deal. ",4.0,4.0,None,,,,,,0,2,2,2,,,,,0,31,31,31,,,,,,,,,,,,,,,,,,,,,,,,,,,,,,,,,,,1,4.386664443998598,,,,,,,,,,,,,,,,,,,,,,,,,,,,062519_p3,001,2019_Jun_25_1521,body_behavioural,3.0.4,59.90581105330847,
2,Ms. Bianchi decided that she loved doing business with Americans. ,4.0,4.0,None,,,,,,0,2,2,2,,,,,0,32,32,32,,,,,,,,,,,,,,,,,,,,,,,,,,,,,,,,,,,1,6.887051160010742,,,,,,,,,,,,,,,,,,,,,,,,,,,,062519_p3,001,2019_Jun_25_1521,body_behavioural,3.0.4,59.90581105330847,
2,,,,,,,,,,0,2,2,2,,,,,,,,,,,,,,,,,,,,,,,,,,,,,,,,,,,,,,,,,,,,,,,,,,,,,,,,,,,,,,,,,,,,,,,,062519_p3,001,2019_Jun_25_1521,body_behavioural,3.0.4,59.90581105330847,
3,,,,,,,,,,0,3,3,3,0,0,0,0,,,,,,,,,,,,,,,,,,,,,,,,,,,,,space,1.3031756709970068,space,0.6363187920069322,space,2.2535667449992616,,,,,,,,,,,,,,,,,,,,,,,,,,,,,,,,,,062519_p3,001,2019_Jun_25_1521,body_behavioural,3.0.4,59.90581105330847,
3,"Alvira and Senna walked into the restaurant hand in sweaty hand with quite different expectations for the night because Senna, after 5 years of dating, was going to propose, and Alvira had no idea.",1.0,1.0,21.0,None,None,,,,0,3,3,3,,,,,0,0,0,0,,,,,,,,,,,,,,,,,,,,,,,,,,,,,,,space,1.6027628910087515,space,2.020419556996785,9,23.386891428002855,,,,,,,,,,,,,,,,,,,,,,,,,,,,062519_p3,001,2019_Jun_25_1521,body_behavioural,3.0.4,59.90581105330847,
3,"He took a deep breath, trying to calm his nerves as worst case scenarios ran through his mind. ",1.0,1.0,None,None,None,,,,0,3,3,3,,,,,0,1,1,1,,,,,,,,,,,,,,,,,,,,,,,,,,,,,,,,,,,1,11.420539587008534,,,,,,,,,,,,,,,,,,,,,,,,,,,,062519_p3,001,2019_Jun_25_1521,body_behavioural,3.0.4,59.90581105330847,
3,The restaurant was on the beach and had floor-to-ceiling arched windows that framed an incredible view of the Pacific Ocean.,1.0,1.0,None,None,None,,,,0,3,3,3,,,,,0,2,2,2,,,,,,,,,,,,,,,,,,,,,,,,,,,,,,,,,,,9,3.851267684978666,,,,,,,,,,,,,,,,,,,,,,,,,,,,062519_p3,001,2019_Jun_25_1521,body_behavioural,3.0.4,59.90581105330847,
3,"Besides the view, the restaurant itself was beautiful- crystal chandeliers hung from the high ceiling above small tables covered with white table clothes.
",1.0,1.0,None,None,None,,,,0,3,3,3,,,,,0,3,3,3,,,,,,,,,,,,,,,,,,,,,,,,,,,,,,,,,,,1,1.934644680004567,,,,,,,,,,,,,,,,,,,,,,,,,,,,062519_p3,001,2019_Jun_25_1521,body_behavioural,3.0.4,59.90581105330847,
3,This was surely one of the best restaurants on the West Coast.,1.0,1.0,None,None,None,,,,0,3,3,3,,,,,0,4,4,4,,,,,,,,,,,,,,,,,,,,,,,,,,,,,,,,,,,1,1.7529593899962492,,,,,,,,,,,,,,,,,,,,,,,,,,,,062519_p3,001,2019_Jun_25_1521,body_behavioural,3.0.4,59.90581105330847,
3,"After Senna gave his name to the host, who discretely winked at Senna, they were seated at a table right by the window. ",2.0,1.0,None,7.0,None,,,,0,3,3,3,,,,,0,5,5,5,,,,,,,,,,,,,,,,,,,,,,,,,,,,,,,,,,,9,11.036939906014595,,,,,,,,,,,,,,,,,,,,,,,,,,,,062519_p3,001,2019_Jun_25_1521,body_behavioural,3.0.4,59.90581105330847,
3,The waiter brought out some very small menus.,2.0,1.0,None,None,9.0,,,,0,3,3,3,,,,,0,6,6,6,,,,,,,,,,,,,,,,,,,,,,,,,,,,,,,,,,,1,1.3200792650168296,,,,,,,,,,,,,,,,,,,,,,,,,,,,062519_p3,001,2019_Jun_25_1521,body_behavioural,3.0.4,59.90581105330847,
3,"They consisted of a short list of the head chef's carefully selected daily dishes written in a loopy, cursive font unadorned by any mention of prices.",None,None,None,None,None,,,,0,3,3,3,,,,,0,7,7,7,,,,,,,,,,,,,,,,,,,,,,,,,,,,,,,,,,,1,2.5364192179986276,,,,,,,,,,,,,,,,,,,,,,,,,,,,062519_p3,001,2019_Jun_25_1521,body_behavioural,3.0.4,59.90581105330847,
3,"Senna got nervous about the ring, and he slipped off to the bathroom to check to make sure it looked alright.",2.0,2.0,None,None,None,,,,0,3,3,3,,,,,0,8,8,8,,,,,,,,,,,,,,,,,,,,,,,,,,,,,,,,,,,1,5.136205635993974,,,,,,,,,,,,,,,,,,,,,,,,,,,,062519_p3,001,2019_Jun_25_1521,body_behavioural,3.0.4,59.90581105330847,
3,The ring contained three canary yellow diamonds that had been in his grandmother’s wedding ring. ,2.0,2.0,None,None,None,,,,0,3,3,3,,,,,0,9,9,9,,,,,,,,,,,,,,,,,,,,,,,,,,,,,,,,,,,1,2.4530806629918516,,,,,,,,,,,,,,,,,,,,,,,,,,,,062519_p3,001,2019_Jun_25_1521,body_behavioural,3.0.4,59.90581105330847,
3,"After Senna had gotten back to the table, the waiter appeared at their table to take their order.",3.0,2.0,None,None,None,,,,0,3,3,3,,,,,0,10,10,10,,,,,,,,,,,,,,,,,,,,,,,,,,,,,,,,,,,1,6.186956600024132,,,,,,,,,,,,,,,,,,,,,,,,,,,,062519_p3,001,2019_Jun_25_1521,body_behavioural,3.0.4,59.90581105330847,
3,"Senna ordered the oysters with garlic-parmesan sauce, and Alvira ordered the sauteed sea scallops with caramelized apples. ",3.0,2.0,None,None,None,,,,0,3,3,3,,,,,0,11,11,11,,,,,,,,,,,,,,,,,,,,,,,,,,,,,,,,,,,1,2.9533991659991443,,,,,,,,,,,,,,,,,,,,,,,,,,,,062519_p3,001,2019_Jun_25_1521,body_behavioural,3.0.4,59.90581105330847,
3,"“Excellent choices,” the waiter said, and he left.",3.0,2.0,None,None,None,,,,0,3,3,3,,,,,0,12,12,12,,,,,,,,,,,,,,,,,,,,,,,,,,,,,,,,,,,1,1.303338529978646,,,,,,,,,,,,,,,,,,,,,,,,,,,,062519_p3,001,2019_Jun_25_1521,body_behavioural,3.0.4,59.90581105330847,
3,"“What a beautiful place, Senna. ",3.0,2.0,None,None,None,,,,0,3,3,3,,,,,0,13,13,13,,,,,,,,,,,,,,,,,,,,,,,,,,,,,,,,,,,1,1.2358751880237833,,,,,,,,,,,,,,,,,,,,,,,,,,,,062519_p3,001,2019_Jun_25_1521,body_behavioural,3.0.4,59.90581105330847,
3,"This is too much just to celebrate the first tomatoes I grew in the garden- really, this is absurd,” Alvira said.",3.0,2.0,None,None,None,,,,0,3,3,3,,,,,0,14,14,14,,,,,,,,,,,,,,,,,,,,,,,,,,,,,,,,,,,1,4.7376021789968945,,,,,,,,,,,,,,,,,,,,,,,,,,,,062519_p3,001,2019_Jun_25_1521,body_behavioural,3.0.4,59.90581105330847,
3,"Senna laughed and said, “No, those were really the best tomatoes I’ve ever had. ",3.0,2.0,None,None,None,,,,0,3,3,3,,,,,0,15,15,15,,,,,,,,,,,,,,,,,,,,,,,,,,,,,,,,,,,1,1.8038593899982516,,,,,,,,,,,,,,,,,,,,,,,,,,,,062519_p3,001,2019_Jun_25_1521,body_behavioural,3.0.4,59.90581105330847,
3,We had to celebrate.” ,3.0,2.0,None,None,None,,,,0,3,3,3,,,,,0,16,16,16,,,,,,,,,,,,,,,,,,,,,,,,,,,,,,,,,,,1,1.3701062320033088,,,,,,,,,,,,,,,,,,,,,,,,,,,,062519_p3,001,2019_Jun_25_1521,body_behavioural,3.0.4,59.90581105330847,
3,"They talked and laughed as the sun sank below the horizon, lighting up the sky and water, and slowly the glow from the windows was replaced by the chandeliers.",3.0,2.0,None,8.0,None,,,,0,3,3,3,,,,,0,17,17,17,,,,,,,,,,,,,,,,,,,,,,,,,,,,,,,,,,,1,8.987594512989745,,,,,,,,,,,,,,,,,,,,,,,,,,,,062519_p3,001,2019_Jun_25_1521,body_behavioural,3.0.4,59.90581105330847,
3,The waiter returned with their dishes.,4.0,2.0,None,None,None,,,,0,3,3,3,,,,,0,18,18,18,,,,,,,,,,,,,,,,,,,,,,,,,,,,,,,,,,,1,3.737561148998793,,,,,,,,,,,,,,,,,,,,,,,,,,,,062519_p3,001,2019_Jun_25_1521,body_behavioural,3.0.4,59.90581105330847,
3,"Everything was even more delicious than they had expected, especially the oysters, which Senna said tasted like the ocean. ",4.0,2.0,None,None,None,,,,0,3,3,3,,,,,0,19,19,19,,,,,,,,,,,,,,,,,,,,,,,,,,,,,,,,,,,1,4.101355708000483,,,,,,,,,,,,,,,,,,,,,,,,,,,,062519_p3,001,2019_Jun_25_1521,body_behavioural,3.0.4,59.90581105330847,
3," As they were eating, Senna recounted to Alvira how they had met, and he told her in many words how much he loved her and what he loved about her, almost tearing up at moments. ",4.0,2.0,None,None,None,,,,0,3,3,3,,,,,0,20,20,20,,,,,,,,,,,,,,,,,,,,,,,,,,,,,,,,,,,9,13.719779423001455,,,,,,,,,,,,,,,,,,,,,,,,,,,,062519_p3,001,2019_Jun_25_1521,body_behavioural,3.0.4,59.90581105330847,
3,"When they had finished eating, Senna nodded at the waiter who had been watching attentively, and he quickly strode over to place a small, elegant cake topped with the ring in front of Alvira. ",4.0,3.0,None,None,None,,,,0,3,3,3,,,,,0,21,21,21,,,,,,,,,,,,,,,,,,,,,,,,,,,,,,,,,,,9,6.2876701329951175,,,,,,,,,,,,,,,,,,,,,,,,,,,,062519_p3,001,2019_Jun_25_1521,body_behavioural,3.0.4,59.90581105330847,
3,Her eyes widened in shock when she realized what she was looking at.,4.0,3.0,None,None,None,,,,0,3,3,3,,,,,0,22,22,22,,,,,,,,,,,,,,,,,,,,,,,,,,,,,,,,,,,1,2.6362987459870055,,,,,,,,,,,,,,,,,,,,,,,,,,,,062519_p3,001,2019_Jun_25_1521,body_behavioural,3.0.4,59.90581105330847,
3,"Senna got down on one knee and said,“Alvira, will you marry me? ",4.0,3.0,None,None,None,,,,0,3,3,3,,,,,0,23,23,23,,,,,,,,,,,,,,,,,,,,,,,,,,,,,,,,,,,1,1.0040525750082452,,,,,,,,,,,,,,,,,,,,,,,,,,,,062519_p3,001,2019_Jun_25_1521,body_behavioural,3.0.4,59.90581105330847,
3,"I love you, and I will never stop loving you.” ",4.0,3.0,None,None,None,,,,0,3,3,3,,,,,0,24,24,24,,,,,,,,,,,,,,,,,,,,,,,,,,,,,,,,,,,1,0.6527779719908722,,,,,,,,,,,,,,,,,,,,,,,,,,,,062519_p3,001,2019_Jun_25_1521,body_behavioural,3.0.4,59.90581105330847,
3,"After a few moments with everyone turned and looking at Elvira in expectation, she exclaimed, “Yes, of course, yes!”",4.0,4.0,None,None,None,,,,0,3,3,3,,,,,0,25,25,25,,,,,,,,,,,,,,,,,,,,,,,,,,,,,,,,,,,1,1.3362333890108857,,,,,,,,,,,,,,,,,,,,,,,,,,,,062519_p3,001,2019_Jun_25_1521,body_behavioural,3.0.4,59.90581105330847,
3,She hugged Senna with tears flowing down her cheeks. ,4.0,4.0,None,None,None,,,,0,3,3,3,,,,,0,26,26,26,,,,,,,,,,,,,,,,,,,,,,,,,,,,,,,,,,,1,1.0198227779765148,,,,,,,,,,,,,,,,,,,,,,,,,,,,062519_p3,001,2019_Jun_25_1521,body_behavioural,3.0.4,59.90581105330847,
3,"The other guests exploded in applause, and the waiter returned with a bottle of champagne and popped it.",4.0,4.0,None,None,None,,,,0,3,3,3,,,,,0,27,27,27,,,,,,,,,,,,,,,,,,,,,,,,,,,,,,,,,,,1,4.20356217600056,,,,,,,,,,,,,,,,,,,,,,,,,,,,062519_p3,001,2019_Jun_25_1521,body_behavioural,3.0.4,59.90581105330847,
3,Senna slipped the ring onto Alvira’s finger and she held up her hand to admire it.,4.0,4.0,None,None,None,,,,0,3,3,3,,,,,0,28,28,28,,,,,,,,,,,,,,,,,,,,,,,,,,,,,,,,,,,1,2.8693363450001925,,,,,,,,,,,,,,,,,,,,,,,,,,,,062519_p3,001,2019_Jun_25_1521,body_behavioural,3.0.4,59.90581105330847,
3,“I need to text my dad and tell him!” she sang. ,4.0,4.0,None,None,None,,,,0,3,3,3,,,,,0,29,29,29,,,,,,,,,,,,,,,,,,,,,,,,,,,,,,,,,,,1,1.1029401650012005,,,,,,,,,,,,,,,,,,,,,,,,,,,,062519_p3,001,2019_Jun_25_1521,body_behavioural,3.0.4,59.90581105330847,
3,The whole restaurant proceeded in cheers with them to celebrate the joyous occasion.  ,4.0,4.0,None,None,None,,,,0,3,3,3,,,,,0,30,30,30,,,,,,,,,,,,,,,,,,,,,,,,,,,,,,,,,,,1,2.1167586199881043,,,,,,,,,,,,,,,,,,,,,,,,,,,,062519_p3,001,2019_Jun_25_1521,body_behavioural,3.0.4,59.90581105330847,
3,,,,,,,,,,0,3,3,3,,,,,,,,,,,,,,,,,,,,,,,,,,,,,,,,,,,,,,,,,,,,,,,,,,,,,,,,,,,,,,,,,,,,,,,,062519_p3,001,2019_Jun_25_1521,body_behavioural,3.0.4,59.90581105330847,
4,,,,,,,,,,0,4,4,4,0,0,0,0,,,,,,,,,,,,,,,,,,,,,,,,,,,,,space,0.8866360729734879,space,0.42074259399669245,space,0.5506299560074694,,,,,,,,,,,,,,,,,,,,,,,,,,,,,,,,,,062519_p3,001,2019_Jun_25_1521,body_behavioural,3.0.4,59.90581105330847,
4,"Thomas, dreading the approaching breakup conversation he was about to start, got to Annika’s Finer Diner late but Sadie, his girlfriend, was not there yet.",1,1,11.0,None,None,None,None,,0,4,4,4,,,,,0,0,0,0,,,,,,,,,,,,,,,,,,,,,,,,,,,,,,,space,1.019857648992911,space,1.600458005006658,9,11.321011471009115,,,,,,,,,,,,,,,,,,,,,,,,,,,,062519_p3,001,2019_Jun_25_1521,body_behavioural,3.0.4,59.90581105330847,
4,Thomas had been thinking about breaking up with her for 2 months now.,1,1,None,None,None,1.0,None,,0,4,4,4,,,,,0,1,1,1,,,,,,,,,,,,,,,,,,,,,,,,,,,,,,,,,,,1,1.9845287940115668,,,,,,,,,,,,,,,,,,,,,,,,,,,,062519_p3,001,2019_Jun_25_1521,body_behavioural,3.0.4,59.90581105330847,
4,"The restaurant he had chosen to meet at was reminiscent of a diner from the 70’s; there was black and white checkerboard tiling on the floor, a long bar in the front, and booths and stools with red, leather upholstery. ",1,1,None,None,None,None,1.0,,0,4,4,4,,,,,0,2,2,2,,,,,,,,,,,,,,,,,,,,,,,,,,,,,,,,,,,1,3.571465638000518,,,,,,,,,,,,,,,,,,,,,,,,,,,,062519_p3,001,2019_Jun_25_1521,body_behavioural,3.0.4,59.90581105330847,
4,"A bell chimed as the door swung open, and Sadie entered to find Thomas ruminating at the bar.",1,1,None,None,None,None,None,,0,4,4,4,,,,,0,3,3,3,,,,,,,,,,,,,,,,,,,,,,,,,,,,,,,,,,,9,5.0034381019941065,,,,,,,,,,,,,,,,,,,,,,,,,,,,062519_p3,001,2019_Jun_25_1521,body_behavioural,3.0.4,59.90581105330847,
4,"He stood up and gave her a side hug, asking quickly, “How was your day?”",1,1,None,None,None,None,None,,0,4,4,4,,,,,0,4,4,4,,,,,,,,,,,,,,,,,,,,,,,,,,,,,,,,,,,1,2.4200681720103603,,,,,,,,,,,,,,,,,,,,,,,,,,,,062519_p3,001,2019_Jun_25_1521,body_behavioural,3.0.4,59.90581105330847,
4,"She clung onto him, “It was okay- I missed you today.”",1,1,None,None,None,None,None,,0,4,4,4,,,,,0,5,5,5,,,,,,,,,,,,,,,,,,,,,,,,,,,,,,,,,,,1,1.5200189749884885,,,,,,,,,,,,,,,,,,,,,,,,,,,,062519_p3,001,2019_Jun_25_1521,body_behavioural,3.0.4,59.90581105330847,
4,"He looked away and addressed the hostess coming towards them, “Can we have a booth in the back?”",1,1,None,None,None,None,None,,0,4,4,4,,,,,0,6,6,6,,,,,,,,,,,,,,,,,,,,,,,,,,,,,,,,,,,1,3.4202777449972928,,,,,,,,,,,,,,,,,,,,,,,,,,,,062519_p3,001,2019_Jun_25_1521,body_behavioural,3.0.4,59.90581105330847,
4,"She shrugged and after loudly popping her bubblegum replied, “Sure, honey.”",1,1,None,9.0,None,None,None,,0,4,4,4,,,,,0,7,7,7,,,,,,,,,,,,,,,,,,,,,,,,,,,,,,,,,,,1,2.254175946000032,,,,,,,,,,,,,,,,,,,,,,,,,,,,062519_p3,001,2019_Jun_25_1521,body_behavioural,3.0.4,59.90581105330847,
4,She seated them at a booth in the back corner of the diner.  ,2,1,None,None,None,None,None,,0,4,4,4,,,,,0,8,8,8,,,,,,,,,,,,,,,,,,,,,,,,,,,,,,,,,,,1,3.086878103989875,,,,,,,,,,,,,,,,,,,,,,,,,,,,062519_p3,001,2019_Jun_25_1521,body_behavioural,3.0.4,59.90581105330847,
4,Sadie slipped into the cushioned seat and grabbed Thomas’ hand.,2,1,None,None,None,None,None,,0,4,4,4,,,,,0,9,9,9,,,,,,,,,,,,,,,,,,,,,,,,,,,,,,,,,,,9,10.454173921985785,,,,,,,,,,,,,,,,,,,,,,,,,,,,062519_p3,001,2019_Jun_25_1521,body_behavioural,3.0.4,59.90581105330847,
4,“Tell me about your day!” she sang.,2,1,None,None,None,None,None,,0,4,4,4,,,,,0,10,10,10,,,,,,,,,,,,,,,,,,,,,,,,,,,,,,,,,,,1,1.5036316399928182,,,,,,,,,,,,,,,,,,,,,,,,,,,,062519_p3,001,2019_Jun_25_1521,body_behavioural,3.0.4,59.90581105330847,
4,He looked at her silently and pulled his hand slowly from hers as a puzzled look grew on Sadie’s face. ,2,1,None,None,None,None,None,,0,4,4,4,,,,,0,11,11,11,,,,,,,,,,,,,,,,,,,,,,,,,,,,,,,,,,,1,1.8867170060111675,,,,,,,,,,,,,,,,,,,,,,,,,,,,062519_p3,001,2019_Jun_25_1521,body_behavioural,3.0.4,59.90581105330847,
4,Thomas looked away and took a deep breath. ,2,1,None,None,None,None,None,,0,4,4,4,,,,,0,12,12,12,,,,,,,,,,,,,,,,,,,,,,,,,,,,,,,,,,,9,2.4536977980169468,,,,,,,,,,,,,,,,,,,,,,,,,,,,062519_p3,001,2019_Jun_25_1521,body_behavioural,3.0.4,59.90581105330847,
4,"Sadie asked, “What’s wrong?” ",2,1,None,None,None,None,None,,0,4,4,4,,,,,0,13,13,13,,,,,,,,,,,,,,,,,,,,,,,,,,,,,,,,,,,1,1.2541639719856903,,,,,,,,,,,,,,,,,,,,,,,,,,,,062519_p3,001,2019_Jun_25_1521,body_behavioural,3.0.4,59.90581105330847,
4,Thomas picked at his fingernails.,2,1,None,None,22.0,None,None,,0,4,4,4,,,,,0,14,14,14,,,,,,,,,,,,,,,,,,,,,,,,,,,,,,,,,,,1,1.017225313000381,,,,,,,,,,,,,,,,,,,,,,,,,,,,062519_p3,001,2019_Jun_25_1521,body_behavioural,3.0.4,59.90581105330847,
4,"After a few moments, Thomas let out a deep breath and said, “Sadie, I’ve been thinking, and I need a break from this relationship because I need to figure out my career path on my own.”",2,2,None,None,None,None,None,,0,4,4,4,,,,,0,15,15,15,,,,,,,,,,,,,,,,,,,,,,,,,,,,,,,,,,,1,3.5842493230011314,,,,,,,,,,,,,,,,,,,,,,,,,,,,062519_p3,001,2019_Jun_25_1521,body_behavioural,3.0.4,59.90581105330847,
4,Sadie sat back in her seat.,2,2,None,None,None,None,None,,0,4,4,4,,,,,0,16,16,16,,,,,,,,,,,,,,,,,,,,,,,,,,,,,,,,,,,1,0.903323915990768,,,,,,,,,,,,,,,,,,,,,,,,,,,,062519_p3,001,2019_Jun_25_1521,body_behavioural,3.0.4,59.90581105330847,
4,"Thomas continued, “Things have been really picking up at work, and I’m not sure that this is the job I want to do anymore.",2,2,None,None,None,None,None,,0,4,4,4,,,,,0,17,17,17,,,,,,,,,,,,,,,,,,,,,,,,,,,,,,,,,,,1,3.920216260012239,,,,,,,,,,,,,,,,,,,,,,,,,,,,062519_p3,001,2019_Jun_25_1521,body_behavioural,3.0.4,59.90581105330847,
4,"Plus, it’s been really overwhelming between working and figuring out if I should change careers, and I really feel like I need more time to figure it out.” ",2,2,None,17.0,None,None,None,,0,4,4,4,,,,,0,18,18,18,,,,,,,,,,,,,,,,,,,,,,,,,,,,,,,,,,,1,1.1029098999861162,,,,,,,,,,,,,,,,,,,,,,,,,,,,062519_p3,001,2019_Jun_25_1521,body_behavioural,3.0.4,59.90581105330847,
4,"The waiter appeared and cheerily asked, “Have you decided what you would like?”",3,2,None,None,None,None,None,,0,4,4,4,,,,,0,19,19,19,,,,,,,,,,,,,,,,,,,,,,,,,,,,,,,,,,,1,2.6359102119749878,,,,,,,,,,,,,,,,,,,,,,,,,,,,062519_p3,001,2019_Jun_25_1521,body_behavioural,3.0.4,59.90581105330847,
4,"Thomas and Sadie realized there were menus on the table, and they glanced at them quickly.",3,2,None,None,None,None,None,,0,4,4,4,,,,,0,20,20,20,,,,,,,,,,,,,,,,,,,,,,,,,,,,,,,,,,,1,2.684116799995536,,,,,,,,,,,,,,,,,,,,,,,,,,,,062519_p3,001,2019_Jun_25_1521,body_behavioural,3.0.4,59.90581105330847,
4,"The menus were laminated posters with silly names for all the foods, and since they didn’t want to read through each item description, they settled on familiar orders.",3,2,None,None,None,None,None,,0,4,4,4,,,,,0,21,21,21,,,,,,,,,,,,,,,,,,,,,,,,,,,,,,,,,,,1,2.2858826000010595,,,,,,,,,,,,,,,,,,,,,,,,,,,,062519_p3,001,2019_Jun_25_1521,body_behavioural,3.0.4,59.90581105330847,
4,"“I’ll have a burger, no tomatoes,” Thomas said.",3,2,None,None,None,None,None,,0,4,4,4,,,,,0,22,22,22,,,,,,,,,,,,,,,,,,,,,,,,,,,,,,,,,,,1,3.1198507249937393,,,,,,,,,,,,,,,,,,,,,,,,,,,,062519_p3,001,2019_Jun_25_1521,body_behavioural,3.0.4,59.90581105330847,
4,"Sadie asked about the reuben, and the waiter told her it was excellent.",3,2,None,None,None,None,None,,0,4,4,4,,,,,0,23,23,23,,,,,,,,,,,,,,,,,,,,,,,,,,,,,,,,,,,1,3.2532510409946553,,,,,,,,,,,,,,,,,,,,,,,,,,,,062519_p3,001,2019_Jun_25_1521,body_behavioural,3.0.4,59.90581105330847,
4,"Confirming that that was all they’d like, the waiter walked away. ",3,2,None,None,None,None,None,,0,4,4,4,,,,,0,24,24,24,,,,,,,,,,,,,,,,,,,,,,,,,,,,,,,,,,,1,2.50321473099757,,,,,,,,,,,,,,,,,,,,,,,,,,,,062519_p3,001,2019_Jun_25_1521,body_behavioural,3.0.4,59.90581105330847,
4,Sadie- not so quietly- burst into tears. ,3,3,None,None,None,None,None,,0,4,4,4,,,,,0,25,25,25,,,,,,,,,,,,,,,,,,,,,,,,,,,,,,,,,,,9,3.5697790359845385,,,,,,,,,,,,,,,,,,,,,,,,,,,,062519_p3,001,2019_Jun_25_1521,body_behavioural,3.0.4,59.90581105330847,
4,People sitting at the bar looked over and quickly averted their gaze when they figured what was happening. ,3,3,None,None,None,None,None,,0,4,4,4,,,,,0,26,26,26,,,,,,,,,,,,,,,,,,,,,,,,,,,,,,,,,,,1,0.986144154012436,,,,,,,,,,,,,,,,,,,,,,,,,,,,062519_p3,001,2019_Jun_25_1521,body_behavioural,3.0.4,59.90581105330847,
4,"She whispered, “Is this really what you want?",3,3,None,None,None,None,None,,0,4,4,4,,,,,0,27,27,27,,,,,,,,,,,,,,,,,,,,,,,,,,,,,,,,,,,1,2.2199879809923004,,,,,,,,,,,,,,,,,,,,,,,,,,,,062519_p3,001,2019_Jun_25_1521,body_behavioural,3.0.4,59.90581105330847,
4,"I don’t understand- things were fine, I thought. ",3,3,None,None,None,None,None,,0,4,4,4,,,,,0,28,28,28,,,,,,,,,,,,,,,,,,,,,,,,,,,,,,,,,,,1,0.9360180700023193,,,,,,,,,,,,,,,,,,,,,,,,,,,,062519_p3,001,2019_Jun_25_1521,body_behavioural,3.0.4,59.90581105330847,
4,I think we should stay together because we can change how much we hang out. ,3,3,None,None,None,None,None,,0,4,4,4,,,,,0,29,29,29,,,,,,,,,,,,,,,,,,,,,,,,,,,,,,,,,,,1,1.3186483409954235,,,,,,,,,,,,,,,,,,,,,,,,,,,,062519_p3,001,2019_Jun_25_1521,body_behavioural,3.0.4,59.90581105330847,
4,"We don’t have to hang out all the time, or as much as we do now.”",3,3,None,None,None,None,None,,0,4,4,4,,,,,0,30,30,30,,,,,,,,,,,,,,,,,,,,,,,,,,,,,,,,,,,1,0.9363835719996132,,,,,,,,,,,,,,,,,,,,,,,,,,,,062519_p3,001,2019_Jun_25_1521,body_behavioural,3.0.4,59.90581105330847,
4,Thomas chewed on his bottom lip and picked at his now bleeding hangnail. ,3,3,None,20.0,None,None,None,,0,4,4,4,,,,,0,31,31,31,,,,,,,,,,,,,,,,,,,,,,,,,,,,,,,,,,,1,1.2705049049982335,,,,,,,,,,,,,,,,,,,,,,,,,,,,062519_p3,001,2019_Jun_25_1521,body_behavioural,3.0.4,59.90581105330847,
4,The waiter appeared with the burger and reuben and set them in front of them.,4,3,None,None,None,None,None,,0,4,4,4,,,,,0,32,32,32,,,,,,,,,,,,,,,,,,,,,,,,,,,,,,,,,,,9,5.000960631994531,,,,,,,,,,,,,,,,,,,,,,,,,,,,062519_p3,001,2019_Jun_25_1521,body_behavioural,3.0.4,59.90581105330847,
4,“Is there anything else I can get for you two?,4,3,None,None,None,None,None,,0,4,4,4,,,,,0,33,33,33,,,,,,,,,,,,,,,,,,,,,,,,,,,,,,,,,,,1,1.0347157979849726,,,,,,,,,,,,,,,,,,,,,,,,,,,,062519_p3,001,2019_Jun_25_1521,body_behavioural,3.0.4,59.90581105330847,
4,Will you be getting dessert tonight?” he asked.,4,3,None,None,None,None,None,,0,4,4,4,,,,,0,34,34,34,,,,,,,,,,,,,,,,,,,,,,,,,,,,,,,,,,,1,1.0533570449915715,,,,,,,,,,,,,,,,,,,,,,,,,,,,062519_p3,001,2019_Jun_25_1521,body_behavioural,3.0.4,59.90581105330847,
4,"“Oh no, we’re good, thanks,” Thomas said blankly.",4,3,None,None,None,None,None,,0,4,4,4,,,,,0,35,35,35,,,,,,,,,,,,,,,,,,,,,,,,,,,,,,,,,,,1,0.5694186320179142,,,,,,,,,,,,,,,,,,,,,,,,,,,,062519_p3,001,2019_Jun_25_1521,body_behavioural,3.0.4,59.90581105330847,
4," With the waiter gone, Sadie suddenly stood up, grabbed half of the reuben, and shook it at him as she growled, “Don’t follow me, and don’t talk to me anymore!",4,4,None,None,None,None,None,,0,4,4,4,,,,,0,36,36,36,,,,,,,,,,,,,,,,,,,,,,,,,,,,,,,,,,,9,6.086036075023003,,,,,,,,,,,,,,,,,,,,,,,,,,,,062519_p3,001,2019_Jun_25_1521,body_behavioural,3.0.4,59.90581105330847,
4,"Also, I want my polaroid camera and Beatles poster back!”",4,4,None,None,None,None,None,,0,4,4,4,,,,,0,37,37,37,,,,,,,,,,,,,,,,,,,,,,,,,,,,,,,,,,,1,2.837608342990279,,,,,,,,,,,,,,,,,,,,,,,,,,,,062519_p3,001,2019_Jun_25_1521,body_behavioural,3.0.4,59.90581105330847,
4,"She stormed off, and the bell above the door jingled cheerfully as the door closed behind her.",4,4,None,None,None,None,None,,0,4,4,4,,,,,0,38,38,38,,,,,,,,,,,,,,,,,,,,,,,,,,,,,,,,,,,1,0.7198556450020988,,,,,,,,,,,,,,,,,,,,,,,,,,,,062519_p3,001,2019_Jun_25_1521,body_behavioural,3.0.4,59.90581105330847,
4,Thomas sat there for awhile surprised at how quickly everything had transpired. ,4,4,None,None,None,None,None,,0,4,4,4,,,,,0,39,39,39,,,,,,,,,,,,,,,,,,,,,,,,,,,,,,,,,,,1,0.937306734995218,,,,,,,,,,,,,,,,,,,,,,,,,,,,062519_p3,001,2019_Jun_25_1521,body_behavioural,3.0.4,59.90581105330847,
4,"He grabbed his burger and took a bite of it, creating a dry and fishy taste in his mouth.",4,4,None,None,None,None,None,,0,4,4,4,,,,,0,40,40,40,,,,,,,,,,,,,,,,,,,,,,,,,,,,,,,,,,,1,0.7363378050213214,,,,,,,,,,,,,,,,,,,,,,,,,,,,062519_p3,001,2019_Jun_25_1521,body_behavioural,3.0.4,59.90581105330847,
4,He dropped it back on his plate and wondered if the restaurant was responsible for the foul taste. ,4,4,None,13.0,5.0,None,None,,0,4,4,4,,,,,0,41,41,41,,,,,,,,,,,,,,,,,,,,,,,,,,,,,,,,,,,1,1.0845827370067127,,,,,,,,,,,,,,,,,,,,,,,,,,,,062519_p3,001,2019_Jun_25_1521,body_behavioural,3.0.4,59.90581105330847,
4,,,,,,,,,,0,4,4,4,,,,,,,,,,,,,,,,,,,,,,,,,,,,,,,,,,,,,,,,,,,,,,,,,,,,,,,,,,,,,,,,,,,,,,,,062519_p3,001,2019_Jun_25_1521,body_behavioural,3.0.4,59.90581105330847,
5,,,,,,,,,,0,5,5,5,0,0,0,0,,,,,,,,,,,,,,,,,,,,,,,,,,,,,space,1.0536860800057184,space,1.1856485310127027,space,0.4868111370014958,,,,,,,,,,,,,,,,,,,,,,,,,,,,,,,,,,062519_p3,001,2019_Jun_25_1521,body_behavioural,3.0.4,59.90581105330847,
5,"Charlie saw Alma as they walked into class, and he motioned for her to come sit in the back next to him because they had a deal to discuss.",1,1,34.0,,,,,,0,5,5,5,,,,,0,0,0,0,,,,,,,,,,,,,,,,,,,,,,,,,,,,,,,space,1.0202103850024287,space,1.42022214300232,9,19.386839229991892,,,,,,,,,,,,,,,,,,,,,,,,,,,,062519_p3,001,2019_Jun_25_1521,body_behavioural,3.0.4,59.90581105330847,
5,Charlie and Alma were both history majors with entrepreneurial bents.,1,1,None,,,,,,0,5,5,5,,,,,0,1,1,1,,,,,,,,,,,,,,,,,,,,,,,,,,,,,,,,,,,1,1.9845244900207035,,,,,,,,,,,,,,,,,,,,,,,,,,,,062519_p3,001,2019_Jun_25_1521,body_behavioural,3.0.4,59.90581105330847,
5,They were also both very busy and happened to be in the same class.,1,1,None,,,,,,0,5,5,5,,,,,0,2,2,2,,,,,,,,,,,,,,,,,,,,,,,,,,,,,,,,,,,1,1.1529639069922268,,,,,,,,,,,,,,,,,,,,,,,,,,,,062519_p3,001,2019_Jun_25_1521,body_behavioural,3.0.4,59.90581105330847,
5,"After talking at a party, Charlie had discovered that Alma was looking for financing for her web development company of which she was the founder and CEO.",1,1,None,,,,,,0,5,5,5,,,,,0,3,3,3,,,,,,,,,,,,,,,,,,,,,,,,,,,,,,,,,,,9,6.853540686977794,,,,,,,,,,,,,,,,,,,,,,,,,,,,062519_p3,001,2019_Jun_25_1521,body_behavioural,3.0.4,59.90581105330847,
5,It was serendipitous because he was an investment analyst for a student finance group on campus and he had been talking with other members of the group about making a new investment. ,1,1,None,,,,,,0,5,5,5,,,,,0,4,4,4,,,,,,,,,,,,,,,,,,,,,,,,,,,,,,,,,,,1,3.653475724015152,,,,,,,,,,,,,,,,,,,,,,,,,,,,062519_p3,001,2019_Jun_25_1521,body_behavioural,3.0.4,59.90581105330847,
5,"His financial group had come to a decision that morning about Alma’s startup, and he didn't want to wait until after class to discuss the proposal with her. ",1,1,None,,,,,,0,5,5,5,,,,,0,5,5,5,,,,,,,,,,,,,,,,,,,,,,,,,,,,,,,,,,,1,3.352823947003344,,,,,,,,,,,,,,,,,,,,,,,,,,,,062519_p3,001,2019_Jun_25_1521,body_behavioural,3.0.4,59.90581105330847,
5,The class was in a medium-sized auditorium which was brightly lit and very modern-looking. ,1,1,None,,,,,,0,5,5,5,,,,,0,6,6,6,,,,,,,,,,,,,,,,,,,,,,,,,,,,,,,,,,,9,4.037597080983687,,,,,,,,,,,,,,,,,,,,,,,,,,,,062519_p3,001,2019_Jun_25_1521,body_behavioural,3.0.4,59.90581105330847,
5,There were three projector screens in the front and each row of the audience had a table with power outlets and USB ports. ,1,1,None,,,,,,0,5,5,5,,,,,0,7,7,7,,,,,,,,,,,,,,,,,,,,,,,,,,,,,,,,,,,1,1.7031376950035337,,,,,,,,,,,,,,,,,,,,,,,,,,,,062519_p3,001,2019_Jun_25_1521,body_behavioural,3.0.4,59.90581105330847,
5,“Here we are at Lecture Seven of Archaeology of Rome” said the professor. ,2,1,None,,,,,,0,5,5,5,,,,,0,8,8,8,,,,,,,,,,,,,,,,,,,,,,,,,,,,,,,,,,,1,1.8187092430016492,,,,,,,,,,,,,,,,,,,,,,,,,,,,062519_p3,001,2019_Jun_25_1521,body_behavioural,3.0.4,59.90581105330847,
5,"“The topic for today is Augustus, an incredibly important influence in Roman architecture.” ",2,1,None,,,,,,0,5,5,5,,,,,0,9,9,9,,,,,,,,,,,,,,,,,,,,,,,,,,,,,,,,,,,1,1.6035943439928815,,,,,,,,,,,,,,,,,,,,,,,,,,,,062519_p3,001,2019_Jun_25_1521,body_behavioural,3.0.4,59.90581105330847,
5,She went into some recap of the last lecture.,2,1,None,,,,,,0,5,5,5,,,,,0,10,10,10,,,,,,,,,,,,,,,,,,,,,,,,,,,,,,,,,,,1,1.1836455799930263,,,,,,,,,,,,,,,,,,,,,,,,,,,,062519_p3,001,2019_Jun_25_1521,body_behavioural,3.0.4,59.90581105330847,
5,"Charlie turned to Alma and said, “Okay, so I’ve been thinking about your startup, and I have talked about it with my fellow investors.",2,2,None,,,,,,0,5,5,5,,,,,0,11,11,11,,,,,,,,,,,,,,,,,,,,,,,,,,,,,,,,,,,9,3.8532842629938386,,,,,,,,,,,,,,,,,,,,,,,,,,,,062519_p3,001,2019_Jun_25_1521,body_behavioural,3.0.4,59.90581105330847,
5,We’d like to invest half of what you originally suggested.,2,2,None,,,,,,0,5,5,5,,,,,0,12,12,12,,,,,,,,,,,,,,,,,,,,,,,,,,,,,,,,,,,1,2.653919940988999,,,,,,,,,,,,,,,,,,,,,,,,,,,,062519_p3,001,2019_Jun_25_1521,body_behavioural,3.0.4,59.90581105330847,
5,"So we propose we start with wiring you $28,000.",2,2,None,,,,,,0,5,5,5,,,,,0,13,13,13,,,,,,,,,,,,,,,,,,,,,,,,,,,,,,,,,,,1,1.0031483130005654,,,,,,,,,,,,,,,,,,,,,,,,,,,,062519_p3,001,2019_Jun_25_1521,body_behavioural,3.0.4,59.90581105330847,
5,We would see how the company does and then invest the other half later.” ,2,2,None,,,,,,0,5,5,5,,,,,0,14,14,14,,,,,,,,,,,,,,,,,,,,,,,,,,,,,,,,,,,1,1.0375256550032645,,,,,,,,,,,,,,,,,,,,,,,,,,,,062519_p3,001,2019_Jun_25_1521,body_behavioural,3.0.4,59.90581105330847,
5,"The professor said, “The senate had conferred upon him the title of Augustus the sacred and revered one, the restorer of traditional values, the city’s new religious leader, the restorer of temples. ",3,2,None,,,,,,0,5,5,5,,,,,0,15,15,15,,,,,,,,,,,,,,,,,,,,,,,,,,,,,,,,,,,1,2.8702865180093795,,,,,,,,,,,,,,,,,,,,,,,,,,,,062519_p3,001,2019_Jun_25_1521,body_behavioural,3.0.4,59.90581105330847,
5,"Augustus also sought to beautify Rome, make it into a new Athens, and dispel the criticisms of Rome as disorganized and ugly.”",3,2,None,,,,,,0,5,5,5,,,,,0,16,16,16,,,,,,,,,,,,,,,,,,,,,,,,,,,,,,,,,,,1,1.987330131989438,,,,,,,,,,,,,,,,,,,,,,,,,,,,062519_p3,001,2019_Jun_25_1521,body_behavioural,3.0.4,59.90581105330847,
5,"Alma turned to Charlie and offered her rebuttal, “I don’t know about that.",3,3,None,,,,,,0,5,5,5,,,,,0,17,17,17,,,,,,,,,,,,,,,,,,,,,,,,,,,,,,,,,,,1,2.834141026978614,,,,,,,,,,,,,,,,,,,,,,,,,,,,062519_p3,001,2019_Jun_25_1521,body_behavioural,3.0.4,59.90581105330847,
5,It’s not going to be possible to implement our ideas effectively unless the project is fully funded. ,3,3,None,,,,,,0,5,5,5,,,,,0,18,18,18,,,,,,,,,,,,,,,,,,,,,,,,,,,,,,,,,,,1,1.637136097997427,,,,,,,,,,,,,,,,,,,,,,,,,,,,062519_p3,001,2019_Jun_25_1521,body_behavioural,3.0.4,59.90581105330847,
5,"We would have to find other investors like your competitor on campus, Churchill Capital Group, and that would set us back in our timeline. ",3,3,None,,,,,,0,5,5,5,,,,,0,19,19,19,,,,,,,,,,,,,,,,,,,,,,,,,,,,,,,,,,,1,2.4373911049915478,,,,,,,,,,,,,,,,,,,,,,,,,,,,062519_p3,001,2019_Jun_25_1521,body_behavioural,3.0.4,59.90581105330847,
5,"Our profit projections assumed we'd be starting relatively soon, not months down the line.” ",3,3,None,,,,,,0,5,5,5,,,,,0,20,20,20,,,,,,,,,,,,,,,,,,,,,,,,,,,,,,,,,,,1,1.437154343992006,,,,,,,,,,,,,,,,,,,,,,,,,,,,062519_p3,001,2019_Jun_25_1521,body_behavioural,3.0.4,59.90581105330847,
5,They whispered back and forth during the entire class working out a compromise. ,3,3,None,,,,,,0,5,5,5,,,,,0,21,21,21,,,,,,,,,,,,,,,,,,,,,,,,,,,,,,,,,,,1,1.550837913993746,,,,,,,,,,,,,,,,,,,,,,,,,,,,062519_p3,001,2019_Jun_25_1521,body_behavioural,3.0.4,59.90581105330847,
5,The professor dismissed the students with a reminder that the midterm paper was due on Thursday and that they should email their papers to the TA.,4,3,None,,,,,,0,5,5,5,,,,,0,22,22,22,,,,,,,,,,,,,,,,,,,,,,,,,,,,,,,,,,,1,7.070740583003499,,,,,,,,,,,,,,,,,,,,,,,,,,,,062519_p3,001,2019_Jun_25_1521,body_behavioural,3.0.4,59.90581105330847,
5,"Everyone, except Charlie and Alma, packed up their things and headed out of the lecture hall. ",4,3,None,,,,,,0,5,5,5,,,,,0,23,23,23,,,,,,,,,,,,,,,,,,,,,,,,,,,,,,,,,,,1,3.4042827570228837,,,,,,,,,,,,,,,,,,,,,,,,,,,,062519_p3,001,2019_Jun_25_1521,body_behavioural,3.0.4,59.90581105330847,
5,"“Alright, so we’ll have the $30,000 wired to you by tomorrow,” Charlie said. ",4,4,None,,,,,,0,5,5,5,,,,,0,24,24,24,,,,,,,,,,,,,,,,,,,,,,,,,,,,,,,,,,,9,1.9359526530024596,,,,,,,,,,,,,,,,,,,,,,,,,,,,062519_p3,001,2019_Jun_25_1521,body_behavioural,3.0.4,59.90581105330847,
5,"This wasn't ideal for Charlie, but Alma had refused to budge, and his investment group had told him they were willing to pay the full amount if necessary. ",4,4,None,,,,,,0,5,5,5,,,,,0,25,25,25,,,,,,,,,,,,,,,,,,,,,,,,,,,,,,,,,,,1,1.5005298550240695,,,,,,,,,,,,,,,,,,,,,,,,,,,,062519_p3,001,2019_Jun_25_1521,body_behavioural,3.0.4,59.90581105330847,
5,They hugged in confirmation of the deal and made plans to sign the official paperwork the next day. ,4,4,None,,,,,,0,5,5,5,,,,,0,26,26,26,,,,,,,,,,,,,,,,,,,,,,,,,,,,,,,,,,,1,0.7700410949764773,,,,,,,,,,,,,,,,,,,,,,,,,,,,062519_p3,001,2019_Jun_25_1521,body_behavioural,3.0.4,59.90581105330847,
5,,,,,,,,,,0,5,5,5,,,,,,,,,,,,,,,,,,,,,,,,,,,,,,,,,,,,,,,,,,,,,,,,,,,,,,,,,,,,,,,,,,,,,,,,062519_p3,001,2019_Jun_25_1521,body_behavioural,3.0.4,59.90581105330847,
6,,,,,,,,,,0,6,6,6,0,0,0,0,,,,,,,,,,,,,,,,,,,,,,,,,,,,,space,0.7550741779850796,space,0.4695763929921668,space,0.4367454189923592,,,,,,,,,,,,,,,,,,,,,,,,,,,,,,,,,,062519_p3,001,2019_Jun_25_1521,body_behavioural,3.0.4,59.90581105330847,
6,"Sven and Isabel walked hurriedly from the cab into the Barcelona Airport after an incredible week with Isabel’s family, and this had wiped away any doubts Sven had had about his decision to propose. ",1,1,22.0,,,,,,0,6,6,6,,,,,0,0,0,0,,,,,,,,,,,,,,,,,,,,,,,,,,,,,,,space,0.9009765279770363,space,0.9377510170161258,9,6.252341005019844,,,,,,,,,,,,,,,,,,,,,,,,,,,,062519_p3,001,2019_Jun_25_1521,body_behavioural,3.0.4,59.90581105330847,
6,They had only been dating for 11 months so this was the first time he had met her family. ,1,1,None,,,,,,0,6,6,6,,,,,0,1,1,1,,,,,,,,,,,,,,,,,,,,,,,,,,,,,,,,,,,1,1.7866347680101171,,,,,,,,,,,,,,,,,,,,,,,,,,,,062519_p3,001,2019_Jun_25_1521,body_behavioural,3.0.4,59.90581105330847,
6,"They were pressed for time at the airport, with an hour and 15 minutes until their flight would take off to go back to the US, but they already had their online boarding passes and no checked luggage. ",1,1,None,,,,,,0,6,6,6,,,,,0,2,2,2,,,,,,,,,,,,,,,,,,,,,,,,,,,,,,,,,,,1,1.3389816350245383,,,,,,,,,,,,,,,,,,,,,,,,,,,,062519_p3,001,2019_Jun_25_1521,body_behavioural,3.0.4,59.90581105330847,
6,"Isabel stopped to rummage through her purse to look for her phone, and meanwhile Sven turned his back to her and took the velvet box out of his backpack, opening it to look at the ring he had bought her.",1,2,None,,,,,,0,6,6,6,,,,,0,3,3,3,,,,,,,,,,,,,,,,,,,,,,,,,,,,,,,,,,,1,3.20200771902455,,,,,,,,,,,,,,,,,,,,,,,,,,,,062519_p3,001,2019_Jun_25_1521,body_behavioural,3.0.4,59.90581105330847,
6,"He had received her parents’ blessing during the trip, and he was almost giddy with excitement. ",1,2,None,,,,,,0,6,6,6,,,,,0,4,4,4,,,,,,,,,,,,,,,,,,,,,,,,,,,,,,,,,,,1,2.5200483149965294,,,,,,,,,,,,,,,,,,,,,,,,,,,,062519_p3,001,2019_Jun_25_1521,body_behavioural,3.0.4,59.90581105330847,
6,"He tilted the ring backward and forward, despite having already studied it daily since purchasing it a few weeks ago. ",1,2,None,,,,,,0,6,6,6,,,,,0,5,5,5,,,,,,,,,,,,,,,,,,,,,,,,,,,,,,,,,,,1,3.020833184971707,,,,,,,,,,,,,,,,,,,,,,,,,,,,062519_p3,001,2019_Jun_25_1521,body_behavioural,3.0.4,59.90581105330847,
6,"It was a simple design, with two pink diamonds on a silver band.",1,2,None,,,,,,0,6,6,6,,,,,0,6,6,6,,,,,,,,,,,,,,,,,,,,,,,,,,,,,,,,,,,1,2.6344489979965147,,,,,,,,,,,,,,,,,,,,,,,,,,,,062519_p3,001,2019_Jun_25_1521,body_behavioural,3.0.4,59.90581105330847,
6,"“Sven, I’m good,” Isabel said. ",1,2,None,,,,,,0,6,6,6,,,,,0,7,7,7,,,,,,,,,,,,,,,,,,,,,,,,,,,,,,,,,,,1,3.803520258021308,,,,,,,,,,,,,,,,,,,,,,,,,,,,062519_p3,001,2019_Jun_25_1521,body_behavioural,3.0.4,59.90581105330847,
6,Sven closed the box and discretely put it in his pocket.,1,2,None,,,,,,0,6,6,6,,,,,0,8,8,8,,,,,,,,,,,,,,,,,,,,,,,,,,,,,,,,,,,1,2.4508062299864832,,,,,,,,,,,,,,,,,,,,,,,,,,,,062519_p3,001,2019_Jun_25_1521,body_behavioural,3.0.4,59.90581105330847,
6,"They entered the security line, weaving through the roped walkways to the front. ",2,2,None,,,,,,0,6,6,6,,,,,0,9,9,9,,,,,,,,,,,,,,,,,,,,,,,,,,,,,,,,,,,1,3.054468510003062,,,,,,,,,,,,,,,,,,,,,,,,,,,,062519_p3,001,2019_Jun_25_1521,body_behavioural,3.0.4,59.90581105330847,
6,"When they were up, Isabel realized her laptop was buried somewhere in her duffle bag. ",2,2,None,,,,,,0,6,6,6,,,,,0,10,10,10,,,,,,,,,,,,,,,,,,,,,,,,,,,,,,,,,,,1,8.886854798009153,,,,,,,,,,,,,,,,,,,,,,,,,,,,062519_p3,001,2019_Jun_25_1521,body_behavioural,3.0.4,59.90581105330847,
6,"Luckily, at the same time, there was a stall in the line because someone ahead of them had a suspicious amount of metal pieces on his person. ",2,2,None,,,,,,0,6,6,6,,,,,0,11,11,11,,,,,,,,,,,,,,,,,,,,,,,,,,,,,,,,,,,1,6.902950040006544,,,,,,,,,,,,,,,,,,,,,,,,,,,,062519_p3,001,2019_Jun_25_1521,body_behavioural,3.0.4,59.90581105330847,
6,Sven had to hold the growing mound of objects Isabel pulled from her bag until she unearthed the laptop and set it in a bin.,2,2,None,,,,,,0,6,6,6,,,,,0,12,12,12,,,,,,,,,,,,,,,,,,,,,,,,,,,,,,,,,,,1,5.551402129000053,,,,,,,,,,,,,,,,,,,,,,,,,,,,062519_p3,001,2019_Jun_25_1521,body_behavioural,3.0.4,59.90581105330847,
6,"She then gave her bag to Sven, unstrapped her heels, and took the bag back from Sven.",2,2,None,,,,,,0,6,6,6,,,,,0,13,13,13,,,,,,,,,,,,,,,,,,,,,,,,,,,,,,,,,,,1,4.467399924993515,,,,,,,,,,,,,,,,,,,,,,,,,,,,062519_p3,001,2019_Jun_25_1521,body_behavioural,3.0.4,59.90581105330847,
6,"Sven, relieved of his holding duties, hurriedly deposited his own backpack on the belt, and took off his shoes. ",2,2,None,,,,,,0,6,6,6,,,,,0,14,14,14,,,,,,,,,,,,,,,,,,,,,,,,,,,,,,,,,,,1,5.753476045007119,,,,,,,,,,,,,,,,,,,,,,,,,,,,062519_p3,001,2019_Jun_25_1521,body_behavioural,3.0.4,59.90581105330847,
6,"Sven went into the millimeter wave scanner after Isabel, put his hands up, and the metal bars whirled around him.",2,2,None,,,,,,0,6,6,6,,,,,0,15,15,15,,,,,,,,,,,,,,,,,,,,,,,,,,,,,,,,,,,1,3.287431653996464,,,,,,,,,,,,,,,,,,,,,,,,,,,,062519_p3,001,2019_Jun_25_1521,body_behavioural,3.0.4,59.90581105330847,
6,The security guard asked Sven to wait. ,2,2,None,,,,,,0,6,6,6,,,,,0,16,16,16,,,,,,,,,,,,,,,,,,,,,,,,,,,,,,,,,,,1,3.638307410001289,,,,,,,,,,,,,,,,,,,,,,,,,,,,062519_p3,001,2019_Jun_25_1521,body_behavioural,3.0.4,59.90581105330847,
6,"After looking at the monitor, the security guard said, “Sir, please empty your pockets,”.",2,2,None,,,,,,0,6,6,6,,,,,0,17,17,17,,,,,,,,,,,,,,,,,,,,,,,,,,,,,,,,,,,9,2.1703249250131194,,,,,,,,,,,,,,,,,,,,,,,,,,,,062519_p3,001,2019_Jun_25_1521,body_behavioural,3.0.4,59.90581105330847,
6,"Isabel, shoeless and wrinkling her eyebrows at Sven, looked at him expectantly.",2,2,None,,,,,,0,6,6,6,,,,,0,18,18,18,,,,,,,,,,,,,,,,,,,,,,,,,,,,,,,,,,,1,2.0699191390012857,,,,,,,,,,,,,,,,,,,,,,,,,,,,062519_p3,001,2019_Jun_25_1521,body_behavioural,3.0.4,59.90581105330847,
6,"Realizing that he had forgotten the ring in his pocket, he grabbed Isabel’s, got down on one knee, and opening the velvet box, said, “Isabel, this isn't quite how I'd planned this, but - will you marry me?”",2,3,None,,,,,,0,6,6,6,,,,,0,19,19,19,,,,,,,,,,,,,,,,,,,,,,,,,,,,,,,,,,,1,5.7530540190055035,,,,,,,,,,,,,,,,,,,,,,,,,,,,062519_p3,001,2019_Jun_25_1521,body_behavioural,3.0.4,59.90581105330847,
6,He held the ring up to her. ,2,3,None,,,,,,0,6,6,6,,,,,0,20,20,20,,,,,,,,,,,,,,,,,,,,,,,,,,,,,,,,,,,1,1.3529452109942213,,,,,,,,,,,,,,,,,,,,,,,,,,,,062519_p3,001,2019_Jun_25_1521,body_behavioural,3.0.4,59.90581105330847,
6,The security guard stood shocked.,2,3,None,,,,,,0,6,6,6,,,,,0,21,21,21,,,,,,,,,,,,,,,,,,,,,,,,,,,,,,,,,,,1,1.3532428400067147,,,,,,,,,,,,,,,,,,,,,,,,,,,,062519_p3,001,2019_Jun_25_1521,body_behavioural,3.0.4,59.90581105330847,
6,All the people who were putting their shoes back on and gathering their belongings stopped and walked closer to the couple.,2,3,None,,,,,,0,6,6,6,,,,,0,22,22,22,,,,,,,,,,,,,,,,,,,,,,,,,,,,,,,,,,,1,7.519524164003087,,,,,,,,,,,,,,,,,,,,,,,,,,,,062519_p3,001,2019_Jun_25_1521,body_behavioural,3.0.4,59.90581105330847,
6,Isabel didn’t know what to do since she was far too shy to respond in front of all the people around.,2,3,None,,,,,,0,6,6,6,,,,,0,23,23,23,,,,,,,,,,,,,,,,,,,,,,,,,,,,,,,,,,,1,3.5374084530049004,,,,,,,,,,,,,,,,,,,,,,,,,,,,062519_p3,001,2019_Jun_25_1521,body_behavioural,3.0.4,59.90581105330847,
6,"Without responding to Sven, she frantically grabbed her and Sven’s shoes, leaving Sven to retrieve the rest, and she quickly walked onto the concourse.",3,3,None,,,,,,0,6,6,6,,,,,0,24,24,24,,,,,,,,,,,,,,,,,,,,,,,,,,,,,,,,,,,1,2.720315020007547,,,,,,,,,,,,,,,,,,,,,,,,,,,,062519_p3,001,2019_Jun_25_1521,body_behavioural,3.0.4,59.90581105330847,
6,"Sven, terrified, grabbed everything and hurried after Isabel onto the concourse shoeless.",3,3,None,,,,,,0,6,6,6,,,,,0,25,25,25,,,,,,,,,,,,,,,,,,,,,,,,,,,,,,,,,,,1,3.5367235080047976,,,,,,,,,,,,,,,,,,,,,,,,,,,,062519_p3,001,2019_Jun_25_1521,body_behavioural,3.0.4,59.90581105330847,
6,Sven eventually caught up to her with their bags and the open ring box.,3,3,None,,,,,,0,6,6,6,,,,,0,26,26,26,,,,,,,,,,,,,,,,,,,,,,,,,,,,,,,,,,,1,3.60081366499071,,,,,,,,,,,,,,,,,,,,,,,,,,,,062519_p3,001,2019_Jun_25_1521,body_behavioural,3.0.4,59.90581105330847,
6,"She stopped and with wide, excited eyes, shouted, “Of course yes, Sven!” ",3,4,None,,,,,,0,6,6,6,,,,,0,27,27,27,,,,,,,,,,,,,,,,,,,,,,,,,,,,,,,,,,,1,3.8201959040015936,,,,,,,,,,,,,,,,,,,,,,,,,,,,062519_p3,001,2019_Jun_25_1521,body_behavioural,3.0.4,59.90581105330847,
6,"They dropped their belongings and hugged, and Sven put the ring onto Isabel’s finger. ",3,4,None,,,,,,0,6,6,6,,,,,0,28,28,28,,,,,,,,,,,,,,,,,,,,,,,,,,,,,,,,,,,1,2.61743255899637,,,,,,,,,,,,,,,,,,,,,,,,,,,,062519_p3,001,2019_Jun_25_1521,body_behavioural,3.0.4,59.90581105330847,
6,"“Isabel, you scared me!” he said. ",3,4,None,,,,,,0,6,6,6,,,,,0,29,29,29,,,,,,,,,,,,,,,,,,,,,,,,,,,,,,,,,,,1,3.01745061101974,,,,,,,,,,,,,,,,,,,,,,,,,,,,062519_p3,001,2019_Jun_25_1521,body_behavioural,3.0.4,59.90581105330847,
6,"After getting their shoes back on, they practically floated to gate C40.",3,4,None,,,,,,0,6,6,6,,,,,0,30,30,30,,,,,,,,,,,,,,,,,,,,,,,,,,,,,,,,,,,9,7.920796913997037,,,,,,,,,,,,,,,,,,,,,,,,,,,,062519_p3,001,2019_Jun_25_1521,body_behavioural,3.0.4,59.90581105330847,
6,Sven was so happy he even high-fived a confused shoe-shine attendant as they passed.,3,4,None,,,,,,0,6,6,6,,,,,0,31,31,31,,,,,,,,,,,,,,,,,,,,,,,,,,,,,,,,,,,1,1.4834064419846982,,,,,,,,,,,,,,,,,,,,,,,,,,,,062519_p3,001,2019_Jun_25_1521,body_behavioural,3.0.4,59.90581105330847,
6,Isabel texted her best friend telling her the news as they walked. ,3,4,None,,,,,,0,6,6,6,,,,,0,32,32,32,,,,,,,,,,,,,,,,,,,,,,,,,,,,,,,,,,,1,1.0540261830028612,,,,,,,,,,,,,,,,,,,,,,,,,,,,062519_p3,001,2019_Jun_25_1521,body_behavioural,3.0.4,59.90581105330847,
6,"Having arrived at their gate, they waited, until the attendant called for passengers, and they scanned their tickets to board the plane.",4,4,None,,,,,,0,6,6,6,,,,,0,33,33,33,,,,,,,,,,,,,,,,,,,,,,,,,,,,,,,,,,,1,4.786261598987039,,,,,,,,,,,,,,,,,,,,,,,,,,,,062519_p3,001,2019_Jun_25_1521,body_behavioural,3.0.4,59.90581105330847,
6,"They walked through the connecting tunnel to the plane and sat together in first class, in seats 2A and 2B.",4,4,None,,,,,,0,6,6,6,,,,,0,34,34,34,,,,,,,,,,,,,,,,,,,,,,,,,,,,,,,,,,,1,4.484972401987761,,,,,,,,,,,,,,,,,,,,,,,,,,,,062519_p3,001,2019_Jun_25_1521,body_behavioural,3.0.4,59.90581105330847,
6,"Some of their neighboring passengers who had witnessed the proposal at security congratulated them, and a woman next to them showed them that she had been live-tweeting the whole event and that it was already going viral online.",4,4,None,,,,,,0,6,6,6,,,,,0,35,35,35,,,,,,,,,,,,,,,,,,,,,,,,,,,,,,,,,,,1,3.5024075109977275,,,,,,,,,,,,,,,,,,,,,,,,,,,,062519_p3,001,2019_Jun_25_1521,body_behavioural,3.0.4,59.90581105330847,
6,"Isabel slid down in her seat with her hands over her face, embarrassed and overjoyed at the same time.
",4,4,None,,,,,,0,6,6,6,,,,,0,36,36,36,,,,,,,,,,,,,,,,,,,,,,,,,,,,,,,,,,,1,4.917626206995919,,,,,,,,,,,,,,,,,,,,,,,,,,,,062519_p3,001,2019_Jun_25_1521,body_behavioural,3.0.4,59.90581105330847,
6,,,,,,,,,,0,6,6,6,,,,,,,,,,,,,,,,,,,,,,,,,,,,,,,,,,,,,,,,,,,,,,,,,,,,,,,,,,,,,,,,,,,,,,,,062519_p3,001,2019_Jun_25_1521,body_behavioural,3.0.4,59.90581105330847,
7,,,,,,,,,,0,7,7,7,0,0,0,0,,,,,,,,,,,,,,,,,,,,,,,,,,,,,space,1.5031489980174229,space,0.7507518340134993,space,0.6033373459940776,,,,,,,,,,,,,,,,,,,,,,,,,,,,,,,,,,062519_p3,001,2019_Jun_25_1521,body_behavioural,3.0.4,59.90581105330847,
7,,,,,,,,,,0,7,7,7,1,0,1,0,,,,,,,,,,,,,,,,,,,,,,,,,,,,,,,,,space,0.46956835500895977,,,,,,,,,,,,,,,,,,,,,,,,,,,,,,,,,,062519_p3,001,2019_Jun_25_1521,body_behavioural,3.0.4,59.90581105330847,
7,,,,,,,,,,0,7,7,7,2,0,2,0,,,,,,,,,,,,,,,,,,,,,,,,,,,,,,,,,space,0.4357567800034303,,,,,,,,,,,,,,,,,,,,,,,,,,,,,,,,,,062519_p3,001,2019_Jun_25_1521,body_behavioural,3.0.4,59.90581105330847,
7,,,,,,,,,,0,7,7,7,3,0,3,0,,,,,,,,,,,,,,,,,,,,,,,,,,,,,,,,,space,0.4196339329937473,,,,,,,,,,,,,,,,,,,,,,,,,,,,,,,,,,062519_p3,001,2019_Jun_25_1521,body_behavioural,3.0.4,59.90581105330847,
7,"It didn’t help the situation that Calvin and Jessie were running late to the airport, since Jessie had already been fuming at Calvin and preparing to end the relationship with him.",1,1,12.0,,,,,,0,7,7,7,,,,,0,0,0,0,,,,,,,,,,,,,,,,,,,,,,,,,,,,,,,space,0.5509360700089019,space,1.1692680609994568,9,11.86937205499271,,,,,,,,,,,,,,,,,,,,,,,,,,,,062519_p3,001,2019_Jun_25_1521,body_behavioural,3.0.4,59.90581105330847,
7,"Upon arriving at their terminal, they had only 45 minutes until their international flight would depart from Jamaica for the US.",1,1,None,,,,,,0,7,7,7,,,,,0,1,1,1,,,,,,,,,,,,,,,,,,,,,,,,,,,,,,,,,,,1,4.185516156023368,,,,,,,,,,,,,,,,,,,,,,,,,,,,062519_p3,001,2019_Jun_25_1521,body_behavioural,3.0.4,59.90581105330847,
7,"It had been a tough vacation, which was planned well before Jessie began to think of breaking up 6 weeks ago.  ",1,1,None,,,,,,0,7,7,7,,,,,0,2,2,2,,,,,,,,,,,,,,,,,,,,,,,,,,,,,,,,,,,1,4.620025880023604,,,,,,,,,,,,,,,,,,,,,,,,,,,,062519_p3,001,2019_Jun_25_1521,body_behavioural,3.0.4,59.90581105330847,
7,"Calvin knew that Jessie was upset, but wasn't sure what to do besides attempt to carry on as normal.",1,1,None,,,,,,0,7,7,7,,,,,0,3,3,3,,,,,,,,,,,,,,,,,,,,,,,,,,,,,,,,,,,1,5.922039789991686,,,,,,,,,,,,,,,,,,,,,,,,,,,,062519_p3,001,2019_Jun_25_1521,body_behavioural,3.0.4,59.90581105330847,
7,"The security line was very short, and once the online boarding passes were scanned, Calvin took off his belt and watch, and they put their bags on the conveyor belt.",2,1,None,,,,,,0,7,7,7,,,,,0,4,4,4,,,,,,,,,,,,,,,,,,,,,,,,,,,,,,,,,,,9,1.9714374119939748,,,,,,,,,,,,,,,,,,,,,,,,,,,,062519_p3,001,2019_Jun_25_1521,body_behavioural,3.0.4,59.90581105330847,
7,"There was a short halt in security proceedings so that the security guards could change shifts, but, once everything was back in order, they were ushered quickly through the metal detector. ",2,1,None,,,,,,0,7,7,7,,,,,0,5,5,5,,,,,,,,,,,,,,,,,,,,,,,,,,,,,,,,,,,1,1.7704292349808384,,,,,,,,,,,,,,,,,,,,,,,,,,,,062519_p3,001,2019_Jun_25_1521,body_behavioural,3.0.4,59.90581105330847,
7,"“The infrastructure of this airport is really quite poor," said Calvin as they waited for their bags to emerge from the x-ray machine.",2,1,None,,,,,,0,7,7,7,,,,,0,6,6,6,,,,,,,,,,,,,,,,,,,,,,,,,,,,,,,,,,,1,3.1673186459811404,,,,,,,,,,,,,,,,,,,,,,,,,,,,062519_p3,001,2019_Jun_25_1521,body_behavioural,3.0.4,59.90581105330847,
7,“I could've hidden something in my shoes quite easily.” ,2,1,None,,,,,,0,7,7,7,,,,,0,7,7,7,,,,,,,,,,,,,,,,,,,,,,,,,,,,,,,,,,,1,3.037140664004255,,,,,,,,,,,,,,,,,,,,,,,,,,,,062519_p3,001,2019_Jun_25_1521,body_behavioural,3.0.4,59.90581105330847,
7,"Jessie, exasperated, scowled at the conveyor belt.",2,1,None,,,,,,0,7,7,7,,,,,0,8,8,8,,,,,,,,,,,,,,,,,,,,,,,,,,,,,,,,,,,1,3.1673633370082825,,,,,,,,,,,,,,,,,,,,,,,,,,,,062519_p3,001,2019_Jun_25_1521,body_behavioural,3.0.4,59.90581105330847,
7,“What?” he asked.,2,1,None,,,,,,0,7,7,7,,,,,0,9,9,9,,,,,,,,,,,,,,,,,,,,,,,,,,,,,,,,,,,1,0.9370036759937648,,,,,,,,,,,,,,,,,,,,,,,,,,,,062519_p3,001,2019_Jun_25_1521,body_behavioural,3.0.4,59.90581105330847,
7,"Balling up her fists and turning to him angrily, she said, “Calvin, I really don’t think I can do this anymore because I don’t think our personalities are compatible. ",2,2,None,,,,,,0,7,7,7,,,,,0,10,10,10,,,,,,,,,,,,,,,,,,,,,,,,,,,,,,,,,,,1,10.887222791003296,,,,,,,,,,,,,,,,,,,,,,,,,,,,062519_p3,001,2019_Jun_25_1521,body_behavioural,3.0.4,59.90581105330847,
7,I think it’s best that once we get to the States we part ways for good.” ,2,2,None,,,,,,0,7,7,7,,,,,0,11,11,11,,,,,,,,,,,,,,,,,,,,,,,,,,,,,,,,,,,1,5.836342323978897,,,,,,,,,,,,,,,,,,,,,,,,,,,,062519_p3,001,2019_Jun_25_1521,body_behavioural,3.0.4,59.90581105330847,
7,Calvin said nothing as he grabbed his bag.,3,2,None,,,,,,0,7,7,7,,,,,0,12,12,12,,,,,,,,,,,,,,,,,,,,,,,,,,,,,,,,,,,1,2.770017318020109,,,,,,,,,,,,,,,,,,,,,,,,,,,,062519_p3,001,2019_Jun_25_1521,body_behavioural,3.0.4,59.90581105330847,
7,Jessie trailed behind him as they hurried their way quickly toward gate A28.,3,2,None,,,,,,0,7,7,7,,,,,0,13,13,13,,,,,,,,,,,,,,,,,,,,,,,,,,,,,,,,,,,9,5.634337688010419,,,,,,,,,,,,,,,,,,,,,,,,,,,,062519_p3,001,2019_Jun_25_1521,body_behavioural,3.0.4,59.90581105330847,
7,“So now you have nothing to say?” Jessie said. ,3,2,None,,,,,,0,7,7,7,,,,,0,14,14,14,,,,,,,,,,,,,,,,,,,,,,,,,,,,,,,,,,,1,1.4529567979916465,,,,,,,,,,,,,,,,,,,,,,,,,,,,062519_p3,001,2019_Jun_25_1521,body_behavioural,3.0.4,59.90581105330847,
7,"Calvin didn't answer, gritting his teeth and staring straight ahead. ",3,2,None,,,,,,0,7,7,7,,,,,0,15,15,15,,,,,,,,,,,,,,,,,,,,,,,,,,,,,,,,,,,1,1.1865523860033136,,,,,,,,,,,,,,,,,,,,,,,,,,,,062519_p3,001,2019_Jun_25_1521,body_behavioural,3.0.4,59.90581105330847,
7,"He was very frustrated that he felt he had been trying to appease Jessie for the entirety of the vacation, and it seemed to be completed unappreciated. ",3,2,None,,,,,,0,7,7,7,,,,,0,16,16,16,,,,,,,,,,,,,,,,,,,,,,,,,,,,,,,,,,,1,2.436064109992003,,,,,,,,,,,,,,,,,,,,,,,,,,,,062519_p3,001,2019_Jun_25_1521,body_behavioural,3.0.4,59.90581105330847,
7,"Their silence was punctuated only by the rapid, rhythmic clacking of their suitcase wheels over the tile floor as they continued power-walking through the terminal. ",3,2,None,,,,,,0,7,7,7,,,,,0,17,17,17,,,,,,,,,,,,,,,,,,,,,,,,,,,,,,,,,,,1,0.9336713619995862,,,,,,,,,,,,,,,,,,,,,,,,,,,,062519_p3,001,2019_Jun_25_1521,body_behavioural,3.0.4,59.90581105330847,
7,"Calvin finally turned to address her as they continued walking: “Jessie, this makes perfect sense. ",3,3,None,,,,,,0,7,7,7,,,,,0,18,18,18,,,,,,,,,,,,,,,,,,,,,,,,,,,,,,,,,,,1,2.185665864002658,,,,,,,,,,,,,,,,,,,,,,,,,,,,062519_p3,001,2019_Jun_25_1521,body_behavioural,3.0.4,59.90581105330847,
7,"If you feel this way, then I think we should break up because I don’t want to keep boring you.",3,3,None,,,,,,0,7,7,7,,,,,0,19,19,19,,,,,,,,,,,,,,,,,,,,,,,,,,,,,,,,,,,1,4.303445880010258,,,,,,,,,,,,,,,,,,,,,,,,,,,,062519_p3,001,2019_Jun_25_1521,body_behavioural,3.0.4,59.90581105330847,
7,"I agree, let’s part ways once we make it back.",3,3,None,,,,,,0,7,7,7,,,,,0,20,20,20,,,,,,,,,,,,,,,,,,,,,,,,,,,,,,,,,,,1,1.5702714560029563,,,,,,,,,,,,,,,,,,,,,,,,,,,,062519_p3,001,2019_Jun_25_1521,body_behavioural,3.0.4,59.90581105330847,
7,You should’ve spoken up about my apparent intolerability before you decided to plan this vacation.”,3,3,None,,,,,,0,7,7,7,,,,,0,21,21,21,,,,,,,,,,,,,,,,,,,,,,,,,,,,,,,,,,,1,11.387349844997516,,,,,,,,,,,,,,,,,,,,,,,,,,,,062519_p3,001,2019_Jun_25_1521,body_behavioural,3.0.4,59.90581105330847,
7,"He was very hurt, even though he didn’t want to show it. ",3,3,None,,,,,,0,7,7,7,,,,,0,22,22,22,,,,,,,,,,,,,,,,,,,,,,,,,,,,,,,,,,,1,5.253864072990837,,,,,,,,,,,,,,,,,,,,,,,,,,,,062519_p3,001,2019_Jun_25_1521,body_behavioural,3.0.4,59.90581105330847,
7,"Having made it to their gate, they scanned their tickets, and the annoyed flight attendant shooed them onto the jet bridge and then closed the plane door behind them.",4,3,None,,,,,,0,7,7,7,,,,,0,23,23,23,,,,,,,,,,,,,,,,,,,,,,,,,,,,,,,,,,,9,2.8694859289971646,,,,,,,,,,,,,,,,,,,,,,,,,,,,062519_p3,001,2019_Jun_25_1521,body_behavioural,3.0.4,59.90581105330847,
7,"Luckily, they had forgotten to arrange seats next to each other on the flight back.",4,3,None,,,,,,0,7,7,7,,,,,0,24,24,24,,,,,,,,,,,,,,,,,,,,,,,,,,,,,,,,,,,1,3.353025709016947,,,,,,,,,,,,,,,,,,,,,,,,,,,,062519_p3,001,2019_Jun_25_1521,body_behavioural,3.0.4,59.90581105330847,
7,"They were both in economy, but Jessie was headed for seat 33A while Calvin's seat was 33F. ",4,3,None,,,,,,0,7,7,7,,,,,0,25,25,25,,,,,,,,,,,,,,,,,,,,,,,,,,,,,,,,,,,1,3.48447200001101,,,,,,,,,,,,,,,,,,,,,,,,,,,,062519_p3,001,2019_Jun_25_1521,body_behavioural,3.0.4,59.90581105330847,
7,"Before Jessie sat down, she took a deep breath, calmed her emotions, and then awkwardly shook Calvin’s hand, mumbling, “Have a nice flight. ",4,4,None,,,,,,0,7,7,7,,,,,0,26,26,26,,,,,,,,,,,,,,,,,,,,,,,,,,,,,,,,,,,1,3.369986045989208,,,,,,,,,,,,,,,,,,,,,,,,,,,,062519_p3,001,2019_Jun_25_1521,body_behavioural,3.0.4,59.90581105330847,
7,"Oh, and when you get a chance, could you send me back all the philosophy books I lent you?”",4,4,None,,,,,,0,7,7,7,,,,,0,27,27,27,,,,,,,,,,,,,,,,,,,,,,,,,,,,,,,,,,,1,3.153162803995656,,,,,,,,,,,,,,,,,,,,,,,,,,,,062519_p3,001,2019_Jun_25_1521,body_behavioural,3.0.4,59.90581105330847,
7,He laughed in disbelief and walked to his window seat three rows back to get ready for takeoff.,4,4,None,,,,,,0,7,7,7,,,,,0,28,28,28,,,,,,,,,,,,,,,,,,,,,,,,,,,,,,,,,,,1,4.904151010996429,,,,,,,,,,,,,,,,,,,,,,,,,,,,062519_p3,001,2019_Jun_25_1521,body_behavioural,3.0.4,59.90581105330847,
7,Both were upset but glad that they would have this flight in solitude.,4,4,None,,,,,,0,7,7,7,,,,,0,29,29,29,,,,,,,,,,,,,,,,,,,,,,,,,,,,,,,,,,,1,4.384877634991426,,,,,,,,,,,,,,,,,,,,,,,,,,,,062519_p3,001,2019_Jun_25_1521,body_behavioural,3.0.4,59.90581105330847,
7,,,,,,,,,,0,7,7,7,,,,,,,,,,,,,,,,,,,,,,,,,,,,,,,,,,,,,,,,,,,,,,,,,,,,,,,,,,,,,,,,,,,,,,,,062519_p3,001,2019_Jun_25_1521,body_behavioural,3.0.4,59.90581105330847,
,,,,,,,,,,,,,,,,,,,,,,,,,,,,,,,,,,,,,,,,,,,,,,,,,,,,,,,,,,1433.7619782399852,space,2.1205874550214503,,,,,,,,,,,,,,,,,,,,,,,,,062519_p3,001,2019_Jun_25_1521,body_behavioural,3.0.4,59.90581105330847,
,,,,,,,,,"In this next part of the experiment, please recall each story to the best of your ability.",,,,,,,,,,,,,0,0,0,0,,,,,,,,,,,,,,,,,,,,,,,,,,,,,,,,,,,,space,5.886749380006222,,,,,,,,,,,,,,,,,,,,,,,062519_p3,001,2019_Jun_25_1521,body_behavioural,3.0.4,59.90581105330847,
,,,,,,,,,"You will be presented with the story title, names, the images, and a blank text box for each story.",,,,,,,,,,,,,0,1,1,1,,,,,,,,,,,,,,,,,,,,,,,,,,,,,,,,,,,,space,4.970195089990739,,,,,,,,,,,,,,,,,,,,,,,062519_p3,001,2019_Jun_25_1521,body_behavioural,3.0.4,59.90581105330847,
,,,,,,,,,Describe the story indicated with as many details as you can remember in the space provided. ,,,,,,,,,,,,,0,2,2,2,,,,,,,,,,,,,,,,,,,,,,,,,,,,,,,,,,,,space,4.220054886012804,,,,,,,,,,,,,,,,,,,,,,,062519_p3,001,2019_Jun_25_1521,body_behavioural,3.0.4,59.90581105330847,
,,,,,,,,,"When you are finished recalling one story, to move onto the next one, press the ‘return’ key. ",,,,,,,,,,,,,0,3,3,3,,,,,,,,,,,,,,,,,,,,,,,,,,,,,,,,,,,,space,4.55313615698833,,,,,,,,,,,,,,,,,,,,,,,062519_p3,001,2019_Jun_25_1521,body_behavioural,3.0.4,59.90581105330847,
,,,,,,,,,There is a 5 minute time limit to make your response. ,,,,,,,,,,,,,0,4,4,4,,,,,,,,,,,,,,,,,,,,,,,,,,,,,,,,,,,,space,1.85402304600575,,,,,,,,,,,,,,,,,,,,,,,062519_p3,001,2019_Jun_25_1521,body_behavioural,3.0.4,59.90581105330847,
,,,,,,,,,Please note that you will not be able to capitalize any letters except for the first letter of your answer. This will not effect the scoring of your recall answer.,,,,,,,,,,,,,0,5,5,5,,,,,,,,,,,,,,,,,,,,,,,,,,,,,,,,,,,,space,5.268214740004623,,,,,,,,,,,,,,,,,,,,,,,062519_p3,001,2019_Jun_25_1521,body_behavioural,3.0.4,59.90581105330847,
0,,,,,,,,,,,,,,,,,,,,,,,,,,0,0,0,0,,,,,,,,,,,,,,,,,,,,,,,,,,,,,,,,,,space,1.4041148819960654,"Leon and ariana meet in a history class. the class is talking about mummy. ariana concentrates in the course materials and take many notes about mummy. at the first sight leon saw ariana, he thinks he must have met ariana before and tries hard to recall it. he wrote a more to ariana and ariana said maybe she has a twin sister who were apart from her since born. leon asked ariana to hang-out. and they decided to met 8pm that day in a grocery store",,,,,,,,,,,,,,,,,,,,062519_p3,001,2019_Jun_25_1521,body_behavioural,3.0.4,59.90581105330847,
1,,,,,,,,,,,,,,,,,,,,,,,,,,0,1,1,1,,,,,,,,,,,,,,,,,,,,,,,,,,,,,,,,,,space,0.8680973500013351,,,,,,,,,,,,,,,,,,,,,062519_p3,001,2019_Jun_25_1521,body_behavioural,3.0.4,59.90581105330847,
2,,,,,,,,,,,,,,,,,,,,,,,,,,0,2,2,2,,,,,,,,,,,,,,,,,,,,,,,,,,,,,,,,,,space,1.0862926529953256,,,,,,,,,,,,,,,,,,,,,062519_p3,001,2019_Jun_25_1521,body_behavioural,3.0.4,59.90581105330847,
3,,,,,,,,,,,,,,,,,,,,,,,,,,0,3,3,3,,,,,,,,,,,,,,,,,,,,,,,,,,,,,,,,,,space,2.5340050880040508,"Senna wanted to propose to her girlfriend alvira to marry in a restaurant. the restaurant was ancient, greek-styled with tall walls, precious paintings and very-well decorated. the waiter assigned senna to a table near the ocean, so he can enjoy the beautiful views of the sea. when alvira  and senna arrive the restaurant, they give their name and waiter lead them to the assigned table. senna was very nervous. alvira excused to use the restroom. after she was back, they ordered some food. after a while the waiter brought the food, everything, especially the seafood, oysters were out of expectation. they were very satisfied. senna then take out the ring and alvira accept to marry him",,,,,,,,,,,,,,,,,,,,062519_p3,001,2019_Jun_25_1521,body_behavioural,3.0.4,59.90581105330847,
4,,,,,,,,,,,,,,,,,,,,,,,,,,0,4,4,4,,,,,,,,,,,,,,,,,,,,,,,,,,,,,,,,,,space,0.933634710003389,"Thomas wanted to break up with sadie. they appointed to meet that afternoon. thomas was nervous and didn;t kown how to phrase the sentence. in the afternoon, when they met in the restaurant, sadie was excited to share her experience for the day and asked thomas if he has anything interesting to talk about. thomas was embarrased. at this time the waitress came to the table asked if they want to order anything. by that time, they noticed the menu lied on the table for a while. after they made an order. thomas proposed to break up, sadie was very emotional but she tried hard to not cry aloud because there're many people around them",,,,,,,,,,,,,,,,,,,,062519_p3,001,2019_Jun_25_1521,body_behavioural,3.0.4,59.90581105330847,
5,,,,,,,,,,,,,,,,,,,,,,,,,,0,5,5,5,,,,,,,,,,,,,,,,,,,,,,,,,,,,,,,,,,space,1.0705116570170503,Charlie is a student organization--web development- leader. alma is ceo of an internet company looking for a web engineer. when they met in a class they mutually take. charlie proposed to invested in alma's company ,,,,,,,,,,,,,,,,,,,,062519_p3,001,2019_Jun_25_1521,body_behavioural,3.0.4,59.90581105330847,
6,,,,,,,,,,,,,,,,,,,,,,,,,,0,6,6,6,,,,,,,,,,,,,,,,,,,,,,,,,,,,,,,,,,space,0.8534557030070573,,,,,,,,,,,,,,,,,,,,,062519_p3,001,2019_Jun_25_1521,body_behavioural,3.0.4,59.90581105330847,
7,,,,,,,,,,,,,,,,,,,,,,,,,,0,7,7,7,,,,,,,,,,,,,,,,,,,,,,,,,,,,,,,,,,space,2.386633079004241,Calvin and jessie were on a break-up journey. they headed to the airport and were unsatisfied when passign the security check. they didn;t select the seat before checkin and luckily they were assigned seats apart from each other 33a and 33f . they were both released for not having to bear the other for the flight. jessie asked calvin to give her the phiisophy book. ,,,,,,,,,,,,,,,,,,,,062519_p3,001,2019_Jun_25_1521,body_behavioural,3.0.4,59.90581105330847,
,,,,,,,,,,,,,,,,,,,,,,,,,,,,,,,,,,,,,,,,,,,,,,,,,,,,,,,,,,,,,,,,,,3589.375167107006,space,1.7876866910082754,,,,,,,,,,,,,,,,,062519_p3,001,2019_Jun_25_1521,body_behavioural,3.0.4,59.90581105330847,
,,,,,,,,,"In this last part of the experiment, please answer 8 questions about each story.",,,,,,,,,,,,,,,,,,,,,0,0,0,0,,,,,,,,,,,,,,,,,,,,,,,,,,,,,,,,,,,,space,3.002806589996908,,,,,,,,,,,,,,,062519_p3,001,2019_Jun_25_1521,body_behavioural,3.0.4,59.90581105330847,
,,,,,,,,,Some of the questions are not related to the perspective you were asked to assume.,,,,,,,,,,,,,,,,,,,,,0,1,1,1,,,,,,,,,,,,,,,,,,,,,,,,,,,,,,,,,,,,space,3.3870811150118243,,,,,,,,,,,,,,,062519_p3,001,2019_Jun_25_1521,body_behavioural,3.0.4,59.90581105330847,
,,,,,,,,,"We realize that we did not tell you to think of these questions during the story, but please do your best to answer them.",,,,,,,,,,,,,,,,,,,,,0,2,2,2,,,,,,,,,,,,,,,,,,,,,,,,,,,,,,,,,,,,space,5.085955790011212,,,,,,,,,,,,,,,062519_p3,001,2019_Jun_25_1521,body_behavioural,3.0.4,59.90581105330847,
,,,,,,,,,"When you have finished typing your answer, hit ‘return’ to submit your answer and move onto the next question. ",,,,,,,,,,,,,,,,,,,,,0,3,3,3,,,,,,,,,,,,,,,,,,,,,,,,,,,,,,,,,,,,space,2.8680894160061143,,,,,,,,,,,,,,,062519_p3,001,2019_Jun_25_1521,body_behavioural,3.0.4,59.90581105330847,
0,,,,,,,,,,,,,,,,,,,,,,,,,,,,,,,,,,0,0,0,0,,,,,,,,,,,,,,,,,,,,,,,,,,,,Not sure,,,,,,space,0.6530293030082248,"Tall, with big glass window in the middle",non-primed first,Anthropologhy course talking about mummies,Mummy tomb,No idea ...,Leon found ariana looked very similiar to a person he know,Leon asked if ariana knows him,8pm in front of a grocery store,Not sure,,,,062519_p3,001,2019_Jun_25_1521,body_behavioural,3.0.4,59.90581105330847,
1,,,,,,,,,,,,,,,,,,,,,,,,,,,,,,,,,,0,1,1,1,,,,,,,,,,,,,,,,,,,,,,,,,,,,The groceries are above 56 bucks and simon paided by card,,,,,,space,2.1868382660031784,"They meet in the meat section in a grocery store, and picked up the same piece of meat",non-primed first,Simon commeted the meat is great and carina asked him to help pick up a meat,Hang out for barbecue,After simon paid for their grocery check,Very crowded,"Meat, chicken breast",8 checkout lanes and they step into line 6,The groceries are above 56 bucks and simon paided by card,,,,062519_p3,001,2019_Jun_25_1521,body_behavioural,3.0.4,59.90581105330847,
2,,,,,,,,,,,,,,,,,,,,,,,,,,,,,,,,,,0,2,2,2,,,,,,,,,,,,,,,,,,,,,,,,,,,,Morrison paid with card,,,,,,space,0.7210935500042979,Bianchi is the senior sales associate of a french cheese factory. morrison is teh store manager,primed first,200m,American cheese,They share the wine and cheese brought by bianchi,Cannot remember,Cheese,,Morrison paid with card,,,,062519_p3,001,2019_Jun_25_1521,body_behavioural,3.0.4,59.90581105330847,
3,,,,,,,,,,,,,,,,,,,,,,,,,,,,,,,,,,0,3,3,3,,,,,,,,,,,,,,,,,,,,,,,,,,,,Her best girlfriend,,,,,,space,1.3010715449927375,"Ancient greek style, located near the ocean",non-primed first,"The menu contained so many food, and everything looked so delicious",Oysters and salad,"Very enjoyed, everything is out of expectation and the oysters were extremely good",More than 1 0 years,Crystal diamond,,Her best girlfriend,,,,062519_p3,001,2019_Jun_25_1521,body_behavioural,3.0.4,59.90581105330847,
4,,,,,,,,,,,,,,,,,,,,,,,,,,,,,,,,,,0,4,4,4,,,,,,,,,,,,,,,,,,,,,,,,,,,,"Belt, shoes",,,,,,space,1.2205196080030873,"Crowded, small entrance, ",primed first,,Pizza,They dont enjoy very much,Within 30 mins,Dont remember,,"Belt, shoes",,,,062519_p3,001,2019_Jun_25_1521,body_behavioural,3.0.4,59.90581105330847,
5,,,,,,,,,,,,,,,,,,,,,,,,,,,,,,,,,,0,5,5,5,,,,,,,,,,,,,,,,,,,,,,,,,,,,,,,,,,space,0.8869796179933473,Charlie is the school organizaiton leader and alma is a local it company ceo,non-primed first,180 million,,,,,,,,,,062519_p3,001,2019_Jun_25_1521,body_behavioural,3.0.4,59.90581105330847,
6,,,,,,,,,,,,,,,,,,,,,,,,,,,,,,,,,,0,6,6,6,,,,,,,,,,,,,,,,,,,,,,,,,,,,2a 2b of the premier section,,,,,,space,2.0214409540058114,7 year,non-primed first,One big diamond,Pure love,Her best girlfriend and family,2hours,There were too many people,Gate 34,2a 2b of the premier section,,,,062519_p3,001,2019_Jun_25_1521,body_behavioural,3.0.4,59.90581105330847,
7,,,,,,,,,,,,,,,,,,,,,,,,,,,,,,,,,,0,7,7,7,,,,,,,,,,,,,,,,,,,,,,,,,,,,No,,,,,,space,1.3528057540243026,3hours,non-primed first,There are many people waiting in line,Gate 33,Ecomony class 33a and 33f,Past half year,Calvin kept boring jessie,Calvin doesn't want to break up and agree to do so as it can make jessie happy,No,,,,062519_p3,001,2019_Jun_25_1521,body_behavioural,3.0.4,59.90581105330847,
,,,,,,,,,,,,,,,,,,,,,,,,,,,,,,,,,,,,,,,,,,,,,,,,,,,,,,,,,,,,,,,,,,,,,,,,,,,,,,,,,,4604.211643390008,space,1.7175549700041302,062519_p3,001,2019_Jun_25_1521,body_behavioural,3.0.4,59.90581105330847,
,,,,,,,,,,,,,,,,,,,,,,,,,,,,,,,,,,,,,,0,0,0,0,,,,,,,,,,,,,,,,,,,,,,,,,,,,,,,,,,,,,,,,,,,,062519_p3,001,2019_Jun_25_1521,body_behavioural,3.0.4,59.90581105330847,
,,,,,,,,,,,,,,,,,,,,,,,,,,,,,,,,,,,,,,1,0,1,0,,,,,,,,,,,,,,,,,,,,,,,,,,,,,,,,,,,,,,,,,,,,062519_p3,001,2019_Jun_25_1521,body_behavioural,3.0.4,59.90581105330847,
,,,,,,,,,,,,,,,,,,,,,,,,,,,,,,,,,,,,,,2,0,2,0,,,,,,,,,,,,,,,,,,,,,,,,,,,,,,,,,,,,,,,,,,,,062519_p3,001,2019_Jun_25_1521,body_behavioural,3.0.4,59.90581105330847,
,,,,,,,,,,,,,,,,,,,,,,,,,,,,,,,,,,,,,,3,0,3,0,,,,,,,,,,,,,,,,,,,,,,,,,,,,,,,,,,,,,,,,,,,,062519_p3,001,2019_Jun_25_1521,body_behavioural,3.0.4,59.90581105330847,
,,,,,,,,,,,,,,,,,,,,,,,,,,,,,,,,,,,,,,4,0,4,0,,,,,,,,,,,,,,,,,,,,,,,,,,,,,,,,,,,,,,,,,,,,062519_p3,001,2019_Jun_25_1521,body_behavioural,3.0.4,59.90581105330847,
