count,storyText,locationEvent,socialEvent,story,locationEventSize,socialEventSize,socialAnswer,locationAnswer,instructText,trials.thisRepN,trials.thisTrialN,trials.thisN,trials.thisIndex,trials_7.thisRepN,trials_7.thisTrialN,trials_7.thisN,trials_7.thisIndex,trials_2.thisRepN,trials_2.thisTrialN,trials_2.thisN,trials_2.thisIndex,trials_3.thisRepN,trials_3.thisTrialN,trials_3.thisN,trials_3.thisIndex,trials_4.thisRepN,trials_4.thisTrialN,trials_4.thisN,trials_4.thisIndex,trials_5.thisRepN,trials_5.thisTrialN,trials_5.thisN,trials_5.thisIndex,trials_6.thisRepN,trials_6.thisTrialN,trials_6.thisN,trials_6.thisIndex,trials_8.thisRepN,trials_8.thisTrialN,trials_8.thisN,trials_8.thisIndex,order of stories,order of perspectives,key_resp_8.keys,key_resp_8.rt,key_resp_5.keys,key_resp_5.rt,key_resp_7.keys,key_resp_7.rt,key_resp_15.keys,key_resp_15.rt,key_resp_14.keys,key_resp_14.rt,story_presses.keys,story_presses.rt,story time,key_resp_6.keys,key_resp_6.rt,key_resp_2.keys,key_resp_2.rt,key_resp_10.keys,key_resp_10.rt,recall,recall time,key_resp_12.keys,key_resp_12.rt,key_resp_3.keys,key_resp_3.rt,key_resp_11.keys,key_resp_11.rt,question1_answer,order of question,question2_answer,question3_answer,question4_answer,question5_answer,question6_answer,question7_answer,question8_answer,questions time,key_resp_13.keys,key_resp_13.rt,participant,session,date,expName,psychopyVersion,frameRate,
0,,,,,,,,,,0,0,0,0,0,0,0,0,,,,,,,,,,,,,,,,,,,,,,,,,[32 23 44 41 22 11 33 14],"['Location' 'Location' 'Social' 'Location' 'Social' 'Social' 'Social'
 'Location']",space,12.25180250799167,space,3.0371840950101614,space,1.5200594830093905,,,,,,,,,,,,,,,,,,,,,,,,,,,,,,,,,,062519_p1,001,2019_Jun_25_1044,body_behavioural,3.0.4,59.91582127112529,
0,"Jeff, hoping that today would be a pivotal day for his company, had only been waiting inside the entrance of the airport for a few minutes when he saw William and eagerly waved him over. ",1,1,32.0,,,,,,0,0,0,0,,,,,0,0,0,0,,,,,,,,,,,,,,,,,,,,,,,,,,,,,space,1.3696917979978025,space,1.4035815499955788,9,18.770548158005113,,,,,,,,,,,,,,,,,,,,,,,,,,,,062519_p1,001,2019_Jun_25_1044,body_behavioural,3.0.4,59.91582127112529,
0,William checked his watch and was pleased to see that the two of them had two hours to discuss business before their flights left Boston.,1,1,None,,,,,,0,0,0,0,,,,,0,1,1,1,,,,,,,,,,,,,,,,,,,,,,,,,,,,,,,,,1,14.604636978008784,,,,,,,,,,,,,,,,,,,,,,,,,,,,062519_p1,001,2019_Jun_25_1044,body_behavioural,3.0.4,59.91582127112529,
0,Jeff and William had met the night before in line for the bathroom at a local bar. ,1,1,None,,,,,,0,0,0,0,,,,,0,2,2,2,,,,,,,,,,,,,,,,,,,,,,,,,,,,,,,,,9,9.503705228009494,,,,,,,,,,,,,,,,,,,,,,,,,,,,062519_p1,001,2019_Jun_25_1044,body_behavioural,3.0.4,59.91582127112529,
0,Jeff had delivered some surprisingly-detailed complaints to William about the wine selection.,1,1,None,,,,,,0,0,0,0,,,,,0,3,3,3,,,,,,,,,,,,,,,,,,,,,,,,,,,,,,,,,1,7.053410360007547,,,,,,,,,,,,,,,,,,,,,,,,,,,,062519_p1,001,2019_Jun_25_1044,body_behavioural,3.0.4,59.91582127112529,
0,They quickly learned that they were both in the wine industry: Jeff was a sales associate for wine vineyards in the Northeast and William was a wine buyer for corporate events.,1,1,None,,,,,,0,0,0,0,,,,,0,4,4,4,,,,,,,,,,,,,,,,,,,,,,,,,,,,,,,,,1,17.653783290006686,,,,,,,,,,,,,,,,,,,,,,,,,,,,062519_p1,001,2019_Jun_25_1044,body_behavioural,3.0.4,59.91582127112529,
0,"Since they both had flights out of Boston at the same time, they had agreed to meet at the airport and talk about doing business together. ",1,1,None,,,,,,0,0,0,0,,,,,0,5,5,5,,,,,,,,,,,,,,,,,,,,,,,,,,,,,,,,,1,7.984848205000162,,,,,,,,,,,,,,,,,,,,,,,,,,,,062519_p1,001,2019_Jun_25_1044,body_behavioural,3.0.4,59.91582127112529,
0,They waited in line at security.,2,1,None,,,,,,0,0,0,0,,,,,0,6,6,6,,,,,,,,,,,,,,,,,,,,,,,,,,,,,,,,,1,6.867731512989849,,,,,,,,,,,,,,,,,,,,,,,,,,,,062519_p1,001,2019_Jun_25_1044,body_behavioural,3.0.4,59.91582127112529,
0,"“It’s crazy that we met last night,” William said.",2,1,None,,,,,,0,0,0,0,,,,,0,7,7,7,,,,,,,,,,,,,,,,,,,,,,,,,,,,,,,,,1,12.920617232011864,,,,,,,,,,,,,,,,,,,,,,,,,,,,062519_p1,001,2019_Jun_25_1044,body_behavioural,3.0.4,59.91582127112529,
0,"“I am flying out right now to meet my boss, and was worried that I was going to show up empty handed without anything to show for the East Coast.” ",2,1,None,,,,,,0,0,0,0,,,,,0,8,8,8,,,,,,,,,,,,,,,,,,,,,,,,,,,,,,,,,1,15.3878920749994,,,,,,,,,,,,,,,,,,,,,,,,,,,,062519_p1,001,2019_Jun_25_1044,body_behavioural,3.0.4,59.91582127112529,
0,"“I know, what are the chances, right?” Jeff replied.",2,1,None,,,,,,0,0,0,0,,,,,0,9,9,9,,,,,,,,,,,,,,,,,,,,,,,,,,,,,,,,,1,4.402929781994317,,,,,,,,,,,,,,,,,,,,,,,,,,,,062519_p1,001,2019_Jun_25_1044,body_behavioural,3.0.4,59.91582127112529,
0,"William laughed and said, “I’m glad our complaining can come in handy.”",2,1,None,,,,,,0,0,0,0,,,,,0,10,10,10,,,,,,,,,,,,,,,,,,,,,,,,,,,,,,,,,1,5.53720129802241,,,,,,,,,,,,,,,,,,,,,,,,,,,,062519_p1,001,2019_Jun_25_1044,body_behavioural,3.0.4,59.91582127112529,
0,"William got focused and, shifting gears, said, “I know this is fast, but I'd like to get right down to business since time is a limiting factor.",2,2,None,,,,,,0,0,0,0,,,,,0,11,11,11,,,,,,,,,,,,,,,,,,,,,,,,,,,,,,,,,9,6.719579297001474,,,,,,,,,,,,,,,,,,,,,,,,,,,,062519_p1,001,2019_Jun_25_1044,body_behavioural,3.0.4,59.91582127112529,
0,I'd really like to order a couple of sample shipments from you and present them to our clients: I think they’d really love to have some East Coast variety. ,2,2,None,,,,,,0,0,0,0,,,,,0,12,12,12,,,,,,,,,,,,,,,,,,,,,,,,,,,,,,,,,1,15.020215130003635,,,,,,,,,,,,,,,,,,,,,,,,,,,,062519_p1,001,2019_Jun_25_1044,body_behavioural,3.0.4,59.91582127112529,
0,"Now, typically we expect to get these kinds of samples at a steep discount, at least half-off the label price.",2,2,None,,,,,,0,0,0,0,,,,,0,13,13,13,,,,,,,,,,,,,,,,,,,,,,,,,,,,,,,,,1,5.203444204991683,,,,,,,,,,,,,,,,,,,,,,,,,,,,062519_p1,001,2019_Jun_25_1044,body_behavioural,3.0.4,59.91582127112529,
0,This small loss is well worth the profit you’d be making if even a single client makes a contract.,2,2,None,,,,,,0,0,0,0,,,,,0,14,14,14,,,,,,,,,,,,,,,,,,,,,,,,,,,,,,,,,1,6.386975724977674,,,,,,,,,,,,,,,,,,,,,,,,,,,,062519_p1,001,2019_Jun_25_1044,body_behavioural,3.0.4,59.91582127112529,
0,So I propose that you send us 5 barrels of your select wines for $800.”,2,2,None,,,,,,0,0,0,0,,,,,0,15,15,15,,,,,,,,,,,,,,,,,,,,,,,,,,,,,,,,,1,6.202825973014114,,,,,,,,,,,,,,,,,,,,,,,,,,,,062519_p1,001,2019_Jun_25_1044,body_behavioural,3.0.4,59.91582127112529,
0,"Before going through the metal detector, there was a pause in the security line to roll out the empty bin cart and roll in a filled one. ",2,2,None,,,,,,0,0,0,0,,,,,0,16,16,16,,,,,,,,,,,,,,,,,,,,,,,,,,,,,,,,,1,37.188989710004535,,,,,,,,,,,,,,,,,,,,,,,,,,,,062519_p1,001,2019_Jun_25_1044,body_behavioural,3.0.4,59.91582127112529,
0,They placed everything in their bins. ,2,2,None,,,,,,0,0,0,0,,,,,0,17,17,17,,,,,,,,,,,,,,,,,,,,,,,,,,,,,,,,,1,4.30089029300143,,,,,,,,,,,,,,,,,,,,,,,,,,,,062519_p1,001,2019_Jun_25_1044,body_behavioural,3.0.4,59.91582127112529,
0,"Jeff mulled over the offer, nodding noncommittally to William's pitch as they proceeded through the metal detector.",2,2,None,,,,,,0,0,0,0,,,,,0,18,18,18,,,,,,,,,,,,,,,,,,,,,,,,,,,,,,,,,1,4.036236924992409,,,,,,,,,,,,,,,,,,,,,,,,,,,,062519_p1,001,2019_Jun_25_1044,body_behavioural,3.0.4,59.91582127112529,
0,"Having recovered from the security check, they began to walk through the concourse toward Jeff’s gate, B8, and William handed some printed spreadsheets to Jeff.",3,2,None,,,,,,0,0,0,0,,,,,0,19,19,19,,,,,,,,,,,,,,,,,,,,,,,,,,,,,,,,,1,26.42142694001086,,,,,,,,,,,,,,,,,,,,,,,,,,,,062519_p1,001,2019_Jun_25_1044,body_behavioural,3.0.4,59.91582127112529,
0,"Jeff, weaving through the crowd of travelers, squinted at William's rosy projections of the number of bottles he would purchase in the future.",3,2,None,,,,,,0,0,0,0,,,,,0,20,20,20,,,,,,,,,,,,,,,,,,,,,,,,,,,,,,,,,1,7.853577989997575,,,,,,,,,,,,,,,,,,,,,,,,,,,,062519_p1,001,2019_Jun_25_1044,body_behavioural,3.0.4,59.91582127112529,
0,"After thinking for a couple minutes and walking past a number of coffee shops that William was eyeing, Jeff said, “I am not sure about this since we’re not coming a corporate vineyard and gambling with sample shipments is the kind of risk we can’t necessarily make. ",3,3,None,,,,,,0,0,0,0,,,,,0,21,21,21,,,,,,,,,,,,,,,,,,,,,,,,,,,,,,,,,1,24.23489284000243,,,,,,,,,,,,,,,,,,,,,,,,,,,,062519_p1,001,2019_Jun_25_1044,body_behavioural,3.0.4,59.91582127112529,
0,"These corporate purchases would have to be huge and practically guaranteed, to offset the loss from selling sample shipments at a price like you suggest.”",3,3,None,,,,,,0,0,0,0,,,,,0,22,22,22,,,,,,,,,,,,,,,,,,,,,,,,,,,,,,,,,1,11.45399283801089,,,,,,,,,,,,,,,,,,,,,,,,,,,,062519_p1,001,2019_Jun_25_1044,body_behavioural,3.0.4,59.91582127112529,
0,"William decided to tell Jeff that they had made the same offer to their competitor, Yankee Vines, who had refused and that they would make a better offer to Jeff and his company.",3,3,None,,,,,,0,0,0,0,,,,,0,23,23,23,,,,,,,,,,,,,,,,,,,,,,,,,,,,,,,,,1,26.755042249977123,,,,,,,,,,,,,,,,,,,,,,,,,,,,062519_p1,001,2019_Jun_25_1044,body_behavioural,3.0.4,59.91582127112529,
0,"They walked to the gates very slowly, barely registering the hubbub of the airport.",3,3,None,,,,,,0,0,0,0,,,,,0,24,24,24,,,,,,,,,,,,,,,,,,,,,,,,,,,,,,,,,1,12.453843499999493,,,,,,,,,,,,,,,,,,,,,,,,,,,,062519_p1,001,2019_Jun_25_1044,body_behavioural,3.0.4,59.91582127112529,
0,"William and Jeff came to an agreement on a compromise rate on the sample shipment, paying $400 for a $600 shipment of wine sample, and they finalized the deal with a handshake. ",3,4,None,,,,,,0,0,0,0,,,,,0,25,25,25,,,,,,,,,,,,,,,,,,,,,,,,,,,,,,,,,9,11.120519338001031,,,,,,,,,,,,,,,,,,,,,,,,,,,,062519_p1,001,2019_Jun_25_1044,body_behavioural,3.0.4,59.91582127112529,
0,"“Well, what a tremendous pleasure to do business with you and to have all this work out,” William said.",3,4,None,,,,,,0,0,0,0,,,,,0,26,26,26,,,,,,,,,,,,,,,,,,,,,,,,,,,,,,,,,1,5.620060635003028,,,,,,,,,,,,,,,,,,,,,,,,,,,,062519_p1,001,2019_Jun_25_1044,body_behavioural,3.0.4,59.91582127112529,
0,"Jeff nodded enthusiastically, and responded, “Likewise- this has been great.  ",3,4,None,,,,,,0,0,0,0,,,,,0,27,27,27,,,,,,,,,,,,,,,,,,,,,,,,,,,,,,,,,1,6.30316296798992,,,,,,,,,,,,,,,,,,,,,,,,,,,,062519_p1,001,2019_Jun_25_1044,body_behavioural,3.0.4,59.91582127112529,
0,I'll let you get to your gate.,3,4,None,,,,,,0,0,0,0,,,,,0,28,28,28,,,,,,,,,,,,,,,,,,,,,,,,,,,,,,,,,1,5.38729590800358,,,,,,,,,,,,,,,,,,,,,,,,,,,,062519_p1,001,2019_Jun_25_1044,body_behavioural,3.0.4,59.91582127112529,
0,"Once we’re both back on the ground, we can work out all the official documentation and get this in the books.”",3,4,None,,,,,,0,0,0,0,,,,,0,29,29,29,,,,,,,,,,,,,,,,,,,,,,,,,,,,,,,,,1,3.169867938006064,,,,,,,,,,,,,,,,,,,,,,,,,,,,062519_p1,001,2019_Jun_25_1044,body_behavioural,3.0.4,59.91582127112529,
0,"Jeff jogged to his gate, scanned his boarding pass, and walked onto the plane.",4,4,None,,,,,,0,0,0,0,,,,,0,30,30,30,,,,,,,,,,,,,,,,,,,,,,,,,,,,,,,,,1,3.6864791630068794,,,,,,,,,,,,,,,,,,,,,,,,,,,,062519_p1,001,2019_Jun_25_1044,body_behavioural,3.0.4,59.91582127112529,
0,He sat down in seat 4A in the business class section and  typed out a quick email on his phone letting the rest of his team know the good news. ,4,4,None,,,,,,0,0,0,0,,,,,0,31,31,31,,,,,,,,,,,,,,,,,,,,,,,,,,,,,,,,,1,6.668867266009329,,,,,,,,,,,,,,,,,,,,,,,,,,,,062519_p1,001,2019_Jun_25_1044,body_behavioural,3.0.4,59.91582127112529,
0,"When the flight attendant came by, he ordered a glass of champagne to celebrate.",4,4,None,,,,,,0,0,0,0,,,,,0,32,32,32,,,,,,,,,,,,,,,,,,,,,,,,,,,,,,,,,1,2.7028310050081927,,,,,,,,,,,,,,,,,,,,,,,,,,,,062519_p1,001,2019_Jun_25_1044,body_behavioural,3.0.4,59.91582127112529,
0,,,,,,,,,,0,0,0,0,,,,,,,,,,,,,,,,,,,,,,,,,,,,,,,,,,,,,,,,,,,,,,,,,,,,,,,,,,,,,,,,,,,,,,062519_p1,001,2019_Jun_25_1044,body_behavioural,3.0.4,59.91582127112529,
1,,,,,,,,,,0,1,1,1,0,0,0,0,,,,,,,,,,,,,,,,,,,,,,,,,,,space,2.4030309399822727,space,2.1529545850062277,space,1.6534552619850729,,,,,,,,,,,,,,,,,,,,,,,,,,,,,,,,,,062519_p1,001,2019_Jun_25_1044,body_behavioural,3.0.4,59.91582127112529,
1,"Alex was a distracted, sweaty mess as he walked into the grocery store with Chloe; he was hoping that she wouldn't suspect that he was about to propose.",1,1,23.0,,,,,,0,1,1,1,,,,,0,0,0,0,,,,,,,,,,,,,,,,,,,,,,,,,,,,,space,0.6362497500085738,space,3.8533635799831245,9,38.2724657599756,,,,,,,,,,,,,,,,,,,,,,,,,,,,062519_p1,001,2019_Jun_25_1044,body_behavioural,3.0.4,59.91582127112529,
1,The grocery store was brightly lit with sunshine pouring in through glass walls at the front of the store.,1,1,None,,,,,,0,1,1,1,,,,,0,1,1,1,,,,,,,,,,,,,,,,,,,,,,,,,,,,,,,,,1,3.8535690999997314,,,,,,,,,,,,,,,,,,,,,,,,,,,,062519_p1,001,2019_Jun_25_1044,body_behavioural,3.0.4,59.91582127112529,
1,Also in the front area were large posters advertising thanksgiving promotions.,1,1,None,,,,,,0,1,1,1,,,,,0,2,2,2,,,,,,,,,,,,,,,,,,,,,,,,,,,,,,,,,1,7.537170362978941,,,,,,,,,,,,,,,,,,,,,,,,,,,,062519_p1,001,2019_Jun_25_1044,body_behavioural,3.0.4,59.91582127112529,
1,"The store was buzzing with activity because the next day was Thanksgiving, and most shoppers had carts piled high with turkey, stuffing, and pies.",1,1,None,,,,,,0,1,1,1,,,,,0,3,3,3,,,,,,,,,,,,,,,,,,,,,,,,,,,,,,,,,1,6.936353024997516,,,,,,,,,,,,,,,,,,,,,,,,,,,,062519_p1,001,2019_Jun_25_1044,body_behavioural,3.0.4,59.91582127112529,
1,Alex wanted to propose here because he knew Chloe would be wonderfully surprised. ,1,1,None,,,,,,0,1,1,1,,,,,0,4,4,4,,,,,,,,,,,,,,,,,,,,,,,,,,,,,,,,,1,4.469447515002685,,,,,,,,,,,,,,,,,,,,,,,,,,,,062519_p1,001,2019_Jun_25_1044,body_behavioural,3.0.4,59.91582127112529,
1,"After 23 months of dating, Alex knew one of the things Chloe loved most was surprises. ",1,1,None,,,,,,0,1,1,1,,,,,0,5,5,5,,,,,,,,,,,,,,,,,,,,,,,,,,,,,,,,,1,9.270606382022379,,,,,,,,,,,,,,,,,,,,,,,,,,,,062519_p1,001,2019_Jun_25_1044,body_behavioural,3.0.4,59.91582127112529,
1,"Chloe perused the canned goods aisle, and said, “Alex, we need a couple things.”",2,1,None,,,,,,0,1,1,1,,,,,0,6,6,6,,,,,,,,,,,,,,,,,,,,,,,,,,,,,,,,,9,8.67015330499271,,,,,,,,,,,,,,,,,,,,,,,,,,,,062519_p1,001,2019_Jun_25_1044,body_behavioural,3.0.4,59.91582127112529,
1,"He didn’t hear her and was fanning himself, and Chloe asked him if he was okay.",2,1,None,,,,,,0,1,1,1,,,,,0,7,7,7,,,,,,,,,,,,,,,,,,,,,,,,,,,,,,,,,1,3.2359868839848787,,,,,,,,,,,,,,,,,,,,,,,,,,,,062519_p1,001,2019_Jun_25_1044,body_behavioural,3.0.4,59.91582127112529,
1,"“Oh yeah, for sure,” he said, unconvincingly. ",2,1,None,,,,,,0,1,1,1,,,,,0,8,8,8,,,,,,,,,,,,,,,,,,,,,,,,,,,,,,,,,1,1.3681292749824934,,,,,,,,,,,,,,,,,,,,,,,,,,,,062519_p1,001,2019_Jun_25_1044,body_behavioural,3.0.4,59.91582127112529,
1,"She chuckled, “Alright, whatever you say.” ",2,1,None,,,,,,0,1,1,1,,,,,0,9,9,9,,,,,,,,,,,,,,,,,,,,,,,,,,,,,,,,,1,1.5863766949914861,,,,,,,,,,,,,,,,,,,,,,,,,,,,062519_p1,001,2019_Jun_25_1044,body_behavioural,3.0.4,59.91582127112529,
1,"She had a can of pumpkin puree and a bottle of vinegar picked out, and she was now mulling over the different cans of cranberry sauce.",2,1,None,,,,,,0,1,1,1,,,,,0,10,10,10,,,,,,,,,,,,,,,,,,,,,,,,,,,,,,,,,1,7.58703079802217,,,,,,,,,,,,,,,,,,,,,,,,,,,,062519_p1,001,2019_Jun_25_1044,body_behavioural,3.0.4,59.91582127112529,
1,"Alex was guessing she would be a while, and he turned his back to her and pulled out the ring to look at it one more time. ",2,2,None,,,,,,0,1,1,1,,,,,0,11,11,11,,,,,,,,,,,,,,,,,,,,,,,,,,,,,,,,,1,16.404258287977427,,,,,,,,,,,,,,,,,,,,,,,,,,,,062519_p1,001,2019_Jun_25_1044,body_behavioural,3.0.4,59.91582127112529,
1,The ring a thin band with one white diamond that glittered excessively in the light. ,2,2,None,,,,,,0,1,1,1,,,,,0,12,12,12,,,,,,,,,,,,,,,,,,,,,,,,,,,,,,,,,1,11.101455829979386,,,,,,,,,,,,,,,,,,,,,,,,,,,,062519_p1,001,2019_Jun_25_1044,body_behavioural,3.0.4,59.91582127112529,
1,“Do we need anything else?” she called out to him. ,2,2,None,,,,,,0,1,1,1,,,,,0,13,13,13,,,,,,,,,,,,,,,,,,,,,,,,,,,,,,,,,1,3.069493165006861,,,,,,,,,,,,,,,,,,,,,,,,,,,,062519_p1,001,2019_Jun_25_1044,body_behavioural,3.0.4,59.91582127112529,
1,"“Yeah I don’t know, honey,” he said back, still looking at the ring. ",2,2,None,,,,,,0,1,1,1,,,,,0,14,14,14,,,,,,,,,,,,,,,,,,,,,,,,,,,,,,,,,1,3.152830292994622,,,,,,,,,,,,,,,,,,,,,,,,,,,,062519_p1,001,2019_Jun_25_1044,body_behavioural,3.0.4,59.91582127112529,
1,"In the checkout area, there were 5 aisles open and they stepped in line for station 3. ",3,2,None,,,,,,0,1,1,1,,,,,0,15,15,15,,,,,,,,,,,,,,,,,,,,,,,,,,,,,,,,,1,17.620576143002836,,,,,,,,,,,,,,,,,,,,,,,,,,,,062519_p1,001,2019_Jun_25_1044,body_behavioural,3.0.4,59.91582127112529,
1,Alex was staring intensely off into the distance for most of the time and fidgeting with his wallet. ,3,2,None,,,,,,0,1,1,1,,,,,0,16,16,16,,,,,,,,,,,,,,,,,,,,,,,,,,,,,,,,,1,18.58757882498321,,,,,,,,,,,,,,,,,,,,,,,,,,,,062519_p1,001,2019_Jun_25_1044,body_behavioural,3.0.4,59.91582127112529,
1,"Chloe watched him trying to decide whether he looked scared or confused, and shrugged, pulling out her phone since she figured he’d talk about whatever was on his mind when he was ready. ",3,2,None,,,,,,0,1,1,1,,,,,0,17,17,17,,,,,,,,,,,,,,,,,,,,,,,,,,,,,,,,,1,11.418140035006218,,,,,,,,,,,,,,,,,,,,,,,,,,,,062519_p1,001,2019_Jun_25_1044,body_behavioural,3.0.4,59.91582127112529,
1,Alex looked over at their friends who were waiting by the entrance of the grocery store.,3,2,None,,,,,,0,1,1,1,,,,,0,18,18,18,,,,,,,,,,,,,,,,,,,,,,,,,,,,,,,,,1,4.200976959982654,,,,,,,,,,,,,,,,,,,,,,,,,,,,062519_p1,001,2019_Jun_25_1044,body_behavioural,3.0.4,59.91582127112529,
1,They walked over slowly. ,3,2,None,,,,,,0,1,1,1,,,,,0,19,19,19,,,,,,,,,,,,,,,,,,,,,,,,,,,,,,,,,1,2.2008478280040435,,,,,,,,,,,,,,,,,,,,,,,,,,,,062519_p1,001,2019_Jun_25_1044,body_behavioural,3.0.4,59.91582127112529,
1,"Seemingly out of nowhere, Alex took Chloe’s hand and he got down on one knee. ",3,3,None,,,,,,0,1,1,1,,,,,0,20,20,20,,,,,,,,,,,,,,,,,,,,,,,,,,,,,,,,,9,5.069833159999689,,,,,,,,,,,,,,,,,,,,,,,,,,,,062519_p1,001,2019_Jun_25_1044,body_behavioural,3.0.4,59.91582127112529,
1,Chloe gasped,3,3,None,,,,,,0,1,1,1,,,,,0,21,21,21,,,,,,,,,,,,,,,,,,,,,,,,,,,,,,,,,1,1.7028493929828983,,,,,,,,,,,,,,,,,,,,,,,,,,,,062519_p1,001,2019_Jun_25_1044,body_behavioural,3.0.4,59.91582127112529,
1,"“Chloe, I love you so much and I want to be with you forever, I can’t imagine a day without you.”",3,3,None,,,,,,0,1,1,1,,,,,0,22,22,22,,,,,,,,,,,,,,,,,,,,,,,,,,,,,,,,,1,2.150892385019688,,,,,,,,,,,,,,,,,,,,,,,,,,,,062519_p1,001,2019_Jun_25_1044,body_behavioural,3.0.4,59.91582127112529,
1,"“Alex, me too,” she replied.",3,3,None,,,,,,0,1,1,1,,,,,0,23,23,23,,,,,,,,,,,,,,,,,,,,,,,,,,,,,,,,,1,4.418442748021334,,,,,,,,,,,,,,,,,,,,,,,,,,,,062519_p1,001,2019_Jun_25_1044,body_behavioural,3.0.4,59.91582127112529,
1,"The ring was in the crevice of his wallet, and he opened it.",3,3,None,,,,,,0,1,1,1,,,,,0,24,24,24,,,,,,,,,,,,,,,,,,,,,,,,,,,,,,,,,1,6.62826837101602,,,,,,,,,,,,,,,,,,,,,,,,,,,,062519_p1,001,2019_Jun_25_1044,body_behavioural,3.0.4,59.91582127112529,
1,“Will you marry me?”,3,3,None,,,,,,0,1,1,1,,,,,0,25,25,25,,,,,,,,,,,,,,,,,,,,,,,,,,,,,,,,,1,2.9864831549930386,,,,,,,,,,,,,,,,,,,,,,,,,,,,062519_p1,001,2019_Jun_25_1044,body_behavioural,3.0.4,59.91582127112529,
1,"The people in line around them realized what was happening, stepped back, and started taking pictures.",3,3,None,,,,,,0,1,1,1,,,,,0,26,26,26,,,,,,,,,,,,,,,,,,,,,,,,,,,,,,,,,1,7.501545442006318,,,,,,,,,,,,,,,,,,,,,,,,,,,,062519_p1,001,2019_Jun_25_1044,body_behavioural,3.0.4,59.91582127112529,
1,Their friends were no longer trying to hide and were videotaping and taking pictures too. ,3,3,None,,,,,,0,1,1,1,,,,,0,27,27,27,,,,,,,,,,,,,,,,,,,,,,,,,,,,,,,,,1,3.3705273650120944,,,,,,,,,,,,,,,,,,,,,,,,,,,,062519_p1,001,2019_Jun_25_1044,body_behavioural,3.0.4,59.91582127112529,
1,"After a few moments of suspense she shouted,“Yes!”, and she jumped to embrace Alex in a hug. ",3,4,None,,,,,,0,1,1,1,,,,,0,28,28,28,,,,,,,,,,,,,,,,,,,,,,,,,,,,,,,,,1,3.553856602986343,,,,,,,,,,,,,,,,,,,,,,,,,,,,062519_p1,001,2019_Jun_25_1044,body_behavioural,3.0.4,59.91582127112529,
1,Everyone in line clapped and cheered. ,3,4,None,,,,,,0,1,1,1,,,,,0,29,29,29,,,,,,,,,,,,,,,,,,,,,,,,,,,,,,,,,1,1.3667435429815669,,,,,,,,,,,,,,,,,,,,,,,,,,,,062519_p1,001,2019_Jun_25_1044,body_behavioural,3.0.4,59.91582127112529,
1,"Alex put the ring on Chloe’s finger, who was nearly spinning in excitement.",3,4,None,,,,,,0,1,1,1,,,,,0,30,30,30,,,,,,,,,,,,,,,,,,,,,,,,,,,,,,,,,1,5.153158686996903,,,,,,,,,,,,,,,,,,,,,,,,,,,,062519_p1,001,2019_Jun_25_1044,body_behavioural,3.0.4,59.91582127112529,
1,“I love it!,3,4,None,,,,,,0,1,1,1,,,,,0,31,31,31,,,,,,,,,,,,,,,,,,,,,,,,,,,,,,,,,1,1.1180084549996536,,,,,,,,,,,,,,,,,,,,,,,,,,,,062519_p1,001,2019_Jun_25_1044,body_behavioural,3.0.4,59.91582127112529,
1,Oh my- it’s so glittery!,3,4,None,,,,,,0,1,1,1,,,,,0,32,32,32,,,,,,,,,,,,,,,,,,,,,,,,,,,,,,,,,1,1.8032401899981778,,,,,,,,,,,,,,,,,,,,,,,,,,,,062519_p1,001,2019_Jun_25_1044,body_behavioural,3.0.4,59.91582127112529,
1,Look at this!” she said as she shoved her hand in a stranger’s face.,3,4,None,,,,,,0,1,1,1,,,,,0,33,33,33,,,,,,,,,,,,,,,,,,,,,,,,,,,,,,,,,1,3.2020453229779378,,,,,,,,,,,,,,,,,,,,,,,,,,,,062519_p1,001,2019_Jun_25_1044,body_behavioural,3.0.4,59.91582127112529,
1,Their friends came over and hugged them.,3,4,None,,,,,,0,1,1,1,,,,,0,34,34,34,,,,,,,,,,,,,,,,,,,,,,,,,,,,,,,,,1,5.386671462008962,,,,,,,,,,,,,,,,,,,,,,,,,,,,062519_p1,001,2019_Jun_25_1044,body_behavioural,3.0.4,59.91582127112529,
1,The other people let them move up to the front of the checkout line. ,3,4,None,,,,,,0,1,1,1,,,,,0,35,35,35,,,,,,,,,,,,,,,,,,,,,,,,,,,,,,,,,1,2.537324593984522,,,,,,,,,,,,,,,,,,,,,,,,,,,,062519_p1,001,2019_Jun_25_1044,body_behavioural,3.0.4,59.91582127112529,
1,Chloe immediately texted her mom a picture of her hand. ,3,4,None,,,,,,0,1,1,1,,,,,0,36,36,36,,,,,,,,,,,,,,,,,,,,,,,,,,,,,,,,,1,2.6357207969995216,,,,,,,,,,,,,,,,,,,,,,,,,,,,062519_p1,001,2019_Jun_25_1044,body_behavioural,3.0.4,59.91582127112529,
1,The cashier congratulated them and scanned their groceries. ,4,4,None,,,,,,0,1,1,1,,,,,0,37,37,37,,,,,,,,,,,,,,,,,,,,,,,,,,,,,,,,,1,4.687469957978465,,,,,,,,,,,,,,,,,,,,,,,,,,,,062519_p1,001,2019_Jun_25_1044,body_behavioural,3.0.4,59.91582127112529,
1,The total came to $14 and Alex paid in cash while Chloe greeted their friends.,4,4,None,,,,,,0,1,1,1,,,,,0,38,38,38,,,,,,,,,,,,,,,,,,,,,,,,,,,,,,,,,1,11.687265966989798,,,,,,,,,,,,,,,,,,,,,,,,,,,,062519_p1,001,2019_Jun_25_1044,body_behavioural,3.0.4,59.91582127112529,
1,"Alex grabbed the bags, and they all walked out together working out where they’d go to celebrate.  ",4,4,None,,,,,,0,1,1,1,,,,,0,39,39,39,,,,,,,,,,,,,,,,,,,,,,,,,,,,,,,,,1,3.0025086579844356,,,,,,,,,,,,,,,,,,,,,,,,,,,,062519_p1,001,2019_Jun_25_1044,body_behavioural,3.0.4,59.91582127112529,
1,,,,,,,,,,0,1,1,1,,,,,,,,,,,,,,,,,,,,,,,,,,,,,,,,,,,,,,,,,,,,,,,,,,,,,,,,,,,,,,,,,,,,,,062519_p1,001,2019_Jun_25_1044,body_behavioural,3.0.4,59.91582127112529,
2,,,,,,,,,,0,2,2,2,0,0,0,0,,,,,,,,,,,,,,,,,,,,,,,,,,,space,1.586609354999382,space,1.185917930008145,space,0.6696779949998017,,,,,,,,,,,,,,,,,,,,,,,,,,,,,,,,,,062519_p1,001,2019_Jun_25_1044,body_behavioural,3.0.4,59.91582127112529,
2,"Ariana hurried into the classroom, and Leon did a double-take when he saw her, almost dropping the eraser he had in his hand. ",1.0,1.0,44.0,,,,,,0,2,2,2,,,,,0,0,0,0,,,,,,,,,,,,,,,,,,,,,,,,,,,,,space,1.2196700630011037,space,2.102780628018081,9,7.903702398005407,,,,,,,,,,,,,,,,,,,,,,,,,,,,062519_p1,001,2019_Jun_25_1044,body_behavioural,3.0.4,59.91582127112529,
2,"This was his first day in college, and he had assumed that he wouldn’t know anyone on campus, but he had a strong feeling that he had seen her somewhere before. ",1.0,1.0,None,,,,,,0,2,2,2,,,,,0,1,1,1,,,,,,,,,,,,,,,,,,,,,,,,,,,,,,,,,1,8.370236054994166,,,,,,,,,,,,,,,,,,,,,,,,,,,,062519_p1,001,2019_Jun_25_1044,body_behavioural,3.0.4,59.91582127112529,
2,They were in a small classroom with rows of chairs with foldable desks.,1.0,1.0,None,,,,,,0,2,2,2,,,,,0,2,2,2,,,,,,,,,,,,,,,,,,,,,,,,,,,,,,,,,1,7.468667634006124,,,,,,,,,,,,,,,,,,,,,,,,,,,,062519_p1,001,2019_Jun_25_1044,body_behavioural,3.0.4,59.91582127112529,
2,These faced the speaker’s podium and a blackboard on wheels. ,None,None,None,,,,,,0,2,2,2,,,,,0,3,3,3,,,,,,,,,,,,,,,,,,,,,,,,,,,,,,,,,1,5.203938352991827,,,,,,,,,,,,,,,,,,,,,,,,,,,,062519_p1,001,2019_Jun_25_1044,body_behavioural,3.0.4,59.91582127112529,
2,"There were no windows in the room, since they were down in the basement of the History Department.",1.0,1.0,None,,,,,,0,2,2,2,,,,,0,4,4,4,,,,,,,,,,,,,,,,,,,,,,,,,,,,,,,,,1,5.003385798016097,,,,,,,,,,,,,,,,,,,,,,,,,,,,062519_p1,001,2019_Jun_25_1044,body_behavioural,3.0.4,59.91582127112529,
2,"Leon, trying to figure out where he had seen her before, could not stop looking over at Ariana.",1.0,1.0,None,,,,,,0,2,2,2,,,,,0,5,5,5,,,,,,,,,,,,,,,,,,,,,,,,,,,,,,,,,1,3.9675727380090393,,,,,,,,,,,,,,,,,,,,,,,,,,,,062519_p1,001,2019_Jun_25_1044,body_behavioural,3.0.4,59.91582127112529,
2,Ariana was oblivious to Leon’s gaze and was only focused on getting ready for class. ,1.0,1.0,None,,,,,,0,2,2,2,,,,,0,6,6,6,,,,,,,,,,,,,,,,,,,,,,,,,,,,,,,,,1,3.019633799995063,,,,,,,,,,,,,,,,,,,,,,,,,,,,062519_p1,001,2019_Jun_25_1044,body_behavioural,3.0.4,59.91582127112529,
2,"“Good morning, everyone,” the professor began.",2.0,1.0,None,,,,,,0,2,2,2,,,,,0,7,7,7,,,,,,,,,,,,,,,,,,,,,,,,,,,,,,,,,1,4.452906929975143,,,,,,,,,,,,,,,,,,,,,,,,,,,,062519_p1,001,2019_Jun_25_1044,body_behavioural,3.0.4,59.91582127112529,
2,“Welcome to History of Egypt. ,2.0,1.0,None,,,,,,0,2,2,2,,,,,0,8,8,8,,,,,,,,,,,,,,,,,,,,,,,,,,,,,,,,,1,7.834385602996917,,,,,,,,,,,,,,,,,,,,,,,,,,,,062519_p1,001,2019_Jun_25_1044,body_behavioural,3.0.4,59.91582127112529,
2,"Today we will be talking about mummification, one of the most famous and often misunderstood customs in ancient Egyptian society.”",2.0,1.0,None,,,,,,0,2,2,2,,,,,0,9,9,9,,,,,,,,,,,,,,,,,,,,,,,,,,,,,,,,,1,11.186573272978421,,,,,,,,,,,,,,,,,,,,,,,,,,,,062519_p1,001,2019_Jun_25_1044,body_behavioural,3.0.4,59.91582127112529,
2,Leon and Ariana began taking notes. ,2.0,1.0,None,,,,,,0,2,2,2,,,,,0,10,10,10,,,,,,,,,,,,,,,,,,,,,,,,,,,,,,,,,1,12.937376420013607,,,,,,,,,,,,,,,,,,,,,,,,,,,,062519_p1,001,2019_Jun_25_1044,body_behavioural,3.0.4,59.91582127112529,
2,"Within a few minutes, Leon found his attention wandering from the lecture and back to Ariana, and he decided to do something about it by putting a note on her desk.",2.0,2.0,None,,,,,,0,2,2,2,,,,,0,11,11,11,,,,,,,,,,,,,,,,,,,,,,,,,,,,,,,,,9,14.919830260012532,,,,,,,,,,,,,,,,,,,,,,,,,,,,062519_p1,001,2019_Jun_25_1044,body_behavioural,3.0.4,59.91582127112529,
2,"“Are you from LA?” it read, “Sorry to distract you from mummies, but you look really familiar.”",2.0,2.0,None,,,,,,0,2,2,2,,,,,0,12,12,12,,,,,,,,,,,,,,,,,,,,,,,,,,,,,,,,,1,6.133498638984747,,,,,,,,,,,,,,,,,,,,,,,,,,,,062519_p1,001,2019_Jun_25_1044,body_behavioural,3.0.4,59.91582127112529,
2,"She looked at the note with surprise, and then turned to notice Leon for the first time. ",2.0,2.0,None,,,,,,0,2,2,2,,,,,0,13,13,13,,,,,,,,,,,,,,,,,,,,,,,,,,,,,,,,,1,3.2695452400075737,,,,,,,,,,,,,,,,,,,,,,,,,,,,062519_p1,001,2019_Jun_25_1044,body_behavioural,3.0.4,59.91582127112529,
2,She instantly liked him when she saw him.,2.0,2.0,None,,,,,,0,2,2,2,,,,,0,14,14,14,,,,,,,,,,,,,,,,,,,,,,,,,,,,,,,,,1,9.186929418006912,,,,,,,,,,,,,,,,,,,,,,,,,,,,062519_p1,001,2019_Jun_25_1044,body_behavioural,3.0.4,59.91582127112529,
2,She thought he looked trustworthy and genuine.,2.0,2.0,None,,,,,,0,2,2,2,,,,,0,15,15,15,,,,,,,,,,,,,,,,,,,,,,,,,,,,,,,,,1,4.653324570012046,,,,,,,,,,,,,,,,,,,,,,,,,,,,062519_p1,001,2019_Jun_25_1044,body_behavioural,3.0.4,59.91582127112529,
2,"Ariana passed the note back to Leon, and she had replied, “No, but maybe my twin and I were separated at birth.”",2.0,2.0,None,,,,,,0,2,2,2,,,,,0,16,16,16,,,,,,,,,,,,,,,,,,,,,,,,,,,,,,,,,1,16.55393658700632,,,,,,,,,,,,,,,,,,,,,,,,,,,,062519_p1,001,2019_Jun_25_1044,body_behavioural,3.0.4,59.91582127112529,
2,"The professor continued, “One may well question why the ancient Egyptians spent so much time and effort on their funerary practices.",3.0,2.0,None,,,,,,0,2,2,2,,,,,0,17,17,17,,,,,,,,,,,,,,,,,,,,,,,,,,,,,,,,,1,7.553458373004105,,,,,,,,,,,,,,,,,,,,,,,,,,,,062519_p1,001,2019_Jun_25_1044,body_behavioural,3.0.4,59.91582127112529,
2,"Not only was the mummification process itself a complicated affair, but there were also elaborate rituals before, during, and after death.",3.0,2.0,None,,,,,,0,2,2,2,,,,,0,18,18,18,,,,,,,,,,,,,,,,,,,,,,,,,,,,,,,,,1,6.687068802013528,,,,,,,,,,,,,,,,,,,,,,,,,,,,062519_p1,001,2019_Jun_25_1044,body_behavioural,3.0.4,59.91582127112529,
2,The practice required teams of experts with years of training and took a total of 70 days to complete.” ,3.0,2.0,None,,,,,,0,2,2,2,,,,,0,19,19,19,,,,,,,,,,,,,,,,,,,,,,,,,,,,,,,,,1,3.669634310004767,,,,,,,,,,,,,,,,,,,,,,,,,,,,062519_p1,001,2019_Jun_25_1044,body_behavioural,3.0.4,59.91582127112529,
2,"They passed notes back and forth the whole class like they were in high school, and Leon wrote in one, “Would you like to go on a walk this evening?”",3.0,3.0,None,,,,,,0,2,2,2,,,,,0,20,20,20,,,,,,,,,,,,,,,,,,,,,,,,,,,,,,,,,9,15.404320708010346,,,,,,,,,,,,,,,,,,,,,,,,,,,,062519_p1,001,2019_Jun_25_1044,body_behavioural,3.0.4,59.91582127112529,
2,"When Ariana read this, she looked at him and nodded her head",3.0,3.0,None,,,,,,0,2,2,2,,,,,0,21,21,21,,,,,,,,,,,,,,,,,,,,,,,,,,,,,,,,,1,4.22009964499739,,,,,,,,,,,,,,,,,,,,,,,,,,,,062519_p1,001,2019_Jun_25_1044,body_behavioural,3.0.4,59.91582127112529,
2,"She wrote back on the slip of paper, “Let’s meet at 8 in front of my dorm, Patton Hall.”",3.0,3.0,None,,,,,,0,2,2,2,,,,,0,22,22,22,,,,,,,,,,,,,,,,,,,,,,,,,,,,,,,,,1,5.03655216700281,,,,,,,,,,,,,,,,,,,,,,,,,,,,062519_p1,001,2019_Jun_25_1044,body_behavioural,3.0.4,59.91582127112529,
2,The professor ended the lecture and announced to the class that they would have their first quiz next class on Friday on mummification. ,4.0,3.0,None,,,,,,0,2,2,2,,,,,0,23,23,23,,,,,,,,,,,,,,,,,,,,,,,,,,,,,,,,,1,6.853758854995249,,,,,,,,,,,,,,,,,,,,,,,,,,,,062519_p1,001,2019_Jun_25_1044,body_behavioural,3.0.4,59.91582127112529,
2,Everyone packed up and filed out of the classroom except for Ariana and Leon. ,4.0,3.0,None,,,,,,0,2,2,2,,,,,0,24,24,24,,,,,,,,,,,,,,,,,,,,,,,,,,,,,,,,,1,4.669884169998113,,,,,,,,,,,,,,,,,,,,,,,,,,,,062519_p1,001,2019_Jun_25_1044,body_behavioural,3.0.4,59.91582127112529,
2,"Ariana spoke first, “I have to go to my next class.”",4.0,4.0,None,,,,,,0,2,2,2,,,,,0,25,25,25,,,,,,,,,,,,,,,,,,,,,,,,,,,,,,,,,1,4.136922317004064,,,,,,,,,,,,,,,,,,,,,,,,,,,,062519_p1,001,2019_Jun_25_1044,body_behavioural,3.0.4,59.91582127112529,
2,"She looked at the clock which read noon and headed for the door saying, “I should run, but I’ll see you later tonight!” ",4.0,4.0,None,,,,,,0,2,2,2,,,,,0,26,26,26,,,,,,,,,,,,,,,,,,,,,,,,,,,,,,,,,1,3.55314706498757,,,,,,,,,,,,,,,,,,,,,,,,,,,,062519_p1,001,2019_Jun_25_1044,body_behavioural,3.0.4,59.91582127112529,
2,"She waved as she ran out the door, and Leon was still pondering where he had known her before, even more convinced that they had met before having heard her voice.",4.0,4.0,None,,,,,,0,2,2,2,,,,,0,27,27,27,,,,,,,,,,,,,,,,,,,,,,,,,,,,,,,,,1,8.736918417998822,,,,,,,,,,,,,,,,,,,,,,,,,,,,062519_p1,001,2019_Jun_25_1044,body_behavioural,3.0.4,59.91582127112529,
2,,,,,,,,,,0,2,2,2,,,,,,,,,,,,,,,,,,,,,,,,,,,,,,,,,,,,,,,,,,,,,,,,,,,,,,,,,,,,,,,,,,,,,,062519_p1,001,2019_Jun_25_1044,body_behavioural,3.0.4,59.91582127112529,
3,,,,,,,,,,0,3,3,3,0,0,0,0,,,,,,,,,,,,,,,,,,,,,,,,,,,space,14.787273373018252,space,1.3863534280098975,space,0.9192712249932811,,,,,,,,,,,,,,,,,,,,,,,,,,,,,,,,,,062519_p1,001,2019_Jun_25_1044,body_behavioural,3.0.4,59.91582127112529,
3,"James noticed Teresa immediately as she walked into the restaurant - or, more accurately, as she attempted to walk into the restaurant. ",1,1,41.0,,,,,,0,3,3,3,,,,,0,0,0,0,,,,,,,,,,,,,,,,,,,,,,,,,,,,,space,5.720512233005138,space,1.7695729800034314,9,22.17183361799107,,,,,,,,,,,,,,,,,,,,,,,,,,,,062519_p1,001,2019_Jun_25_1044,body_behavioural,3.0.4,59.91582127112529,
3,She was typing intently on her phone and ran straight into the restaurant’s glass door with a painful thud. ,1,1,None,,,,,,0,3,3,3,,,,,0,1,1,1,,,,,,,,,,,,,,,,,,,,,,,,,,,,,,,,,1,2.6531736780016217,,,,,,,,,,,,,,,,,,,,,,,,,,,,062519_p1,001,2019_Jun_25_1044,body_behavioural,3.0.4,59.91582127112529,
3,Everyone waiting around the cash register turned.,1,1,None,,,,,,0,3,3,3,,,,,0,2,2,2,,,,,,,,,,,,,,,,,,,,,,,,,,,,,,,,,1,5.553357224998763,,,,,,,,,,,,,,,,,,,,,,,,,,,,062519_p1,001,2019_Jun_25_1044,body_behavioural,3.0.4,59.91582127112529,
3,Teresa rubbed her head and put her phone away. ,1,1,None,,,,,,0,3,3,3,,,,,0,3,3,3,,,,,,,,,,,,,,,,,,,,,,,,,,,,,,,,,1,6.603384619986173,,,,,,,,,,,,,,,,,,,,,,,,,,,,062519_p1,001,2019_Jun_25_1044,body_behavioural,3.0.4,59.91582127112529,
3,She looked somewhat confused but primarily indignant that the door had been in her way. ,1,1,None,,,,,,0,3,3,3,,,,,0,4,4,4,,,,,,,,,,,,,,,,,,,,,,,,,,,,,,,,,1,3.7698772870062385,,,,,,,,,,,,,,,,,,,,,,,,,,,,062519_p1,001,2019_Jun_25_1044,body_behavioural,3.0.4,59.91582127112529,
3,"James found this quite charming and stole a couple glances at her, peeking up from the newspaper he was holding, until she noticed and wrinkled her eyebrows at him. ",1,1,None,,,,,,0,3,3,3,,,,,0,5,5,5,,,,,,,,,,,,,,,,,,,,,,,,,,,,,,,,,1,14.387641228007851,,,,,,,,,,,,,,,,,,,,,,,,,,,,062519_p1,001,2019_Jun_25_1044,body_behavioural,3.0.4,59.91582127112529,
3,James and Teresa had both chosen the least busy time to try out Atlanta’s newest sushi restaurant.  ,1,1,None,,,,,,0,3,3,3,,,,,0,6,6,6,,,,,,,,,,,,,,,,,,,,,,,,,,,,,,,,,9,7.453355955018196,,,,,,,,,,,,,,,,,,,,,,,,,,,,062519_p1,001,2019_Jun_25_1044,body_behavioural,3.0.4,59.91582127112529,
3,It was notable for both the food and the decor. ,1,1,None,,,,,,0,3,3,3,,,,,0,7,7,7,,,,,,,,,,,,,,,,,,,,,,,,,,,,,,,,,1,2.7698445949936286,,,,,,,,,,,,,,,,,,,,,,,,,,,,062519_p1,001,2019_Jun_25_1044,body_behavioural,3.0.4,59.91582127112529,
3,"There were pine wood countertops and chairs, plants all along the sides of the walls, and branch-looking structures hanging from the ceiling. ",1,1,None,,,,,,0,3,3,3,,,,,0,8,8,8,,,,,,,,,,,,,,,,,,,,,,,,,,,,,,,,,1,9.953811430023052,,,,,,,,,,,,,,,,,,,,,,,,,,,,062519_p1,001,2019_Jun_25_1044,body_behavioural,3.0.4,59.91582127112529,
3,"The host sat James and Teresa, who were both dining alone, at the bar. ",2,1,None,,,,,,0,3,3,3,,,,,0,9,9,9,,,,,,,,,,,,,,,,,,,,,,,,,,,,,,,,,1,8.47023350300151,,,,,,,,,,,,,,,,,,,,,,,,,,,,062519_p1,001,2019_Jun_25_1044,body_behavioural,3.0.4,59.91582127112529,
3,They sat a seat apart from each other on the bench.,2,1,None,,,,,,0,3,3,3,,,,,0,10,10,10,,,,,,,,,,,,,,,,,,,,,,,,,,,,,,,,,1,2.602654394984711,,,,,,,,,,,,,,,,,,,,,,,,,,,,062519_p1,001,2019_Jun_25_1044,body_behavioural,3.0.4,59.91582127112529,
3,"The waitress behind the counter gave them bright neon menus that were filled with entrees in Japanese with small, English translations. ",2,1,None,,,,,,0,3,3,3,,,,,0,11,11,11,,,,,,,,,,,,,,,,,,,,,,,,,,,,,,,,,1,7.903318769996986,,,,,,,,,,,,,,,,,,,,,,,,,,,,062519_p1,001,2019_Jun_25_1044,body_behavioural,3.0.4,59.91582127112529,
3,James quickly glanced through it while Teresa took a longer time. ,2,1,None,,,,,,0,3,3,3,,,,,0,12,12,12,,,,,,,,,,,,,,,,,,,,,,,,,,,,,,,,,1,2.4866142150131054,,,,,,,,,,,,,,,,,,,,,,,,,,,,062519_p1,001,2019_Jun_25_1044,body_behavioural,3.0.4,59.91582127112529,
3,"A few minutes passed before, James turned to Teresa and asked, “Is your forehead alright?”",2,2,None,,,,,,0,3,3,3,,,,,0,13,13,13,,,,,,,,,,,,,,,,,,,,,,,,,,,,,,,,,1,3.3865020500088576,,,,,,,,,,,,,,,,,,,,,,,,,,,,062519_p1,001,2019_Jun_25_1044,body_behavioural,3.0.4,59.91582127112529,
3,She turned to him and smirked.,2,2,None,,,,,,0,3,3,3,,,,,0,14,14,14,,,,,,,,,,,,,,,,,,,,,,,,,,,,,,,,,1,3.967851447989233,,,,,,,,,,,,,,,,,,,,,,,,,,,,062519_p1,001,2019_Jun_25_1044,body_behavioural,3.0.4,59.91582127112529,
3,“Have you ever been stung by a scorpion?” she asked him.,2,2,None,,,,,,0,3,3,3,,,,,0,15,15,15,,,,,,,,,,,,,,,,,,,,,,,,,,,,,,,,,1,2.969945454999106,,,,,,,,,,,,,,,,,,,,,,,,,,,,062519_p1,001,2019_Jun_25_1044,body_behavioural,3.0.4,59.91582127112529,
3,“What?” he responded confusedly.,2,2,None,,,,,,0,3,3,3,,,,,0,16,16,16,,,,,,,,,,,,,,,,,,,,,,,,,,,,,,,,,1,1.5341943080129568,,,,,,,,,,,,,,,,,,,,,,,,,,,,062519_p1,001,2019_Jun_25_1044,body_behavioural,3.0.4,59.91582127112529,
3, “A scorpion.”,2,2,None,,,,,,0,3,3,3,,,,,0,17,17,17,,,,,,,,,,,,,,,,,,,,,,,,,,,,,,,,,1,2.103060297027696,,,,,,,,,,,,,,,,,,,,,,,,,,,,062519_p1,001,2019_Jun_25_1044,body_behavioural,3.0.4,59.91582127112529,
3,James began to worry that Teresa had possibly suffered a concussion in the door crash.,2,2,None,,,,,,0,3,3,3,,,,,0,18,18,18,,,,,,,,,,,,,,,,,,,,,,,,,,,,,,,,,1,5.53433055098867,,,,,,,,,,,,,,,,,,,,,,,,,,,,062519_p1,001,2019_Jun_25_1044,body_behavioural,3.0.4,59.91582127112529,
3,"“Uh no, why?” he asked.",2,2,None,,,,,,0,3,3,3,,,,,0,19,19,19,,,,,,,,,,,,,,,,,,,,,,,,,,,,,,,,,1,1.4198148880095687,,,,,,,,,,,,,,,,,,,,,,,,,,,,062519_p1,001,2019_Jun_25_1044,body_behavioural,3.0.4,59.91582127112529,
3,"“Because I’ve been stung by one, and since then, things like bumping into doors seem like pretty small potatoes.” ",2,2,None,,,,,,0,3,3,3,,,,,0,20,20,20,,,,,,,,,,,,,,,,,,,,,,,,,,,,,,,,,1,3.2701568600023165,,,,,,,,,,,,,,,,,,,,,,,,,,,,062519_p1,001,2019_Jun_25_1044,body_behavioural,3.0.4,59.91582127112529,
3,"They carried on talking, and Teresa told him all about her encounter with a Deathstalker scorpion while she was studying abroad in Egypt.",2,2,None,,,,,,0,3,3,3,,,,,0,21,21,21,,,,,,,,,,,,,,,,,,,,,,,,,,,,,,,,,1,14.837479099980555,,,,,,,,,,,,,,,,,,,,,,,,,,,,062519_p1,001,2019_Jun_25_1044,body_behavioural,3.0.4,59.91582127112529,
3,"The waitress behind the counter came up to them and asked, “Are you ready for your order?” ",3,2,None,,,,,,0,3,3,3,,,,,0,22,22,22,,,,,,,,,,,,,,,,,,,,,,,,,,,,,,,,,9,7.551141975010978,,,,,,,,,,,,,,,,,,,,,,,,,,,,062519_p1,001,2019_Jun_25_1044,body_behavioural,3.0.4,59.91582127112529,
3,"She first looked at Teresa who answered, “Yes, I’ll have a salmon roll and a Japanese beer.”",3,2,None,,,,,,0,3,3,3,,,,,0,23,23,23,,,,,,,,,,,,,,,,,,,,,,,,,,,,,,,,,1,14.070713281980716,,,,,,,,,,,,,,,,,,,,,,,,,,,,062519_p1,001,2019_Jun_25_1044,body_behavioural,3.0.4,59.91582127112529,
3,Then the waitress turned to James.,3,2,None,,,,,,0,3,3,3,,,,,0,24,24,24,,,,,,,,,,,,,,,,,,,,,,,,,,,,,,,,,1,2.000103066995507,,,,,,,,,,,,,,,,,,,,,,,,,,,,062519_p1,001,2019_Jun_25_1044,body_behavioural,3.0.4,59.91582127112529,
3,"He said, “I’ll have a tuna roll and a vegetable roll.” ",3,2,None,,,,,,0,3,3,3,,,,,0,25,25,25,,,,,,,,,,,,,,,,,,,,,,,,,,,,,,,,,1,6.137316734995693,,,,,,,,,,,,,,,,,,,,,,,,,,,,062519_p1,001,2019_Jun_25_1044,body_behavioural,3.0.4,59.91582127112529,
3,"“Alright, thank you!” the waitress said.",3,2,None,,,,,,0,3,3,3,,,,,0,26,26,26,,,,,,,,,,,,,,,,,,,,,,,,,,,,,,,,,1,2.2863303699996322,,,,,,,,,,,,,,,,,,,,,,,,,,,,062519_p1,001,2019_Jun_25_1044,body_behavioural,3.0.4,59.91582127112529,
3,"James and Teresa talked about a concert James was going to that night, and he suddenly and nervously invited her to come along.",3,3,None,,,,,,0,3,3,3,,,,,0,27,27,27,,,,,,,,,,,,,,,,,,,,,,,,,,,,,,,,,9,6.552908274985384,,,,,,,,,,,,,,,,,,,,,,,,,,,,062519_p1,001,2019_Jun_25_1044,body_behavioural,3.0.4,59.91582127112529,
3,He promised her that the concert would be indoors and absolutely free of venomous insects.,3,3,None,,,,,,0,3,3,3,,,,,0,28,28,28,,,,,,,,,,,,,,,,,,,,,,,,,,,,,,,,,1,3.753464876994258,,,,,,,,,,,,,,,,,,,,,,,,,,,,062519_p1,001,2019_Jun_25_1044,body_behavioural,3.0.4,59.91582127112529,
3,"Teresa agreed, gave him her number, and they worked out that James would pick her up that evening before the concert and drive them there.",3,3,None,,,,,,0,3,3,3,,,,,0,29,29,29,,,,,,,,,,,,,,,,,,,,,,,,,,,,,,,,,1,11.570466250006575,,,,,,,,,,,,,,,,,,,,,,,,,,,,062519_p1,001,2019_Jun_25_1044,body_behavioural,3.0.4,59.91582127112529,
3,"This was not what they had expected from their solitary lunch plans and were both excited, even though Teresa was doing a much better job of hiding it than James. ",3,3,None,,,,,,0,3,3,3,,,,,0,30,30,30,,,,,,,,,,,,,,,,,,,,,,,,,,,,,,,,,1,6.602939219999826,,,,,,,,,,,,,,,,,,,,,,,,,,,,062519_p1,001,2019_Jun_25_1044,body_behavioural,3.0.4,59.91582127112529,
3,"The waitress brought out their food, placing the plates close to each other so James had to sit closer to Teresa on the bench. ",4,3,None,,,,,,0,3,3,3,,,,,0,31,31,31,,,,,,,,,,,,,,,,,,,,,,,,,,,,,,,,,1,14.134887205000268,,,,,,,,,,,,,,,,,,,,,,,,,,,,062519_p1,001,2019_Jun_25_1044,body_behavioural,3.0.4,59.91582127112529,
3,Teresa was happy to share the meal with James. ,4,3,None,,,,,,0,3,3,3,,,,,0,32,32,32,,,,,,,,,,,,,,,,,,,,,,,,,,,,,,,,,1,2.036411222012248,,,,,,,,,,,,,,,,,,,,,,,,,,,,062519_p1,001,2019_Jun_25_1044,body_behavioural,3.0.4,59.91582127112529,
3,They really enjoyed their rolls because the fish tasted very fresh. ,4,3,None,,,,,,0,3,3,3,,,,,0,33,33,33,,,,,,,,,,,,,,,,,,,,,,,,,,,,,,,,,1,4.2191986170073505,,,,,,,,,,,,,,,,,,,,,,,,,,,,062519_p1,001,2019_Jun_25_1044,body_behavioural,3.0.4,59.91582127112529,
3,"James looked at his watch and seeing that it was 3pm said, “I have to run- got to finish some errands before the show.”",4,4,None,,,,,,0,3,3,3,,,,,0,34,34,34,,,,,,,,,,,,,,,,,,,,,,,,,,,,,,,,,9,10.304132265009684,,,,,,,,,,,,,,,,,,,,,,,,,,,,062519_p1,001,2019_Jun_25_1044,body_behavioural,3.0.4,59.91582127112529,
3,See you tonight and watch out for that door!”,4,4,None,,,,,,0,3,3,3,,,,,0,35,35,35,,,,,,,,,,,,,,,,,,,,,,,,,,,,,,,,,1,1.567488972999854,,,,,,,,,,,,,,,,,,,,,,,,,,,,062519_p1,001,2019_Jun_25_1044,body_behavioural,3.0.4,59.91582127112529,
3,,,,,,,,,,0,3,3,3,,,,,,,,,,,,,,,,,,,,,,,,,,,,,,,,,,,,,,,,,,,,,,,,,,,,,,,,,,,,,,,,,,,,,,062519_p1,001,2019_Jun_25_1044,body_behavioural,3.0.4,59.91582127112529,
4,,,,,,,,,,0,4,4,4,0,0,0,0,,,,,,,,,,,,,,,,,,,,,,,,,,,space,2.603169979993254,space,1.0529210880049504,space,1.4197544929920696,,,,,,,,,,,,,,,,,,,,,,,,,,,,,,,,,,062519_p1,001,2019_Jun_25_1044,body_behavioural,3.0.4,59.91582127112529,
4,"Sven and Isabel walked hurriedly from the cab into the Barcelona Airport after an incredible week with Isabel’s family, and this had wiped away any doubts Sven had had about his decision to propose. ",1,1,22.0,,,,,,0,4,4,4,,,,,0,0,0,0,,,,,,,,,,,,,,,,,,,,,,,,,,,,,space,1.0027516130066942,space,1.736256468022475,9,22.96246379800141,,,,,,,,,,,,,,,,,,,,,,,,,,,,062519_p1,001,2019_Jun_25_1044,body_behavioural,3.0.4,59.91582127112529,
4,They had only been dating for 11 months so this was the first time he had met her family. ,1,1,None,,,,,,0,4,4,4,,,,,0,1,1,1,,,,,,,,,,,,,,,,,,,,,,,,,,,,,,,,,1,5.6541209330025595,,,,,,,,,,,,,,,,,,,,,,,,,,,,062519_p1,001,2019_Jun_25_1044,body_behavioural,3.0.4,59.91582127112529,
4,"They were pressed for time at the airport, with an hour and 15 minutes until their flight would take off to go back to the US, but they already had their online boarding passes and no checked luggage. ",1,1,None,,,,,,0,4,4,4,,,,,0,2,2,2,,,,,,,,,,,,,,,,,,,,,,,,,,,,,,,,,1,11.33581171699916,,,,,,,,,,,,,,,,,,,,,,,,,,,,062519_p1,001,2019_Jun_25_1044,body_behavioural,3.0.4,59.91582127112529,
4,"Isabel stopped to rummage through her purse to look for her phone, and meanwhile Sven turned his back to her and took the velvet box out of his backpack, opening it to look at the ring he had bought her.",1,2,None,,,,,,0,4,4,4,,,,,0,3,3,3,,,,,,,,,,,,,,,,,,,,,,,,,,,,,,,,,1,19.17036972398637,,,,,,,,,,,,,,,,,,,,,,,,,,,,062519_p1,001,2019_Jun_25_1044,body_behavioural,3.0.4,59.91582127112529,
4,"He had received her parents’ blessing during the trip, and he was almost giddy with excitement. ",1,2,None,,,,,,0,4,4,4,,,,,0,4,4,4,,,,,,,,,,,,,,,,,,,,,,,,,,,,,,,,,1,3.8873839500010945,,,,,,,,,,,,,,,,,,,,,,,,,,,,062519_p1,001,2019_Jun_25_1044,body_behavioural,3.0.4,59.91582127112529,
4,"He tilted the ring backward and forward, despite having already studied it daily since purchasing it a few weeks ago. ",1,2,None,,,,,,0,4,4,4,,,,,0,5,5,5,,,,,,,,,,,,,,,,,,,,,,,,,,,,,,,,,1,7.27020540999365,,,,,,,,,,,,,,,,,,,,,,,,,,,,062519_p1,001,2019_Jun_25_1044,body_behavioural,3.0.4,59.91582127112529,
4,"It was a simple design, with two pink diamonds on a silver band.",1,2,None,,,,,,0,4,4,4,,,,,0,6,6,6,,,,,,,,,,,,,,,,,,,,,,,,,,,,,,,,,1,12.535463987995172,,,,,,,,,,,,,,,,,,,,,,,,,,,,062519_p1,001,2019_Jun_25_1044,body_behavioural,3.0.4,59.91582127112529,
4,"“Sven, I’m good,” Isabel said. ",1,2,None,,,,,,0,4,4,4,,,,,0,7,7,7,,,,,,,,,,,,,,,,,,,,,,,,,,,,,,,,,1,2.370777399977669,,,,,,,,,,,,,,,,,,,,,,,,,,,,062519_p1,001,2019_Jun_25_1044,body_behavioural,3.0.4,59.91582127112529,
4,Sven closed the box and discretely put it in his pocket.,1,2,None,,,,,,0,4,4,4,,,,,0,8,8,8,,,,,,,,,,,,,,,,,,,,,,,,,,,,,,,,,1,3.8525769879925065,,,,,,,,,,,,,,,,,,,,,,,,,,,,062519_p1,001,2019_Jun_25_1044,body_behavioural,3.0.4,59.91582127112529,
4,"They entered the security line, weaving through the roped walkways to the front. ",2,2,None,,,,,,0,4,4,4,,,,,0,9,9,9,,,,,,,,,,,,,,,,,,,,,,,,,,,,,,,,,1,4.169951587973628,,,,,,,,,,,,,,,,,,,,,,,,,,,,062519_p1,001,2019_Jun_25_1044,body_behavioural,3.0.4,59.91582127112529,
4,"When they were up, Isabel realized her laptop was buried somewhere in her duffle bag. ",2,2,None,,,,,,0,4,4,4,,,,,0,10,10,10,,,,,,,,,,,,,,,,,,,,,,,,,,,,,,,,,9,8.135092714976054,,,,,,,,,,,,,,,,,,,,,,,,,,,,062519_p1,001,2019_Jun_25_1044,body_behavioural,3.0.4,59.91582127112529,
4,"Luckily, at the same time, there was a stall in the line because someone ahead of them had a suspicious amount of metal pieces on his person. ",2,2,None,,,,,,0,4,4,4,,,,,0,11,11,11,,,,,,,,,,,,,,,,,,,,,,,,,,,,,,,,,1,6.085686154983705,,,,,,,,,,,,,,,,,,,,,,,,,,,,062519_p1,001,2019_Jun_25_1044,body_behavioural,3.0.4,59.91582127112529,
4,Sven had to hold the growing mound of objects Isabel pulled from her bag until she unearthed the laptop and set it in a bin.,2,2,None,,,,,,0,4,4,4,,,,,0,12,12,12,,,,,,,,,,,,,,,,,,,,,,,,,,,,,,,,,1,5.753889043990057,,,,,,,,,,,,,,,,,,,,,,,,,,,,062519_p1,001,2019_Jun_25_1044,body_behavioural,3.0.4,59.91582127112529,
4,"She then gave her bag to Sven, unstrapped her heels, and took the bag back from Sven.",2,2,None,,,,,,0,4,4,4,,,,,0,13,13,13,,,,,,,,,,,,,,,,,,,,,,,,,,,,,,,,,1,6.603488029999426,,,,,,,,,,,,,,,,,,,,,,,,,,,,062519_p1,001,2019_Jun_25_1044,body_behavioural,3.0.4,59.91582127112529,
4,"Sven, relieved of his holding duties, hurriedly deposited his own backpack on the belt, and took off his shoes. ",2,2,None,,,,,,0,4,4,4,,,,,0,14,14,14,,,,,,,,,,,,,,,,,,,,,,,,,,,,,,,,,1,3.0699616100173444,,,,,,,,,,,,,,,,,,,,,,,,,,,,062519_p1,001,2019_Jun_25_1044,body_behavioural,3.0.4,59.91582127112529,
4,"Sven went into the millimeter wave scanner after Isabel, put his hands up, and the metal bars whirled around him.",2,2,None,,,,,,0,4,4,4,,,,,0,15,15,15,,,,,,,,,,,,,,,,,,,,,,,,,,,,,,,,,1,8.687002357997699,,,,,,,,,,,,,,,,,,,,,,,,,,,,062519_p1,001,2019_Jun_25_1044,body_behavioural,3.0.4,59.91582127112529,
4,The security guard asked Sven to wait. ,2,2,None,,,,,,0,4,4,4,,,,,0,16,16,16,,,,,,,,,,,,,,,,,,,,,,,,,,,,,,,,,1,1.3673680530046113,,,,,,,,,,,,,,,,,,,,,,,,,,,,062519_p1,001,2019_Jun_25_1044,body_behavioural,3.0.4,59.91582127112529,
4,"After looking at the monitor, the security guard said, “Sir, please empty your pockets,”.",2,2,None,,,,,,0,4,4,4,,,,,0,17,17,17,,,,,,,,,,,,,,,,,,,,,,,,,,,,,,,,,9,5.55372086801799,,,,,,,,,,,,,,,,,,,,,,,,,,,,062519_p1,001,2019_Jun_25_1044,body_behavioural,3.0.4,59.91582127112529,
4,"Isabel, shoeless and wrinkling her eyebrows at Sven, looked at him expectantly.",2,2,None,,,,,,0,4,4,4,,,,,0,18,18,18,,,,,,,,,,,,,,,,,,,,,,,,,,,,,,,,,1,1.970118077006191,,,,,,,,,,,,,,,,,,,,,,,,,,,,062519_p1,001,2019_Jun_25_1044,body_behavioural,3.0.4,59.91582127112529,
4,"Realizing that he had forgotten the ring in his pocket, he grabbed Isabel’s, got down on one knee, and opening the velvet box, said, “Isabel, this isn't quite how I'd planned this, but - will you marry me?”",2,3,None,,,,,,0,4,4,4,,,,,0,19,19,19,,,,,,,,,,,,,,,,,,,,,,,,,,,,,,,,,1,11.153358019975713,,,,,,,,,,,,,,,,,,,,,,,,,,,,062519_p1,001,2019_Jun_25_1044,body_behavioural,3.0.4,59.91582127112529,
4,He held the ring up to her. ,2,3,None,,,,,,0,4,4,4,,,,,0,20,20,20,,,,,,,,,,,,,,,,,,,,,,,,,,,,,,,,,1,3.9670611009933054,,,,,,,,,,,,,,,,,,,,,,,,,,,,062519_p1,001,2019_Jun_25_1044,body_behavioural,3.0.4,59.91582127112529,
4,The security guard stood shocked.,2,3,None,,,,,,0,4,4,4,,,,,0,21,21,21,,,,,,,,,,,,,,,,,,,,,,,,,,,,,,,,,1,0.9862938849837519,,,,,,,,,,,,,,,,,,,,,,,,,,,,062519_p1,001,2019_Jun_25_1044,body_behavioural,3.0.4,59.91582127112529,
4,All the people who were putting their shoes back on and gathering their belongings stopped and walked closer to the couple.,2,3,None,,,,,,0,4,4,4,,,,,0,22,22,22,,,,,,,,,,,,,,,,,,,,,,,,,,,,,,,,,1,4.486371249979129,,,,,,,,,,,,,,,,,,,,,,,,,,,,062519_p1,001,2019_Jun_25_1044,body_behavioural,3.0.4,59.91582127112529,
4,Isabel didn’t know what to do since she was far too shy to respond in front of all the people around.,2,3,None,,,,,,0,4,4,4,,,,,0,23,23,23,,,,,,,,,,,,,,,,,,,,,,,,,,,,,,,,,9,16.670647149992874,,,,,,,,,,,,,,,,,,,,,,,,,,,,062519_p1,001,2019_Jun_25_1044,body_behavioural,3.0.4,59.91582127112529,
4,"Without responding to Sven, she frantically grabbed her and Sven’s shoes, leaving Sven to retrieve the rest, and she quickly walked onto the concourse.",3,3,None,,,,,,0,4,4,4,,,,,0,24,24,24,,,,,,,,,,,,,,,,,,,,,,,,,,,,,,,,,1,4.003261179983383,,,,,,,,,,,,,,,,,,,,,,,,,,,,062519_p1,001,2019_Jun_25_1044,body_behavioural,3.0.4,59.91582127112529,
4,"Sven, terrified, grabbed everything and hurried after Isabel onto the concourse shoeless.",3,3,None,,,,,,0,4,4,4,,,,,0,25,25,25,,,,,,,,,,,,,,,,,,,,,,,,,,,,,,,,,1,2.169721349986503,,,,,,,,,,,,,,,,,,,,,,,,,,,,062519_p1,001,2019_Jun_25_1044,body_behavioural,3.0.4,59.91582127112529,
4,Sven eventually caught up to her with their bags and the open ring box.,3,3,None,,,,,,0,4,4,4,,,,,0,26,26,26,,,,,,,,,,,,,,,,,,,,,,,,,,,,,,,,,1,5.670000978017924,,,,,,,,,,,,,,,,,,,,,,,,,,,,062519_p1,001,2019_Jun_25_1044,body_behavioural,3.0.4,59.91582127112529,
4,"She stopped and with wide, excited eyes, shouted, “Of course yes, Sven!” ",3,4,None,,,,,,0,4,4,4,,,,,0,27,27,27,,,,,,,,,,,,,,,,,,,,,,,,,,,,,,,,,1,4.302708482980961,,,,,,,,,,,,,,,,,,,,,,,,,,,,062519_p1,001,2019_Jun_25_1044,body_behavioural,3.0.4,59.91582127112529,
4,"They dropped their belongings and hugged, and Sven put the ring onto Isabel’s finger. ",3,4,None,,,,,,0,4,4,4,,,,,0,28,28,28,,,,,,,,,,,,,,,,,,,,,,,,,,,,,,,,,9,2.8196328729973175,,,,,,,,,,,,,,,,,,,,,,,,,,,,062519_p1,001,2019_Jun_25_1044,body_behavioural,3.0.4,59.91582127112529,
4,"“Isabel, you scared me!” he said. ",3,4,None,,,,,,0,4,4,4,,,,,0,29,29,29,,,,,,,,,,,,,,,,,,,,,,,,,,,,,,,,,1,1.9527090770134237,,,,,,,,,,,,,,,,,,,,,,,,,,,,062519_p1,001,2019_Jun_25_1044,body_behavioural,3.0.4,59.91582127112529,
4,"After getting their shoes back on, they practically floated to gate C40.",3,4,None,,,,,,0,4,4,4,,,,,0,30,30,30,,,,,,,,,,,,,,,,,,,,,,,,,,,,,,,,,1,2.2195439679780975,,,,,,,,,,,,,,,,,,,,,,,,,,,,062519_p1,001,2019_Jun_25_1044,body_behavioural,3.0.4,59.91582127112529,
4,Sven was so happy he even high-fived a confused shoe-shine attendant as they passed.,3,4,None,,,,,,0,4,4,4,,,,,0,31,31,31,,,,,,,,,,,,,,,,,,,,,,,,,,,,,,,,,1,3.2700196499936283,,,,,,,,,,,,,,,,,,,,,,,,,,,,062519_p1,001,2019_Jun_25_1044,body_behavioural,3.0.4,59.91582127112529,
4,Isabel texted her best friend telling her the news as they walked. ,3,4,None,,,,,,0,4,4,4,,,,,0,32,32,32,,,,,,,,,,,,,,,,,,,,,,,,,,,,,,,,,1,2.870305137010291,,,,,,,,,,,,,,,,,,,,,,,,,,,,062519_p1,001,2019_Jun_25_1044,body_behavioural,3.0.4,59.91582127112529,
4,"Having arrived at their gate, they waited, until the attendant called for passengers, and they scanned their tickets to board the plane.",4,4,None,,,,,,0,4,4,4,,,,,0,33,33,33,,,,,,,,,,,,,,,,,,,,,,,,,,,,,,,,,1,13.487301468005171,,,,,,,,,,,,,,,,,,,,,,,,,,,,062519_p1,001,2019_Jun_25_1044,body_behavioural,3.0.4,59.91582127112529,
4,"They walked through the connecting tunnel to the plane and sat together in first class, in seats 2A and 2B.",4,4,None,,,,,,0,4,4,4,,,,,0,34,34,34,,,,,,,,,,,,,,,,,,,,,,,,,,,,,,,,,1,5.586438619997352,,,,,,,,,,,,,,,,,,,,,,,,,,,,062519_p1,001,2019_Jun_25_1044,body_behavioural,3.0.4,59.91582127112529,
4,"Some of their neighboring passengers who had witnessed the proposal at security congratulated them, and a woman next to them showed them that she had been live-tweeting the whole event and that it was already going viral online.",4,4,None,,,,,,0,4,4,4,,,,,0,35,35,35,,,,,,,,,,,,,,,,,,,,,,,,,,,,,,,,,1,10.253728824987775,,,,,,,,,,,,,,,,,,,,,,,,,,,,062519_p1,001,2019_Jun_25_1044,body_behavioural,3.0.4,59.91582127112529,
4,"Isabel slid down in her seat with her hands over her face, embarrassed and overjoyed at the same time.
",4,4,None,,,,,,0,4,4,4,,,,,0,36,36,36,,,,,,,,,,,,,,,,,,,,,,,,,,,,,,,,,1,2.052490428002784,,,,,,,,,,,,,,,,,,,,,,,,,,,,062519_p1,001,2019_Jun_25_1044,body_behavioural,3.0.4,59.91582127112529,
4,,,,,,,,,,0,4,4,4,,,,,,,,,,,,,,,,,,,,,,,,,,,,,,,,,,,,,,,,,,,,,,,,,,,,,,,,,,,,,,,,,,,,,,062519_p1,001,2019_Jun_25_1044,body_behavioural,3.0.4,59.91582127112529,
5,,,,,,,,,,0,5,5,5,0,0,0,0,,,,,,,,,,,,,,,,,,,,,,,,,,,space,1.2702874999959022,space,1.019586159993196,space,0.76948732798337,,,,,,,,,,,,,,,,,,,,,,,,,,,,,,,,,,062519_p1,001,2019_Jun_25_1044,body_behavioural,3.0.4,59.91582127112529,
5,"Thomas, dreading the approaching breakup conversation he was about to start, got to Annika’s Finer Diner late but Sadie, his girlfriend, was not there yet.",1,1,11.0,None,None,None,None,,0,5,5,5,,,,,0,0,0,0,,,,,,,,,,,,,,,,,,,,,,,,,,,,,space,0.7200250920141116,space,2.1694479070138186,9,11.071122076973552,,,,,,,,,,,,,,,,,,,,,,,,,,,,062519_p1,001,2019_Jun_25_1044,body_behavioural,3.0.4,59.91582127112529,
5,Thomas had been thinking about breaking up with her for 2 months now.,1,1,None,None,None,1.0,None,,0,5,5,5,,,,,0,1,1,1,,,,,,,,,,,,,,,,,,,,,,,,,,,,,,,,,1,5.41998755800887,,,,,,,,,,,,,,,,,,,,,,,,,,,,062519_p1,001,2019_Jun_25_1044,body_behavioural,3.0.4,59.91582127112529,
5,"The restaurant he had chosen to meet at was reminiscent of a diner from the 70’s; there was black and white checkerboard tiling on the floor, a long bar in the front, and booths and stools with red, leather upholstery. ",1,1,None,None,None,None,1.0,,0,5,5,5,,,,,0,2,2,2,,,,,,,,,,,,,,,,,,,,,,,,,,,,,,,,,1,6.903459627996199,,,,,,,,,,,,,,,,,,,,,,,,,,,,062519_p1,001,2019_Jun_25_1044,body_behavioural,3.0.4,59.91582127112529,
5,"A bell chimed as the door swung open, and Sadie entered to find Thomas ruminating at the bar.",1,1,None,None,None,None,None,,0,5,5,5,,,,,0,3,3,3,,,,,,,,,,,,,,,,,,,,,,,,,,,,,,,,,9,6.053146666003158,,,,,,,,,,,,,,,,,,,,,,,,,,,,062519_p1,001,2019_Jun_25_1044,body_behavioural,3.0.4,59.91582127112529,
5,"He stood up and gave her a side hug, asking quickly, “How was your day?”",1,1,None,None,None,None,None,,0,5,5,5,,,,,0,4,4,4,,,,,,,,,,,,,,,,,,,,,,,,,,,,,,,,,1,5.420630929991603,,,,,,,,,,,,,,,,,,,,,,,,,,,,062519_p1,001,2019_Jun_25_1044,body_behavioural,3.0.4,59.91582127112529,
5,"She clung onto him, “It was okay- I missed you today.”",1,1,None,None,None,None,None,,0,5,5,5,,,,,0,5,5,5,,,,,,,,,,,,,,,,,,,,,,,,,,,,,,,,,1,3.1842512050061487,,,,,,,,,,,,,,,,,,,,,,,,,,,,062519_p1,001,2019_Jun_25_1044,body_behavioural,3.0.4,59.91582127112529,
5,"He looked away and addressed the hostess coming towards them, “Can we have a booth in the back?”",1,1,None,None,None,None,None,,0,5,5,5,,,,,0,6,6,6,,,,,,,,,,,,,,,,,,,,,,,,,,,,,,,,,1,2.6698715599777643,,,,,,,,,,,,,,,,,,,,,,,,,,,,062519_p1,001,2019_Jun_25_1044,body_behavioural,3.0.4,59.91582127112529,
5,"She shrugged and after loudly popping her bubblegum replied, “Sure, honey.”",1,1,None,9.0,None,None,None,,0,5,5,5,,,,,0,7,7,7,,,,,,,,,,,,,,,,,,,,,,,,,,,,,,,,,1,2.5531714279786684,,,,,,,,,,,,,,,,,,,,,,,,,,,,062519_p1,001,2019_Jun_25_1044,body_behavioural,3.0.4,59.91582127112529,
5,She seated them at a booth in the back corner of the diner.  ,2,1,None,None,None,None,None,,0,5,5,5,,,,,0,8,8,8,,,,,,,,,,,,,,,,,,,,,,,,,,,,,,,,,1,2.9364193600194994,,,,,,,,,,,,,,,,,,,,,,,,,,,,062519_p1,001,2019_Jun_25_1044,body_behavioural,3.0.4,59.91582127112529,
5,Sadie slipped into the cushioned seat and grabbed Thomas’ hand.,2,1,None,None,None,None,None,,0,5,5,5,,,,,0,9,9,9,,,,,,,,,,,,,,,,,,,,,,,,,,,,,,,,,1,3.2508241100003943,,,,,,,,,,,,,,,,,,,,,,,,,,,,062519_p1,001,2019_Jun_25_1044,body_behavioural,3.0.4,59.91582127112529,
5,“Tell me about your day!” she sang.,2,1,None,None,None,None,None,,0,5,5,5,,,,,0,10,10,10,,,,,,,,,,,,,,,,,,,,,,,,,,,,,,,,,1,3.6866309129982255,,,,,,,,,,,,,,,,,,,,,,,,,,,,062519_p1,001,2019_Jun_25_1044,body_behavioural,3.0.4,59.91582127112529,
5,He looked at her silently and pulled his hand slowly from hers as a puzzled look grew on Sadie’s face. ,2,1,None,None,None,None,None,,0,5,5,5,,,,,0,11,11,11,,,,,,,,,,,,,,,,,,,,,,,,,,,,,,,,,1,6.27001113499864,,,,,,,,,,,,,,,,,,,,,,,,,,,,062519_p1,001,2019_Jun_25_1044,body_behavioural,3.0.4,59.91582127112529,
5,Thomas looked away and took a deep breath. ,2,1,None,None,None,None,None,,0,5,5,5,,,,,0,12,12,12,,,,,,,,,,,,,,,,,,,,,,,,,,,,,,,,,1,1.286331085022539,,,,,,,,,,,,,,,,,,,,,,,,,,,,062519_p1,001,2019_Jun_25_1044,body_behavioural,3.0.4,59.91582127112529,
5,"Sadie asked, “What’s wrong?” ",2,1,None,None,None,None,None,,0,5,5,5,,,,,0,13,13,13,,,,,,,,,,,,,,,,,,,,,,,,,,,,,,,,,1,2.7360432150017004,,,,,,,,,,,,,,,,,,,,,,,,,,,,062519_p1,001,2019_Jun_25_1044,body_behavioural,3.0.4,59.91582127112529,
5,Thomas picked at his fingernails.,2,1,None,None,22.0,None,None,,0,5,5,5,,,,,0,14,14,14,,,,,,,,,,,,,,,,,,,,,,,,,,,,,,,,,1,4.236553508002544,,,,,,,,,,,,,,,,,,,,,,,,,,,,062519_p1,001,2019_Jun_25_1044,body_behavioural,3.0.4,59.91582127112529,
5,"After a few moments, Thomas let out a deep breath and said, “Sadie, I’ve been thinking, and I need a break from this relationship because I need to figure out my career path on my own.”",2,2,None,None,None,None,None,,0,5,5,5,,,,,0,15,15,15,,,,,,,,,,,,,,,,,,,,,,,,,,,,,,,,,9,4.920073532004608,,,,,,,,,,,,,,,,,,,,,,,,,,,,062519_p1,001,2019_Jun_25_1044,body_behavioural,3.0.4,59.91582127112529,
5,Sadie sat back in her seat.,2,2,None,None,None,None,None,,0,5,5,5,,,,,0,16,16,16,,,,,,,,,,,,,,,,,,,,,,,,,,,,,,,,,1,3.4033196500095073,,,,,,,,,,,,,,,,,,,,,,,,,,,,062519_p1,001,2019_Jun_25_1044,body_behavioural,3.0.4,59.91582127112529,
5,"Thomas continued, “Things have been really picking up at work, and I’m not sure that this is the job I want to do anymore.",2,2,None,None,None,None,None,,0,5,5,5,,,,,0,17,17,17,,,,,,,,,,,,,,,,,,,,,,,,,,,,,,,,,1,9.370512936991872,,,,,,,,,,,,,,,,,,,,,,,,,,,,062519_p1,001,2019_Jun_25_1044,body_behavioural,3.0.4,59.91582127112529,
5,"Plus, it’s been really overwhelming between working and figuring out if I should change careers, and I really feel like I need more time to figure it out.” ",2,2,None,17.0,None,None,None,,0,5,5,5,,,,,0,18,18,18,,,,,,,,,,,,,,,,,,,,,,,,,,,,,,,,,1,5.903475584986154,,,,,,,,,,,,,,,,,,,,,,,,,,,,062519_p1,001,2019_Jun_25_1044,body_behavioural,3.0.4,59.91582127112529,
5,"The waiter appeared and cheerily asked, “Have you decided what you would like?”",3,2,None,None,None,None,None,,0,5,5,5,,,,,0,19,19,19,,,,,,,,,,,,,,,,,,,,,,,,,,,,,,,,,1,2.386022185004549,,,,,,,,,,,,,,,,,,,,,,,,,,,,062519_p1,001,2019_Jun_25_1044,body_behavioural,3.0.4,59.91582127112529,
5,"Thomas and Sadie realized there were menus on the table, and they glanced at them quickly.",3,2,None,None,None,None,None,,0,5,5,5,,,,,0,20,20,20,,,,,,,,,,,,,,,,,,,,,,,,,,,,,,,,,1,6.586930318007944,,,,,,,,,,,,,,,,,,,,,,,,,,,,062519_p1,001,2019_Jun_25_1044,body_behavioural,3.0.4,59.91582127112529,
5,"The menus were laminated posters with silly names for all the foods, and since they didn’t want to read through each item description, they settled on familiar orders.",3,2,None,None,None,None,None,,0,5,5,5,,,,,0,21,21,21,,,,,,,,,,,,,,,,,,,,,,,,,,,,,,,,,1,6.470055735000642,,,,,,,,,,,,,,,,,,,,,,,,,,,,062519_p1,001,2019_Jun_25_1044,body_behavioural,3.0.4,59.91582127112529,
5,"“I’ll have a burger, no tomatoes,” Thomas said.",3,2,None,None,None,None,None,,0,5,5,5,,,,,0,22,22,22,,,,,,,,,,,,,,,,,,,,,,,,,,,,,,,,,1,2.719890395004768,,,,,,,,,,,,,,,,,,,,,,,,,,,,062519_p1,001,2019_Jun_25_1044,body_behavioural,3.0.4,59.91582127112529,
5,"Sadie asked about the reuben, and the waiter told her it was excellent.",3,2,None,None,None,None,None,,0,5,5,5,,,,,0,23,23,23,,,,,,,,,,,,,,,,,,,,,,,,,,,,,,,,,1,2.1531142449821346,,,,,,,,,,,,,,,,,,,,,,,,,,,,062519_p1,001,2019_Jun_25_1044,body_behavioural,3.0.4,59.91582127112529,
5,"Confirming that that was all they’d like, the waiter walked away. ",3,2,None,None,None,None,None,,0,5,5,5,,,,,0,24,24,24,,,,,,,,,,,,,,,,,,,,,,,,,,,,,,,,,1,1.786580244981451,,,,,,,,,,,,,,,,,,,,,,,,,,,,062519_p1,001,2019_Jun_25_1044,body_behavioural,3.0.4,59.91582127112529,
5,Sadie- not so quietly- burst into tears. ,3,3,None,None,None,None,None,,0,5,5,5,,,,,0,25,25,25,,,,,,,,,,,,,,,,,,,,,,,,,,,,,,,,,9,2.2172410800121725,,,,,,,,,,,,,,,,,,,,,,,,,,,,062519_p1,001,2019_Jun_25_1044,body_behavioural,3.0.4,59.91582127112529,
5,People sitting at the bar looked over and quickly averted their gaze when they figured what was happening. ,3,3,None,None,None,None,None,,0,5,5,5,,,,,0,26,26,26,,,,,,,,,,,,,,,,,,,,,,,,,,,,,,,,,1,3.8704831569921225,,,,,,,,,,,,,,,,,,,,,,,,,,,,062519_p1,001,2019_Jun_25_1044,body_behavioural,3.0.4,59.91582127112529,
5,"She whispered, “Is this really what you want?",3,3,None,None,None,None,None,,0,5,5,5,,,,,0,27,27,27,,,,,,,,,,,,,,,,,,,,,,,,,,,,,,,,,1,1.9531241380027495,,,,,,,,,,,,,,,,,,,,,,,,,,,,062519_p1,001,2019_Jun_25_1044,body_behavioural,3.0.4,59.91582127112529,
5,"I don’t understand- things were fine, I thought. ",3,3,None,None,None,None,None,,0,5,5,5,,,,,0,28,28,28,,,,,,,,,,,,,,,,,,,,,,,,,,,,,,,,,1,1.3513202700123657,,,,,,,,,,,,,,,,,,,,,,,,,,,,062519_p1,001,2019_Jun_25_1044,body_behavioural,3.0.4,59.91582127112529,
5,I think we should stay together because we can change how much we hang out. ,3,3,None,None,None,None,None,,0,5,5,5,,,,,0,29,29,29,,,,,,,,,,,,,,,,,,,,,,,,,,,,,,,,,1,3.8532416399975773,,,,,,,,,,,,,,,,,,,,,,,,,,,,062519_p1,001,2019_Jun_25_1044,body_behavioural,3.0.4,59.91582127112529,
5,"We don’t have to hang out all the time, or as much as we do now.”",3,3,None,None,None,None,None,,0,5,5,5,,,,,0,30,30,30,,,,,,,,,,,,,,,,,,,,,,,,,,,,,,,,,1,2.0532768800039776,,,,,,,,,,,,,,,,,,,,,,,,,,,,062519_p1,001,2019_Jun_25_1044,body_behavioural,3.0.4,59.91582127112529,
5,Thomas chewed on his bottom lip and picked at his now bleeding hangnail. ,3,3,None,20.0,None,None,None,,0,5,5,5,,,,,0,31,31,31,,,,,,,,,,,,,,,,,,,,,,,,,,,,,,,,,1,2.837227907992201,,,,,,,,,,,,,,,,,,,,,,,,,,,,062519_p1,001,2019_Jun_25_1044,body_behavioural,3.0.4,59.91582127112529,
5,The waiter appeared with the burger and reuben and set them in front of them.,4,3,None,None,None,None,None,,0,5,5,5,,,,,0,32,32,32,,,,,,,,,,,,,,,,,,,,,,,,,,,,,,,,,1,1.9696817630028818,,,,,,,,,,,,,,,,,,,,,,,,,,,,062519_p1,001,2019_Jun_25_1044,body_behavioural,3.0.4,59.91582127112529,
5,“Is there anything else I can get for you two?,4,3,None,None,None,None,None,,0,5,5,5,,,,,0,33,33,33,,,,,,,,,,,,,,,,,,,,,,,,,,,,,,,,,1,2.5364027800096665,,,,,,,,,,,,,,,,,,,,,,,,,,,,062519_p1,001,2019_Jun_25_1044,body_behavioural,3.0.4,59.91582127112529,
5,Will you be getting dessert tonight?” he asked.,4,3,None,None,None,None,None,,0,5,5,5,,,,,0,34,34,34,,,,,,,,,,,,,,,,,,,,,,,,,,,,,,,,,1,1.3866616130108014,,,,,,,,,,,,,,,,,,,,,,,,,,,,062519_p1,001,2019_Jun_25_1044,body_behavioural,3.0.4,59.91582127112529,
5,"“Oh no, we’re good, thanks,” Thomas said blankly.",4,3,None,None,None,None,None,,0,5,5,5,,,,,0,35,35,35,,,,,,,,,,,,,,,,,,,,,,,,,,,,,,,,,1,1.169786145008402,,,,,,,,,,,,,,,,,,,,,,,,,,,,062519_p1,001,2019_Jun_25_1044,body_behavioural,3.0.4,59.91582127112529,
5," With the waiter gone, Sadie suddenly stood up, grabbed half of the reuben, and shook it at him as she growled, “Don’t follow me, and don’t talk to me anymore!",4,4,None,None,None,None,None,,0,5,5,5,,,,,0,36,36,36,,,,,,,,,,,,,,,,,,,,,,,,,,,,,,,,,1,8.820080907986267,,,,,,,,,,,,,,,,,,,,,,,,,,,,062519_p1,001,2019_Jun_25_1044,body_behavioural,3.0.4,59.91582127112529,
5,"Also, I want my polaroid camera and Beatles poster back!”",4,4,None,None,None,None,None,,0,5,5,5,,,,,0,37,37,37,,,,,,,,,,,,,,,,,,,,,,,,,,,,,,,,,9,9.871097414987162,,,,,,,,,,,,,,,,,,,,,,,,,,,,062519_p1,001,2019_Jun_25_1044,body_behavioural,3.0.4,59.91582127112529,
5,"She stormed off, and the bell above the door jingled cheerfully as the door closed behind her.",4,4,None,None,None,None,None,,0,5,5,5,,,,,0,38,38,38,,,,,,,,,,,,,,,,,,,,,,,,,,,,,,,,,1,3.219978823006386,,,,,,,,,,,,,,,,,,,,,,,,,,,,062519_p1,001,2019_Jun_25_1044,body_behavioural,3.0.4,59.91582127112529,
5,Thomas sat there for awhile surprised at how quickly everything had transpired. ,4,4,None,None,None,None,None,,0,5,5,5,,,,,0,39,39,39,,,,,,,,,,,,,,,,,,,,,,,,,,,,,,,,,1,2.952818342979299,,,,,,,,,,,,,,,,,,,,,,,,,,,,062519_p1,001,2019_Jun_25_1044,body_behavioural,3.0.4,59.91582127112529,
5,"He grabbed his burger and took a bite of it, creating a dry and fishy taste in his mouth.",4,4,None,None,None,None,None,,0,5,5,5,,,,,0,40,40,40,,,,,,,,,,,,,,,,,,,,,,,,,,,,,,,,,1,2.669766018021619,,,,,,,,,,,,,,,,,,,,,,,,,,,,062519_p1,001,2019_Jun_25_1044,body_behavioural,3.0.4,59.91582127112529,
5,He dropped it back on his plate and wondered if the restaurant was responsible for the foul taste. ,4,4,None,13.0,5.0,None,None,,0,5,5,5,,,,,0,41,41,41,,,,,,,,,,,,,,,,,,,,,,,,,,,,,,,,,1,2.9526816649886314,,,,,,,,,,,,,,,,,,,,,,,,,,,,062519_p1,001,2019_Jun_25_1044,body_behavioural,3.0.4,59.91582127112529,
5,,,,,,,,,,0,5,5,5,,,,,,,,,,,,,,,,,,,,,,,,,,,,,,,,,,,,,,,,,,,,,,,,,,,,,,,,,,,,,,,,,,,,,,062519_p1,001,2019_Jun_25_1044,body_behavioural,3.0.4,59.91582127112529,
6,,,,,,,,,,0,6,6,6,0,0,0,0,,,,,,,,,,,,,,,,,,,,,,,,,,,space,1.386355784983607,space,0.7530406730074901,space,1.2368469520006329,,,,,,,,,,,,,,,,,,,,,,,,,,,,,,,,,,062519_p1,001,2019_Jun_25_1044,body_behavioural,3.0.4,59.91582127112529,
6,"Ms. Bianchi and Ms. Morrison walked into the grocery store at the same time, and, after a moment of mutual recognition, greeted each other with a handshake.",1.0,1.0,33.0,,,,,,0,6,6,6,,,,,0,0,0,0,,,,,,,,,,,,,,,,,,,,,,,,,,,,,space,0.5199416849936824,space,1.202885079983389,9,10.854267110000364,,,,,,,,,,,,,,,,,,,,,,,,,,,,062519_p1,001,2019_Jun_25_1044,body_behavioural,3.0.4,59.91582127112529,
6,"They were standing in the entrance of the grocery store, which had displays of pumpkins, candy, and halloween decorations set up in different stations around the door. ",1.0,1.0,None,,,,,,0,6,6,6,,,,,0,1,1,1,,,,,,,,,,,,,,,,,,,,,,,,,,,,,,,,,1,8.686961092986166,,,,,,,,,,,,,,,,,,,,,,,,,,,,062519_p1,001,2019_Jun_25_1044,body_behavioural,3.0.4,59.91582127112529,
6,"“Thank you again for inviting me here to discuss my business proposal,” said Ms. Bianchi.",1.0,1.0,None,,,,,,0,6,6,6,,,,,0,2,2,2,,,,,,,,,,,,,,,,,,,,,,,,,,,,,,,,,1,7.4530877099896315,,,,,,,,,,,,,,,,,,,,,,,,,,,,062519_p1,001,2019_Jun_25_1044,body_behavioural,3.0.4,59.91582127112529,
6,“It’s a pleasure to be out of the office.” ,1.0,1.0,None,,,,,,0,6,6,6,,,,,0,3,3,3,,,,,,,,,,,,,,,,,,,,,,,,,,,,,,,,,1,1.4036229400080629,,,,,,,,,,,,,,,,,,,,,,,,,,,,062519_p1,001,2019_Jun_25_1044,body_behavioural,3.0.4,59.91582127112529,
6,"As an account representative for an Italian cheese company that was trying to expand its outreach to American grocery stores, this meeting was pivotal for Ms. Bianchi.",1.0,1.0,None,,,,,,0,6,6,6,,,,,0,4,4,4,,,,,,,,,,,,,,,,,,,,,,,,,,,,,,,,,1,12.237217045010766,,,,,,,,,,,,,,,,,,,,,,,,,,,,062519_p1,001,2019_Jun_25_1044,body_behavioural,3.0.4,59.91582127112529,
6,"Her sales target, Ms. Morrison, was the senior product manager for a corporate grocer and she had a say in the products distributed in stores across the West Coast.",1.0,1.0,None,,,,,,0,6,6,6,,,,,0,5,5,5,,,,,,,,,,,,,,,,,,,,,,,,,,,,,,,,,1,76.52508495299844,,,,,,,,,,,,,,,,,,,,,,,,,,,,062519_p1,001,2019_Jun_25_1044,body_behavioural,3.0.4,59.91582127112529,
6,"Ms. Morrison was also known for doing things unconventionally: for example, she said that she liked to make deals with suppliers in the place where the products were sold- “to keep their minds focused on what’s important.” ",1.0,1.0,None,,,,,,0,6,6,6,,,,,0,6,6,6,,,,,,,,,,,,,,,,,,,,,,,,,,,,,,,,,1,15.868581312999595,,,,,,,,,,,,,,,,,,,,,,,,,,,,062519_p1,001,2019_Jun_25_1044,body_behavioural,3.0.4,59.91582127112529,
6,"In the cheese section of the grocery store, Ms. Morrison motioned to the parmesan.",2.0,1.0,None,,,,,,0,6,6,6,,,,,0,7,7,7,,,,,,,,,,,,,,,,,,,,,,,,,,,,,,,,,9,10.51808532999712,,,,,,,,,,,,,,,,,,,,,,,,,,,,062519_p1,001,2019_Jun_25_1044,body_behavioural,3.0.4,59.91582127112529,
6,“We have quite a selection here.,2.0,1.0,None,,,,,,0,6,6,6,,,,,0,8,8,8,,,,,,,,,,,,,,,,,,,,,,,,,,,,,,,,,1,1.919259733025683,,,,,,,,,,,,,,,,,,,,,,,,,,,,062519_p1,001,2019_Jun_25_1044,body_behavioural,3.0.4,59.91582127112529,
6,I don’t know that we need an additional section for gourmet cheeses.” ,2.0,1.0,None,,,,,,0,6,6,6,,,,,0,9,9,9,,,,,,,,,,,,,,,,,,,,,,,,,,,,,,,,,1,9.170125858014217,,,,,,,,,,,,,,,,,,,,,,,,,,,,062519_p1,001,2019_Jun_25_1044,body_behavioural,3.0.4,59.91582127112529,
6," Ms. Bianchi did not hesitate but launched into her pitch: “Ms. Morrison, I think you would agree that selling food is more than just providing variety, but also about providing the highest quality.",2.0,2.0,None,,,,,,0,6,6,6,,,,,0,10,10,10,,,,,,,,,,,,,,,,,,,,,,,,,,,,,,,,,1,7.25175439301529,,,,,,,,,,,,,,,,,,,,,,,,,,,,062519_p1,001,2019_Jun_25_1044,body_behavioural,3.0.4,59.91582127112529,
6,You don’t have cheeses made in America that are like ours- it is true.,2.0,2.0,None,,,,,,0,6,6,6,,,,,0,11,11,11,,,,,,,,,,,,,,,,,,,,,,,,,,,,,,,,,1,3.2867700020142365,,,,,,,,,,,,,,,,,,,,,,,,,,,,062519_p1,001,2019_Jun_25_1044,body_behavioural,3.0.4,59.91582127112529,
6,The availability of a product of excellent quality leads to the appreciation of the product.,2.0,2.0,None,,,,,,0,6,6,6,,,,,0,12,12,12,,,,,,,,,,,,,,,,,,,,,,,,,,,,,,,,,1,4.968353074014885,,,,,,,,,,,,,,,,,,,,,,,,,,,,062519_p1,001,2019_Jun_25_1044,body_behavioural,3.0.4,59.91582127112529,
6,"Your consumers will want to buy other, finer products to compliment that first ingredient, and suddenly your customer will be consuming in a new, more profitable way.",2.0,2.0,None,,,,,,0,6,6,6,,,,,0,13,13,13,,,,,,,,,,,,,,,,,,,,,,,,,,,,,,,,,1,15.651242742984323,,,,,,,,,,,,,,,,,,,,,,,,,,,,062519_p1,001,2019_Jun_25_1044,body_behavioural,3.0.4,59.91582127112529,
6,"I propose that you give it a shot: buy $1500 worth of cheese products for a few stores, and see how the sales increase not only in our cheeses but also in products related to cheeses: crackers, jams, olives.”",2.0,2.0,None,,,,,,0,6,6,6,,,,,0,14,14,14,,,,,,,,,,,,,,,,,,,,,,,,,,,,,,,,,1,17.11982889700448,,,,,,,,,,,,,,,,,,,,,,,,,,,,062519_p1,001,2019_Jun_25_1044,body_behavioural,3.0.4,59.91582127112529,
6,"Ms. Bianchi picked up a box of crackers by the cheese section, and said, “Here, I will buy these, and we can try some of our cheeses that I've brought with me.”",2.0,2.0,None,,,,,,0,6,6,6,,,,,0,15,15,15,,,,,,,,,,,,,,,,,,,,,,,,,,,,,,,,,1,5.970469429012155,,,,,,,,,,,,,,,,,,,,,,,,,,,,062519_p1,001,2019_Jun_25_1044,body_behavioural,3.0.4,59.91582127112529,
6,"Ms. Morrison, who was thinking about the proposed offer, nodded in agreement and said, “That sounds like a great idea, but those crackers are on me.”",2.0,2.0,None,,,,,,0,6,6,6,,,,,0,16,16,16,,,,,,,,,,,,,,,,,,,,,,,,,,,,,,,,,1,6.635449053981574,,,,,,,,,,,,,,,,,,,,,,,,,,,,062519_p1,001,2019_Jun_25_1044,body_behavioural,3.0.4,59.91582127112529,
6,She took the crackers from Ms. Bianchi and also picked up a bottle of ketchup and a case of sparkling water “for later.”,2.0,2.0,None,,,,,,0,6,6,6,,,,,0,17,17,17,,,,,,,,,,,,,,,,,,,,,,,,,,,,,,,,,1,4.387215919996379,,,,,,,,,,,,,,,,,,,,,,,,,,,,062519_p1,001,2019_Jun_25_1044,body_behavioural,3.0.4,59.91582127112529,
6,It was very busy in the checkout area.,3.0,2.0,None,,,,,,0,6,6,6,,,,,0,18,18,18,,,,,,,,,,,,,,,,,,,,,,,,,,,,,,,,,9,1.5865634950168896,,,,,,,,,,,,,,,,,,,,,,,,,,,,062519_p1,001,2019_Jun_25_1044,body_behavioural,3.0.4,59.91582127112529,
6,"People were stocking up for Halloween parties and trick-or-treating, and there were 10 aisles open. ",3.0,2.0,None,,,,,,0,6,6,6,,,,,0,19,19,19,,,,,,,,,,,,,,,,,,,,,,,,,,,,,,,,,1,6.020462739979848,,,,,,,,,,,,,,,,,,,,,,,,,,,,062519_p1,001,2019_Jun_25_1044,body_behavioural,3.0.4,59.91582127112529,
6,They stepped into lane 6 and waited.,3.0,2.0,None,,,,,,0,6,6,6,,,,,0,20,20,20,,,,,,,,,,,,,,,,,,,,,,,,,,,,,,,,,1,0.9524962260038592,,,,,,,,,,,,,,,,,,,,,,,,,,,,062519_p1,001,2019_Jun_25_1044,body_behavioural,3.0.4,59.91582127112529,
6,Ms. Bianchi handed to Ms. Morrison a packet with printed graphs of the increase in profits that several other stores in Italy had seen after starting to carry their products.,3.0,2.0,None,,,,,,0,6,6,6,,,,,0,21,21,21,,,,,,,,,,,,,,,,,,,,,,,,,,,,,,,,,1,12.436921120010084,,,,,,,,,,,,,,,,,,,,,,,,,,,,062519_p1,001,2019_Jun_25_1044,body_behavioural,3.0.4,59.91582127112529,
6,"After a couple minutes of thinking, Ms. Morrison widened her eyes and said confidently, “You know what, I think you've convinced me that this could work. ",3.0,3.0,None,,,,,,0,6,6,6,,,,,0,22,22,22,,,,,,,,,,,,,,,,,,,,,,,,,,,,,,,,,9,5.086288538004737,,,,,,,,,,,,,,,,,,,,,,,,,,,,062519_p1,001,2019_Jun_25_1044,body_behavioural,3.0.4,59.91582127112529,
6,We've been trying to find a way to add a little European cachet to our stores.,3.0,3.0,None,,,,,,0,6,6,6,,,,,0,23,23,23,,,,,,,,,,,,,,,,,,,,,,,,,,,,,,,,,1,2.13654750798014,,,,,,,,,,,,,,,,,,,,,,,,,,,,062519_p1,001,2019_Jun_25_1044,body_behavioural,3.0.4,59.91582127112529,
6,"Our competitor, Orange Grocers, hasn’t expanded in this direction yet, and I’d like to beat them to it. ",3.0,3.0,None,,,,,,0,6,6,6,,,,,0,24,24,24,,,,,,,,,,,,,,,,,,,,,,,,,,,,,,,,,1,5.404315204999875,,,,,,,,,,,,,,,,,,,,,,,,,,,,062519_p1,001,2019_Jun_25_1044,body_behavioural,3.0.4,59.91582127112529,
6,There's still a problem though- I'm worried we'll be paying out the nose for the import taxes.,3.0,3.0,None,,,,,,0,6,6,6,,,,,0,25,25,25,,,,,,,,,,,,,,,,,,,,,,,,,,,,,,,,,9,4.052067356999032,,,,,,,,,,,,,,,,,,,,,,,,,,,,062519_p1,001,2019_Jun_25_1044,body_behavioural,3.0.4,59.91582127112529,
6,Is that the case?",3.0,3.0,None,,,,,,0,6,6,6,,,,,0,26,26,26,,,,,,,,,,,,,,,,,,,,,,,,,,,,,,,,,1,1.3531525550060906,,,,,,,,,,,,,,,,,,,,,,,,,,,,062519_p1,001,2019_Jun_25_1044,body_behavioural,3.0.4,59.91582127112529,
6,"It was Ms. Morrison’s turn to check out, and the cashier chatted with Ms. Morrison as she scanned the items.",4.0,3.0,None,,,,,,0,6,6,6,,,,,0,27,27,27,,,,,,,,,,,,,,,,,,,,,,,,,,,,,,,,,1,4.553312399977585,,,,,,,,,,,,,,,,,,,,,,,,,,,,062519_p1,001,2019_Jun_25_1044,body_behavioural,3.0.4,59.91582127112529,
6,Ms. Morrison was also distinguished for knowing most of the employees personally. ,None,None,None,,,,,,0,6,6,6,,,,,0,28,28,28,,,,,,,,,,,,,,,,,,,,,,,,,,,,,,,,,1,3.603315308020683,,,,,,,,,,,,,,,,,,,,,,,,,,,,062519_p1,001,2019_Jun_25_1044,body_behavioural,3.0.4,59.91582127112529,
6,Ms. Bianchi watched in amusement as Ms. Morrison paid the $23 price by writing a check. ,4.0,3.0,None,,,,,,0,6,6,6,,,,,0,29,29,29,,,,,,,,,,,,,,,,,,,,,,,,,,,,,,,,,1,10.370360738015734,,,,,,,,,,,,,,,,,,,,,,,,,,,,062519_p1,001,2019_Jun_25_1044,body_behavioural,3.0.4,59.91582127112529,
6,"After Ms. Bianci addressed Ms. Morrison’s concerns, they came to an agreement and would have enough cheese shipments, $20,000 worth, to different stores to qualify for a subsidized import tax. ",4.0,4.0,None,,,,,,0,6,6,6,,,,,0,30,30,30,,,,,,,,,,,,,,,,,,,,,,,,,,,,,,,,,1,18.751889962994028,,,,,,,,,,,,,,,,,,,,,,,,,,,,062519_p1,001,2019_Jun_25_1044,body_behavioural,3.0.4,59.91582127112529,
6,"Ms. Morrison had had a small bottle of champagne in her purse, and she pulled it out and popped it in celebration of their deal. ",4.0,4.0,None,,,,,,0,6,6,6,,,,,0,31,31,31,,,,,,,,,,,,,,,,,,,,,,,,,,,,,,,,,9,3.66743271498126,,,,,,,,,,,,,,,,,,,,,,,,,,,,062519_p1,001,2019_Jun_25_1044,body_behavioural,3.0.4,59.91582127112529,
6,Ms. Bianchi decided that she loved doing business with Americans. ,4.0,4.0,None,,,,,,0,6,6,6,,,,,0,32,32,32,,,,,,,,,,,,,,,,,,,,,,,,,,,,,,,,,1,1.703209572006017,,,,,,,,,,,,,,,,,,,,,,,,,,,,062519_p1,001,2019_Jun_25_1044,body_behavioural,3.0.4,59.91582127112529,
6,,,,,,,,,,0,6,6,6,,,,,,,,,,,,,,,,,,,,,,,,,,,,,,,,,,,,,,,,,,,,,,,,,,,,,,,,,,,,,,,,,,,,,,062519_p1,001,2019_Jun_25_1044,body_behavioural,3.0.4,59.91582127112529,
7,,,,,,,,,,0,7,7,7,0,0,0,0,,,,,,,,,,,,,,,,,,,,,,,,,,,space,1.0864683949912433,space,3.6700575670110993,space,1.119836634985404,,,,,,,,,,,,,,,,,,,,,,,,,,,,,,,,,,062519_p1,001,2019_Jun_25_1044,body_behavioural,3.0.4,59.91582127112529,
7,Henry walked into lecture with Maria who was mentally rehearsing what she should say to break up with him.,1,1,14.0,,,,,,0,7,7,7,,,,,0,0,0,0,,,,,,,,,,,,,,,,,,,,,,,,,,,,,space,2.454699611000251,space,1.1346757410210557,9,16.554528039996512,,,,,,,,,,,,,,,,,,,,,,,,,,,,062519_p1,001,2019_Jun_25_1044,body_behavioural,3.0.4,59.91582127112529,
7,She had been putting it off with a growing sense of dread as she had been since she started to think about it a week ago.,1,1,None,,,,,,0,7,7,7,,,,,0,1,1,1,,,,,,,,,,,,,,,,,,,,,,,,,,,,,,,,,1,5.6696849779982585,,,,,,,,,,,,,,,,,,,,,,,,,,,,062519_p1,001,2019_Jun_25_1044,body_behavioural,3.0.4,59.91582127112529,
7,Now this lecture was the last chance to do it. ,1,1,None,,,,,,0,7,7,7,,,,,0,2,2,2,,,,,,,,,,,,,,,,,,,,,,,,,,,,,,,,,1,1.601416714984225,,,,,,,,,,,,,,,,,,,,,,,,,,,,062519_p1,001,2019_Jun_25_1044,body_behavioural,3.0.4,59.91582127112529,
7,"The lecture hall was large, with a stage for the lecturer in the front of the room, and 15 tiered rows of desks. ",1,1,None,,,,,,0,7,7,7,,,,,0,3,3,3,,,,,,,,,,,,,,,,,,,,,,,,,,,,,,,,,1,8.919201423006598,,,,,,,,,,,,,,,,,,,,,,,,,,,,062519_p1,001,2019_Jun_25_1044,body_behavioural,3.0.4,59.91582127112529,
7,Maria and Henry slid into neighboring seats near the back of the room.,1,1,None,,,,,,0,7,7,7,,,,,0,4,4,4,,,,,,,,,,,,,,,,,,,,,,,,,,,,,,,,,1,3.003061989991693,,,,,,,,,,,,,,,,,,,,,,,,,,,,062519_p1,001,2019_Jun_25_1044,body_behavioural,3.0.4,59.91582127112529,
7,"The professor opened up the lecture with a hardy greeting, “Good afternoon, everybody.”",2,1,None,,,,,,0,7,7,7,,,,,0,5,5,5,,,,,,,,,,,,,,,,,,,,,,,,,,,,,,,,,9,4.204052863002289,,,,,,,,,,,,,,,,,,,,,,,,,,,,062519_p1,001,2019_Jun_25_1044,body_behavioural,3.0.4,59.91582127112529,
7,"As he fiddled with the cords to connect his laptop to the projector, he continued to say, “Welcome to Week 4 of Intro to Ancient Philosophy. ",2,1,None,,,,,,0,7,7,7,,,,,0,6,6,6,,,,,,,,,,,,,,,,,,,,,,,,,,,,,,,,,1,12.353653777012369,,,,,,,,,,,,,,,,,,,,,,,,,,,,062519_p1,001,2019_Jun_25_1044,body_behavioural,3.0.4,59.91582127112529,
7,Today we are going to continue our lecture on Aristotelian Philosophy.”,2,1,None,,,,,,0,7,7,7,,,,,0,7,7,7,,,,,,,,,,,,,,,,,,,,,,,,,,,,,,,,,1,3.986551124980906,,,,,,,,,,,,,,,,,,,,,,,,,,,,062519_p1,001,2019_Jun_25_1044,body_behavioural,3.0.4,59.91582127112529,
7,Mostly everyone in class was taking notes.,2,1,None,,,,,,0,7,7,7,,,,,0,8,8,8,,,,,,,,,,,,,,,,,,,,,,,,,,,,,,,,,1,1.7364999999990687,,,,,,,,,,,,,,,,,,,,,,,,,,,,062519_p1,001,2019_Jun_25_1044,body_behavioural,3.0.4,59.91582127112529,
7,"Maria took a deep breath, decided to rip off the bandaid, and leaning into Henry’s desk, said, “Henry, I think we should- I think we should break up because I don’t think I can do long distance.",2,2,None,,,,,,0,7,7,7,,,,,0,9,9,9,,,,,,,,,,,,,,,,,,,,,,,,,,,,,,,,,9,4.752969839988509,,,,,,,,,,,,,,,,,,,,,,,,,,,,062519_p1,001,2019_Jun_25_1044,body_behavioural,3.0.4,59.91582127112529,
7,"I think what we have here is great, but I think it will be really hard when we are so far apart for so long during my study abroad.",2,2,None,,,,,,0,7,7,7,,,,,0,10,10,10,,,,,,,,,,,,,,,,,,,,,,,,,,,,,,,,,1,5.386802961991634,,,,,,,,,,,,,,,,,,,,,,,,,,,,062519_p1,001,2019_Jun_25_1044,body_behavioural,3.0.4,59.91582127112529,
7,"I’m sorry I’m telling you now in lecture, but you know, I have to leave for the airport after class and this is really hard for me to tell you.",2,2,None,,,,,,0,7,7,7,,,,,0,11,11,11,,,,,,,,,,,,,,,,,,,,,,,,,,,,,,,,,1,4.802608124999097,,,,,,,,,,,,,,,,,,,,,,,,,,,,062519_p1,001,2019_Jun_25_1044,body_behavioural,3.0.4,59.91582127112529,
7,I just know when I’m there I’m going to be so busy and I really want to be immersed in the life of the place I’m in.”,2,2,None,,,,,,0,7,7,7,,,,,0,12,12,12,,,,,,,,,,,,,,,,,,,,,,,,,,,,,,,,,1,7.420467215008102,,,,,,,,,,,,,,,,,,,,,,,,,,,,062519_p1,001,2019_Jun_25_1044,body_behavioural,3.0.4,59.91582127112529,
7,"The professor said, “We will now talk about one of Aristotle’s works, The Categories.",3,2,None,,,,,,0,7,7,7,,,,,0,13,13,13,,,,,,,,,,,,,,,,,,,,,,,,,,,,,,,,,9,5.519898669997929,,,,,,,,,,,,,,,,,,,,,,,,,,,,062519_p1,001,2019_Jun_25_1044,body_behavioural,3.0.4,59.91582127112529,
7,"This text, as you might have been able to guess, is about the kinds, or categories, of things that there are.",3,2,None,,,,,,0,7,7,7,,,,,0,14,14,14,,,,,,,,,,,,,,,,,,,,,,,,,,,,,,,,,1,4.270113499980653,,,,,,,,,,,,,,,,,,,,,,,,,,,,062519_p1,001,2019_Jun_25_1044,body_behavioural,3.0.4,59.91582127112529,
7,"In fact, our term category comes from this Aristotelian context.",3,2,None,,,,,,0,7,7,7,,,,,0,15,15,15,,,,,,,,,,,,,,,,,,,,,,,,,,,,,,,,,1,2.503100378002273,,,,,,,,,,,,,,,,,,,,,,,,,,,,062519_p1,001,2019_Jun_25_1044,body_behavioural,3.0.4,59.91582127112529,
7,"The Categories, traditionally interpreted as an introduction to Aristotle’s logical work, divides all of  being into ten categories.” ",3,2,None,,,,,,0,7,7,7,,,,,0,16,16,16,,,,,,,,,,,,,,,,,,,,,,,,,,,,,,,,,1,5.753250562993344,,,,,,,,,,,,,,,,,,,,,,,,,,,,062519_p1,001,2019_Jun_25_1044,body_behavioural,3.0.4,59.91582127112529,
7,"Henry felt horrible, like the wind had just been knocked out of him and he whispered back, “Maria, I don’t want to break up with you because I love you.",3,3,None,,,,,,0,7,7,7,,,,,0,17,17,17,,,,,,,,,,,,,,,,,,,,,,,,,,,,,,,,,9,4.336821559991222,,,,,,,,,,,,,,,,,,,,,,,,,,,,062519_p1,001,2019_Jun_25_1044,body_behavioural,3.0.4,59.91582127112529,
7,I’ll come visit you and it will be fine.,3,3,None,,,,,,0,7,7,7,,,,,0,18,18,18,,,,,,,,,,,,,,,,,,,,,,,,,,,,,,,,,1,1.4028608580119908,,,,,,,,,,,,,,,,,,,,,,,,,,,,062519_p1,001,2019_Jun_25_1044,body_behavioural,3.0.4,59.91582127112529,
7,I don’t want to break up.”,3,3,None,,,,,,0,7,7,7,,,,,0,19,19,19,,,,,,,,,,,,,,,,,,,,,,,,,,,,,,,,,1,2.2359619819908403,,,,,,,,,,,,,,,,,,,,,,,,,,,,062519_p1,001,2019_Jun_25_1044,body_behavioural,3.0.4,59.91582127112529,
7,"Maria felt so guilty that she nearly gave in, but forced herself to hold her ground, knowing that this would make things much easier for both of them in the future.",3,3,None,,,,,,0,7,7,7,,,,,0,20,20,20,,,,,,,,,,,,,,,,,,,,,,,,,,,,,,,,,1,5.969383863004623,,,,,,,,,,,,,,,,,,,,,,,,,,,,062519_p1,001,2019_Jun_25_1044,body_behavioural,3.0.4,59.91582127112529,
7,"She gave his hand a squeeze but shook her head sadly, before turning back to look at her empty desk. ",3,3,None,,,,,,0,7,7,7,,,,,0,21,21,21,,,,,,,,,,,,,,,,,,,,,,,,,,,,,,,,,1,3.384307814994827,,,,,,,,,,,,,,,,,,,,,,,,,,,,062519_p1,001,2019_Jun_25_1044,body_behavioural,3.0.4,59.91582127112529,
7,"The professor wrapped up, “Alright, class, that’s all for today.",4,3,None,,,,,,0,7,7,7,,,,,0,22,22,22,,,,,,,,,,,,,,,,,,,,,,,,,,,,,,,,,1,2.153074275003746,,,,,,,,,,,,,,,,,,,,,,,,,,,,062519_p1,001,2019_Jun_25_1044,body_behavioural,3.0.4,59.91582127112529,
7,"Remember the final exam is coming up next week on Tuesday on the Pre-Socratics, Plato, and Aristotle, so feel free to come by office hours to discuss if you have the inspiration.",4,3,None,,,,,,0,7,7,7,,,,,0,23,23,23,,,,,,,,,,,,,,,,,,,,,,,,,,,,,,,,,1,25.754975232004654,,,,,,,,,,,,,,,,,,,,,,,,,,,,062519_p1,001,2019_Jun_25_1044,body_behavioural,3.0.4,59.91582127112529,
7,"If anyone has any conflicts with another exam, please email me so that we can figure out a time to reschedule it. ",4,3,None,,,,,,0,7,7,7,,,,,0,24,24,24,,,,,,,,,,,,,,,,,,,,,,,,,,,,,,,,,1,5.003265800012741,,,,,,,,,,,,,,,,,,,,,,,,,,,,062519_p1,001,2019_Jun_25_1044,body_behavioural,3.0.4,59.91582127112529,
7,"Have a good day, folks.” ",4,3,None,,,,,,0,7,7,7,,,,,0,25,25,25,,,,,,,,,,,,,,,,,,,,,,,,,,,,,,,,,1,0.8864886499941349,,,,,,,,,,,,,,,,,,,,,,,,,,,,062519_p1,001,2019_Jun_25_1044,body_behavioural,3.0.4,59.91582127112529,
7,"Maria and Henry packed up hurriedly, and they hugged; both of them had tears. ",4,4,None,,,,,,0,7,7,7,,,,,0,26,26,26,,,,,,,,,,,,,,,,,,,,,,,,,,,,,,,,,9,2.269809310004348,,,,,,,,,,,,,,,,,,,,,,,,,,,,062519_p1,001,2019_Jun_25_1044,body_behavioural,3.0.4,59.91582127112529,
7,"“Maria, I don’t want you to leave.",4,4,None,,,,,,0,7,7,7,,,,,0,27,27,27,,,,,,,,,,,,,,,,,,,,,,,,,,,,,,,,,1,1.8860709879954811,,,,,,,,,,,,,,,,,,,,,,,,,,,,062519_p1,001,2019_Jun_25_1044,body_behavioural,3.0.4,59.91582127112529,
7,I don’t want this to end. ,4,4,None,,,,,,0,7,7,7,,,,,0,28,28,28,,,,,,,,,,,,,,,,,,,,,,,,,,,,,,,,,1,0.8364200649957638,,,,,,,,,,,,,,,,,,,,,,,,,,,,062519_p1,001,2019_Jun_25_1044,body_behavioural,3.0.4,59.91582127112529,
7,"But if this is what you think is best, I can’t make it otherwise.” ",4,4,None,,,,,,0,7,7,7,,,,,0,29,29,29,,,,,,,,,,,,,,,,,,,,,,,,,,,,,,,,,1,1.1197799969813786,,,,,,,,,,,,,,,,,,,,,,,,,,,,062519_p1,001,2019_Jun_25_1044,body_behavioural,3.0.4,59.91582127112529,
7,"They hugged one last time, and then Maria remembered she had left her favorite Alpaca sweater in Henry’s room.",4,4,None,,,,,,0,7,7,7,,,,,0,30,30,30,,,,,,,,,,,,,,,,,,,,,,,,,,,,,,,,,1,4.551033127994742,,,,,,,,,,,,,,,,,,,,,,,,,,,,062519_p1,001,2019_Jun_25_1044,body_behavioural,3.0.4,59.91582127112529,
7,"“Henry, I’m so sorry to ask this now but could you grab my alpaca sweater from your dorm and meet me in front of the student center?”",4,4,None,,,,,,0,7,7,7,,,,,0,31,31,31,,,,,,,,,,,,,,,,,,,,,,,,,,,,,,,,,1,3.402735212992411,,,,,,,,,,,,,,,,,,,,,,,,,,,,062519_p1,001,2019_Jun_25_1044,body_behavioural,3.0.4,59.91582127112529,
7,"He agreed, and she ran off to get her things from her dorm as he sadly watched her go. ",4,4,None,,,,,,0,7,7,7,,,,,0,32,32,32,,,,,,,,,,,,,,,,,,,,,,,,,,,,,,,,,1,2.0361870900087524,,,,,,,,,,,,,,,,,,,,,,,,,,,,062519_p1,001,2019_Jun_25_1044,body_behavioural,3.0.4,59.91582127112529,
7,,,,,,,,,,0,7,7,7,,,,,,,,,,,,,,,,,,,,,,,,,,,,,,,,,,,,,,,,,,,,,,,,,,,,,,,,,,,,,,,,,,,,,,062519_p1,001,2019_Jun_25_1044,body_behavioural,3.0.4,59.91582127112529,
,,,,,,,,,,,,,,,,,,,,,,,,,,,,,,,,,,,,,,,,,,,,,,,,,,,,,,,,2180.950253504998,space,0.9867236629943363,,,,,,,,,,,,,,,,,,,,,,,,,062519_p1,001,2019_Jun_25_1044,body_behavioural,3.0.4,59.91582127112529,
,,,,,,,,,"In this next part of the experiment, please recall each story to the best of your ability.",,,,,,,,,,,,,0,0,0,0,,,,,,,,,,,,,,,,,,,,,,,,,,,,,,,,,,space,4.986460319982143,,,,,,,,,,,,,,,,,,,,,,,062519_p1,001,2019_Jun_25_1044,body_behavioural,3.0.4,59.91582127112529,
,,,,,,,,,"You will be presented with the story title, names, the images, and a blank text box for each story.",,,,,,,,,,,,,0,1,1,1,,,,,,,,,,,,,,,,,,,,,,,,,,,,,,,,,,space,3.384303472994361,,,,,,,,,,,,,,,,,,,,,,,062519_p1,001,2019_Jun_25_1044,body_behavioural,3.0.4,59.91582127112529,
,,,,,,,,,Describe the story indicated with as many details as you can remember in the space provided. ,,,,,,,,,,,,,0,2,2,2,,,,,,,,,,,,,,,,,,,,,,,,,,,,,,,,,,space,2.086650634999387,,,,,,,,,,,,,,,,,,,,,,,062519_p1,001,2019_Jun_25_1044,body_behavioural,3.0.4,59.91582127112529,
,,,,,,,,,"When you are finished recalling one story, to move onto the next one, press the ‘return’ key. ",,,,,,,,,,,,,0,3,3,3,,,,,,,,,,,,,,,,,,,,,,,,,,,,,,,,,,space,2.6859389469900634,,,,,,,,,,,,,,,,,,,,,,,062519_p1,001,2019_Jun_25_1044,body_behavioural,3.0.4,59.91582127112529,
,,,,,,,,,There is a 5 minute time limit to make your response. ,,,,,,,,,,,,,0,4,4,4,,,,,,,,,,,,,,,,,,,,,,,,,,,,,,,,,,space,1.1533711189986207,,,,,,,,,,,,,,,,,,,,,,,062519_p1,001,2019_Jun_25_1044,body_behavioural,3.0.4,59.91582127112529,
,,,,,,,,,Please note that you will not be able to capitalize any letters except for the first letter of your answer. This will not effect the scoring of your recall answer.,,,,,,,,,,,,,0,5,5,5,,,,,,,,,,,,,,,,,,,,,,,,,,,,,,,,,,space,4.986782585008768,,,,,,,,,,,,,,,,,,,,,,,062519_p1,001,2019_Jun_25_1044,body_behavioural,3.0.4,59.91582127112529,
0,,,,,,,,,,,,,,,,,,,,,,,,,,0,0,0,0,,,,,,,,,,,,,,,,,,,,,,,,,,,,,,,,space,1.7364653800032102,"William and jeff met at a restaurant the night before. jeff sells wine for an east coast vineyard and william is a wine buyer for corporate events. they started talking because one of them overheard the other making highly detailed comments about the wine selection. they met in the airport the next morning because they both had flights out of town. there was a hold up in the security line because they had to roll a new bin through. while waiting in the security line, william wanted to get right down to business, so he made a proposal that his company buys several sample cases of wine from jeff's company at half off the regular price. after they get through security, jeff responds that half-off would be too great a loss. they are walking toward gate c40, i believe, jeff's gate. they come to the conclusion that william will buy barrels usually worth $800 for $600. they celebrate with a handshake. jeff gets on the plane, sits in 4a in business class, and orders i think a glass of champagne to celebrate. also, william told jeff he had made a similar offer to their competitor, yankee vines",,,,,,,,,,,,,,,,,,,,062519_p1,001,2019_Jun_25_1044,body_behavioural,3.0.4,59.91582127112529,
1,,,,,,,,,,,,,,,,,,,,,,,,,,0,1,1,1,,,,,,,,,,,,,,,,,,,,,,,,,,,,,,,,space,2.1028232380049303,"Alex wants to propose to chloe at the grocery store because she'll be surprised, and after 23 months of dating, alex knows that what chloe loves most is surprises. sunlight is streaming in through the store windows, and there are thanksgiving promotion posters on the walls. the store is buzzing with activity because tomorrow is thanksgiving. alex is very nervous. they walk down an aisle and chloe picks out some pumpkin puree, vinegar, and cranberry sauce. she asks alex what else they need and he says he doesn't know. he seems nervous, and chloe asks if he's okay, and he unconvincingly says he's fine. they go to the checkout area. there are 5 aisles open and they go up to station 3. their friends are waiting outside to surprise them. alex takes out his wallet, where the ring is stored. he shows it to chloe and proposes. she immediately says yes. the customers around them start taking pictures and let them move to the front of the line. the groceries cost $14 and alex pays in cash. chloe texts a photo of her hand to her mother. their friends come into the store and they start thinking about where they should go to celebrate tonight. ",,,,,,,,,,,,,,,,,,,,062519_p1,001,2019_Jun_25_1044,body_behavioural,3.0.4,59.91582127112529,
2,,,,,,,,,,,,,,,,,,,,,,,,,,0,2,2,2,,,,,,,,,,,,,,,,,,,,,,,,,,,,,,,,space,1.0698794249910861,"It's leon's first day at college and when ariana walks into his class, he feels like he recognizes her from somewhere, which is surprising because he didn't think there was anyone else he knew attending this college. the class is on the history of ancient egypt. there's a blackboard on wheels at the front of the lecture hall. the professor talks about mummification, the most misunderstood custom from ancient egypt. it had to be performed by people with years of training and it took over a year to complete the process. leon's attention wanders to ariana again after a few minutes. he decides to hand her a note asking, are you from la question you look familiar. she says no, but maybe i was separated from my twin at birth. she says this via passing a note back. all through class they pass notes back and forth. ariana thinks leon looks sweet and genuine. via notes, they agree to meet to go for a walk that evening at 8pm, outside ariana's dorm. the professor tells the class that they will have their first quiz about mummification next friday. class ends at noon.",,,,,,,,,,,,,,,,,,,,062519_p1,001,2019_Jun_25_1044,body_behavioural,3.0.4,59.91582127112529,
3,,,,,,,,,,,,,,,,,,,,,,,,,,0,3,3,3,,,,,,,,,,,,,,,,,,,,,,,,,,,,,,,,space,0.8529538699949626,"James notices teresa coming into the restaurant because she walks straight into the glass door. the restaurant is the newest sushi restaurant in atlanta. it's decorated with pine wood countertops, plants along the walls, and branch looking structures hanging from the ceiling. the waitress seats teresa one seat away from james. they're both dining alone. james asks teresa if her forehead is okay. she responds, have you ever been stung by a scorpion. james worries for a second whether teresa might have suffered a concussion from her impact with the door. but she explains that she was stung by a scorpion, called a deathstalker scorpion i think, while studying abroad in egypt, and after that, little things like bumping her forehead into a door seem tiny. the menus are neon, with entries in japanese with little english translations underneath. teresa orders a salmon roll and a japanese beer, james orders a tuna roll and a vegetable roll. they talk more while they wait. the waitress brings them the plates and places the plates close together so that teresa and james have to sit a little closer to talk while they eat. james invites teresa to come to a concert with his friends later. she accepts. they're both excited, but teresa hides it better. they both enjoy their food because the fish tastes fresh. this wasn't what they had expected from their solo meal but they are happy about it.",,,,,,,,,,,,,,,,,,,,062519_p1,001,2019_Jun_25_1044,body_behavioural,3.0.4,59.91582127112529,
4,,,,,,,,,,,,,,,,,,,,,,,,,,0,4,4,4,,,,,,,,,,,,,,,,,,,,,,,,,,,,,,,,space,1.3194573350192513,"Sven and isabel have just spent a week in spain visiting isabel's family. they've been dating for 11 months. now they're getting out of the cab and going into the barcelona airport. sven is about to propose. he has the ring in a velvet box. it's a simple design, two pink diamonds on a silver band. he takes out the ring and looks at it while isabel isn't looking, feeling nervous. he puts it in his pocket. at the security line, there's a holdup because someone had a suspicious amount of metal objects on them. isabel realizes her laptop is buried in her bag, so she digs through her bag to find it, and sven holds her stuff while she's digging through. finally they get to the millimeter wave scanner. isabel goes through first, then sven. when sven is in the scanner, it goes off. the security guard says, sir, please come over here. sven realizes that the ring is still in his pocket. so he immediately takes it out and gets down on one knee. he says to isabel, this isn't how i expected to do this, but will you marry me. everyone around them immediately starts watching. isabel is nervous and doesn't know what to say, so she runs away from the gate. sven is terrified, but when he catches up to her, isabel says, of course yes! everyone around them is happy for them. a woman comes up to them and says she's been live tweeting the whole thing and it's already going viral on the internet. isabel is embarrassed but happy. they sit in seats 2a and 2b. isabel had texted her best friend ",,,,,,,,,,,,,,,,,,,,062519_p1,001,2019_Jun_25_1044,body_behavioural,3.0.4,59.91582127112529,
5,,,,,,,,,,,,,,,,,,,,,,,,,,0,5,5,5,,,,,,,,,,,,,,,,,,,,,,,,,,,,,,,,space,0.7698987830081023,"Thomas has been thinking about breaking up with sadie for two months. he arrives to the diner late but sadie isn't there yet. the diner is 70's style, with black and white checkerboard floors or countertops, not sure which. sadie arrives and cheerfully asks thomas about his day. thomas asks the hostess if they can have a booth in the back, and the hostess pops her bubblegum and says sure, honey, and leads them to a booth in the back. sadie asks again about thomas's day and takes his hand, but thomas pulls his hand away. thomas tells her that he wants to take a break from this relationship so he can work out his career plan on his own. sadie is crestfallen. the waiter comes by and asks what they want. the menus are laminated posters, and thomas and sadie quickly scan them and choose familiar items so they don't have to read the descriptions. thomas orders a burger and sadie orders a reuben. after the waiter leaves, sadie bursts into tears. she says she doesn't want to break up, they can hang out less often if thomas wants that. but thomas insists. he says that things are picking up at work and it's hard for him to decide whether he wants to make a career change, which doesn't make sense as a reason to break up, he's clearly just looking for an excuse, even if unconsciously. sadie gets mad and says she wants her beatles poster and something else back, then she storms out.",,,,,,,,,,,,,,,,,,,,062519_p1,001,2019_Jun_25_1044,body_behavioural,3.0.4,59.91582127112529,
6,,,,,,,,,,,,,,,,,,,,,,,,,,0,6,6,6,,,,,,,,,,,,,,,,,,,,,,,,,,,,,,,,space,0.7674066049803514,"Bianchi and morrison are meeting at the supermarket. bianchi is an account representative for an italian cheese company, and morrison is a senior product manager for a corporate american grocer. morrison likes to do things unconventionally, like having business meetings in the supermarket so they can keep their minds on what's really important. the store is decorated for halloween. bianchi proposes that the grocer buy her company's cheeses, but morrison says, we already have this whole cheese section, we don't need a section for gourmet cheese. bianchi had initially proposed that they buy $1500 worth of cheese for a few stores and see how it goes. now after morrison rebuffs her, she brings in the next layer of the pitch. she says that it's worthwhile to have luxury cheeses because once customers buy luxury cheese, they'll buy luxury levels of other items too, like crackers, jams, etc. the pitch works, but morrison expresses concern about import taxes. they agree to buy 20000 dollars worth to get a subsidized import tax. morrison pays for her food in cash, then she takes a bottle of champagne out of her purse to celebrate. bianchi decides that she loves doing business with americans.",,,,,,,,,,,,,,,,,,,,062519_p1,001,2019_Jun_25_1044,body_behavioural,3.0.4,59.91582127112529,
