count,storyText,locationEvent,socialEvent,story,locationEventSize,socialEventSize,instructText,trials.thisRepN,trials.thisTrialN,trials.thisN,trials.thisIndex,trials_7.thisRepN,trials_7.thisTrialN,trials_7.thisN,trials_7.thisIndex,trials_2.thisRepN,trials_2.thisTrialN,trials_2.thisN,trials_2.thisIndex,trials_3.thisRepN,trials_3.thisTrialN,trials_3.thisN,trials_3.thisIndex,trials_4.thisRepN,trials_4.thisTrialN,trials_4.thisN,trials_4.thisIndex,trials_5.thisRepN,trials_5.thisTrialN,trials_5.thisN,trials_5.thisIndex,trials_6.thisRepN,trials_6.thisTrialN,trials_6.thisN,trials_6.thisIndex,trials_8.thisRepN,trials_8.thisTrialN,trials_8.thisN,trials_8.thisIndex,order of stories,order of perspectives,key_resp_8.keys,key_resp_8.rt,key_resp_5.keys,key_resp_5.rt,key_resp_7.keys,key_resp_7.rt,key_resp_15.keys,key_resp_15.rt,key_resp_14.keys,key_resp_14.rt,story_presses.keys,story_presses.rt,story time,key_resp_6.keys,key_resp_6.rt,key_resp_2.keys,key_resp_2.rt,key_resp_10.keys,key_resp_10.rt,recall,recall time,key_resp_12.keys,key_resp_12.rt,key_resp_3.keys,key_resp_3.rt,key_resp_11.keys,key_resp_11.rt,question1_answer,order of question,question2_answer,question3_answer,question4_answer,question5_answer,question6_answer,question7_answer,question8_answer,questions time,key_resp_13.keys,key_resp_13.rt,participant,session,date,expName,psychopyVersion,frameRate,
0,,,,,,,,0,0,0,0,0,0,0,0,,,,,,,,,,,,,,,,,,,,,,,,,[33 24 13 32 44 41 12 21],"['Social' 'Location' 'Location' 'Location' 'Social' 'Location' 'Social'
 'Social']",space,12.48936186201172,space,3.086638144974131,space,2.5526388519792818,,,,,,,,,,,,,,,,,,,,,,,,,,,,,,,,,,062719_p1,001,2019_Jun_27_1222,body_behavioural,3.0.4,59.961900079130245,
0,"Ms. Bianchi and Ms. Morrison walked into the grocery store at the same time, and, after a moment of mutual recognition, greeted each other with a handshake.",1.0,1.0,33.0,,,,0,0,0,0,,,,,0,0,0,0,,,,,,,,,,,,,,,,,,,,,,,,,,,,,space,3.5188924410031177,space,2.6008107399684377,9,20.488252380047925,,,,,,,,,,,,,,,,,,,,,,,,,,,,062719_p1,001,2019_Jun_27_1222,body_behavioural,3.0.4,59.961900079130245,
0,"They were standing in the entrance of the grocery store, which had displays of pumpkins, candy, and halloween decorations set up in different stations around the door. ",1.0,1.0,None,,,,0,0,0,0,,,,,0,1,1,1,,,,,,,,,,,,,,,,,,,,,,,,,,,,,,,,,1,7.470715561998077,,,,,,,,,,,,,,,,,,,,,,,,,,,,062719_p1,001,2019_Jun_27_1222,body_behavioural,3.0.4,59.961900079130245,
0,"“Thank you again for inviting me here to discuss my business proposal,” said Ms. Bianchi.",1.0,1.0,None,,,,0,0,0,0,,,,,0,2,2,2,,,,,,,,,,,,,,,,,,,,,,,,,,,,,,,,,1,6.386611684982199,,,,,,,,,,,,,,,,,,,,,,,,,,,,062719_p1,001,2019_Jun_27_1222,body_behavioural,3.0.4,59.961900079130245,
0,“It’s a pleasure to be out of the office.” ,1.0,1.0,None,,,,0,0,0,0,,,,,0,3,3,3,,,,,,,,,,,,,,,,,,,,,,,,,,,,,,,,,1,8.103784070000984,,,,,,,,,,,,,,,,,,,,,,,,,,,,062719_p1,001,2019_Jun_27_1222,body_behavioural,3.0.4,59.961900079130245,
0,"As an account representative for an Italian cheese company that was trying to expand its outreach to American grocery stores, this meeting was pivotal for Ms. Bianchi.",1.0,1.0,None,,,,0,0,0,0,,,,,0,4,4,4,,,,,,,,,,,,,,,,,,,,,,,,,,,,,,,,,9,13.01927115500439,,,,,,,,,,,,,,,,,,,,,,,,,,,,062719_p1,001,2019_Jun_27_1222,body_behavioural,3.0.4,59.961900079130245,
0,"Her sales target, Ms. Morrison, was the senior product manager for a corporate grocer and she had a say in the products distributed in stores across the West Coast.",1.0,1.0,None,,,,0,0,0,0,,,,,0,5,5,5,,,,,,,,,,,,,,,,,,,,,,,,,,,,,,,,,1,17.137086765025742,,,,,,,,,,,,,,,,,,,,,,,,,,,,062719_p1,001,2019_Jun_27_1222,body_behavioural,3.0.4,59.961900079130245,
0,"Ms. Morrison was also known for doing things unconventionally: for example, she said that she liked to make deals with suppliers in the place where the products were sold- “to keep their minds focused on what’s important.” ",1.0,1.0,None,,,,0,0,0,0,,,,,0,6,6,6,,,,,,,,,,,,,,,,,,,,,,,,,,,,,,,,,1,14.254039964987896,,,,,,,,,,,,,,,,,,,,,,,,,,,,062719_p1,001,2019_Jun_27_1222,body_behavioural,3.0.4,59.961900079130245,
0,"In the cheese section of the grocery store, Ms. Morrison motioned to the parmesan.",2.0,1.0,None,,,,0,0,0,0,,,,,0,7,7,7,,,,,,,,,,,,,,,,,,,,,,,,,,,,,,,,,1,6.9863402849878184,,,,,,,,,,,,,,,,,,,,,,,,,,,,062719_p1,001,2019_Jun_27_1222,body_behavioural,3.0.4,59.961900079130245,
0,“We have quite a selection here.,2.0,1.0,None,,,,0,0,0,0,,,,,0,8,8,8,,,,,,,,,,,,,,,,,,,,,,,,,,,,,,,,,1,2.7863490570452996,,,,,,,,,,,,,,,,,,,,,,,,,,,,062719_p1,001,2019_Jun_27_1222,body_behavioural,3.0.4,59.961900079130245,
0,I don’t know that we need an additional section for gourmet cheeses.” ,2.0,1.0,None,,,,0,0,0,0,,,,,0,9,9,9,,,,,,,,,,,,,,,,,,,,,,,,,,,,,,,,,1,7.503544136998244,,,,,,,,,,,,,,,,,,,,,,,,,,,,062719_p1,001,2019_Jun_27_1222,body_behavioural,3.0.4,59.961900079130245,
0," Ms. Bianchi did not hesitate but launched into her pitch: “Ms. Morrison, I think you would agree that selling food is more than just providing variety, but also about providing the highest quality.",2.0,2.0,None,,,,0,0,0,0,,,,,0,10,10,10,,,,,,,,,,,,,,,,,,,,,,,,,,,,,,,,,9,9.219882467994466,,,,,,,,,,,,,,,,,,,,,,,,,,,,062719_p1,001,2019_Jun_27_1222,body_behavioural,3.0.4,59.961900079130245,
0,You don’t have cheeses made in America that are like ours- it is true.,2.0,2.0,None,,,,0,0,0,0,,,,,0,11,11,11,,,,,,,,,,,,,,,,,,,,,,,,,,,,,,,,,1,4.886946532991715,,,,,,,,,,,,,,,,,,,,,,,,,,,,062719_p1,001,2019_Jun_27_1222,body_behavioural,3.0.4,59.961900079130245,
0,The availability of a product of excellent quality leads to the appreciation of the product.,2.0,2.0,None,,,,0,0,0,0,,,,,0,12,12,12,,,,,,,,,,,,,,,,,,,,,,,,,,,,,,,,,1,4.717134114995133,,,,,,,,,,,,,,,,,,,,,,,,,,,,062719_p1,001,2019_Jun_27_1222,body_behavioural,3.0.4,59.961900079130245,
0,"Your consumers will want to buy other, finer products to compliment that first ingredient, and suddenly your customer will be consuming in a new, more profitable way.",2.0,2.0,None,,,,0,0,0,0,,,,,0,13,13,13,,,,,,,,,,,,,,,,,,,,,,,,,,,,,,,,,1,15.287481065024622,,,,,,,,,,,,,,,,,,,,,,,,,,,,062719_p1,001,2019_Jun_27_1222,body_behavioural,3.0.4,59.961900079130245,
0,"I propose that you give it a shot: buy $1500 worth of cheese products for a few stores, and see how the sales increase not only in our cheeses but also in products related to cheeses: crackers, jams, olives.”",2.0,2.0,None,,,,0,0,0,0,,,,,0,14,14,14,,,,,,,,,,,,,,,,,,,,,,,,,,,,,,,,,1,10.170396240020636,,,,,,,,,,,,,,,,,,,,,,,,,,,,062719_p1,001,2019_Jun_27_1222,body_behavioural,3.0.4,59.961900079130245,
0,"Ms. Bianchi picked up a box of crackers by the cheese section, and said, “Here, I will buy these, and we can try some of our cheeses that I've brought with me.”",2.0,2.0,None,,,,0,0,0,0,,,,,0,15,15,15,,,,,,,,,,,,,,,,,,,,,,,,,,,,,,,,,9,7.17042474495247,,,,,,,,,,,,,,,,,,,,,,,,,,,,062719_p1,001,2019_Jun_27_1222,body_behavioural,3.0.4,59.961900079130245,
0,"Ms. Morrison, who was thinking about the proposed offer, nodded in agreement and said, “That sounds like a great idea, but those crackers are on me.”",2.0,2.0,None,,,,0,0,0,0,,,,,0,16,16,16,,,,,,,,,,,,,,,,,,,,,,,,,,,,,,,,,1,6.23626052000327,,,,,,,,,,,,,,,,,,,,,,,,,,,,062719_p1,001,2019_Jun_27_1222,body_behavioural,3.0.4,59.961900079130245,
0,She took the crackers from Ms. Bianchi and also picked up a bottle of ketchup and a case of sparkling water “for later.”,2.0,2.0,None,,,,0,0,0,0,,,,,0,17,17,17,,,,,,,,,,,,,,,,,,,,,,,,,,,,,,,,,1,8.553598609985784,,,,,,,,,,,,,,,,,,,,,,,,,,,,062719_p1,001,2019_Jun_27_1222,body_behavioural,3.0.4,59.961900079130245,
0,It was very busy in the checkout area.,3.0,2.0,None,,,,0,0,0,0,,,,,0,18,18,18,,,,,,,,,,,,,,,,,,,,,,,,,,,,,,,,,9,2.918277452001348,,,,,,,,,,,,,,,,,,,,,,,,,,,,062719_p1,001,2019_Jun_27_1222,body_behavioural,3.0.4,59.961900079130245,
0,"People were stocking up for Halloween parties and trick-or-treating, and there were 10 aisles open. ",3.0,2.0,None,,,,0,0,0,0,,,,,0,19,19,19,,,,,,,,,,,,,,,,,,,,,,,,,,,,,,,,,1,4.669480372045655,,,,,,,,,,,,,,,,,,,,,,,,,,,,062719_p1,001,2019_Jun_27_1222,body_behavioural,3.0.4,59.961900079130245,
0,They stepped into lane 6 and waited.,3.0,2.0,None,,,,0,0,0,0,,,,,0,20,20,20,,,,,,,,,,,,,,,,,,,,,,,,,,,,,,,,,1,2.60308522998821,,,,,,,,,,,,,,,,,,,,,,,,,,,,062719_p1,001,2019_Jun_27_1222,body_behavioural,3.0.4,59.961900079130245,
0,Ms. Bianchi handed to Ms. Morrison a packet with printed graphs of the increase in profits that several other stores in Italy had seen after starting to carry their products.,3.0,2.0,None,,,,0,0,0,0,,,,,0,21,21,21,,,,,,,,,,,,,,,,,,,,,,,,,,,,,,,,,1,6.386278496996965,,,,,,,,,,,,,,,,,,,,,,,,,,,,062719_p1,001,2019_Jun_27_1222,body_behavioural,3.0.4,59.961900079130245,
0,"After a couple minutes of thinking, Ms. Morrison widened her eyes and said confidently, “You know what, I think you've convinced me that this could work. ",3.0,3.0,None,,,,0,0,0,0,,,,,0,22,22,22,,,,,,,,,,,,,,,,,,,,,,,,,,,,,,,,,1,4.953642292995937,,,,,,,,,,,,,,,,,,,,,,,,,,,,062719_p1,001,2019_Jun_27_1222,body_behavioural,3.0.4,59.961900079130245,
0,We've been trying to find a way to add a little European cachet to our stores.,3.0,3.0,None,,,,0,0,0,0,,,,,0,23,23,23,,,,,,,,,,,,,,,,,,,,,,,,,,,,,,,,,1,2.986483917979058,,,,,,,,,,,,,,,,,,,,,,,,,,,,062719_p1,001,2019_Jun_27_1222,body_behavioural,3.0.4,59.961900079130245,
0,"Our competitor, Orange Grocers, hasn’t expanded in this direction yet, and I’d like to beat them to it. ",3.0,3.0,None,,,,0,0,0,0,,,,,0,24,24,24,,,,,,,,,,,,,,,,,,,,,,,,,,,,,,,,,1,3.884263132000342,,,,,,,,,,,,,,,,,,,,,,,,,,,,062719_p1,001,2019_Jun_27_1222,body_behavioural,3.0.4,59.961900079130245,
0,There's still a problem though- I'm worried we'll be paying out the nose for the import taxes.,3.0,3.0,None,,,,0,0,0,0,,,,,0,25,25,25,,,,,,,,,,,,,,,,,,,,,,,,,,,,,,,,,9,6.069866252015345,,,,,,,,,,,,,,,,,,,,,,,,,,,,062719_p1,001,2019_Jun_27_1222,body_behavioural,3.0.4,59.961900079130245,
0,Is that the case?",3.0,3.0,None,,,,0,0,0,0,,,,,0,26,26,26,,,,,,,,,,,,,,,,,,,,,,,,,,,,,,,,,1,1.586401384032797,,,,,,,,,,,,,,,,,,,,,,,,,,,,062719_p1,001,2019_Jun_27_1222,body_behavioural,3.0.4,59.961900079130245,
0,"It was Ms. Morrison’s turn to check out, and the cashier chatted with Ms. Morrison as she scanned the items.",4.0,3.0,None,,,,0,0,0,0,,,,,0,27,27,27,,,,,,,,,,,,,,,,,,,,,,,,,,,,,,,,,1,4.252813984989189,,,,,,,,,,,,,,,,,,,,,,,,,,,,062719_p1,001,2019_Jun_27_1222,body_behavioural,3.0.4,59.961900079130245,
0,Ms. Morrison was also distinguished for knowing most of the employees personally. ,None,None,None,,,,0,0,0,0,,,,,0,28,28,28,,,,,,,,,,,,,,,,,,,,,,,,,,,,,,,,,1,4.936108096968383,,,,,,,,,,,,,,,,,,,,,,,,,,,,062719_p1,001,2019_Jun_27_1222,body_behavioural,3.0.4,59.961900079130245,
0,Ms. Bianchi watched in amusement as Ms. Morrison paid the $23 price by writing a check. ,4.0,3.0,None,,,,0,0,0,0,,,,,0,29,29,29,,,,,,,,,,,,,,,,,,,,,,,,,,,,,,,,,1,7.503742942004465,,,,,,,,,,,,,,,,,,,,,,,,,,,,062719_p1,001,2019_Jun_27_1222,body_behavioural,3.0.4,59.961900079130245,
0,"After Ms. Bianci addressed Ms. Morrison’s concerns, they came to an agreement and would have enough cheese shipments, $20,000 worth, to different stores to qualify for a subsidized import tax. ",4.0,4.0,None,,,,0,0,0,0,,,,,0,30,30,30,,,,,,,,,,,,,,,,,,,,,,,,,,,,,,,,,9,7.636945113015827,,,,,,,,,,,,,,,,,,,,,,,,,,,,062719_p1,001,2019_Jun_27_1222,body_behavioural,3.0.4,59.961900079130245,
0,"Ms. Morrison had had a small bottle of champagne in her purse, and she pulled it out and popped it in celebration of their deal. ",4.0,4.0,None,,,,0,0,0,0,,,,,0,31,31,31,,,,,,,,,,,,,,,,,,,,,,,,,,,,,,,,,1,6.153751106990967,,,,,,,,,,,,,,,,,,,,,,,,,,,,062719_p1,001,2019_Jun_27_1222,body_behavioural,3.0.4,59.961900079130245,
0,Ms. Bianchi decided that she loved doing business with Americans. ,4.0,4.0,None,,,,0,0,0,0,,,,,0,32,32,32,,,,,,,,,,,,,,,,,,,,,,,,,,,,,,,,,1,2.4859211969887838,,,,,,,,,,,,,,,,,,,,,,,,,,,,062719_p1,001,2019_Jun_27_1222,body_behavioural,3.0.4,59.961900079130245,
0,,,,,,,,0,0,0,0,,,,,,,,,,,,,,,,,,,,,,,,,,,,,,,,,,,,,,,,,,,,,,,,,,,,,,,,,,,,,,,,,,,,,,062719_p1,001,2019_Jun_27_1222,body_behavioural,3.0.4,59.961900079130245,
1,,,,,,,,0,1,1,1,0,0,0,0,,,,,,,,,,,,,,,,,,,,,,,,,,,space,2.6029330419842154,space,1.5035338269663043,space,2.4361791050178,,,,,,,,,,,,,,,,,,,,,,,,,,,,,,,,,,062719_p1,001,2019_Jun_27_1222,body_behavioural,3.0.4,59.961900079130245,
1,"Lana walked into lecture holding hands with her boyfriend, Aaron, who was trying to contain his excitement about proposing to Lana in this class.",1,1,24.0,,,,0,1,1,1,,,,,0,0,0,0,,,,,,,,,,,,,,,,,,,,,,,,,,,,,space,2.169984085019678,space,1.086324850039091,9,13.936745917017106,,,,,,,,,,,,,,,,,,,,,,,,,,,,062719_p1,001,2019_Jun_27_1222,body_behavioural,3.0.4,59.961900079130245,
1,"Lana was lost in thought, puzzling over an integral on her problem set for another class.",1,1,None,,,,0,1,1,1,,,,,0,1,1,1,,,,,,,,,,,,,,,,,,,,,,,,,,,,,,,,,1,4.419862570008263,,,,,,,,,,,,,,,,,,,,,,,,,,,,062719_p1,001,2019_Jun_27_1222,body_behavioural,3.0.4,59.961900079130245,
1,"The lecture hall they had entered was the fanciest one at Princeton, with chandeliers, high ceilings, wood floors, and a large projector screen where chalkboards used to be. ",1,1,None,,,,0,1,1,1,,,,,0,2,2,2,,,,,,,,,,,,,,,,,,,,,,,,,,,,,,,,,1,14.485013134952169,,,,,,,,,,,,,,,,,,,,,,,,,,,,062719_p1,001,2019_Jun_27_1222,body_behavioural,3.0.4,59.961900079130245,
1,Aaron and Lana had met when they first started dating three years ago in freshman year.,1,1,None,,,,0,1,1,1,,,,,0,3,3,3,,,,,,,,,,,,,,,,,,,,,,,,,,,,,,,,,9,5.670678397989832,,,,,,,,,,,,,,,,,,,,,,,,,,,,062719_p1,001,2019_Jun_27_1222,body_behavioural,3.0.4,59.961900079130245,
1,They coincidentally had another class together in this same lecture hall. ,1,1,None,,,,0,1,1,1,,,,,0,4,4,4,,,,,,,,,,,,,,,,,,,,,,,,,,,,,,,,,1,2.369323536986485,,,,,,,,,,,,,,,,,,,,,,,,,,,,062719_p1,001,2019_Jun_27_1222,body_behavioural,3.0.4,59.961900079130245,
1,The professor caught Aaron's eye as he walked up to the front of the classroom and gave him a wink before the lecture began. ,1,1,None,,,,0,1,1,1,,,,,0,5,5,5,,,,,,,,,,,,,,,,,,,,,,,,,,,,,,,,,1,5.220162003010046,,,,,,,,,,,,,,,,,,,,,,,,,,,,062719_p1,001,2019_Jun_27_1222,body_behavioural,3.0.4,59.961900079130245,
1,Aaron flashed him a half-smile and nodded. ,1,1,None,,,,0,1,1,1,,,,,0,6,6,6,,,,,,,,,,,,,,,,,,,,,,,,,,,,,,,,,1,2.2198500629747286,,,,,,,,,,,,,,,,,,,,,,,,,,,,062719_p1,001,2019_Jun_27_1222,body_behavioural,3.0.4,59.961900079130245,
1,"The professor cleared his throat and said,“Alright, good afternoon, everyone!",2,1,None,,,,0,1,1,1,,,,,0,7,7,7,,,,,,,,,,,,,,,,,,,,,,,,,,,,,,,,,1,2.834216219955124,,,,,,,,,,,,,,,,,,,,,,,,,,,,062719_p1,001,2019_Jun_27_1222,body_behavioural,3.0.4,59.961900079130245,
1,Welcome to another week of Introduction to Chemistry,2,1,None,,,,0,1,1,1,,,,,0,8,8,8,,,,,,,,,,,,,,,,,,,,,,,,,,,,,,,,,1,3.9198999850195833,,,,,,,,,,,,,,,,,,,,,,,,,,,,062719_p1,001,2019_Jun_27_1222,body_behavioural,3.0.4,59.961900079130245,
1,This week the topic is ions.,2,1,None,,,,0,1,1,1,,,,,0,9,9,9,,,,,,,,,,,,,,,,,,,,,,,,,,,,,,,,,9,2.869761736947112,,,,,,,,,,,,,,,,,,,,,,,,,,,,062719_p1,001,2019_Jun_27_1222,body_behavioural,3.0.4,59.961900079130245,
1,"Now, let me get my computer set up, one moment, class.”",2,1,None,,,,0,1,1,1,,,,,0,10,10,10,,,,,,,,,,,,,,,,,,,,,,,,,,,,,,,,,1,3.4342340150033124,,,,,,,,,,,,,,,,,,,,,,,,,,,,062719_p1,001,2019_Jun_27_1222,body_behavioural,3.0.4,59.961900079130245,
1,Lana pulled out the problem set she was thinking about as Aaron unzipped the small pocket in his backpack and pulled out the ring.,2,2,None,,,,0,1,1,1,,,,,0,11,11,11,,,,,,,,,,,,,,,,,,,,,,,,,,,,,,,,,1,4.470044666028116,,,,,,,,,,,,,,,,,,,,,,,,,,,,062719_p1,001,2019_Jun_27_1222,body_behavioural,3.0.4,59.961900079130245,
1,"Turning away from her, he looked it over yet again. ",2,2,None,,,,0,1,1,1,,,,,0,12,12,12,,,,,,,,,,,,,,,,,,,,,,,,,,,,,,,,,1,5.286626866960432,,,,,,,,,,,,,,,,,,,,,,,,,,,,062719_p1,001,2019_Jun_27_1222,body_behavioural,3.0.4,59.961900079130245,
1,"Instead of one large diamond, there were 5 red diamonds embedded in a thick band. ",2,2,None,,,,0,1,1,1,,,,,0,13,13,13,,,,,,,,,,,,,,,,,,,,,,,,,,,,,,,,,1,4.1365612570079975,,,,,,,,,,,,,,,,,,,,,,,,,,,,062719_p1,001,2019_Jun_27_1222,body_behavioural,3.0.4,59.961900079130245,
1,He knew Lana would like this because her style was more avant-garde than traditional.,2,2,None,,,,0,1,1,1,,,,,0,14,14,14,,,,,,,,,,,,,,,,,,,,,,,,,,,,,,,,,1,6.26764885999728,,,,,,,,,,,,,,,,,,,,,,,,,,,,062719_p1,001,2019_Jun_27_1222,body_behavioural,3.0.4,59.961900079130245,
1,"The professor said, “Remember, class, that the number of protons determines the identity of the element. ",3,2,None,,,,0,1,1,1,,,,,0,15,15,15,,,,,,,,,,,,,,,,,,,,,,,,,,,,,,,,,1,6.519721700053196,,,,,,,,,,,,,,,,,,,,,,,,,,,,062719_p1,001,2019_Jun_27_1222,body_behavioural,3.0.4,59.961900079130245,
1,"So for example, all atoms of sodium have 11 protons in the nucleus. ",3,2,None,,,,0,1,1,1,,,,,0,16,16,16,,,,,,,,,,,,,,,,,,,,,,,,,,,,,,,,,1,4.953038577979896,,,,,,,,,,,,,,,,,,,,,,,,,,,,062719_p1,001,2019_Jun_27_1222,body_behavioural,3.0.4,59.961900079130245,
1,"And if you look on the periodic table, the atomic number for sodium, the symbol is Na, is eleven.",3,2,None,,,,0,1,1,1,,,,,0,17,17,17,,,,,,,,,,,,,,,,,,,,,,,,,,,,,,,,,1,4.253748218005057,,,,,,,,,,,,,,,,,,,,,,,,,,,,062719_p1,001,2019_Jun_27_1222,body_behavioural,3.0.4,59.961900079130245,
1,"An ion retains the same number of protons despite losing electrons, and therefore keeps the same identity in the periodic table. ",3,2,None,,,,0,1,1,1,,,,,0,18,18,18,,,,,,,,,,,,,,,,,,,,,,,,,,,,,,,,,1,3.3535743150277995,,,,,,,,,,,,,,,,,,,,,,,,,,,,062719_p1,001,2019_Jun_27_1222,body_behavioural,3.0.4,59.961900079130245,
1,Lana and Aaron tried to take notes during the lecture.,3,2,None,,,,0,1,1,1,,,,,0,19,19,19,,,,,,,,,,,,,,,,,,,,,,,,,,,,,,,,,1,3.4865436980035156,,,,,,,,,,,,,,,,,,,,,,,,,,,,062719_p1,001,2019_Jun_27_1222,body_behavioural,3.0.4,59.961900079130245,
1,"Right after talking about how two ions bond into one stable molecule by covalent bonds, the professor stopped the lecture, gave another wink to Aaron, and asked Lana to come to the front of the class to do a demonstration. ",3,3,None,,,,0,1,1,1,,,,,0,20,20,20,,,,,,,,,,,,,,,,,,,,,,,,,,,,,,,,,9,6.519592519965954,,,,,,,,,,,,,,,,,,,,,,,,,,,,062719_p1,001,2019_Jun_27_1222,body_behavioural,3.0.4,59.961900079130245,
1,"She walked to the front of the class confused, and the professor asked her to stand in the middle of the stage.",3,3,None,,,,0,1,1,1,,,,,0,21,21,21,,,,,,,,,,,,,,,,,,,,,,,,,,,,,,,,,1,2.9175329300342128,,,,,,,,,,,,,,,,,,,,,,,,,,,,062719_p1,001,2019_Jun_27_1222,body_behavioural,3.0.4,59.961900079130245,
1,"Then Aaron walked up and, taking Lana’s hand, got down on one knee. ",3,3,None,,,,0,1,1,1,,,,,0,22,22,22,,,,,,,,,,,,,,,,,,,,,,,,,,,,,,,,,1,4.267569399962667,,,,,,,,,,,,,,,,,,,,,,,,,,,,062719_p1,001,2019_Jun_27_1222,body_behavioural,3.0.4,59.961900079130245,
1,The professor quickly switched to the last slide on the powerpoint which was a photo collage Aaron had sent him of pictures of Aaron and Lana. ,3,3,None,,,,0,1,1,1,,,,,0,23,23,23,,,,,,,,,,,,,,,,,,,,,,,,,,,,,,,,,1,6.253300590033177,,,,,,,,,,,,,,,,,,,,,,,,,,,,062719_p1,001,2019_Jun_27_1222,body_behavioural,3.0.4,59.961900079130245,
1,"“It's time for us to make a bond of our own, Lana.”",3,3,None,,,,0,1,1,1,,,,,0,24,24,24,,,,,,,,,,,,,,,,,,,,,,,,,,,,,,,,,1,4.469964477000758,,,,,,,,,,,,,,,,,,,,,,,,,,,,062719_p1,001,2019_Jun_27_1222,body_behavioural,3.0.4,59.961900079130245,
1,He opened the small notebook he had in his hand and the ring was sitting on the page. ,3,3,None,,,,0,1,1,1,,,,,0,25,25,25,,,,,,,,,,,,,,,,,,,,,,,,,,,,,,,,,1,4.536244267015718,,,,,,,,,,,,,,,,,,,,,,,,,,,,062719_p1,001,2019_Jun_27_1222,body_behavioural,3.0.4,59.961900079130245,
1,“Will you marry me?” ,3,3,None,,,,0,1,1,1,,,,,0,26,26,26,,,,,,,,,,,,,,,,,,,,,,,,,,,,,,,,,9,3.619891144975554,,,,,,,,,,,,,,,,,,,,,,,,,,,,062719_p1,001,2019_Jun_27_1222,body_behavioural,3.0.4,59.961900079130245,
1,"Lana had put her hand over her mouth and tears were streaming down her face, but finally, she said, “Yes!”",3,4,None,,,,0,1,1,1,,,,,0,27,27,27,,,,,,,,,,,,,,,,,,,,,,,,,,,,,,,,,1,3.3201454499503598,,,,,,,,,,,,,,,,,,,,,,,,,,,,062719_p1,001,2019_Jun_27_1222,body_behavioural,3.0.4,59.961900079130245,
1,"Aaron put the ring on her finger, and they hugged while the whole class applauded and cheered. ",3,4,None,,,,0,1,1,1,,,,,0,28,28,28,,,,,,,,,,,,,,,,,,,,,,,,,,,,,,,,,1,3.4175158870057203,,,,,,,,,,,,,,,,,,,,,,,,,,,,062719_p1,001,2019_Jun_27_1222,body_behavioural,3.0.4,59.961900079130245,
1,Their friends who had been secretly waiting outside came into the class and hugged both of them.,3,4,None,,,,0,1,1,1,,,,,0,29,29,29,,,,,,,,,,,,,,,,,,,,,,,,,,,,,,,,,1,3.969809064990841,,,,,,,,,,,,,,,,,,,,,,,,,,,,062719_p1,001,2019_Jun_27_1222,body_behavioural,3.0.4,59.961900079130245,
1,The professor gave Aaron a celebratory handshake.,3,4,None,,,,0,1,1,1,,,,,0,30,30,30,,,,,,,,,,,,,,,,,,,,,,,,,,,,,,,,,1,1.9863573149777949,,,,,,,,,,,,,,,,,,,,,,,,,,,,062719_p1,001,2019_Jun_27_1222,body_behavioural,3.0.4,59.961900079130245,
1,"They made their way back to their seats, and Lana pulled out her phone to text her sister",3,4,None,,,,0,1,1,1,,,,,0,31,31,31,,,,,,,,,,,,,,,,,,,,,,,,,,,,,,,,,1,2.716616805992089,,,,,,,,,,,,,,,,,,,,,,,,,,,,062719_p1,001,2019_Jun_27_1222,body_behavioural,3.0.4,59.961900079130245,
1,"The professor dismissed the class, saying, “That was enough excitement for today!",4,4,None,,,,0,1,1,1,,,,,0,32,32,32,,,,,,,,,,,,,,,,,,,,,,,,,,,,,,,,,1,2.6197718879557215,,,,,,,,,,,,,,,,,,,,,,,,,,,,062719_p1,001,2019_Jun_27_1222,body_behavioural,3.0.4,59.961900079130245,
1,Don’t forget there’s a midterm exam next week on Monday on the material covered in the first 4 weeks of the semester.,4,4,None,,,,0,1,1,1,,,,,0,33,33,33,,,,,,,,,,,,,,,,,,,,,,,,,,,,,,,,,1,5.136387376987841,,,,,,,,,,,,,,,,,,,,,,,,,,,,062719_p1,001,2019_Jun_27_1222,body_behavioural,3.0.4,59.961900079130245,
1,"As everyone was packing up their notebooks and leaving, Lana and Aaron were surrounded by their friends eager to get a glimpse of the ring and congratulate them. ",4,4,None,,,,0,1,1,1,,,,,0,34,34,34,,,,,,,,,,,,,,,,,,,,,,,,,,,,,,,,,1,4.820064885017928,,,,,,,,,,,,,,,,,,,,,,,,,,,,062719_p1,001,2019_Jun_27_1222,body_behavioural,3.0.4,59.961900079130245,
1,,,,,,,,0,1,1,1,,,,,,,,,,,,,,,,,,,,,,,,,,,,,,,,,,,,,,,,,,,,,,,,,,,,,,,,,,,,,,,,,,,,,,062719_p1,001,2019_Jun_27_1222,body_behavioural,3.0.4,59.961900079130245,
2,,,,,,,,0,2,2,2,0,0,0,0,,,,,,,,,,,,,,,,,,,,,,,,,,,space,1.6692632299964316,space,1.1695667580352165,space,0.8686049440293573,,,,,,,,,,,,,,,,,,,,,,,,,,,,,,,,,,062719_p1,001,2019_Jun_27_1222,body_behavioural,3.0.4,59.961900079130245,
2,,,,,,,,0,2,2,2,1,0,1,0,,,,,,,,,,,,,,,,,,,,,,,,,,,,,,,space,0.5364578579901718,,,,,,,,,,,,,,,,,,,,,,,,,,,,,,,,,,062719_p1,001,2019_Jun_27_1222,body_behavioural,3.0.4,59.961900079130245,
2,The grocery store was not the place Emmanuella and Liam wanted to be at the moment considering that they had been fighting to the point where Emmanuella was thinking of breaking up with Liam.,1.0,1.0,13.0,,,,0,2,2,2,,,,,0,0,0,0,,,,,,,,,,,,,,,,,,,,,,,,,,,,,space,1.069658602005802,space,1.0031304380390793,1,17.17052240500925,,,,,,,,,,,,,,,,,,,,,,,,,,,,062719_p1,001,2019_Jun_27_1222,body_behavioural,3.0.4,59.961900079130245,
2,Emmanuella had been thinking of breaking up with Liam for the past 5 months.,None,None,None,,,,0,2,2,2,,,,,0,1,1,1,,,,,,,,,,,,,,,,,,,,,,,,,,,,,,,,,1,3.6865197619772516,,,,,,,,,,,,,,,,,,,,,,,,,,,,062719_p1,001,2019_Jun_27_1222,body_behavioural,3.0.4,59.961900079130245,
2,"Despite the current tension, they had to go grocery shopping because they were hosting a dinner party for friends that evening and had little at home with which to cook. ",1.0,1.0,None,,,,0,2,2,2,,,,,0,2,2,2,,,,,,,,,,,,,,,,,,,,,,,,,,,,,,,,,9,9.58706930000335,,,,,,,,,,,,,,,,,,,,,,,,,,,,062719_p1,001,2019_Jun_27_1222,body_behavioural,3.0.4,59.961900079130245,
2,"The grocery store smelled like lavender upon entering and was dimly lit with pine shelves in the entrance and obscure, organic products displayed on them.",1.0,1.0,None,,,,0,2,2,2,,,,,0,3,3,3,,,,,,,,,,,,,,,,,,,,,,,,,,,,,,,,,1,5.554118248051964,,,,,,,,,,,,,,,,,,,,,,,,,,,,062719_p1,001,2019_Jun_27_1222,body_behavioural,3.0.4,59.961900079130245,
2,"In the pasta section, Emmanuella grabbed a few boxes of bow-tie pasta.",2.0,1.0,None,,,,0,2,2,2,,,,,0,4,4,4,,,,,,,,,,,,,,,,,,,,,,,,,,,,,,,,,1,2.435911582026165,,,,,,,,,,,,,,,,,,,,,,,,,,,,062719_p1,001,2019_Jun_27_1222,body_behavioural,3.0.4,59.961900079130245,
2,"“I guess we are having a pasta dish tonight,” Liam said.",2.0,1.0,None,,,,0,2,2,2,,,,,0,5,5,5,,,,,,,,,,,,,,,,,,,,,,,,,,,,,,,,,1,4.569801833014935,,,,,,,,,,,,,,,,,,,,,,,,,,,,062719_p1,001,2019_Jun_27_1222,body_behavioural,3.0.4,59.961900079130245,
2,"Emmanuella looked back at him and said, “Well if you were going to actually help cook, I would be fine with something else.”",2.0,1.0,None,,,,0,2,2,2,,,,,0,6,6,6,,,,,,,,,,,,,,,,,,,,,,,,,,,,,,,,,1,4.101601317001041,,,,,,,,,,,,,,,,,,,,,,,,,,,,062719_p1,001,2019_Jun_27_1222,body_behavioural,3.0.4,59.961900079130245,
2,"Liam sighed, and finally said, “You know- you don’t want me to help.",2.0,1.0,None,,,,0,2,2,2,,,,,0,7,7,7,,,,,,,,,,,,,,,,,,,,,,,,,,,,,,,,,9,4.686634035024326,,,,,,,,,,,,,,,,,,,,,,,,,,,,062719_p1,001,2019_Jun_27_1222,body_behavioural,3.0.4,59.961900079130245,
2,"I try to, but it seems like I always get in the way!” ",2.0,1.0,None,,,,0,2,2,2,,,,,0,8,8,8,,,,,,,,,,,,,,,,,,,,,,,,,,,,,,,,,1,2.0698342850082554,,,,,,,,,,,,,,,,,,,,,,,,,,,,062719_p1,001,2019_Jun_27_1222,body_behavioural,3.0.4,59.961900079130245,
2,Emmanuella shook her head and dropped the pasta boxes in the basket she was holding.,2.0,1.0,None,,,,0,2,2,2,,,,,0,9,9,9,,,,,,,,,,,,,,,,,,,,,,,,,,,,,,,,,1,2.703065105015412,,,,,,,,,,,,,,,,,,,,,,,,,,,,062719_p1,001,2019_Jun_27_1222,body_behavioural,3.0.4,59.961900079130245,
2," “Like you even try,” she mumbled to herself. ",2.0,1.0,None,,,,0,2,2,2,,,,,0,10,10,10,,,,,,,,,,,,,,,,,,,,,,,,,,,,,,,,,1,1.7360712049994618,,,,,,,,,,,,,,,,,,,,,,,,,,,,062719_p1,001,2019_Jun_27_1222,body_behavioural,3.0.4,59.961900079130245,
2,She continued down the aisle and studied a jar of vodka sauce and a can of olives before putting them in the basket as well. ,2.0,1.0,None,,,,0,2,2,2,,,,,0,11,11,11,,,,,,,,,,,,,,,,,,,,,,,,,,,,,,,,,9,3.867723389994353,,,,,,,,,,,,,,,,,,,,,,,,,,,,062719_p1,001,2019_Jun_27_1222,body_behavioural,3.0.4,59.961900079130245,
2,"Emmanuella suddenly wrinkled her eyebrows, turned to Liam, and said, “I want to break up since I’m tired of the constant fighting. ",2.0,2.0,None,,,,0,2,2,2,,,,,0,12,12,12,,,,,,,,,,,,,,,,,,,,,,,,,,,,,,,,,1,5.570071194961201,,,,,,,,,,,,,,,,,,,,,,,,,,,,062719_p1,001,2019_Jun_27_1222,body_behavioural,3.0.4,59.961900079130245,
2,"I was going to wait until after this horribly-timed dinner party tonight to talk about this, but I might as well say it now.",2.0,2.0,None,,,,0,2,2,2,,,,,0,13,13,13,,,,,,,,,,,,,,,,,,,,,,,,,,,,,,,,,1,5.286853389989119,,,,,,,,,,,,,,,,,,,,,,,,,,,,062719_p1,001,2019_Jun_27_1222,body_behavioural,3.0.4,59.961900079130245,
2,"I feel like when we try to do anything anymore it ends up unpleasant for the stupidest reasons, and I am just past trying to work things out.”",2.0,2.0,None,,,,0,2,2,2,,,,,0,14,14,14,,,,,,,,,,,,,,,,,,,,,,,,,,,,,,,,,1,0.13645352999446914,,,,,,,,,,,,,,,,,,,,,,,,,,,,062719_p1,001,2019_Jun_27_1222,body_behavioural,3.0.4,59.961900079130245,
2,Liam was nodding automatically.,2.0,2.0,None,,,,0,2,2,2,,,,,0,15,15,15,,,,,,,,,,,,,,,,,,,,,,,,,,,,,,,,,1,5.636231524986215,,,,,,,,,,,,,,,,,,,,,,,,,,,,062719_p1,001,2019_Jun_27_1222,body_behavioural,3.0.4,59.961900079130245,
2,"In the checkout area, there was only one station open, Station 2, but it was not very crowded.",3.0,2.0,None,,,,0,2,2,2,,,,,0,16,16,16,,,,,,,,,,,,,,,,,,,,,,,,,,,,,,,,,1,4.169905746995937,,,,,,,,,,,,,,,,,,,,,,,,,,,,062719_p1,001,2019_Jun_27_1222,body_behavioural,3.0.4,59.961900079130245,
2,They got in line.,3.0,2.0,None,,,,0,2,2,2,,,,,0,17,17,17,,,,,,,,,,,,,,,,,,,,,,,,,,,,,,,,,1,3.6197800600202754,,,,,,,,,,,,,,,,,,,,,,,,,,,,062719_p1,001,2019_Jun_27_1222,body_behavioural,3.0.4,59.961900079130245,
2,"Liam gazed in the direction of the magazines, but his eyes were glazed over as he was working things out in his head while Emmanuella scrutinized the pasta sauce again. ",3.0,2.0,None,,,,0,2,2,2,,,,,0,18,18,18,,,,,,,,,,,,,,,,,,,,,,,,,,,,,,,,,9,5.369731587008573,,,,,,,,,,,,,,,,,,,,,,,,,,,,062719_p1,001,2019_Jun_27_1222,body_behavioural,3.0.4,59.961900079130245,
2,"After a few minutes of thinking, Liam recollected himself, turned to her, and sighed, “Yes, I think the same thing.",3.0,3.0,None,,,,0,2,2,2,,,,,0,19,19,19,,,,,,,,,,,,,,,,,,,,,,,,,,,,,,,,,1,3.619500450033229,,,,,,,,,,,,,,,,,,,,,,,,,,,,062719_p1,001,2019_Jun_27_1222,body_behavioural,3.0.4,59.961900079130245,
2,I think we should break up because we could definitely be happier with other people.” ,3.0,3.0,None,,,,0,2,2,2,,,,,0,20,20,20,,,,,,,,,,,,,,,,,,,,,,,,,,,,,,,,,1,2.7365582999773324,,,,,,,,,,,,,,,,,,,,,,,,,,,,062719_p1,001,2019_Jun_27_1222,body_behavioural,3.0.4,59.961900079130245,
2,Emmanuella nodded as she listened. ,3.0,3.0,None,,,,0,2,2,2,,,,,0,21,21,21,,,,,,,,,,,,,,,,,,,,,,,,,,,,,,,,,1,1.1362911050091498,,,,,,,,,,,,,,,,,,,,,,,,,,,,062719_p1,001,2019_Jun_27_1222,body_behavioural,3.0.4,59.961900079130245,
2,The cashier scanned their groceries.,4.0,3.0,None,,,,0,2,2,2,,,,,0,22,22,22,,,,,,,,,,,,,,,,,,,,,,,,,,,,,,,,,1,1.569924590003211,,,,,,,,,,,,,,,,,,,,,,,,,,,,062719_p1,001,2019_Jun_27_1222,body_behavioural,3.0.4,59.961900079130245,
2,"The cost came to $30, and Emmanuella paid with her credit card.",4.0,3.0,None,,,,0,2,2,2,,,,,0,23,23,23,,,,,,,,,,,,,,,,,,,,,,,,,,,,,,,,,1,3.4674620250007138,,,,,,,,,,,,,,,,,,,,,,,,,,,,062719_p1,001,2019_Jun_27_1222,body_behavioural,3.0.4,59.961900079130245,
2,"She asked Liam politely to take the bags, and he obliged, following her to the exit. ",4.0,3.0,None,,,,0,2,2,2,,,,,0,24,24,24,,,,,,,,,,,,,,,,,,,,,,,,,,,,,,,,,1,2.919847548007965,,,,,,,,,,,,,,,,,,,,,,,,,,,,062719_p1,001,2019_Jun_27_1222,body_behavioural,3.0.4,59.961900079130245,
2,"Filled with a sudden wave of sadness, Emmanuella said, “Liam, I think we are making the right decision- this is good.”",4.0,4.0,None,,,,0,2,2,2,,,,,0,25,25,25,,,,,,,,,,,,,,,,,,,,,,,,,,,,,,,,,1,4.536349187023006,,,,,,,,,,,,,,,,,,,,,,,,,,,,062719_p1,001,2019_Jun_27_1222,body_behavioural,3.0.4,59.961900079130245,
2,"“I agree,” he said, relieved at the hope he was entertaining that they had just gotten through their last fight. ",4.0,4.0,None,,,,0,2,2,2,,,,,0,26,26,26,,,,,,,,,,,,,,,,,,,,,,,,,,,,,,,,,1,5.353351815021597,,,,,,,,,,,,,,,,,,,,,,,,,,,,062719_p1,001,2019_Jun_27_1222,body_behavioural,3.0.4,59.961900079130245,
2,"“I think we can still host this dinner tonight, as long as you're still on board,” Emmanuella said.",4.0,4.0,None,,,,0,2,2,2,,,,,0,27,27,27,,,,,,,,,,,,,,,,,,,,,,,,,,,,,,,,,1,3.069740310020279,,,,,,,,,,,,,,,,,,,,,,,,,,,,062719_p1,001,2019_Jun_27_1222,body_behavioural,3.0.4,59.961900079130245,
2,"Liam nodded, “Yes, let’s just not tell anyone we’ve broken up tonight.” ",4.0,4.0,None,,,,0,2,2,2,,,,,0,28,28,28,,,,,,,,,,,,,,,,,,,,,,,,,,,,,,,,,1,2.085481575981248,,,,,,,,,,,,,,,,,,,,,,,,,,,,062719_p1,001,2019_Jun_27_1222,body_behavioural,3.0.4,59.961900079130245,
2,"Emmanuella laughed, “Whoever leaks it loses their right to the cat.”",4.0,4.0,None,,,,0,2,2,2,,,,,0,29,29,29,,,,,,,,,,,,,,,,,,,,,,,,,,,,,,,,,1,3.720450241002254,,,,,,,,,,,,,,,,,,,,,,,,,,,,062719_p1,001,2019_Jun_27_1222,body_behavioural,3.0.4,59.961900079130245,
2,"Liam chuckled and responded, “Hey!",4.0,4.0,None,,,,0,2,2,2,,,,,0,30,30,30,,,,,,,,,,,,,,,,,,,,,,,,,,,,,,,,,9,2.5507571380003355,,,,,,,,,,,,,,,,,,,,,,,,,,,,062719_p1,001,2019_Jun_27_1222,body_behavioural,3.0.4,59.961900079130245,
2,Luna is mine and I want her back.”,4.0,4.0,None,,,,0,2,2,2,,,,,0,31,31,31,,,,,,,,,,,,,,,,,,,,,,,,,,,,,,,,,1,1.4025266720564105,,,,,,,,,,,,,,,,,,,,,,,,,,,,062719_p1,001,2019_Jun_27_1222,body_behavioural,3.0.4,59.961900079130245,
2,"Emmanuella rolled her eyes, knowing the cat would be a whole other issue to sort out later.
",4.0,4.0,None,,,,0,2,2,2,,,,,0,32,32,32,,,,,,,,,,,,,,,,,,,,,,,,,,,,,,,,,1,2.403788121009711,,,,,,,,,,,,,,,,,,,,,,,,,,,,062719_p1,001,2019_Jun_27_1222,body_behavioural,3.0.4,59.961900079130245,
2,,,,,,,,0,2,2,2,,,,,,,,,,,,,,,,,,,,,,,,,,,,,,,,,,,,,,,,,,,,,,,,,,,,,,,,,,,,,,,,,,,,,,062719_p1,001,2019_Jun_27_1222,body_behavioural,3.0.4,59.961900079130245,
3,,,,,,,,0,3,3,3,0,0,0,0,,,,,,,,,,,,,,,,,,,,,,,,,,,space,2.653305329964496,space,1.1864084500120953,space,1.4362930350471288,,,,,,,,,,,,,,,,,,,,,,,,,,,,,,,,,,062719_p1,001,2019_Jun_27_1222,body_behavioural,3.0.4,59.961900079130245,
3,"Jeff, hoping that today would be a pivotal day for his company, had only been waiting inside the entrance of the airport for a few minutes when he saw William and eagerly waved him over. ",1,1,32.0,,,,0,3,3,3,,,,,0,0,0,0,,,,,,,,,,,,,,,,,,,,,,,,,,,,,space,1.917494639987126,space,1.9032659700023942,9,14.886248084018007,,,,,,,,,,,,,,,,,,,,,,,,,,,,062719_p1,001,2019_Jun_27_1222,body_behavioural,3.0.4,59.961900079130245,
3,William checked his watch and was pleased to see that the two of them had two hours to discuss business before their flights left Boston.,1,1,None,,,,0,3,3,3,,,,,0,1,1,1,,,,,,,,,,,,,,,,,,,,,,,,,,,,,,,,,1,11.104590425034985,,,,,,,,,,,,,,,,,,,,,,,,,,,,062719_p1,001,2019_Jun_27_1222,body_behavioural,3.0.4,59.961900079130245,
3,Jeff and William had met the night before in line for the bathroom at a local bar. ,1,1,None,,,,0,3,3,3,,,,,0,2,2,2,,,,,,,,,,,,,,,,,,,,,,,,,,,,,,,,,9,3.2699098419980146,,,,,,,,,,,,,,,,,,,,,,,,,,,,062719_p1,001,2019_Jun_27_1222,body_behavioural,3.0.4,59.961900079130245,
3,Jeff had delivered some surprisingly-detailed complaints to William about the wine selection.,1,1,None,,,,0,3,3,3,,,,,0,3,3,3,,,,,,,,,,,,,,,,,,,,,,,,,,,,,,,,,1,3.219300494994968,,,,,,,,,,,,,,,,,,,,,,,,,,,,062719_p1,001,2019_Jun_27_1222,body_behavioural,3.0.4,59.961900079130245,
3,They quickly learned that they were both in the wine industry: Jeff was a sales associate for wine vineyards in the Northeast and William was a wine buyer for corporate events.,1,1,None,,,,0,3,3,3,,,,,0,4,4,4,,,,,,,,,,,,,,,,,,,,,,,,,,,,,,,,,1,5.88665682496503,,,,,,,,,,,,,,,,,,,,,,,,,,,,062719_p1,001,2019_Jun_27_1222,body_behavioural,3.0.4,59.961900079130245,
3,"Since they both had flights out of Boston at the same time, they had agreed to meet at the airport and talk about doing business together. ",1,1,None,,,,0,3,3,3,,,,,0,5,5,5,,,,,,,,,,,,,,,,,,,,,,,,,,,,,,,,,1,5.286791094986256,,,,,,,,,,,,,,,,,,,,,,,,,,,,062719_p1,001,2019_Jun_27_1222,body_behavioural,3.0.4,59.961900079130245,
3,They waited in line at security.,2,1,None,,,,0,3,3,3,,,,,0,6,6,6,,,,,,,,,,,,,,,,,,,,,,,,,,,,,,,,,9,1.5362507050158456,,,,,,,,,,,,,,,,,,,,,,,,,,,,062719_p1,001,2019_Jun_27_1222,body_behavioural,3.0.4,59.961900079130245,
3,"“It’s crazy that we met last night,” William said.",2,1,None,,,,0,3,3,3,,,,,0,7,7,7,,,,,,,,,,,,,,,,,,,,,,,,,,,,,,,,,1,2.902796690003015,,,,,,,,,,,,,,,,,,,,,,,,,,,,062719_p1,001,2019_Jun_27_1222,body_behavioural,3.0.4,59.961900079130245,
3,"“I am flying out right now to meet my boss, and was worried that I was going to show up empty handed without anything to show for the East Coast.” ",2,1,None,,,,0,3,3,3,,,,,0,8,8,8,,,,,,,,,,,,,,,,,,,,,,,,,,,,,,,,,1,5.169890630000737,,,,,,,,,,,,,,,,,,,,,,,,,,,,062719_p1,001,2019_Jun_27_1222,body_behavioural,3.0.4,59.961900079130245,
3,"“I know, what are the chances, right?” Jeff replied.",2,1,None,,,,0,3,3,3,,,,,0,9,9,9,,,,,,,,,,,,,,,,,,,,,,,,,,,,,,,,,1,2.0864282500115223,,,,,,,,,,,,,,,,,,,,,,,,,,,,062719_p1,001,2019_Jun_27_1222,body_behavioural,3.0.4,59.961900079130245,
3,"William laughed and said, “I’m glad our complaining can come in handy.”",2,1,None,,,,0,3,3,3,,,,,0,10,10,10,,,,,,,,,,,,,,,,,,,,,,,,,,,,,,,,,1,3.2533302869996987,,,,,,,,,,,,,,,,,,,,,,,,,,,,062719_p1,001,2019_Jun_27_1222,body_behavioural,3.0.4,59.961900079130245,
3,"William got focused and, shifting gears, said, “I know this is fast, but I'd like to get right down to business since time is a limiting factor.",2,2,None,,,,0,3,3,3,,,,,0,11,11,11,,,,,,,,,,,,,,,,,,,,,,,,,,,,,,,,,9,6.16776508197654,,,,,,,,,,,,,,,,,,,,,,,,,,,,062719_p1,001,2019_Jun_27_1222,body_behavioural,3.0.4,59.961900079130245,
3,I'd really like to order a couple of sample shipments from you and present them to our clients: I think they’d really love to have some East Coast variety. ,2,2,None,,,,0,3,3,3,,,,,0,12,12,12,,,,,,,,,,,,,,,,,,,,,,,,,,,,,,,,,1,4.853226420003921,,,,,,,,,,,,,,,,,,,,,,,,,,,,062719_p1,001,2019_Jun_27_1222,body_behavioural,3.0.4,59.961900079130245,
3,"Now, typically we expect to get these kinds of samples at a steep discount, at least half-off the label price.",2,2,None,,,,0,3,3,3,,,,,0,13,13,13,,,,,,,,,,,,,,,,,,,,,,,,,,,,,,,,,1,7.736514452029951,,,,,,,,,,,,,,,,,,,,,,,,,,,,062719_p1,001,2019_Jun_27_1222,body_behavioural,3.0.4,59.961900079130245,
3,This small loss is well worth the profit you’d be making if even a single client makes a contract.,2,2,None,,,,0,3,3,3,,,,,0,14,14,14,,,,,,,,,,,,,,,,,,,,,,,,,,,,,,,,,1,4.769600214960519,,,,,,,,,,,,,,,,,,,,,,,,,,,,062719_p1,001,2019_Jun_27_1222,body_behavioural,3.0.4,59.961900079130245,
3,So I propose that you send us 5 barrels of your select wines for $800.”,2,2,None,,,,0,3,3,3,,,,,0,15,15,15,,,,,,,,,,,,,,,,,,,,,,,,,,,,,,,,,1,6.236770279996563,,,,,,,,,,,,,,,,,,,,,,,,,,,,062719_p1,001,2019_Jun_27_1222,body_behavioural,3.0.4,59.961900079130245,
3,"Before going through the metal detector, there was a pause in the security line to roll out the empty bin cart and roll in a filled one. ",2,2,None,,,,0,3,3,3,,,,,0,16,16,16,,,,,,,,,,,,,,,,,,,,,,,,,,,,,,,,,1,6.820184295007493,,,,,,,,,,,,,,,,,,,,,,,,,,,,062719_p1,001,2019_Jun_27_1222,body_behavioural,3.0.4,59.961900079130245,
3,They placed everything in their bins. ,2,2,None,,,,0,3,3,3,,,,,0,17,17,17,,,,,,,,,,,,,,,,,,,,,,,,,,,,,,,,,1,2.353343644994311,,,,,,,,,,,,,,,,,,,,,,,,,,,,062719_p1,001,2019_Jun_27_1222,body_behavioural,3.0.4,59.961900079130245,
3,"Jeff mulled over the offer, nodding noncommittally to William's pitch as they proceeded through the metal detector.",2,2,None,,,,0,3,3,3,,,,,0,18,18,18,,,,,,,,,,,,,,,,,,,,,,,,,,,,,,,,,9,4.603212792018894,,,,,,,,,,,,,,,,,,,,,,,,,,,,062719_p1,001,2019_Jun_27_1222,body_behavioural,3.0.4,59.961900079130245,
3,"Having recovered from the security check, they began to walk through the concourse toward Jeff’s gate, B8, and William handed some printed spreadsheets to Jeff.",3,2,None,,,,0,3,3,3,,,,,0,19,19,19,,,,,,,,,,,,,,,,,,,,,,,,,,,,,,,,,1,6.153421437018551,,,,,,,,,,,,,,,,,,,,,,,,,,,,062719_p1,001,2019_Jun_27_1222,body_behavioural,3.0.4,59.961900079130245,
3,"Jeff, weaving through the crowd of travelers, squinted at William's rosy projections of the number of bottles he would purchase in the future.",3,2,None,,,,0,3,3,3,,,,,0,20,20,20,,,,,,,,,,,,,,,,,,,,,,,,,,,,,,,,,1,6.303277760045603,,,,,,,,,,,,,,,,,,,,,,,,,,,,062719_p1,001,2019_Jun_27_1222,body_behavioural,3.0.4,59.961900079130245,
3,"After thinking for a couple minutes and walking past a number of coffee shops that William was eyeing, Jeff said, “I am not sure about this since we’re not coming a corporate vineyard and gambling with sample shipments is the kind of risk we can’t necessarily make. ",3,3,None,,,,0,3,3,3,,,,,0,21,21,21,,,,,,,,,,,,,,,,,,,,,,,,,,,,,,,,,1,9.602682688971981,,,,,,,,,,,,,,,,,,,,,,,,,,,,062719_p1,001,2019_Jun_27_1222,body_behavioural,3.0.4,59.961900079130245,
3,"These corporate purchases would have to be huge and practically guaranteed, to offset the loss from selling sample shipments at a price like you suggest.”",3,3,None,,,,0,3,3,3,,,,,0,22,22,22,,,,,,,,,,,,,,,,,,,,,,,,,,,,,,,,,1,5.70321809197776,,,,,,,,,,,,,,,,,,,,,,,,,,,,062719_p1,001,2019_Jun_27_1222,body_behavioural,3.0.4,59.961900079130245,
3,"William decided to tell Jeff that they had made the same offer to their competitor, Yankee Vines, who had refused and that they would make a better offer to Jeff and his company.",3,3,None,,,,0,3,3,3,,,,,0,23,23,23,,,,,,,,,,,,,,,,,,,,,,,,,,,,,,,,,1,6.586856101988815,,,,,,,,,,,,,,,,,,,,,,,,,,,,062719_p1,001,2019_Jun_27_1222,body_behavioural,3.0.4,59.961900079130245,
3,"They walked to the gates very slowly, barely registering the hubbub of the airport.",3,3,None,,,,0,3,3,3,,,,,0,24,24,24,,,,,,,,,,,,,,,,,,,,,,,,,,,,,,,,,9,3.3032074000220746,,,,,,,,,,,,,,,,,,,,,,,,,,,,062719_p1,001,2019_Jun_27_1222,body_behavioural,3.0.4,59.961900079130245,
3,"William and Jeff came to an agreement on a compromise rate on the sample shipment, paying $400 for a $600 shipment of wine sample, and they finalized the deal with a handshake. ",3,4,None,,,,0,3,3,3,,,,,0,25,25,25,,,,,,,,,,,,,,,,,,,,,,,,,,,,,,,,,1,8.086748279980384,,,,,,,,,,,,,,,,,,,,,,,,,,,,062719_p1,001,2019_Jun_27_1222,body_behavioural,3.0.4,59.961900079130245,
3,"“Well, what a tremendous pleasure to do business with you and to have all this work out,” William said.",3,4,None,,,,0,3,3,3,,,,,0,26,26,26,,,,,,,,,,,,,,,,,,,,,,,,,,,,,,,,,1,4.2201929070288315,,,,,,,,,,,,,,,,,,,,,,,,,,,,062719_p1,001,2019_Jun_27_1222,body_behavioural,3.0.4,59.961900079130245,
3,"Jeff nodded enthusiastically, and responded, “Likewise- this has been great.  ",3,4,None,,,,0,3,3,3,,,,,0,27,27,27,,,,,,,,,,,,,,,,,,,,,,,,,,,,,,,,,1,2.4364016450126655,,,,,,,,,,,,,,,,,,,,,,,,,,,,062719_p1,001,2019_Jun_27_1222,body_behavioural,3.0.4,59.961900079130245,
3,I'll let you get to your gate.,3,4,None,,,,0,3,3,3,,,,,0,28,28,28,,,,,,,,,,,,,,,,,,,,,,,,,,,,,,,,,9,2.502677242970094,,,,,,,,,,,,,,,,,,,,,,,,,,,,062719_p1,001,2019_Jun_27_1222,body_behavioural,3.0.4,59.961900079130245,
3,"Once we’re both back on the ground, we can work out all the official documentation and get this in the books.”",3,4,None,,,,0,3,3,3,,,,,0,29,29,29,,,,,,,,,,,,,,,,,,,,,,,,,,,,,,,,,1,5.953380198043305,,,,,,,,,,,,,,,,,,,,,,,,,,,,062719_p1,001,2019_Jun_27_1222,body_behavioural,3.0.4,59.961900079130245,
3,"Jeff jogged to his gate, scanned his boarding pass, and walked onto the plane.",4,4,None,,,,0,3,3,3,,,,,0,30,30,30,,,,,,,,,,,,,,,,,,,,,,,,,,,,,,,,,1,2.8530843870248646,,,,,,,,,,,,,,,,,,,,,,,,,,,,062719_p1,001,2019_Jun_27_1222,body_behavioural,3.0.4,59.961900079130245,
3,He sat down in seat 4A in the business class section and  typed out a quick email on his phone letting the rest of his team know the good news. ,4,4,None,,,,0,3,3,3,,,,,0,31,31,31,,,,,,,,,,,,,,,,,,,,,,,,,,,,,,,,,1,4.753377274959348,,,,,,,,,,,,,,,,,,,,,,,,,,,,062719_p1,001,2019_Jun_27_1222,body_behavioural,3.0.4,59.961900079130245,
3,"When the flight attendant came by, he ordered a glass of champagne to celebrate.",4,4,None,,,,0,3,3,3,,,,,0,32,32,32,,,,,,,,,,,,,,,,,,,,,,,,,,,,,,,,,1,2.4870087599847466,,,,,,,,,,,,,,,,,,,,,,,,,,,,062719_p1,001,2019_Jun_27_1222,body_behavioural,3.0.4,59.961900079130245,
3,,,,,,,,0,3,3,3,,,,,,,,,,,,,,,,,,,,,,,,,,,,,,,,,,,,,,,,,,,,,,,,,,,,,,,,,,,,,,,,,,,,,,062719_p1,001,2019_Jun_27_1222,body_behavioural,3.0.4,59.961900079130245,
4,,,,,,,,0,4,4,4,0,0,0,0,,,,,,,,,,,,,,,,,,,,,,,,,,,space,2.1534806829877198,space,1.0529619150329381,space,1.001338153029792,,,,,,,,,,,,,,,,,,,,,,,,,,,,,,,,,,062719_p1,001,2019_Jun_27_1222,body_behavioural,3.0.4,59.961900079130245,
4,"Ariana hurried into the classroom, and Leon did a double-take when he saw her, almost dropping the eraser he had in his hand. ",1.0,1.0,44.0,,,,0,4,4,4,,,,,0,0,0,0,,,,,,,,,,,,,,,,,,,,,,,,,,,,,space,1.3361511920229532,space,1.1196430220152251,9,18.154091562028043,,,,,,,,,,,,,,,,,,,,,,,,,,,,062719_p1,001,2019_Jun_27_1222,body_behavioural,3.0.4,59.961900079130245,
4,"This was his first day in college, and he had assumed that he wouldn’t know anyone on campus, but he had a strong feeling that he had seen her somewhere before. ",1.0,1.0,None,,,,0,4,4,4,,,,,0,1,1,1,,,,,,,,,,,,,,,,,,,,,,,,,,,,,,,,,1,6.020142979978118,,,,,,,,,,,,,,,,,,,,,,,,,,,,062719_p1,001,2019_Jun_27_1222,body_behavioural,3.0.4,59.961900079130245,
4,They were in a small classroom with rows of chairs with foldable desks.,1.0,1.0,None,,,,0,4,4,4,,,,,0,2,2,2,,,,,,,,,,,,,,,,,,,,,,,,,,,,,,,,,9,6.71965507499408,,,,,,,,,,,,,,,,,,,,,,,,,,,,062719_p1,001,2019_Jun_27_1222,body_behavioural,3.0.4,59.961900079130245,
4,These faced the speaker’s podium and a blackboard on wheels. ,None,None,None,,,,0,4,4,4,,,,,0,3,3,3,,,,,,,,,,,,,,,,,,,,,,,,,,,,,,,,,1,3.3509312169626355,,,,,,,,,,,,,,,,,,,,,,,,,,,,062719_p1,001,2019_Jun_27_1222,body_behavioural,3.0.4,59.961900079130245,
4,"There were no windows in the room, since they were down in the basement of the History Department.",1.0,1.0,None,,,,0,4,4,4,,,,,0,4,4,4,,,,,,,,,,,,,,,,,,,,,,,,,,,,,,,,,1,5.986657429952174,,,,,,,,,,,,,,,,,,,,,,,,,,,,062719_p1,001,2019_Jun_27_1222,body_behavioural,3.0.4,59.961900079130245,
4,"Leon, trying to figure out where he had seen her before, could not stop looking over at Ariana.",1.0,1.0,None,,,,0,4,4,4,,,,,0,5,5,5,,,,,,,,,,,,,,,,,,,,,,,,,,,,,,,,,1,4.5362396070268005,,,,,,,,,,,,,,,,,,,,,,,,,,,,062719_p1,001,2019_Jun_27_1222,body_behavioural,3.0.4,59.961900079130245,
4,Ariana was oblivious to Leon’s gaze and was only focused on getting ready for class. ,1.0,1.0,None,,,,0,4,4,4,,,,,0,6,6,6,,,,,,,,,,,,,,,,,,,,,,,,,,,,,,,,,1,2.8205433770199306,,,,,,,,,,,,,,,,,,,,,,,,,,,,062719_p1,001,2019_Jun_27_1222,body_behavioural,3.0.4,59.961900079130245,
4,"“Good morning, everyone,” the professor began.",2.0,1.0,None,,,,0,4,4,4,,,,,0,7,7,7,,,,,,,,,,,,,,,,,,,,,,,,,,,,,,,,,9,1.8697376280324534,,,,,,,,,,,,,,,,,,,,,,,,,,,,062719_p1,001,2019_Jun_27_1222,body_behavioural,3.0.4,59.961900079130245,
4,“Welcome to History of Egypt. ,2.0,1.0,None,,,,0,4,4,4,,,,,0,8,8,8,,,,,,,,,,,,,,,,,,,,,,,,,,,,,,,,,1,1.1195979769690894,,,,,,,,,,,,,,,,,,,,,,,,,,,,062719_p1,001,2019_Jun_27_1222,body_behavioural,3.0.4,59.961900079130245,
4,"Today we will be talking about mummification, one of the most famous and often misunderstood customs in ancient Egyptian society.”",2.0,1.0,None,,,,0,4,4,4,,,,,0,9,9,9,,,,,,,,,,,,,,,,,,,,,,,,,,,,,,,,,1,4.569078207015991,,,,,,,,,,,,,,,,,,,,,,,,,,,,062719_p1,001,2019_Jun_27_1222,body_behavioural,3.0.4,59.961900079130245,
4,Leon and Ariana began taking notes. ,2.0,1.0,None,,,,0,4,4,4,,,,,0,10,10,10,,,,,,,,,,,,,,,,,,,,,,,,,,,,,,,,,9,2.7032294449745677,,,,,,,,,,,,,,,,,,,,,,,,,,,,062719_p1,001,2019_Jun_27_1222,body_behavioural,3.0.4,59.961900079130245,
4,"Within a few minutes, Leon found his attention wandering from the lecture and back to Ariana, and he decided to do something about it by putting a note on her desk.",2.0,2.0,None,,,,0,4,4,4,,,,,0,11,11,11,,,,,,,,,,,,,,,,,,,,,,,,,,,,,,,,,1,6.802674978040159,,,,,,,,,,,,,,,,,,,,,,,,,,,,062719_p1,001,2019_Jun_27_1222,body_behavioural,3.0.4,59.961900079130245,
4,"“Are you from LA?” it read, “Sorry to distract you from mummies, but you look really familiar.”",2.0,2.0,None,,,,0,4,4,4,,,,,0,12,12,12,,,,,,,,,,,,,,,,,,,,,,,,,,,,,,,,,1,3.4865530430106446,,,,,,,,,,,,,,,,,,,,,,,,,,,,062719_p1,001,2019_Jun_27_1222,body_behavioural,3.0.4,59.961900079130245,
4,"She looked at the note with surprise, and then turned to notice Leon for the first time. ",2.0,2.0,None,,,,0,4,4,4,,,,,0,13,13,13,,,,,,,,,,,,,,,,,,,,,,,,,,,,,,,,,1,2.8531052300240844,,,,,,,,,,,,,,,,,,,,,,,,,,,,062719_p1,001,2019_Jun_27_1222,body_behavioural,3.0.4,59.961900079130245,
4,She instantly liked him when she saw him.,2.0,2.0,None,,,,0,4,4,4,,,,,0,14,14,14,,,,,,,,,,,,,,,,,,,,,,,,,,,,,,,,,9,3.1198415200342424,,,,,,,,,,,,,,,,,,,,,,,,,,,,062719_p1,001,2019_Jun_27_1222,body_behavioural,3.0.4,59.961900079130245,
4,She thought he looked trustworthy and genuine.,2.0,2.0,None,,,,0,4,4,4,,,,,0,15,15,15,,,,,,,,,,,,,,,,,,,,,,,,,,,,,,,,,1,2.0530896079726517,,,,,,,,,,,,,,,,,,,,,,,,,,,,062719_p1,001,2019_Jun_27_1222,body_behavioural,3.0.4,59.961900079130245,
4,"Ariana passed the note back to Leon, and she had replied, “No, but maybe my twin and I were separated at birth.”",2.0,2.0,None,,,,0,4,4,4,,,,,0,16,16,16,,,,,,,,,,,,,,,,,,,,,,,,,,,,,,,,,1,4.869907760003116,,,,,,,,,,,,,,,,,,,,,,,,,,,,062719_p1,001,2019_Jun_27_1222,body_behavioural,3.0.4,59.961900079130245,
4,"The professor continued, “One may well question why the ancient Egyptians spent so much time and effort on their funerary practices.",3.0,2.0,None,,,,0,4,4,4,,,,,0,17,17,17,,,,,,,,,,,,,,,,,,,,,,,,,,,,,,,,,1,4.803254915052094,,,,,,,,,,,,,,,,,,,,,,,,,,,,062719_p1,001,2019_Jun_27_1222,body_behavioural,3.0.4,59.961900079130245,
4,"Not only was the mummification process itself a complicated affair, but there were also elaborate rituals before, during, and after death.",3.0,2.0,None,,,,0,4,4,4,,,,,0,18,18,18,,,,,,,,,,,,,,,,,,,,,,,,,,,,,,,,,1,5.23661829699995,,,,,,,,,,,,,,,,,,,,,,,,,,,,062719_p1,001,2019_Jun_27_1222,body_behavioural,3.0.4,59.961900079130245,
4,The practice required teams of experts with years of training and took a total of 70 days to complete.” ,3.0,2.0,None,,,,0,4,4,4,,,,,0,19,19,19,,,,,,,,,,,,,,,,,,,,,,,,,,,,,,,,,1,2.936356340011116,,,,,,,,,,,,,,,,,,,,,,,,,,,,062719_p1,001,2019_Jun_27_1222,body_behavioural,3.0.4,59.961900079130245,
4,"They passed notes back and forth the whole class like they were in high school, and Leon wrote in one, “Would you like to go on a walk this evening?”",3.0,3.0,None,,,,0,4,4,4,,,,,0,20,20,20,,,,,,,,,,,,,,,,,,,,,,,,,,,,,,,,,9,3.819833052053582,,,,,,,,,,,,,,,,,,,,,,,,,,,,062719_p1,001,2019_Jun_27_1222,body_behavioural,3.0.4,59.961900079130245,
4,"When Ariana read this, she looked at him and nodded her head",3.0,3.0,None,,,,0,4,4,4,,,,,0,21,21,21,,,,,,,,,,,,,,,,,,,,,,,,,,,,,,,,,1,1.686570079997182,,,,,,,,,,,,,,,,,,,,,,,,,,,,062719_p1,001,2019_Jun_27_1222,body_behavioural,3.0.4,59.961900079130245,
4,"She wrote back on the slip of paper, “Let’s meet at 8 in front of my dorm, Patton Hall.”",3.0,3.0,None,,,,0,4,4,4,,,,,0,22,22,22,,,,,,,,,,,,,,,,,,,,,,,,,,,,,,,,,1,4.636961915006395,,,,,,,,,,,,,,,,,,,,,,,,,,,,062719_p1,001,2019_Jun_27_1222,body_behavioural,3.0.4,59.961900079130245,
4,The professor ended the lecture and announced to the class that they would have their first quiz next class on Friday on mummification. ,4.0,3.0,None,,,,0,4,4,4,,,,,0,23,23,23,,,,,,,,,,,,,,,,,,,,,,,,,,,,,,,,,1,5.6032800049870275,,,,,,,,,,,,,,,,,,,,,,,,,,,,062719_p1,001,2019_Jun_27_1222,body_behavioural,3.0.4,59.961900079130245,
4,Everyone packed up and filed out of the classroom except for Ariana and Leon. ,4.0,3.0,None,,,,0,4,4,4,,,,,0,24,24,24,,,,,,,,,,,,,,,,,,,,,,,,,,,,,,,,,1,2.035926355049014,,,,,,,,,,,,,,,,,,,,,,,,,,,,062719_p1,001,2019_Jun_27_1222,body_behavioural,3.0.4,59.961900079130245,
4,"Ariana spoke first, “I have to go to my next class.”",4.0,4.0,None,,,,0,4,4,4,,,,,0,25,25,25,,,,,,,,,,,,,,,,,,,,,,,,,,,,,,,,,1,2.1849312300328165,,,,,,,,,,,,,,,,,,,,,,,,,,,,062719_p1,001,2019_Jun_27_1222,body_behavioural,3.0.4,59.961900079130245,
4,"She looked at the clock which read noon and headed for the door saying, “I should run, but I’ll see you later tonight!” ",4.0,4.0,None,,,,0,4,4,4,,,,,0,26,26,26,,,,,,,,,,,,,,,,,,,,,,,,,,,,,,,,,1,4.1363505849731155,,,,,,,,,,,,,,,,,,,,,,,,,,,,062719_p1,001,2019_Jun_27_1222,body_behavioural,3.0.4,59.961900079130245,
4,"She waved as she ran out the door, and Leon was still pondering where he had known her before, even more convinced that they had met before having heard her voice.",4.0,4.0,None,,,,0,4,4,4,,,,,0,27,27,27,,,,,,,,,,,,,,,,,,,,,,,,,,,,,,,,,9,5.920029205037281,,,,,,,,,,,,,,,,,,,,,,,,,,,,062719_p1,001,2019_Jun_27_1222,body_behavioural,3.0.4,59.961900079130245,
4,,,,,,,,0,4,4,4,,,,,,,,,,,,,,,,,,,,,,,,,,,,,,,,,,,,,,,,,,,,,,,,,,,,,,,,,,,,,,,,,,,,,,062719_p1,001,2019_Jun_27_1222,body_behavioural,3.0.4,59.961900079130245,
5,,,,,,,,0,5,5,5,0,0,0,0,,,,,,,,,,,,,,,,,,,,,,,,,,,space,2.736418596992735,space,1.3862876349594444,space,1.586240922973957,,,,,,,,,,,,,,,,,,,,,,,,,,,,,,,,,,062719_p1,001,2019_Jun_27_1222,body_behavioural,3.0.4,59.961900079130245,
5,,,,,,,,0,5,5,5,1,0,1,0,,,,,,,,,,,,,,,,,,,,,,,,,,,,,,,space,0.8029615249834023,,,,,,,,,,,,,,,,,,,,,,,,,,,,,,,,,,062719_p1,001,2019_Jun_27_1222,body_behavioural,3.0.4,59.961900079130245,
5,"James noticed Teresa immediately as she walked into the restaurant - or, more accurately, as she attempted to walk into the restaurant. ",1,1,41.0,,,,0,5,5,5,,,,,0,0,0,0,,,,,,,,,,,,,,,,,,,,,,,,,,,,,space,1.2363111670129001,space,1.118658956955187,9,8.688161502010189,,,,,,,,,,,,,,,,,,,,,,,,,,,,062719_p1,001,2019_Jun_27_1222,body_behavioural,3.0.4,59.961900079130245,
5,She was typing intently on her phone and ran straight into the restaurant’s glass door with a painful thud. ,1,1,None,,,,0,5,5,5,,,,,0,1,1,1,,,,,,,,,,,,,,,,,,,,,,,,,,,,,,,,,1,4.753294586960692,,,,,,,,,,,,,,,,,,,,,,,,,,,,062719_p1,001,2019_Jun_27_1222,body_behavioural,3.0.4,59.961900079130245,
5,Everyone waiting around the cash register turned.,1,1,None,,,,0,5,5,5,,,,,0,2,2,2,,,,,,,,,,,,,,,,,,,,,,,,,,,,,,,,,9,2.8364130000118166,,,,,,,,,,,,,,,,,,,,,,,,,,,,062719_p1,001,2019_Jun_27_1222,body_behavioural,3.0.4,59.961900079130245,
5,Teresa rubbed her head and put her phone away. ,1,1,None,,,,0,5,5,5,,,,,0,3,3,3,,,,,,,,,,,,,,,,,,,,,,,,,,,,,,,,,1,1.5698195170261897,,,,,,,,,,,,,,,,,,,,,,,,,,,,062719_p1,001,2019_Jun_27_1222,body_behavioural,3.0.4,59.961900079130245,
5,She looked somewhat confused but primarily indignant that the door had been in her way. ,1,1,None,,,,0,5,5,5,,,,,0,4,4,4,,,,,,,,,,,,,,,,,,,,,,,,,,,,,,,,,1,2.4856651999871247,,,,,,,,,,,,,,,,,,,,,,,,,,,,062719_p1,001,2019_Jun_27_1222,body_behavioural,3.0.4,59.961900079130245,
5,"James found this quite charming and stole a couple glances at her, peeking up from the newspaper he was holding, until she noticed and wrinkled her eyebrows at him. ",1,1,None,,,,0,5,5,5,,,,,0,5,5,5,,,,,,,,,,,,,,,,,,,,,,,,,,,,,,,,,1,7.3867983520030975,,,,,,,,,,,,,,,,,,,,,,,,,,,,062719_p1,001,2019_Jun_27_1222,body_behavioural,3.0.4,59.961900079130245,
5,James and Teresa had both chosen the least busy time to try out Atlanta’s newest sushi restaurant.  ,1,1,None,,,,0,5,5,5,,,,,0,6,6,6,,,,,,,,,,,,,,,,,,,,,,,,,,,,,,,,,9,6.453376332006883,,,,,,,,,,,,,,,,,,,,,,,,,,,,062719_p1,001,2019_Jun_27_1222,body_behavioural,3.0.4,59.961900079130245,
5,It was notable for both the food and the decor. ,1,1,None,,,,0,5,5,5,,,,,0,7,7,7,,,,,,,,,,,,,,,,,,,,,,,,,,,,,,,,,1,2.503059519978706,,,,,,,,,,,,,,,,,,,,,,,,,,,,062719_p1,001,2019_Jun_27_1222,body_behavioural,3.0.4,59.961900079130245,
5,"There were pine wood countertops and chairs, plants all along the sides of the walls, and branch-looking structures hanging from the ceiling. ",1,1,None,,,,0,5,5,5,,,,,0,8,8,8,,,,,,,,,,,,,,,,,,,,,,,,,,,,,,,,,1,4.95098498504376,,,,,,,,,,,,,,,,,,,,,,,,,,,,062719_p1,001,2019_Jun_27_1222,body_behavioural,3.0.4,59.961900079130245,
5,"The host sat James and Teresa, who were both dining alone, at the bar. ",2,1,None,,,,0,5,5,5,,,,,0,9,9,9,,,,,,,,,,,,,,,,,,,,,,,,,,,,,,,,,1,2.9870398080092855,,,,,,,,,,,,,,,,,,,,,,,,,,,,062719_p1,001,2019_Jun_27_1222,body_behavioural,3.0.4,59.961900079130245,
5,They sat a seat apart from each other on the bench.,2,1,None,,,,0,5,5,5,,,,,0,10,10,10,,,,,,,,,,,,,,,,,,,,,,,,,,,,,,,,,9,3.086685589980334,,,,,,,,,,,,,,,,,,,,,,,,,,,,062719_p1,001,2019_Jun_27_1222,body_behavioural,3.0.4,59.961900079130245,
5,"The waitress behind the counter gave them bright neon menus that were filled with entrees in Japanese with small, English translations. ",2,1,None,,,,0,5,5,5,,,,,0,11,11,11,,,,,,,,,,,,,,,,,,,,,,,,,,,,,,,,,1,5.067645784991328,,,,,,,,,,,,,,,,,,,,,,,,,,,,062719_p1,001,2019_Jun_27_1222,body_behavioural,3.0.4,59.961900079130245,
5,James quickly glanced through it while Teresa took a longer time. ,2,1,None,,,,0,5,5,5,,,,,0,12,12,12,,,,,,,,,,,,,,,,,,,,,,,,,,,,,,,,,1,2.517542721994687,,,,,,,,,,,,,,,,,,,,,,,,,,,,062719_p1,001,2019_Jun_27_1222,body_behavioural,3.0.4,59.961900079130245,
5,"A few minutes passed before, James turned to Teresa and asked, “Is your forehead alright?”",2,2,None,,,,0,5,5,5,,,,,0,13,13,13,,,,,,,,,,,,,,,,,,,,,,,,,,,,,,,,,1,3.16721384198172,,,,,,,,,,,,,,,,,,,,,,,,,,,,062719_p1,001,2019_Jun_27_1222,body_behavioural,3.0.4,59.961900079130245,
5,She turned to him and smirked.,2,2,None,,,,0,5,5,5,,,,,0,14,14,14,,,,,,,,,,,,,,,,,,,,,,,,,,,,,,,,,1,1.9004459530115128,,,,,,,,,,,,,,,,,,,,,,,,,,,,062719_p1,001,2019_Jun_27_1222,body_behavioural,3.0.4,59.961900079130245,
5,“Have you ever been stung by a scorpion?” she asked him.,2,2,None,,,,0,5,5,5,,,,,0,15,15,15,,,,,,,,,,,,,,,,,,,,,,,,,,,,,,,,,1,1.5200609000166878,,,,,,,,,,,,,,,,,,,,,,,,,,,,062719_p1,001,2019_Jun_27_1222,body_behavioural,3.0.4,59.961900079130245,
5,“What?” he responded confusedly.,2,2,None,,,,0,5,5,5,,,,,0,16,16,16,,,,,,,,,,,,,,,,,,,,,,,,,,,,,,,,,1,0.6862515870016068,,,,,,,,,,,,,,,,,,,,,,,,,,,,062719_p1,001,2019_Jun_27_1222,body_behavioural,3.0.4,59.961900079130245,
5, “A scorpion.”,2,2,None,,,,0,5,5,5,,,,,0,17,17,17,,,,,,,,,,,,,,,,,,,,,,,,,,,,,,,,,1,0.6527869920246303,,,,,,,,,,,,,,,,,,,,,,,,,,,,062719_p1,001,2019_Jun_27_1222,body_behavioural,3.0.4,59.961900079130245,
5,James began to worry that Teresa had possibly suffered a concussion in the door crash.,2,2,None,,,,0,5,5,5,,,,,0,18,18,18,,,,,,,,,,,,,,,,,,,,,,,,,,,,,,,,,1,3.836473674979061,,,,,,,,,,,,,,,,,,,,,,,,,,,,062719_p1,001,2019_Jun_27_1222,body_behavioural,3.0.4,59.961900079130245,
5,"“Uh no, why?” he asked.",2,2,None,,,,0,5,5,5,,,,,0,19,19,19,,,,,,,,,,,,,,,,,,,,,,,,,,,,,,,,,9,2.3030759599641897,,,,,,,,,,,,,,,,,,,,,,,,,,,,062719_p1,001,2019_Jun_27_1222,body_behavioural,3.0.4,59.961900079130245,
5,"“Because I’ve been stung by one, and since then, things like bumping into doors seem like pretty small potatoes.” ",2,2,None,,,,0,5,5,5,,,,,0,20,20,20,,,,,,,,,,,,,,,,,,,,,,,,,,,,,,,,,1,3.136303594976198,,,,,,,,,,,,,,,,,,,,,,,,,,,,062719_p1,001,2019_Jun_27_1222,body_behavioural,3.0.4,59.961900079130245,
5,"They carried on talking, and Teresa told him all about her encounter with a Deathstalker scorpion while she was studying abroad in Egypt.",2,2,None,,,,0,5,5,5,,,,,0,21,21,21,,,,,,,,,,,,,,,,,,,,,,,,,,,,,,,,,1,5.553405400016345,,,,,,,,,,,,,,,,,,,,,,,,,,,,062719_p1,001,2019_Jun_27_1222,body_behavioural,3.0.4,59.961900079130245,
5,"The waitress behind the counter came up to them and asked, “Are you ready for your order?” ",3,2,None,,,,0,5,5,5,,,,,0,22,22,22,,,,,,,,,,,,,,,,,,,,,,,,,,,,,,,,,9,4.052948914992157,,,,,,,,,,,,,,,,,,,,,,,,,,,,062719_p1,001,2019_Jun_27_1222,body_behavioural,3.0.4,59.961900079130245,
5,"She first looked at Teresa who answered, “Yes, I’ll have a salmon roll and a Japanese beer.”",3,2,None,,,,0,5,5,5,,,,,0,23,23,23,,,,,,,,,,,,,,,,,,,,,,,,,,,,,,,,,9,10.720039461972192,,,,,,,,,,,,,,,,,,,,,,,,,,,,062719_p1,001,2019_Jun_27_1222,body_behavioural,3.0.4,59.961900079130245,
5,Then the waitress turned to James.,3,2,None,,,,0,5,5,5,,,,,0,24,24,24,,,,,,,,,,,,,,,,,,,,,,,,,,,,,,,,,1,1.003034852037672,,,,,,,,,,,,,,,,,,,,,,,,,,,,062719_p1,001,2019_Jun_27_1222,body_behavioural,3.0.4,59.961900079130245,
5,"He said, “I’ll have a tuna roll and a vegetable roll.” ",3,2,None,,,,0,5,5,5,,,,,0,25,25,25,,,,,,,,,,,,,,,,,,,,,,,,,,,,,,,,,1,1.886307212000247,,,,,,,,,,,,,,,,,,,,,,,,,,,,062719_p1,001,2019_Jun_27_1222,body_behavioural,3.0.4,59.961900079130245,
5,"“Alright, thank you!” the waitress said.",3,2,None,,,,0,5,5,5,,,,,0,26,26,26,,,,,,,,,,,,,,,,,,,,,,,,,,,,,,,,,1,1.403650093008764,,,,,,,,,,,,,,,,,,,,,,,,,,,,062719_p1,001,2019_Jun_27_1222,body_behavioural,3.0.4,59.961900079130245,
5,"James and Teresa talked about a concert James was going to that night, and he suddenly and nervously invited her to come along.",3,3,None,,,,0,5,5,5,,,,,0,27,27,27,,,,,,,,,,,,,,,,,,,,,,,,,,,,,,,,,1,6.733815366984345,,,,,,,,,,,,,,,,,,,,,,,,,,,,062719_p1,001,2019_Jun_27_1222,body_behavioural,3.0.4,59.961900079130245,
5,He promised her that the concert would be indoors and absolutely free of venomous insects.,3,3,None,,,,0,5,5,5,,,,,0,28,28,28,,,,,,,,,,,,,,,,,,,,,,,,,,,,,,,,,1,2.9364843249786645,,,,,,,,,,,,,,,,,,,,,,,,,,,,062719_p1,001,2019_Jun_27_1222,body_behavioural,3.0.4,59.961900079130245,
5,"Teresa agreed, gave him her number, and they worked out that James would pick her up that evening before the concert and drive them there.",3,3,None,,,,0,5,5,5,,,,,0,29,29,29,,,,,,,,,,,,,,,,,,,,,,,,,,,,,,,,,1,5.7200268800370395,,,,,,,,,,,,,,,,,,,,,,,,,,,,062719_p1,001,2019_Jun_27_1222,body_behavioural,3.0.4,59.961900079130245,
5,"This was not what they had expected from their solitary lunch plans and were both excited, even though Teresa was doing a much better job of hiding it than James. ",3,3,None,,,,0,5,5,5,,,,,0,30,30,30,,,,,,,,,,,,,,,,,,,,,,,,,,,,,,,,,1,7.32038884202484,,,,,,,,,,,,,,,,,,,,,,,,,,,,062719_p1,001,2019_Jun_27_1222,body_behavioural,3.0.4,59.961900079130245,
5,"The waitress brought out their food, placing the plates close to each other so James had to sit closer to Teresa on the bench. ",4,3,None,,,,0,5,5,5,,,,,0,31,31,31,,,,,,,,,,,,,,,,,,,,,,,,,,,,,,,,,1,3.934280469955411,,,,,,,,,,,,,,,,,,,,,,,,,,,,062719_p1,001,2019_Jun_27_1222,body_behavioural,3.0.4,59.961900079130245,
5,Teresa was happy to share the meal with James. ,4,3,None,,,,0,5,5,5,,,,,0,32,32,32,,,,,,,,,,,,,,,,,,,,,,,,,,,,,,,,,1,1.3040382220060565,,,,,,,,,,,,,,,,,,,,,,,,,,,,062719_p1,001,2019_Jun_27_1222,body_behavioural,3.0.4,59.961900079130245,
5,They really enjoyed their rolls because the fish tasted very fresh. ,4,3,None,,,,0,5,5,5,,,,,0,33,33,33,,,,,,,,,,,,,,,,,,,,,,,,,,,,,,,,,1,2.1031270049861632,,,,,,,,,,,,,,,,,,,,,,,,,,,,062719_p1,001,2019_Jun_27_1222,body_behavioural,3.0.4,59.961900079130245,
5,"James looked at his watch and seeing that it was 3pm said, “I have to run- got to finish some errands before the show.”",4,4,None,,,,0,5,5,5,,,,,0,34,34,34,,,,,,,,,,,,,,,,,,,,,,,,,,,,,,,,,9,5.036445180012379,,,,,,,,,,,,,,,,,,,,,,,,,,,,062719_p1,001,2019_Jun_27_1222,body_behavioural,3.0.4,59.961900079130245,
5,See you tonight and watch out for that door!”,4,4,None,,,,0,5,5,5,,,,,0,35,35,35,,,,,,,,,,,,,,,,,,,,,,,,,,,,,,,,,1,1.0037791700451635,,,,,,,,,,,,,,,,,,,,,,,,,,,,062719_p1,001,2019_Jun_27_1222,body_behavioural,3.0.4,59.961900079130245,
5,,,,,,,,0,5,5,5,,,,,,,,,,,,,,,,,,,,,,,,,,,,,,,,,,,,,,,,,,,,,,,,,,,,,,,,,,,,,,,,,,,,,,062719_p1,001,2019_Jun_27_1222,body_behavioural,3.0.4,59.961900079130245,
6,,,,,,,,0,6,6,6,0,0,0,0,,,,,,,,,,,,,,,,,,,,,,,,,,,space,1.469737356994301,space,0.5528423700015992,space,0.9196415199548937,,,,,,,,,,,,,,,,,,,,,,,,,,,,,,,,,,062719_p1,001,2019_Jun_27_1222,body_behavioural,3.0.4,59.961900079130245,
6,"It didn’t help the situation that Calvin and Jessie were running late to the airport, since Jessie had already been fuming at Calvin and preparing to end the relationship with him.",1,1,12.0,,,,0,6,6,6,,,,,0,0,0,0,,,,,,,,,,,,,,,,,,,,,,,,,,,,,space,0.8031099749496207,space,1.0029949779855087,9,13.034792396996636,,,,,,,,,,,,,,,,,,,,,,,,,,,,062719_p1,001,2019_Jun_27_1222,body_behavioural,3.0.4,59.961900079130245,
6,"Upon arriving at their terminal, they had only 45 minutes until their international flight would depart from Jamaica for the US.",1,1,None,,,,0,6,6,6,,,,,0,1,1,1,,,,,,,,,,,,,,,,,,,,,,,,,,,,,,,,,1,6.086437726975419,,,,,,,,,,,,,,,,,,,,,,,,,,,,062719_p1,001,2019_Jun_27_1222,body_behavioural,3.0.4,59.961900079130245,
6,"It had been a tough vacation, which was planned well before Jessie began to think of breaking up 6 weeks ago.  ",1,1,None,,,,0,6,6,6,,,,,0,2,2,2,,,,,,,,,,,,,,,,,,,,,,,,,,,,,,,,,1,5.170503085013479,,,,,,,,,,,,,,,,,,,,,,,,,,,,062719_p1,001,2019_Jun_27_1222,body_behavioural,3.0.4,59.961900079130245,
6,"Calvin knew that Jessie was upset, but wasn't sure what to do besides attempt to carry on as normal.",1,1,None,,,,0,6,6,6,,,,,0,3,3,3,,,,,,,,,,,,,,,,,,,,,,,,,,,,,,,,,9,5.136514712008648,,,,,,,,,,,,,,,,,,,,,,,,,,,,062719_p1,001,2019_Jun_27_1222,body_behavioural,3.0.4,59.961900079130245,
6,"The security line was very short, and once the online boarding passes were scanned, Calvin took off his belt and watch, and they put their bags on the conveyor belt.",2,1,None,,,,0,6,6,6,,,,,0,4,4,4,,,,,,,,,,,,,,,,,,,,,,,,,,,,,,,,,1,4.936175906972494,,,,,,,,,,,,,,,,,,,,,,,,,,,,062719_p1,001,2019_Jun_27_1222,body_behavioural,3.0.4,59.961900079130245,
6,"There was a short halt in security proceedings so that the security guards could change shifts, but, once everything was back in order, they were ushered quickly through the metal detector. ",2,1,None,,,,0,6,6,6,,,,,0,5,5,5,,,,,,,,,,,,,,,,,,,,,,,,,,,,,,,,,1,5.337167925026733,,,,,,,,,,,,,,,,,,,,,,,,,,,,062719_p1,001,2019_Jun_27_1222,body_behavioural,3.0.4,59.961900079130245,
6,"“The infrastructure of this airport is really quite poor," said Calvin as they waited for their bags to emerge from the x-ray machine.",2,1,None,,,,0,6,6,6,,,,,0,6,6,6,,,,,,,,,,,,,,,,,,,,,,,,,,,,,,,,,9,4.686240354960319,,,,,,,,,,,,,,,,,,,,,,,,,,,,062719_p1,001,2019_Jun_27_1222,body_behavioural,3.0.4,59.961900079130245,
6,“I could've hidden something in my shoes quite easily.” ,2,1,None,,,,0,6,6,6,,,,,0,7,7,7,,,,,,,,,,,,,,,,,,,,,,,,,,,,,,,,,1,1.7022515689604916,,,,,,,,,,,,,,,,,,,,,,,,,,,,062719_p1,001,2019_Jun_27_1222,body_behavioural,3.0.4,59.961900079130245,
6,"Jessie, exasperated, scowled at the conveyor belt.",2,1,None,,,,0,6,6,6,,,,,0,8,8,8,,,,,,,,,,,,,,,,,,,,,,,,,,,,,,,,,1,1.3007240970036946,,,,,,,,,,,,,,,,,,,,,,,,,,,,062719_p1,001,2019_Jun_27_1222,body_behavioural,3.0.4,59.961900079130245,
6,“What?” he asked.,2,1,None,,,,0,6,6,6,,,,,0,9,9,9,,,,,,,,,,,,,,,,,,,,,,,,,,,,,,,,,1,0.6196009070263244,,,,,,,,,,,,,,,,,,,,,,,,,,,,062719_p1,001,2019_Jun_27_1222,body_behavioural,3.0.4,59.961900079130245,
6,"Balling up her fists and turning to him angrily, she said, “Calvin, I really don’t think I can do this anymore because I don’t think our personalities are compatible. ",2,2,None,,,,0,6,6,6,,,,,0,10,10,10,,,,,,,,,,,,,,,,,,,,,,,,,,,,,,,,,1,4.753105089999735,,,,,,,,,,,,,,,,,,,,,,,,,,,,062719_p1,001,2019_Jun_27_1222,body_behavioural,3.0.4,59.961900079130245,
6,I think it’s best that once we get to the States we part ways for good.” ,2,2,None,,,,0,6,6,6,,,,,0,11,11,11,,,,,,,,,,,,,,,,,,,,,,,,,,,,,,,,,9,4.03657893196214,,,,,,,,,,,,,,,,,,,,,,,,,,,,062719_p1,001,2019_Jun_27_1222,body_behavioural,3.0.4,59.961900079130245,
6,Calvin said nothing as he grabbed his bag.,3,2,None,,,,0,6,6,6,,,,,0,12,12,12,,,,,,,,,,,,,,,,,,,,,,,,,,,,,,,,,1,1.0529949750052765,,,,,,,,,,,,,,,,,,,,,,,,,,,,062719_p1,001,2019_Jun_27_1222,body_behavioural,3.0.4,59.961900079130245,
6,Jessie trailed behind him as they hurried their way quickly toward gate A28.,3,2,None,,,,0,6,6,6,,,,,0,13,13,13,,,,,,,,,,,,,,,,,,,,,,,,,,,,,,,,,1,6.836016519984696,,,,,,,,,,,,,,,,,,,,,,,,,,,,062719_p1,001,2019_Jun_27_1222,body_behavioural,3.0.4,59.961900079130245,
6,“So now you have nothing to say?” Jessie said. ,3,2,None,,,,0,6,6,6,,,,,0,14,14,14,,,,,,,,,,,,,,,,,,,,,,,,,,,,,,,,,1,2.0847615779493935,,,,,,,,,,,,,,,,,,,,,,,,,,,,062719_p1,001,2019_Jun_27_1222,body_behavioural,3.0.4,59.961900079130245,
6,"Calvin didn't answer, gritting his teeth and staring straight ahead. ",3,2,None,,,,0,6,6,6,,,,,0,15,15,15,,,,,,,,,,,,,,,,,,,,,,,,,,,,,,,,,1,10.737564112991095,,,,,,,,,,,,,,,,,,,,,,,,,,,,062719_p1,001,2019_Jun_27_1222,body_behavioural,3.0.4,59.961900079130245,
6,"He was very frustrated that he felt he had been trying to appease Jessie for the entirety of the vacation, and it seemed to be completed unappreciated. ",3,2,None,,,,0,6,6,6,,,,,0,16,16,16,,,,,,,,,,,,,,,,,,,,,,,,,,,,,,,,,9,5.5862325899652205,,,,,,,,,,,,,,,,,,,,,,,,,,,,062719_p1,001,2019_Jun_27_1222,body_behavioural,3.0.4,59.961900079130245,
6,"Their silence was punctuated only by the rapid, rhythmic clacking of their suitcase wheels over the tile floor as they continued power-walking through the terminal. ",3,2,None,,,,0,6,6,6,,,,,0,17,17,17,,,,,,,,,,,,,,,,,,,,,,,,,,,,,,,,,1,5.336749275040347,,,,,,,,,,,,,,,,,,,,,,,,,,,,062719_p1,001,2019_Jun_27_1222,body_behavioural,3.0.4,59.961900079130245,
6,"Calvin finally turned to address her as they continued walking: “Jessie, this makes perfect sense. ",3,3,None,,,,0,6,6,6,,,,,0,18,18,18,,,,,,,,,,,,,,,,,,,,,,,,,,,,,,,,,1,3.3197803220245987,,,,,,,,,,,,,,,,,,,,,,,,,,,,062719_p1,001,2019_Jun_27_1222,body_behavioural,3.0.4,59.961900079130245,
6,"If you feel this way, then I think we should break up because I don’t want to keep boring you.",3,3,None,,,,0,6,6,6,,,,,0,19,19,19,,,,,,,,,,,,,,,,,,,,,,,,,,,,,,,,,1,2.7030262309708633,,,,,,,,,,,,,,,,,,,,,,,,,,,,062719_p1,001,2019_Jun_27_1222,body_behavioural,3.0.4,59.961900079130245,
6,"I agree, let’s part ways once we make it back.",3,3,None,,,,0,6,6,6,,,,,0,20,20,20,,,,,,,,,,,,,,,,,,,,,,,,,,,,,,,,,1,1.9870525629958138,,,,,,,,,,,,,,,,,,,,,,,,,,,,062719_p1,001,2019_Jun_27_1222,body_behavioural,3.0.4,59.961900079130245,
6,You should’ve spoken up about my apparent intolerability before you decided to plan this vacation.”,3,3,None,,,,0,6,6,6,,,,,0,21,21,21,,,,,,,,,,,,,,,,,,,,,,,,,,,,,,,,,1,3.3532307800487615,,,,,,,,,,,,,,,,,,,,,,,,,,,,062719_p1,001,2019_Jun_27_1222,body_behavioural,3.0.4,59.961900079130245,
6,"He was very hurt, even though he didn’t want to show it. ",3,3,None,,,,0,6,6,6,,,,,0,22,22,22,,,,,,,,,,,,,,,,,,,,,,,,,,,,,,,,,9,2.967466461996082,,,,,,,,,,,,,,,,,,,,,,,,,,,,062719_p1,001,2019_Jun_27_1222,body_behavioural,3.0.4,59.961900079130245,
6,"Having made it to their gate, they scanned their tickets, and the annoyed flight attendant shooed them onto the jet bridge and then closed the plane door behind them.",4,3,None,,,,0,6,6,6,,,,,0,23,23,23,,,,,,,,,,,,,,,,,,,,,,,,,,,,,,,,,1,5.236647464975249,,,,,,,,,,,,,,,,,,,,,,,,,,,,062719_p1,001,2019_Jun_27_1222,body_behavioural,3.0.4,59.961900079130245,
6,"Luckily, they had forgotten to arrange seats next to each other on the flight back.",4,3,None,,,,0,6,6,6,,,,,0,24,24,24,,,,,,,,,,,,,,,,,,,,,,,,,,,,,,,,,1,4.520040854986291,,,,,,,,,,,,,,,,,,,,,,,,,,,,062719_p1,001,2019_Jun_27_1222,body_behavioural,3.0.4,59.961900079130245,
6,"They were both in economy, but Jessie was headed for seat 33A while Calvin's seat was 33F. ",4,3,None,,,,0,6,6,6,,,,,0,25,25,25,,,,,,,,,,,,,,,,,,,,,,,,,,,,,,,,,1,1.5698847500025295,,,,,,,,,,,,,,,,,,,,,,,,,,,,062719_p1,001,2019_Jun_27_1222,body_behavioural,3.0.4,59.961900079130245,
6,"Before Jessie sat down, she took a deep breath, calmed her emotions, and then awkwardly shook Calvin’s hand, mumbling, “Have a nice flight. ",4,4,None,,,,0,6,6,6,,,,,0,26,26,26,,,,,,,,,,,,,,,,,,,,,,,,,,,,,,,,,1,4.836237324983813,,,,,,,,,,,,,,,,,,,,,,,,,,,,062719_p1,001,2019_Jun_27_1222,body_behavioural,3.0.4,59.961900079130245,
6,"Oh, and when you get a chance, could you send me back all the philosophy books I lent you?”",4,4,None,,,,0,6,6,6,,,,,0,27,27,27,,,,,,,,,,,,,,,,,,,,,,,,,,,,,,,,,1,3.2508927970193326,,,,,,,,,,,,,,,,,,,,,,,,,,,,062719_p1,001,2019_Jun_27_1222,body_behavioural,3.0.4,59.961900079130245,
6,He laughed in disbelief and walked to his window seat three rows back to get ready for takeoff.,4,4,None,,,,0,6,6,6,,,,,0,28,28,28,,,,,,,,,,,,,,,,,,,,,,,,,,,,,,,,,9,2.8532670270069502,,,,,,,,,,,,,,,,,,,,,,,,,,,,062719_p1,001,2019_Jun_27_1222,body_behavioural,3.0.4,59.961900079130245,
6,Both were upset but glad that they would have this flight in solitude.,4,4,None,,,,0,6,6,6,,,,,0,29,29,29,,,,,,,,,,,,,,,,,,,,,,,,,,,,,,,,,1,2.350798567000311,,,,,,,,,,,,,,,,,,,,,,,,,,,,062719_p1,001,2019_Jun_27_1222,body_behavioural,3.0.4,59.961900079130245,
6,,,,,,,,0,6,6,6,,,,,,,,,,,,,,,,,,,,,,,,,,,,,,,,,,,,,,,,,,,,,,,,,,,,,,,,,,,,,,,,,,,,,,062719_p1,001,2019_Jun_27_1222,body_behavioural,3.0.4,59.961900079130245,
7,,,,,,,,0,7,7,7,0,0,0,0,,,,,,,,,,,,,,,,,,,,,,,,,,,space,1.386111747007817,space,0.7031408249749802,space,1.1857143649831414,,,,,,,,,,,,,,,,,,,,,,,,,,,,,,,,,,062719_p1,001,2019_Jun_27_1222,body_behavioural,3.0.4,59.961900079130245,
7,"Alvira and Senna walked into the restaurant hand in sweaty hand with quite different expectations for the night because Senna, after 5 years of dating, was going to propose, and Alvira had no idea.",1.0,1.0,21.0,None,None,,0,7,7,7,,,,,0,0,0,0,,,,,,,,,,,,,,,,,,,,,,,,,,,,,space,0.5028923719655722,space,0.5524238800280727,9,11.45153990999097,,,,,,,,,,,,,,,,,,,,,,,,,,,,062719_p1,001,2019_Jun_27_1222,body_behavioural,3.0.4,59.961900079130245,
7,"He took a deep breath, trying to calm his nerves as worst case scenarios ran through his mind. ",1.0,1.0,None,None,None,,0,7,7,7,,,,,0,1,1,1,,,,,,,,,,,,,,,,,,,,,,,,,,,,,,,,,1,2.5864612400182523,,,,,,,,,,,,,,,,,,,,,,,,,,,,062719_p1,001,2019_Jun_27_1222,body_behavioural,3.0.4,59.961900079130245,
7,The restaurant was on the beach and had floor-to-ceiling arched windows that framed an incredible view of the Pacific Ocean.,1.0,1.0,None,None,None,,0,7,7,7,,,,,0,2,2,2,,,,,,,,,,,,,,,,,,,,,,,,,,,,,,,,,1,3.667547387012746,,,,,,,,,,,,,,,,,,,,,,,,,,,,062719_p1,001,2019_Jun_27_1222,body_behavioural,3.0.4,59.961900079130245,
7,"Besides the view, the restaurant itself was beautiful- crystal chandeliers hung from the high ceiling above small tables covered with white table clothes.
",1.0,1.0,None,None,None,,0,7,7,7,,,,,0,3,3,3,,,,,,,,,,,,,,,,,,,,,,,,,,,,,,,,,1,9.270183712011203,,,,,,,,,,,,,,,,,,,,,,,,,,,,062719_p1,001,2019_Jun_27_1222,body_behavioural,3.0.4,59.961900079130245,
7,This was surely one of the best restaurants on the West Coast.,1.0,1.0,None,None,None,,0,7,7,7,,,,,0,4,4,4,,,,,,,,,,,,,,,,,,,,,,,,,,,,,,,,,9,2.986438147025183,,,,,,,,,,,,,,,,,,,,,,,,,,,,062719_p1,001,2019_Jun_27_1222,body_behavioural,3.0.4,59.961900079130245,
7,"After Senna gave his name to the host, who discretely winked at Senna, they were seated at a table right by the window. ",2.0,1.0,None,7.0,None,,0,7,7,7,,,,,0,5,5,5,,,,,,,,,,,,,,,,,,,,,,,,,,,,,,,,,1,3.936396266974043,,,,,,,,,,,,,,,,,,,,,,,,,,,,062719_p1,001,2019_Jun_27_1222,body_behavioural,3.0.4,59.961900079130245,
7,The waiter brought out some very small menus.,2.0,1.0,None,None,9.0,,0,7,7,7,,,,,0,6,6,6,,,,,,,,,,,,,,,,,,,,,,,,,,,,,,,,,1,2.21750027500093,,,,,,,,,,,,,,,,,,,,,,,,,,,,062719_p1,001,2019_Jun_27_1222,body_behavioural,3.0.4,59.961900079130245,
7,"They consisted of a short list of the head chef's carefully selected daily dishes written in a loopy, cursive font unadorned by any mention of prices.",None,None,None,None,None,,0,7,7,7,,,,,0,7,7,7,,,,,,,,,,,,,,,,,,,,,,,,,,,,,,,,,1,4.951066547015216,,,,,,,,,,,,,,,,,,,,,,,,,,,,062719_p1,001,2019_Jun_27_1222,body_behavioural,3.0.4,59.961900079130245,
7,"Senna got nervous about the ring, and he slipped off to the bathroom to check to make sure it looked alright.",2.0,2.0,None,None,None,,0,7,7,7,,,,,0,8,8,8,,,,,,,,,,,,,,,,,,,,,,,,,,,,,,,,,1,6.003316479967907,,,,,,,,,,,,,,,,,,,,,,,,,,,,062719_p1,001,2019_Jun_27_1222,body_behavioural,3.0.4,59.961900079130245,
7,The ring contained three canary yellow diamonds that had been in his grandmother’s wedding ring. ,2.0,2.0,None,None,None,,0,7,7,7,,,,,0,9,9,9,,,,,,,,,,,,,,,,,,,,,,,,,,,,,,,,,9,5.370064140006434,,,,,,,,,,,,,,,,,,,,,,,,,,,,062719_p1,001,2019_Jun_27_1222,body_behavioural,3.0.4,59.961900079130245,
7,"After Senna had gotten back to the table, the waiter appeared at their table to take their order.",3.0,2.0,None,None,None,,0,7,7,7,,,,,0,10,10,10,,,,,,,,,,,,,,,,,,,,,,,,,,,,,,,,,1,2.769455560017377,,,,,,,,,,,,,,,,,,,,,,,,,,,,062719_p1,001,2019_Jun_27_1222,body_behavioural,3.0.4,59.961900079130245,
7,"Senna ordered the oysters with garlic-parmesan sauce, and Alvira ordered the sauteed sea scallops with caramelized apples. ",3.0,2.0,None,None,None,,0,7,7,7,,,,,0,11,11,11,,,,,,,,,,,,,,,,,,,,,,,,,,,,,,,,,1,4.719478500017431,,,,,,,,,,,,,,,,,,,,,,,,,,,,062719_p1,001,2019_Jun_27_1222,body_behavioural,3.0.4,59.961900079130245,
7,"“Excellent choices,” the waiter said, and he left.",3.0,2.0,None,None,None,,0,7,7,7,,,,,0,12,12,12,,,,,,,,,,,,,,,,,,,,,,,,,,,,,,,,,1,1.0839942650054581,,,,,,,,,,,,,,,,,,,,,,,,,,,,062719_p1,001,2019_Jun_27_1222,body_behavioural,3.0.4,59.961900079130245,
7,"“What a beautiful place, Senna. ",3.0,2.0,None,None,None,,0,7,7,7,,,,,0,13,13,13,,,,,,,,,,,,,,,,,,,,,,,,,,,,,,,,,1,1.5364227100508288,,,,,,,,,,,,,,,,,,,,,,,,,,,,062719_p1,001,2019_Jun_27_1222,body_behavioural,3.0.4,59.961900079130245,
7,"This is too much just to celebrate the first tomatoes I grew in the garden- really, this is absurd,” Alvira said.",3.0,2.0,None,None,None,,0,7,7,7,,,,,0,14,14,14,,,,,,,,,,,,,,,,,,,,,,,,,,,,,,,,,1,3.8515540650114417,,,,,,,,,,,,,,,,,,,,,,,,,,,,062719_p1,001,2019_Jun_27_1222,body_behavioural,3.0.4,59.961900079130245,
7,"Senna laughed and said, “No, those were really the best tomatoes I’ve ever had. ",3.0,2.0,None,None,None,,0,7,7,7,,,,,0,15,15,15,,,,,,,,,,,,,,,,,,,,,,,,,,,,,,,,,9,2.286306712019723,,,,,,,,,,,,,,,,,,,,,,,,,,,,062719_p1,001,2019_Jun_27_1222,body_behavioural,3.0.4,59.961900079130245,
7,We had to celebrate.” ,3.0,2.0,None,None,None,,0,7,7,7,,,,,0,16,16,16,,,,,,,,,,,,,,,,,,,,,,,,,,,,,,,,,1,1.386450674966909,,,,,,,,,,,,,,,,,,,,,,,,,,,,062719_p1,001,2019_Jun_27_1222,body_behavioural,3.0.4,59.961900079130245,
7,"They talked and laughed as the sun sank below the horizon, lighting up the sky and water, and slowly the glow from the windows was replaced by the chandeliers.",3.0,2.0,None,8.0,None,,0,7,7,7,,,,,0,17,17,17,,,,,,,,,,,,,,,,,,,,,,,,,,,,,,,,,1,5.453502144955564,,,,,,,,,,,,,,,,,,,,,,,,,,,,062719_p1,001,2019_Jun_27_1222,body_behavioural,3.0.4,59.961900079130245,
7,The waiter returned with their dishes.,4.0,2.0,None,None,None,,0,7,7,7,,,,,0,18,18,18,,,,,,,,,,,,,,,,,,,,,,,,,,,,,,,,,1,2.6365115719963796,,,,,,,,,,,,,,,,,,,,,,,,,,,,062719_p1,001,2019_Jun_27_1222,body_behavioural,3.0.4,59.961900079130245,
7,"Everything was even more delicious than they had expected, especially the oysters, which Senna said tasted like the ocean. ",4.0,2.0,None,None,None,,0,7,7,7,,,,,0,19,19,19,,,,,,,,,,,,,,,,,,,,,,,,,,,,,,,,,9,3.9837907710461877,,,,,,,,,,,,,,,,,,,,,,,,,,,,062719_p1,001,2019_Jun_27_1222,body_behavioural,3.0.4,59.961900079130245,
7," As they were eating, Senna recounted to Alvira how they had met, and he told her in many words how much he loved her and what he loved about her, almost tearing up at moments. ",4.0,2.0,None,None,None,,0,7,7,7,,,,,0,20,20,20,,,,,,,,,,,,,,,,,,,,,,,,,,,,,,,,,1,6.986397931992542,,,,,,,,,,,,,,,,,,,,,,,,,,,,062719_p1,001,2019_Jun_27_1222,body_behavioural,3.0.4,59.961900079130245,
7,"When they had finished eating, Senna nodded at the waiter who had been watching attentively, and he quickly strode over to place a small, elegant cake topped with the ring in front of Alvira. ",4.0,3.0,None,None,None,,0,7,7,7,,,,,0,21,21,21,,,,,,,,,,,,,,,,,,,,,,,,,,,,,,,,,1,6.886735779989976,,,,,,,,,,,,,,,,,,,,,,,,,,,,062719_p1,001,2019_Jun_27_1222,body_behavioural,3.0.4,59.961900079130245,
7,Her eyes widened in shock when she realized what she was looking at.,4.0,3.0,None,None,None,,0,7,7,7,,,,,0,22,22,22,,,,,,,,,,,,,,,,,,,,,,,,,,,,,,,,,1,2.1363684939569794,,,,,,,,,,,,,,,,,,,,,,,,,,,,062719_p1,001,2019_Jun_27_1222,body_behavioural,3.0.4,59.961900079130245,
7,"Senna got down on one knee and said,“Alvira, will you marry me? ",4.0,3.0,None,None,None,,0,7,7,7,,,,,0,23,23,23,,,,,,,,,,,,,,,,,,,,,,,,,,,,,,,,,9,2.4362726300023496,,,,,,,,,,,,,,,,,,,,,,,,,,,,062719_p1,001,2019_Jun_27_1222,body_behavioural,3.0.4,59.961900079130245,
7,"I love you, and I will never stop loving you.” ",4.0,3.0,None,None,None,,0,7,7,7,,,,,0,24,24,24,,,,,,,,,,,,,,,,,,,,,,,,,,,,,,,,,1,1.0507380550261587,,,,,,,,,,,,,,,,,,,,,,,,,,,,062719_p1,001,2019_Jun_27_1222,body_behavioural,3.0.4,59.961900079130245,
7,"After a few moments with everyone turned and looking at Elvira in expectation, she exclaimed, “Yes, of course, yes!”",4.0,4.0,None,None,None,,0,7,7,7,,,,,0,25,25,25,,,,,,,,,,,,,,,,,,,,,,,,,,,,,,,,,1,2.6870629119803198,,,,,,,,,,,,,,,,,,,,,,,,,,,,062719_p1,001,2019_Jun_27_1222,body_behavioural,3.0.4,59.961900079130245,
7,She hugged Senna with tears flowing down her cheeks. ,4.0,4.0,None,None,None,,0,7,7,7,,,,,0,26,26,26,,,,,,,,,,,,,,,,,,,,,,,,,,,,,,,,,1,1.5193244999973103,,,,,,,,,,,,,,,,,,,,,,,,,,,,062719_p1,001,2019_Jun_27_1222,body_behavioural,3.0.4,59.961900079130245,
7,"The other guests exploded in applause, and the waiter returned with a bottle of champagne and popped it.",4.0,4.0,None,None,None,,0,7,7,7,,,,,0,27,27,27,,,,,,,,,,,,,,,,,,,,,,,,,,,,,,,,,1,2.902750942041166,,,,,,,,,,,,,,,,,,,,,,,,,,,,062719_p1,001,2019_Jun_27_1222,body_behavioural,3.0.4,59.961900079130245,
7,Senna slipped the ring onto Alvira’s finger and she held up her hand to admire it.,4.0,4.0,None,None,None,,0,7,7,7,,,,,0,28,28,28,,,,,,,,,,,,,,,,,,,,,,,,,,,,,,,,,1,1.7361367100384086,,,,,,,,,,,,,,,,,,,,,,,,,,,,062719_p1,001,2019_Jun_27_1222,body_behavioural,3.0.4,59.961900079130245,
7,“I need to text my dad and tell him!” she sang. ,4.0,4.0,None,None,None,,0,7,7,7,,,,,0,29,29,29,,,,,,,,,,,,,,,,,,,,,,,,,,,,,,,,,1,1.1864062700187787,,,,,,,,,,,,,,,,,,,,,,,,,,,,062719_p1,001,2019_Jun_27_1222,body_behavioural,3.0.4,59.961900079130245,
7,The whole restaurant proceeded in cheers with them to celebrate the joyous occasion.  ,4.0,4.0,None,None,None,,0,7,7,7,,,,,0,30,30,30,,,,,,,,,,,,,,,,,,,,,,,,,,,,,,,,,1,5.436786909995135,,,,,,,,,,,,,,,,,,,,,,,,,,,,062719_p1,001,2019_Jun_27_1222,body_behavioural,3.0.4,59.961900079130245,
7,,,,,,,,0,7,7,7,,,,,,,,,,,,,,,,,,,,,,,,,,,,,,,,,,,,,,,,,,,,,,,,,,,,,,,,,,,,,,,,,,,,,,062719_p1,001,2019_Jun_27_1222,body_behavioural,3.0.4,59.961900079130245,
,,,,,,,,,,,,,,,,,,,,,,,,,,,,,,,,,,,,,,,,,,,,,,,,,,,,,,1540.2075009419932,space,1.6696528469910845,,,,,,,,,,,,,,,,,,,,,,,,,062719_p1,001,2019_Jun_27_1222,body_behavioural,3.0.4,59.961900079130245,
,,,,,,,"In this next part of the experiment, please recall each story to the best of your ability.",,,,,,,,,,,,,0,0,0,0,,,,,,,,,,,,,,,,,,,,,,,,,,,,,,,,,,space,2.7529496399802156,,,,,,,,,,,,,,,,,,,,,,,062719_p1,001,2019_Jun_27_1222,body_behavioural,3.0.4,59.961900079130245,
,,,,,,,"You will be presented with the story title, names, the images, and a blank text box for each story.",,,,,,,,,,,,,0,1,1,1,,,,,,,,,,,,,,,,,,,,,,,,,,,,,,,,,,space,2.569260607007891,,,,,,,,,,,,,,,,,,,,,,,062719_p1,001,2019_Jun_27_1222,body_behavioural,3.0.4,59.961900079130245,
,,,,,,,Describe the story indicated with as many details as you can remember in the space provided. ,,,,,,,,,,,,,0,2,2,2,,,,,,,,,,,,,,,,,,,,,,,,,,,,,,,,,,space,3.636411270010285,,,,,,,,,,,,,,,,,,,,,,,062719_p1,001,2019_Jun_27_1222,body_behavioural,3.0.4,59.961900079130245,
,,,,,,,"When you are finished recalling one story, to move onto the next one, press the ‘return’ key. ",,,,,,,,,,,,,0,3,3,3,,,,,,,,,,,,,,,,,,,,,,,,,,,,,,,,,,space,6.503380830050446,,,,,,,,,,,,,,,,,,,,,,,062719_p1,001,2019_Jun_27_1222,body_behavioural,3.0.4,59.961900079130245,
,,,,,,,There is a 5 minute time limit to make your response. ,,,,,,,,,,,,,0,4,4,4,,,,,,,,,,,,,,,,,,,,,,,,,,,,,,,,,,space,1.836506859981455,,,,,,,,,,,,,,,,,,,,,,,062719_p1,001,2019_Jun_27_1222,body_behavioural,3.0.4,59.961900079130245,
,,,,,,,Please note that you will not be able to capitalize any letters except for the first letter of your answer. This will not effect the scoring of your recall answer.,,,,,,,,,,,,,0,5,5,5,,,,,,,,,,,,,,,,,,,,,,,,,,,,,,,,,,space,4.367708780046087,,,,,,,,,,,,,,,,,,,,,,,062719_p1,001,2019_Jun_27_1222,body_behavioural,3.0.4,59.961900079130245,
0,,,,,,,,,,,,,,,,,,,,,,,,0,0,0,0,,,,,,,,,,,,,,,,,,,,,,,,,,,,,,,,space,1.2192383069777861,They meet in a grocery stor because morrison believes in doing business at the place where her products are. bianchi is from italy and is a big shot cheese person and morrison is some senior executive at a grocery store and makes it a point to know all her employees. she is worried about taxes but ultimately they make a 20000 dollar agreement. one of them brought champagne in their bags. bianchi also argues that better cheese will expand her olive and cracker business. they secure their deal by buying some groceries and popping champagne,,,,,,,,,,,,,,,,,,,,062719_p1,001,2019_Jun_27_1222,body_behavioural,3.0.4,59.961900079130245,
1,,,,,,,,,,,,,,,,,,,,,,,,0,1,1,1,,,,,,,,,,,,,,,,,,,,,,,,,,,,,,,,space,1.336426570022013,There is a lot of winking in this story. the lecture hall is in princeton it is very fancy it is where they had a class together freshman year. they have a midterm due the next week. aaron sent the teacher a collage of pics of him and lana to display on the projector and makes a pun about bonding because they were learning about bonds and asks her to get married in front of everyone and she says yes and texts her sister about it.,,,,,,,,,,,,,,,,,,,,062719_p1,001,2019_Jun_27_1222,body_behavioural,3.0.4,59.961900079130245,
2,,,,,,,,,,,,,,,,,,,,,,,,0,2,2,2,,,,,,,,,,,,,,,,,,,,,,,,,,,,,,,,space,1.0366940049570985,The store is a weird organic place with pine shelves. emmanuella buys bow tie pasta and vodka sauce and something else and she and liam really do not like each other and are not having a great time and it's been months since either of them have been happy and it culminates during the pasta shopping for the dinner party but they decide to have the dinner party anyway. they argue about who gets the cat luna. they go through cash register 8 although several are open.,,,,,,,,,,,,,,,,,,,,062719_p1,001,2019_Jun_27_1222,body_behavioural,3.0.4,59.961900079130245,
3,,,,,,,,,,,,,,,,,,,,,,,,0,3,3,3,,,,,,,,,,,,,,,,,,,,,,,,,,,,,,,,space,2.6364897069870494,"These guys met last night at some bar where they realized they are both wine business guys. they have 2 hours when they get to the airport. there is no hold up in security that i remember. they go towards gate a8 talking about the east coast west coast wine game, they are flying out of boston. i think jeff ends up sitting in seat 4a and he texts his business guys about wine then drinks some champagne to celebrate",,,,,,,,,,,,,,,,,,,,062719_p1,001,2019_Jun_27_1222,body_behavioural,3.0.4,59.961900079130245,
4,,,,,,,,,,,,,,,,,,,,,,,,0,4,4,4,,,,,,,,,,,,,,,,,,,,,,,,,,,,,,,,space,0.7193812149926089,Leon creepily fixates on ariana on his first day of college. he thinks she's from la so he passes her a bunch of notes during their history of egypt class and she makes a joke about having a twin. there are no windows in the class room. they decide to go on a walk together at 8 that night. she likes him when she notices him. ,,,,,,,,,,,,,,,,,,,,062719_p1,001,2019_Jun_27_1222,body_behavioural,3.0.4,59.961900079130245,
5,,,,,,,,,,,,,,,,,,,,,,,,0,5,5,5,,,,,,,,,,,,,,,,,,,,,,,,,,,,,,,,space,1.1364083819789812,Teresa bumps into the door on her way  to the restaurant. the menus are neon color and the decor is a lot of branches. they leave each other at 3pm and teresa seems angry at everyone but it's lunch time and they sit at the bar together and james awkwardly persuades her to go to a concert that night and she is much better at keeping her cool than him. they both get rolls and teresa also gets a doublequotejapanesebeer,,,,,,,,,,,,,,,,,,,,062719_p1,001,2019_Jun_27_1222,body_behavioural,3.0.4,59.961900079130245,
6,,,,,,,,,,,,,,,,,,,,,,,,0,6,6,6,,,,,,,,,,,,,,,,,,,,,,,,,,,,,,,,space,3.2535604129661806,They are leaving their vacation in jamaica and things are tense. they only have 45min to get through security so they are stressed and jessie wants to break up. calvin was kind of anticipating it but he blames her for not being a better communicator. she has been unhappy for six weeks. they don't sit together on the airplane which they are both thankful for.,,,,,,,,,,,,,,,,,,,,062719_p1,001,2019_Jun_27_1222,body_behavioural,3.0.4,59.961900079130245,
7,,,,,,,,,,,,,,,,,,,,,,,,0,7,7,7,,,,,,,,,,,,,,,,,,,,,,,,,,,,,,,,space,0.786975542025175,"The restaurant has a great view of the pacific ocean and chandeliers and delicious food, oysters that taste like the sea. senna said they were celebrating her tomato plants but he has a ring that has yellow stones because she is a traditional person unlike the avant garde ring that the princeton people used. he goes to the bathroom to make sure it looks right and the waiter winks at alvira. they have been dating for five years. he proposes and she says yes",,,,,,,,,,,,,,,,,,,,062719_p1,001,2019_Jun_27_1222,body_behavioural,3.0.4,59.961900079130245,
,,,,,,,,,,,,,,,,,,,,,,,,,,,,,,,,,,,,,,,,,,,,,,,,,,,,,,,,,,,,,,2511.687528967974,space,1.1867946819984354,,,,,,,,,,,,,,,,,062719_p1,001,2019_Jun_27_1222,body_behavioural,3.0.4,59.961900079130245,
,,,,,,,"In this last part of the experiment, please answer 8 questions about each story.",,,,,,,,,,,,,,,,,,,,,0,0,0,0,,,,,,,,,,,,,,,,,,,,,,,,,,,,,,,,,,space,2.4197462900192477,,,,,,,,,,,,,,,062719_p1,001,2019_Jun_27_1222,body_behavioural,3.0.4,59.961900079130245,
,,,,,,,Some of the questions are not related to the perspective you were asked to assume.,,,,,,,,,,,,,,,,,,,,,0,1,1,1,,,,,,,,,,,,,,,,,,,,,,,,,,,,,,,,,,space,2.7856825300259516,,,,,,,,,,,,,,,062719_p1,001,2019_Jun_27_1222,body_behavioural,3.0.4,59.961900079130245,
,,,,,,,"We realize that we did not tell you to think of these questions during the story, but please do your best to answer them.",,,,,,,,,,,,,,,,,,,,,0,2,2,2,,,,,,,,,,,,,,,,,,,,,,,,,,,,,,,,,,space,3.219830997986719,,,,,,,,,,,,,,,062719_p1,001,2019_Jun_27_1222,body_behavioural,3.0.4,59.961900079130245,
,,,,,,,"When you have finished typing your answer, hit ‘return’ to submit your answer and move onto the next question. ",,,,,,,,,,,,,,,,,,,,,0,3,3,3,,,,,,,,,,,,,,,,,,,,,,,,,,,,,,,,,,space,2.6698188650188968,,,,,,,,,,,,,,,062719_p1,001,2019_Jun_27_1222,body_behavioural,3.0.4,59.961900079130245,
0,,,,,,,,,,,,,,,,,,,,,,,,,,,,,,,,0,0,0,0,,,,,,,,,,,,,,,,,,,,,,,,,,Cash 27dollars,,,,,,space,2.4032452949904837,Bianchi is a cheese executive person and morrison is senior official of grocery store,primed first,The initial offer is 1500,Don't remember,Champagne,Busy ,Crackers and cheese and ketchup for later,They step into the 4th one i think it's the only one open,Cash 27dollars,,,,062719_p1,001,2019_Jun_27_1222,body_behavioural,3.0.4,59.961900079130245,
1,,,,,,,,,,,,,,,,,,,,,,,,,,,,,,,,0,1,1,1,,,,,,,,,,,,,,,,,,,,,,,,,,Sister,,,,,,space,0.8193971299915574,Fancy princeton no chalk boards,primed first,Introduction to chemistry some kind of bonds,Some bond things,Midterm next week,3,6 weird stones,Notebook,Sister,,,,062719_p1,001,2019_Jun_27_1222,body_behavioural,3.0.4,59.961900079130245,
2,,,,,,,,,,,,,,,,,,,,,,,,,,,,,,,,0,2,2,2,,,,,,,,,,,,,,,,,,,,,,,,,,30 credit card,,,,,,space,1.052894187043421,4 months,non-primed first,Incompatible personalities,He agrees,The cat luna,Organic pine shelves,Bow tie pasta vodka sauce,Number 8 and all are open,30 credit card,,,,062719_p1,001,2019_Jun_27_1222,body_behavioural,3.0.4,59.961900079130245,
3,,,,,,,,,,,,,,,,,,,,,,,,,,,,,,,,0,3,3,3,,,,,,,,,,,,,,,,,,,,,,,,,,Handshake,,,,,,space,0.9201674950309098,2 hours,primed first,None,A8,4a,Wine businessmen,800,Orange ,Handshake,,,,062719_p1,001,2019_Jun_27_1222,body_behavioural,3.0.4,59.961900079130245,
4,,,,,,,,,,,,,,,,,,,,,,,,,,,,,,,,0,4,4,4,,,,,,,,,,,,,,,,,,,,,,,,,,Reading for tomorrow,,,,,,space,0.7696120799519122,Notes,primed first,Are you from la,8pm tonight,Morning,No windows,History of egypt mummification,Mummification is misunderstoof,Reading for tomorrow,,,,062719_p1,001,2019_Jun_27_1222,body_behavioural,3.0.4,59.961900079130245,
5,,,,,,,,,,,,,,,,,,,,,,,,,,,,,,,,0,5,5,5,,,,,,,,,,,,,,,,,,,,,,,,,,A lot because the fish is fresh,,,,,,space,0.8025518269860186,Head bump,non-primed first,Is your forehead ok,Tonight for concert,3pm,Tree branches,Neon,"Vegetable, salmon, tuna rolls and japanese beer",A lot because the fish is fresh,,,,062719_p1,001,2019_Jun_27_1222,body_behavioural,3.0.4,59.961900079130245,
6,,,,,,,,,,,,,,,,,,,,,,,,,,,,,,,,0,6,6,6,,,,,,,,,,,,,,,,,,,,,,,,,,Philosophy books,,,,,,space,0.7696748530142941,45min,non-primed first,Bad infrastructure calvin is racist,3b,Different ones,6 weeks,Incompatible personalities,He is salty about it but accepts it,Philosophy books,,,,062719_p1,001,2019_Jun_27_1222,body_behavioural,3.0.4,59.961900079130245,
7,,,,,,,,,,,,,,,,,,,,,,,,,,,,,,,,0,7,7,7,,,,,,,,,,,,,,,,,,,,,,,,,,A lot because it tastes like ocean,,,,,,space,0.6363396000233479,5 years,primed first,3 yellow,Box,Her dad,Fancy chandeliers view of pacific ocean,Cursive fancy font,Oysters,A lot because it tastes like ocean,,,,062719_p1,001,2019_Jun_27_1222,body_behavioural,3.0.4,59.961900079130245,
,,,,,,,,,,,,,,,,,,,,,,,,,,,,,,,,,,,,,,,,,,,,,,,,,,,,,,,,,,,,,,,,,,,,,,,,,,,,,,3031.2404965820024,space,1.002989019965753,062719_p1,001,2019_Jun_27_1222,body_behavioural,3.0.4,59.961900079130245,
,,,,,,,,,,,,,,,,,,,,,,,,,,,,,,,,,,,,0,0,0,0,,,,,,,,,,,,,,,,,,,,,,,,,,,,,,,,,,,,,,,,,,062719_p1,001,2019_Jun_27_1222,body_behavioural,3.0.4,59.961900079130245,
,,,,,,,,,,,,,,,,,,,,,,,,,,,,,,,,,,,,1,0,1,0,,,,,,,,,,,,,,,,,,,,,,,,,,,,,,,,,,,,,,,,,,062719_p1,001,2019_Jun_27_1222,body_behavioural,3.0.4,59.961900079130245,
,,,,,,,,,,,,,,,,,,,,,,,,,,,,,,,,,,,,2,0,2,0,,,,,,,,,,,,,,,,,,,,,,,,,,,,,,,,,,,,,,,,,,062719_p1,001,2019_Jun_27_1222,body_behavioural,3.0.4,59.961900079130245,
,,,,,,,,,,,,,,,,,,,,,,,,,,,,,,,,,,,,3,0,3,0,,,,,,,,,,,,,,,,,,,,,,,,,,,,,,,,,,,,,,,,,,062719_p1,001,2019_Jun_27_1222,body_behavioural,3.0.4,59.961900079130245,
,,,,,,,,,,,,,,,,,,,,,,,,,,,,,,,,,,,,4,0,4,0,,,,,,,,,,,,,,,,,,,,,,,,,,,,,,,,,,,,,,,,,,062719_p1,001,2019_Jun_27_1222,body_behavioural,3.0.4,59.961900079130245,
