count,storyText,locationEvent,socialEvent,story,locationEventSize,socialEventSize,socialAnswer,locationAnswer,instructText,trials.thisRepN,trials.thisTrialN,trials.thisN,trials.thisIndex,trials_7.thisRepN,trials_7.thisTrialN,trials_7.thisN,trials_7.thisIndex,trials_2.thisRepN,trials_2.thisTrialN,trials_2.thisN,trials_2.thisIndex,trials_3.thisRepN,trials_3.thisTrialN,trials_3.thisN,trials_3.thisIndex,trials_4.thisRepN,trials_4.thisTrialN,trials_4.thisN,trials_4.thisIndex,trials_5.thisRepN,trials_5.thisTrialN,trials_5.thisN,trials_5.thisIndex,trials_6.thisRepN,trials_6.thisTrialN,trials_6.thisN,trials_6.thisIndex,trials_8.thisRepN,trials_8.thisTrialN,trials_8.thisN,trials_8.thisIndex,order of stories,order of perspectives,key_resp_8.keys,key_resp_8.rt,key_resp_5.keys,key_resp_5.rt,key_resp_7.keys,key_resp_7.rt,key_resp_15.keys,key_resp_15.rt,key_resp_14.keys,key_resp_14.rt,story_presses.keys,story_presses.rt,story time,key_resp_6.keys,key_resp_6.rt,key_resp_2.keys,key_resp_2.rt,key_resp_10.keys,key_resp_10.rt,recall,recall time,key_resp_12.keys,key_resp_12.rt,key_resp_3.keys,key_resp_3.rt,key_resp_11.keys,key_resp_11.rt,question1_answer,order of question,question2_answer,question3_answer,question4_answer,question5_answer,question6_answer,question7_answer,question8_answer,questions time,key_resp_13.keys,key_resp_13.rt,participant,session,date,expName,psychopyVersion,frameRate,
0,,,,,,,,,,0,0,0,0,0,0,0,0,,,,,,,,,,,,,,,,,,,,,,,,,[34 24 22 41 13 43 11 32],"['Location' 'Social' 'Location' 'Social' 'Social' 'Location' 'Location'
 'Social']",space,6.606169851031154,space,2.7187582289916463,space,1.7863997870008461,,,,,,,,,,,,,,,,,,,,,,,,,,,,,,,,,,062819_p2,001,2019_Jun_28_1423,body_behavioural,3.0.4,60.00004848236411,
0,"Charlie saw Alma as they walked into class, and he motioned for her to come sit in the back next to him because they had a deal to discuss.",1,1,34.0,,,,,,0,0,0,0,,,,,0,0,0,0,,,,,,,,,,,,,,,,,,,,,,,,,,,,,space,2.4029873050167225,space,2.086363592010457,9,21.40437058696989,,,,,,,,,,,,,,,,,,,,,,,,,,,,062819_p2,001,2019_Jun_28_1423,body_behavioural,3.0.4,60.00004848236411,
0,Charlie and Alma were both history majors with entrepreneurial bents.,1,1,None,,,,,,0,0,0,0,,,,,0,1,1,1,,,,,,,,,,,,,,,,,,,,,,,,,,,,,,,,,1,5.368494901980739,,,,,,,,,,,,,,,,,,,,,,,,,,,,062819_p2,001,2019_Jun_28_1423,body_behavioural,3.0.4,60.00004848236411,
0,They were also both very busy and happened to be in the same class.,1,1,None,,,,,,0,0,0,0,,,,,0,2,2,2,,,,,,,,,,,,,,,,,,,,,,,,,,,,,,,,,1,4.585178523033392,,,,,,,,,,,,,,,,,,,,,,,,,,,,062819_p2,001,2019_Jun_28_1423,body_behavioural,3.0.4,60.00004848236411,
0,"After talking at a party, Charlie had discovered that Alma was looking for financing for her web development company of which she was the founder and CEO.",1,1,None,,,,,,0,0,0,0,,,,,0,3,3,3,,,,,,,,,,,,,,,,,,,,,,,,,,,,,,,,,1,8.534875230980106,,,,,,,,,,,,,,,,,,,,,,,,,,,,062819_p2,001,2019_Jun_28_1423,body_behavioural,3.0.4,60.00004848236411,
0,It was serendipitous because he was an investment analyst for a student finance group on campus and he had been talking with other members of the group about making a new investment. ,1,1,None,,,,,,0,0,0,0,,,,,0,4,4,4,,,,,,,,,,,,,,,,,,,,,,,,,,,,,,,,,1,6.686747419997118,,,,,,,,,,,,,,,,,,,,,,,,,,,,062819_p2,001,2019_Jun_28_1423,body_behavioural,3.0.4,60.00004848236411,
0,"His financial group had come to a decision that morning about Alma’s startup, and he didn't want to wait until after class to discuss the proposal with her. ",1,1,None,,,,,,0,0,0,0,,,,,0,5,5,5,,,,,,,,,,,,,,,,,,,,,,,,,,,,,,,,,1,5.068870566028636,,,,,,,,,,,,,,,,,,,,,,,,,,,,062819_p2,001,2019_Jun_28_1423,body_behavioural,3.0.4,60.00004848236411,
0,The class was in a medium-sized auditorium which was brightly lit and very modern-looking. ,1,1,None,,,,,,0,0,0,0,,,,,0,6,6,6,,,,,,,,,,,,,,,,,,,,,,,,,,,,,,,,,1,8.537031214975286,,,,,,,,,,,,,,,,,,,,,,,,,,,,062819_p2,001,2019_Jun_28_1423,body_behavioural,3.0.4,60.00004848236411,
0,There were three projector screens in the front and each row of the audience had a table with power outlets and USB ports. ,1,1,None,,,,,,0,0,0,0,,,,,0,7,7,7,,,,,,,,,,,,,,,,,,,,,,,,,,,,,,,,,9,6.020345940021798,,,,,,,,,,,,,,,,,,,,,,,,,,,,062819_p2,001,2019_Jun_28_1423,body_behavioural,3.0.4,60.00004848236411,
0,“Here we are at Lecture Seven of Archaeology of Rome” said the professor. ,2,1,None,,,,,,0,0,0,0,,,,,0,8,8,8,,,,,,,,,,,,,,,,,,,,,,,,,,,,,,,,,1,4.686443764949217,,,,,,,,,,,,,,,,,,,,,,,,,,,,062819_p2,001,2019_Jun_28_1423,body_behavioural,3.0.4,60.00004848236411,
0,"“The topic for today is Augustus, an incredibly important influence in Roman architecture.” ",2,1,None,,,,,,0,0,0,0,,,,,0,9,9,9,,,,,,,,,,,,,,,,,,,,,,,,,,,,,,,,,9,5.117641624994576,,,,,,,,,,,,,,,,,,,,,,,,,,,,062819_p2,001,2019_Jun_28_1423,body_behavioural,3.0.4,60.00004848236411,
0,She went into some recap of the last lecture.,2,1,None,,,,,,0,0,0,0,,,,,0,10,10,10,,,,,,,,,,,,,,,,,,,,,,,,,,,,,,,,,1,2.6198444119654596,,,,,,,,,,,,,,,,,,,,,,,,,,,,062819_p2,001,2019_Jun_28_1423,body_behavioural,3.0.4,60.00004848236411,
0,"Charlie turned to Alma and said, “Okay, so I’ve been thinking about your startup, and I have talked about it with my fellow investors.",2,2,None,,,,,,0,0,0,0,,,,,0,11,11,11,,,,,,,,,,,,,,,,,,,,,,,,,,,,,,,,,9,6.787119540036656,,,,,,,,,,,,,,,,,,,,,,,,,,,,062819_p2,001,2019_Jun_28_1423,body_behavioural,3.0.4,60.00004848236411,
0,We’d like to invest half of what you originally suggested.,2,2,None,,,,,,0,0,0,0,,,,,0,12,12,12,,,,,,,,,,,,,,,,,,,,,,,,,,,,,,,,,1,2.984177552978508,,,,,,,,,,,,,,,,,,,,,,,,,,,,062819_p2,001,2019_Jun_28_1423,body_behavioural,3.0.4,60.00004848236411,
0,"So we propose we start with wiring you $28,000.",2,2,None,,,,,,0,0,0,0,,,,,0,13,13,13,,,,,,,,,,,,,,,,,,,,,,,,,,,,,,,,,1,2.7196513770031743,,,,,,,,,,,,,,,,,,,,,,,,,,,,062819_p2,001,2019_Jun_28_1423,body_behavioural,3.0.4,60.00004848236411,
0,We would see how the company does and then invest the other half later.” ,2,2,None,,,,,,0,0,0,0,,,,,0,14,14,14,,,,,,,,,,,,,,,,,,,,,,,,,,,,,,,,,1,3.0365938449976966,,,,,,,,,,,,,,,,,,,,,,,,,,,,062819_p2,001,2019_Jun_28_1423,body_behavioural,3.0.4,60.00004848236411,
0,"The professor said, “The senate had conferred upon him the title of Augustus the sacred and revered one, the restorer of traditional values, the city’s new religious leader, the restorer of temples. ",3,2,None,,,,,,0,0,0,0,,,,,0,15,15,15,,,,,,,,,,,,,,,,,,,,,,,,,,,,,,,,,9,5.470133762049954,,,,,,,,,,,,,,,,,,,,,,,,,,,,062819_p2,001,2019_Jun_28_1423,body_behavioural,3.0.4,60.00004848236411,
0,"Augustus also sought to beautify Rome, make it into a new Athens, and dispel the criticisms of Rome as disorganized and ugly.”",3,2,None,,,,,,0,0,0,0,,,,,0,16,16,16,,,,,,,,,,,,,,,,,,,,,,,,,,,,,,,,,1,3.969630750012584,,,,,,,,,,,,,,,,,,,,,,,,,,,,062819_p2,001,2019_Jun_28_1423,body_behavioural,3.0.4,60.00004848236411,
0,"Alma turned to Charlie and offered her rebuttal, “I don’t know about that.",3,3,None,,,,,,0,0,0,0,,,,,0,17,17,17,,,,,,,,,,,,,,,,,,,,,,,,,,,,,,,,,9,4.619504427013453,,,,,,,,,,,,,,,,,,,,,,,,,,,,062819_p2,001,2019_Jun_28_1423,body_behavioural,3.0.4,60.00004848236411,
0,It’s not going to be possible to implement our ideas effectively unless the project is fully funded. ,3,3,None,,,,,,0,0,0,0,,,,,0,18,18,18,,,,,,,,,,,,,,,,,,,,,,,,,,,,,,,,,1,3.936449011962395,,,,,,,,,,,,,,,,,,,,,,,,,,,,062819_p2,001,2019_Jun_28_1423,body_behavioural,3.0.4,60.00004848236411,
0,"We would have to find other investors like your competitor on campus, Churchill Capital Group, and that would set us back in our timeline. ",3,3,None,,,,,,0,0,0,0,,,,,0,19,19,19,,,,,,,,,,,,,,,,,,,,,,,,,,,,,,,,,1,11.07040548499208,,,,,,,,,,,,,,,,,,,,,,,,,,,,062819_p2,001,2019_Jun_28_1423,body_behavioural,3.0.4,60.00004848236411,
0,"Our profit projections assumed we'd be starting relatively soon, not months down the line.” ",3,3,None,,,,,,0,0,0,0,,,,,0,20,20,20,,,,,,,,,,,,,,,,,,,,,,,,,,,,,,,,,1,4.353299065027386,,,,,,,,,,,,,,,,,,,,,,,,,,,,062819_p2,001,2019_Jun_28_1423,body_behavioural,3.0.4,60.00004848236411,
0,They whispered back and forth during the entire class working out a compromise. ,3,3,None,,,,,,0,0,0,0,,,,,0,21,21,21,,,,,,,,,,,,,,,,,,,,,,,,,,,,,,,,,1,2.536127822007984,,,,,,,,,,,,,,,,,,,,,,,,,,,,062819_p2,001,2019_Jun_28_1423,body_behavioural,3.0.4,60.00004848236411,
0,The professor dismissed the students with a reminder that the midterm paper was due on Thursday and that they should email their papers to the TA.,4,3,None,,,,,,0,0,0,0,,,,,0,22,22,22,,,,,,,,,,,,,,,,,,,,,,,,,,,,,,,,,1,8.86996173497755,,,,,,,,,,,,,,,,,,,,,,,,,,,,062819_p2,001,2019_Jun_28_1423,body_behavioural,3.0.4,60.00004848236411,
0,"Everyone, except Charlie and Alma, packed up their things and headed out of the lecture hall. ",4,3,None,,,,,,0,0,0,0,,,,,0,23,23,23,,,,,,,,,,,,,,,,,,,,,,,,,,,,,,,,,1,4.186610839969944,,,,,,,,,,,,,,,,,,,,,,,,,,,,062819_p2,001,2019_Jun_28_1423,body_behavioural,3.0.4,60.00004848236411,
0,"“Alright, so we’ll have the $30,000 wired to you by tomorrow,” Charlie said. ",4,4,None,,,,,,0,0,0,0,,,,,0,24,24,24,,,,,,,,,,,,,,,,,,,,,,,,,,,,,,,,,1,2.5032234499813057,,,,,,,,,,,,,,,,,,,,,,,,,,,,062819_p2,001,2019_Jun_28_1423,body_behavioural,3.0.4,60.00004848236411,
0,"This wasn't ideal for Charlie, but Alma had refused to budge, and his investment group had told him they were willing to pay the full amount if necessary. ",4,4,None,,,,,,0,0,0,0,,,,,0,25,25,25,,,,,,,,,,,,,,,,,,,,,,,,,,,,,,,,,1,5.736440034990665,,,,,,,,,,,,,,,,,,,,,,,,,,,,062819_p2,001,2019_Jun_28_1423,body_behavioural,3.0.4,60.00004848236411,
0,They hugged in confirmation of the deal and made plans to sign the official paperwork the next day. ,4,4,None,,,,,,0,0,0,0,,,,,0,26,26,26,,,,,,,,,,,,,,,,,,,,,,,,,,,,,,,,,1,16.304593080014456,,,,,,,,,,,,,,,,,,,,,,,,,,,,062819_p2,001,2019_Jun_28_1423,body_behavioural,3.0.4,60.00004848236411,
0,,,,,,,,,,0,0,0,0,,,,,,,,,,,,,,,,,,,,,,,,,,,,,,,,,,,,,,,,,,,,,,,,,,,,,,,,,,,,,,,,,,,,,,062819_p2,001,2019_Jun_28_1423,body_behavioural,3.0.4,60.00004848236411,
1,,,,,,,,,,0,1,1,1,0,0,0,0,,,,,,,,,,,,,,,,,,,,,,,,,,,space,2.052672538033221,space,1.0202445249888115,space,1.1866710869944654,,,,,,,,,,,,,,,,,,,,,,,,,,,,,,,,,,062819_p2,001,2019_Jun_28_1423,body_behavioural,3.0.4,60.00004848236411,
1,"Lana walked into lecture holding hands with her boyfriend, Aaron, who was trying to contain his excitement about proposing to Lana in this class.",1,1,24.0,,,,,,0,1,1,1,,,,,0,0,0,0,,,,,,,,,,,,,,,,,,,,,,,,,,,,,space,1.8198597299633548,space,1.203004775044974,9,9.820196404994931,,,,,,,,,,,,,,,,,,,,,,,,,,,,062819_p2,001,2019_Jun_28_1423,body_behavioural,3.0.4,60.00004848236411,
1,"Lana was lost in thought, puzzling over an integral on her problem set for another class.",1,1,None,,,,,,0,1,1,1,,,,,0,1,1,1,,,,,,,,,,,,,,,,,,,,,,,,,,,,,,,,,1,7.5037469119997695,,,,,,,,,,,,,,,,,,,,,,,,,,,,062819_p2,001,2019_Jun_28_1423,body_behavioural,3.0.4,60.00004848236411,
1,"The lecture hall they had entered was the fanciest one at Princeton, with chandeliers, high ceilings, wood floors, and a large projector screen where chalkboards used to be. ",1,1,None,,,,,,0,1,1,1,,,,,0,2,2,2,,,,,,,,,,,,,,,,,,,,,,,,,,,,,,,,,1,7.703278689994477,,,,,,,,,,,,,,,,,,,,,,,,,,,,062819_p2,001,2019_Jun_28_1423,body_behavioural,3.0.4,60.00004848236411,
1,Aaron and Lana had met when they first started dating three years ago in freshman year.,1,1,None,,,,,,0,1,1,1,,,,,0,3,3,3,,,,,,,,,,,,,,,,,,,,,,,,,,,,,,,,,1,4.020543001999613,,,,,,,,,,,,,,,,,,,,,,,,,,,,062819_p2,001,2019_Jun_28_1423,body_behavioural,3.0.4,60.00004848236411,
1,They coincidentally had another class together in this same lecture hall. ,1,1,None,,,,,,0,1,1,1,,,,,0,4,4,4,,,,,,,,,,,,,,,,,,,,,,,,,,,,,,,,,1,3.8526529719820246,,,,,,,,,,,,,,,,,,,,,,,,,,,,062819_p2,001,2019_Jun_28_1423,body_behavioural,3.0.4,60.00004848236411,
1,The professor caught Aaron's eye as he walked up to the front of the classroom and gave him a wink before the lecture began. ,1,1,None,,,,,,0,1,1,1,,,,,0,5,5,5,,,,,,,,,,,,,,,,,,,,,,,,,,,,,,,,,1,5.853089956974145,,,,,,,,,,,,,,,,,,,,,,,,,,,,062819_p2,001,2019_Jun_28_1423,body_behavioural,3.0.4,60.00004848236411,
1,Aaron flashed him a half-smile and nodded. ,1,1,None,,,,,,0,1,1,1,,,,,0,6,6,6,,,,,,,,,,,,,,,,,,,,,,,,,,,,,,,,,1,4.568911809998099,,,,,,,,,,,,,,,,,,,,,,,,,,,,062819_p2,001,2019_Jun_28_1423,body_behavioural,3.0.4,60.00004848236411,
1,"The professor cleared his throat and said,“Alright, good afternoon, everyone!",2,1,None,,,,,,0,1,1,1,,,,,0,7,7,7,,,,,,,,,,,,,,,,,,,,,,,,,,,,,,,,,1,2.701558066997677,,,,,,,,,,,,,,,,,,,,,,,,,,,,062819_p2,001,2019_Jun_28_1423,body_behavioural,3.0.4,60.00004848236411,
1,Welcome to another week of Introduction to Chemistry,2,1,None,,,,,,0,1,1,1,,,,,0,8,8,8,,,,,,,,,,,,,,,,,,,,,,,,,,,,,,,,,1,4.669628483010456,,,,,,,,,,,,,,,,,,,,,,,,,,,,062819_p2,001,2019_Jun_28_1423,body_behavioural,3.0.4,60.00004848236411,
1,This week the topic is ions.,2,1,None,,,,,,0,1,1,1,,,,,0,9,9,9,,,,,,,,,,,,,,,,,,,,,,,,,,,,,,,,,9,2.551165376964491,,,,,,,,,,,,,,,,,,,,,,,,,,,,062819_p2,001,2019_Jun_28_1423,body_behavioural,3.0.4,60.00004848236411,
1,"Now, let me get my computer set up, one moment, class.”",2,1,None,,,,,,0,1,1,1,,,,,0,10,10,10,,,,,,,,,,,,,,,,,,,,,,,,,,,,,,,,,1,1.9191001129802316,,,,,,,,,,,,,,,,,,,,,,,,,,,,062819_p2,001,2019_Jun_28_1423,body_behavioural,3.0.4,60.00004848236411,
1,Lana pulled out the problem set she was thinking about as Aaron unzipped the small pocket in his backpack and pulled out the ring.,2,2,None,,,,,,0,1,1,1,,,,,0,11,11,11,,,,,,,,,,,,,,,,,,,,,,,,,,,,,,,,,1,11.387710852024611,,,,,,,,,,,,,,,,,,,,,,,,,,,,062819_p2,001,2019_Jun_28_1423,body_behavioural,3.0.4,60.00004848236411,
1,"Turning away from her, he looked it over yet again. ",2,2,None,,,,,,0,1,1,1,,,,,0,12,12,12,,,,,,,,,,,,,,,,,,,,,,,,,,,,,,,,,1,3.053166752040852,,,,,,,,,,,,,,,,,,,,,,,,,,,,062819_p2,001,2019_Jun_28_1423,body_behavioural,3.0.4,60.00004848236411,
1,"Instead of one large diamond, there were 5 red diamonds embedded in a thick band. ",2,2,None,,,,,,0,1,1,1,,,,,0,13,13,13,,,,,,,,,,,,,,,,,,,,,,,,,,,,,,,,,1,3.6366798449889757,,,,,,,,,,,,,,,,,,,,,,,,,,,,062819_p2,001,2019_Jun_28_1423,body_behavioural,3.0.4,60.00004848236411,
1,He knew Lana would like this because her style was more avant-garde than traditional.,2,2,None,,,,,,0,1,1,1,,,,,0,14,14,14,,,,,,,,,,,,,,,,,,,,,,,,,,,,,,,,,1,3.0196173649746925,,,,,,,,,,,,,,,,,,,,,,,,,,,,062819_p2,001,2019_Jun_28_1423,body_behavioural,3.0.4,60.00004848236411,
1,"The professor said, “Remember, class, that the number of protons determines the identity of the element. ",3,2,None,,,,,,0,1,1,1,,,,,0,15,15,15,,,,,,,,,,,,,,,,,,,,,,,,,,,,,,,,,9,4.469914551009424,,,,,,,,,,,,,,,,,,,,,,,,,,,,062819_p2,001,2019_Jun_28_1423,body_behavioural,3.0.4,60.00004848236411,
1,"So for example, all atoms of sodium have 11 protons in the nucleus. ",3,2,None,,,,,,0,1,1,1,,,,,0,16,16,16,,,,,,,,,,,,,,,,,,,,,,,,,,,,,,,,,1,4.187006758991629,,,,,,,,,,,,,,,,,,,,,,,,,,,,062819_p2,001,2019_Jun_28_1423,body_behavioural,3.0.4,60.00004848236411,
1,"And if you look on the periodic table, the atomic number for sodium, the symbol is Na, is eleven.",3,2,None,,,,,,0,1,1,1,,,,,0,17,17,17,,,,,,,,,,,,,,,,,,,,,,,,,,,,,,,,,1,3.5031770800123923,,,,,,,,,,,,,,,,,,,,,,,,,,,,062819_p2,001,2019_Jun_28_1423,body_behavioural,3.0.4,60.00004848236411,
1,"An ion retains the same number of protons despite losing electrons, and therefore keeps the same identity in the periodic table. ",3,2,None,,,,,,0,1,1,1,,,,,0,18,18,18,,,,,,,,,,,,,,,,,,,,,,,,,,,,,,,,,1,3.987090460024774,,,,,,,,,,,,,,,,,,,,,,,,,,,,062819_p2,001,2019_Jun_28_1423,body_behavioural,3.0.4,60.00004848236411,
1,Lana and Aaron tried to take notes during the lecture.,3,2,None,,,,,,0,1,1,1,,,,,0,19,19,19,,,,,,,,,,,,,,,,,,,,,,,,,,,,,,,,,9,2.1197445050347596,,,,,,,,,,,,,,,,,,,,,,,,,,,,062819_p2,001,2019_Jun_28_1423,body_behavioural,3.0.4,60.00004848236411,
1,"Right after talking about how two ions bond into one stable molecule by covalent bonds, the professor stopped the lecture, gave another wink to Aaron, and asked Lana to come to the front of the class to do a demonstration. ",3,3,None,,,,,,0,1,1,1,,,,,0,20,20,20,,,,,,,,,,,,,,,,,,,,,,,,,,,,,,,,,1,11.98698097502347,,,,,,,,,,,,,,,,,,,,,,,,,,,,062819_p2,001,2019_Jun_28_1423,body_behavioural,3.0.4,60.00004848236411,
1,"She walked to the front of the class confused, and the professor asked her to stand in the middle of the stage.",3,3,None,,,,,,0,1,1,1,,,,,0,21,21,21,,,,,,,,,,,,,,,,,,,,,,,,,,,,,,,,,1,3.3532892749644816,,,,,,,,,,,,,,,,,,,,,,,,,,,,062819_p2,001,2019_Jun_28_1423,body_behavioural,3.0.4,60.00004848236411,
1,"Then Aaron walked up and, taking Lana’s hand, got down on one knee. ",3,3,None,,,,,,0,1,1,1,,,,,0,22,22,22,,,,,,,,,,,,,,,,,,,,,,,,,,,,,,,,,1,3.984410002012737,,,,,,,,,,,,,,,,,,,,,,,,,,,,062819_p2,001,2019_Jun_28_1423,body_behavioural,3.0.4,60.00004848236411,
1,The professor quickly switched to the last slide on the powerpoint which was a photo collage Aaron had sent him of pictures of Aaron and Lana. ,3,3,None,,,,,,0,1,1,1,,,,,0,23,23,23,,,,,,,,,,,,,,,,,,,,,,,,,,,,,,,,,1,2.7704357250477187,,,,,,,,,,,,,,,,,,,,,,,,,,,,062819_p2,001,2019_Jun_28_1423,body_behavioural,3.0.4,60.00004848236411,
1,"“It's time for us to make a bond of our own, Lana.”",3,3,None,,,,,,0,1,1,1,,,,,0,24,24,24,,,,,,,,,,,,,,,,,,,,,,,,,,,,,,,,,1,1.3864226519945078,,,,,,,,,,,,,,,,,,,,,,,,,,,,062819_p2,001,2019_Jun_28_1423,body_behavioural,3.0.4,60.00004848236411,
1,He opened the small notebook he had in his hand and the ring was sitting on the page. ,3,3,None,,,,,,0,1,1,1,,,,,0,25,25,25,,,,,,,,,,,,,,,,,,,,,,,,,,,,,,,,,1,5.286182106996421,,,,,,,,,,,,,,,,,,,,,,,,,,,,062819_p2,001,2019_Jun_28_1423,body_behavioural,3.0.4,60.00004848236411,
1,“Will you marry me?” ,3,3,None,,,,,,0,1,1,1,,,,,0,26,26,26,,,,,,,,,,,,,,,,,,,,,,,,,,,,,,,,,1,1.870095764985308,,,,,,,,,,,,,,,,,,,,,,,,,,,,062819_p2,001,2019_Jun_28_1423,body_behavioural,3.0.4,60.00004848236411,
1,"Lana had put her hand over her mouth and tears were streaming down her face, but finally, she said, “Yes!”",3,4,None,,,,,,0,1,1,1,,,,,0,27,27,27,,,,,,,,,,,,,,,,,,,,,,,,,,,,,,,,,1,2.2030923570273444,,,,,,,,,,,,,,,,,,,,,,,,,,,,062819_p2,001,2019_Jun_28_1423,body_behavioural,3.0.4,60.00004848236411,
1,"Aaron put the ring on her finger, and they hugged while the whole class applauded and cheered. ",3,4,None,,,,,,0,1,1,1,,,,,0,28,28,28,,,,,,,,,,,,,,,,,,,,,,,,,,,,,,,,,1,1.8029872000333853,,,,,,,,,,,,,,,,,,,,,,,,,,,,062819_p2,001,2019_Jun_28_1423,body_behavioural,3.0.4,60.00004848236411,
1,Their friends who had been secretly waiting outside came into the class and hugged both of them.,3,4,None,,,,,,0,1,1,1,,,,,0,29,29,29,,,,,,,,,,,,,,,,,,,,,,,,,,,,,,,,,1,2.0864265949930996,,,,,,,,,,,,,,,,,,,,,,,,,,,,062819_p2,001,2019_Jun_28_1423,body_behavioural,3.0.4,60.00004848236411,
1,The professor gave Aaron a celebratory handshake.,3,4,None,,,,,,0,1,1,1,,,,,0,30,30,30,,,,,,,,,,,,,,,,,,,,,,,,,,,,,,,,,1,1.0851629949756898,,,,,,,,,,,,,,,,,,,,,,,,,,,,062819_p2,001,2019_Jun_28_1423,body_behavioural,3.0.4,60.00004848236411,
1,"They made their way back to their seats, and Lana pulled out her phone to text her sister",3,4,None,,,,,,0,1,1,1,,,,,0,31,31,31,,,,,,,,,,,,,,,,,,,,,,,,,,,,,,,,,1,4.71993477497017,,,,,,,,,,,,,,,,,,,,,,,,,,,,062819_p2,001,2019_Jun_28_1423,body_behavioural,3.0.4,60.00004848236411,
1,"The professor dismissed the class, saying, “That was enough excitement for today!",4,4,None,,,,,,0,1,1,1,,,,,0,32,32,32,,,,,,,,,,,,,,,,,,,,,,,,,,,,,,,,,1,2.3364285419811495,,,,,,,,,,,,,,,,,,,,,,,,,,,,062819_p2,001,2019_Jun_28_1423,body_behavioural,3.0.4,60.00004848236411,
1,Don’t forget there’s a midterm exam next week on Monday on the material covered in the first 4 weeks of the semester.,4,4,None,,,,,,0,1,1,1,,,,,0,33,33,33,,,,,,,,,,,,,,,,,,,,,,,,,,,,,,,,,1,4.719876122020651,,,,,,,,,,,,,,,,,,,,,,,,,,,,062819_p2,001,2019_Jun_28_1423,body_behavioural,3.0.4,60.00004848236411,
1,"As everyone was packing up their notebooks and leaving, Lana and Aaron were surrounded by their friends eager to get a glimpse of the ring and congratulate them. ",4,4,None,,,,,,0,1,1,1,,,,,0,34,34,34,,,,,,,,,,,,,,,,,,,,,,,,,,,,,,,,,1,4.136768786993343,,,,,,,,,,,,,,,,,,,,,,,,,,,,062819_p2,001,2019_Jun_28_1423,body_behavioural,3.0.4,60.00004848236411,
1,,,,,,,,,,0,1,1,1,,,,,,,,,,,,,,,,,,,,,,,,,,,,,,,,,,,,,,,,,,,,,,,,,,,,,,,,,,,,,,,,,,,,,,062819_p2,001,2019_Jun_28_1423,body_behavioural,3.0.4,60.00004848236411,
2,,,,,,,,,,0,2,2,2,0,0,0,0,,,,,,,,,,,,,,,,,,,,,,,,,,,space,1.2028519270243123,space,2.653271807008423,space,0.7836046169977635,,,,,,,,,,,,,,,,,,,,,,,,,,,,,,,,,,062819_p2,001,2019_Jun_28_1423,body_behavioural,3.0.4,60.00004848236411,
2,"Sven and Isabel walked hurriedly from the cab into the Barcelona Airport after an incredible week with Isabel’s family, and this had wiped away any doubts Sven had had about his decision to propose. ",1,1,22.0,,,,,,0,2,2,2,,,,,0,0,0,0,,,,,,,,,,,,,,,,,,,,,,,,,,,,,space,0.6864970849710517,space,0.6173781500547193,9,11.737542057002429,,,,,,,,,,,,,,,,,,,,,,,,,,,,062819_p2,001,2019_Jun_28_1423,body_behavioural,3.0.4,60.00004848236411,
2,They had only been dating for 11 months so this was the first time he had met her family. ,1,1,None,,,,,,0,2,2,2,,,,,0,1,1,1,,,,,,,,,,,,,,,,,,,,,,,,,,,,,,,,,1,2.670097805035766,,,,,,,,,,,,,,,,,,,,,,,,,,,,062819_p2,001,2019_Jun_28_1423,body_behavioural,3.0.4,60.00004848236411,
2,"They were pressed for time at the airport, with an hour and 15 minutes until their flight would take off to go back to the US, but they already had their online boarding passes and no checked luggage. ",1,1,None,,,,,,0,2,2,2,,,,,0,2,2,2,,,,,,,,,,,,,,,,,,,,,,,,,,,,,,,,,1,6.587298518046737,,,,,,,,,,,,,,,,,,,,,,,,,,,,062819_p2,001,2019_Jun_28_1423,body_behavioural,3.0.4,60.00004848236411,
2,"Isabel stopped to rummage through her purse to look for her phone, and meanwhile Sven turned his back to her and took the velvet box out of his backpack, opening it to look at the ring he had bought her.",1,2,None,,,,,,0,2,2,2,,,,,0,3,3,3,,,,,,,,,,,,,,,,,,,,,,,,,,,,,,,,,1,11.68710383499274,,,,,,,,,,,,,,,,,,,,,,,,,,,,062819_p2,001,2019_Jun_28_1423,body_behavioural,3.0.4,60.00004848236411,
2,"He had received her parents’ blessing during the trip, and he was almost giddy with excitement. ",1,2,None,,,,,,0,2,2,2,,,,,0,4,4,4,,,,,,,,,,,,,,,,,,,,,,,,,,,,,,,,,1,3.6194531149812974,,,,,,,,,,,,,,,,,,,,,,,,,,,,062819_p2,001,2019_Jun_28_1423,body_behavioural,3.0.4,60.00004848236411,
2,"He tilted the ring backward and forward, despite having already studied it daily since purchasing it a few weeks ago. ",1,2,None,,,,,,0,2,2,2,,,,,0,5,5,5,,,,,,,,,,,,,,,,,,,,,,,,,,,,,,,,,1,4.003196852980182,,,,,,,,,,,,,,,,,,,,,,,,,,,,062819_p2,001,2019_Jun_28_1423,body_behavioural,3.0.4,60.00004848236411,
2,"It was a simple design, with two pink diamonds on a silver band.",1,2,None,,,,,,0,2,2,2,,,,,0,6,6,6,,,,,,,,,,,,,,,,,,,,,,,,,,,,,,,,,1,3.4524661650066264,,,,,,,,,,,,,,,,,,,,,,,,,,,,062819_p2,001,2019_Jun_28_1423,body_behavioural,3.0.4,60.00004848236411,
2,"“Sven, I’m good,” Isabel said. ",1,2,None,,,,,,0,2,2,2,,,,,0,7,7,7,,,,,,,,,,,,,,,,,,,,,,,,,,,,,,,,,1,2.103008882026188,,,,,,,,,,,,,,,,,,,,,,,,,,,,062819_p2,001,2019_Jun_28_1423,body_behavioural,3.0.4,60.00004848236411,
2,Sven closed the box and discretely put it in his pocket.,1,2,None,,,,,,0,2,2,2,,,,,0,8,8,8,,,,,,,,,,,,,,,,,,,,,,,,,,,,,,,,,1,2.469921633019112,,,,,,,,,,,,,,,,,,,,,,,,,,,,062819_p2,001,2019_Jun_28_1423,body_behavioural,3.0.4,60.00004848236411,
2,"They entered the security line, weaving through the roped walkways to the front. ",2,2,None,,,,,,0,2,2,2,,,,,0,9,9,9,,,,,,,,,,,,,,,,,,,,,,,,,,,,,,,,,9,3.019813766994048,,,,,,,,,,,,,,,,,,,,,,,,,,,,062819_p2,001,2019_Jun_28_1423,body_behavioural,3.0.4,60.00004848236411,
2,"When they were up, Isabel realized her laptop was buried somewhere in her duffle bag. ",2,2,None,,,,,,0,2,2,2,,,,,0,10,10,10,,,,,,,,,,,,,,,,,,,,,,,,,,,,,,,,,1,3.5032258419669233,,,,,,,,,,,,,,,,,,,,,,,,,,,,062819_p2,001,2019_Jun_28_1423,body_behavioural,3.0.4,60.00004848236411,
2,"Luckily, at the same time, there was a stall in the line because someone ahead of them had a suspicious amount of metal pieces on his person. ",2,2,None,,,,,,0,2,2,2,,,,,0,11,11,11,,,,,,,,,,,,,,,,,,,,,,,,,,,,,,,,,1,4.986776734993327,,,,,,,,,,,,,,,,,,,,,,,,,,,,062819_p2,001,2019_Jun_28_1423,body_behavioural,3.0.4,60.00004848236411,
2,Sven had to hold the growing mound of objects Isabel pulled from her bag until she unearthed the laptop and set it in a bin.,2,2,None,,,,,,0,2,2,2,,,,,0,12,12,12,,,,,,,,,,,,,,,,,,,,,,,,,,,,,,,,,1,5.7010631379671395,,,,,,,,,,,,,,,,,,,,,,,,,,,,062819_p2,001,2019_Jun_28_1423,body_behavioural,3.0.4,60.00004848236411,
2,"She then gave her bag to Sven, unstrapped her heels, and took the bag back from Sven.",2,2,None,,,,,,0,2,2,2,,,,,0,13,13,13,,,,,,,,,,,,,,,,,,,,,,,,,,,,,,,,,1,5.85115683497861,,,,,,,,,,,,,,,,,,,,,,,,,,,,062819_p2,001,2019_Jun_28_1423,body_behavioural,3.0.4,60.00004848236411,
2,"Sven, relieved of his holding duties, hurriedly deposited his own backpack on the belt, and took off his shoes. ",2,2,None,,,,,,0,2,2,2,,,,,0,14,14,14,,,,,,,,,,,,,,,,,,,,,,,,,,,,,,,,,1,4.486578651994932,,,,,,,,,,,,,,,,,,,,,,,,,,,,062819_p2,001,2019_Jun_28_1423,body_behavioural,3.0.4,60.00004848236411,
2,"Sven went into the millimeter wave scanner after Isabel, put his hands up, and the metal bars whirled around him.",2,2,None,,,,,,0,2,2,2,,,,,0,15,15,15,,,,,,,,,,,,,,,,,,,,,,,,,,,,,,,,,1,4.00319750001654,,,,,,,,,,,,,,,,,,,,,,,,,,,,062819_p2,001,2019_Jun_28_1423,body_behavioural,3.0.4,60.00004848236411,
2,The security guard asked Sven to wait. ,2,2,None,,,,,,0,2,2,2,,,,,0,16,16,16,,,,,,,,,,,,,,,,,,,,,,,,,,,,,,,,,1,1.4846582770114765,,,,,,,,,,,,,,,,,,,,,,,,,,,,062819_p2,001,2019_Jun_28_1423,body_behavioural,3.0.4,60.00004848236411,
2,"After looking at the monitor, the security guard said, “Sir, please empty your pockets,”.",2,2,None,,,,,,0,2,2,2,,,,,0,17,17,17,,,,,,,,,,,,,,,,,,,,,,,,,,,,,,,,,1,3.2532846169779077,,,,,,,,,,,,,,,,,,,,,,,,,,,,062819_p2,001,2019_Jun_28_1423,body_behavioural,3.0.4,60.00004848236411,
2,"Isabel, shoeless and wrinkling her eyebrows at Sven, looked at him expectantly.",2,2,None,,,,,,0,2,2,2,,,,,0,18,18,18,,,,,,,,,,,,,,,,,,,,,,,,,,,,,,,,,1,2.4531082049943507,,,,,,,,,,,,,,,,,,,,,,,,,,,,062819_p2,001,2019_Jun_28_1423,body_behavioural,3.0.4,60.00004848236411,
2,"Realizing that he had forgotten the ring in his pocket, he grabbed Isabel’s, got down on one knee, and opening the velvet box, said, “Isabel, this isn't quite how I'd planned this, but - will you marry me?”",2,3,None,,,,,,0,2,2,2,,,,,0,19,19,19,,,,,,,,,,,,,,,,,,,,,,,,,,,,,,,,,1,6.869974375003949,,,,,,,,,,,,,,,,,,,,,,,,,,,,062819_p2,001,2019_Jun_28_1423,body_behavioural,3.0.4,60.00004848236411,
2,He held the ring up to her. ,2,3,None,,,,,,0,2,2,2,,,,,0,20,20,20,,,,,,,,,,,,,,,,,,,,,,,,,,,,,,,,,1,1.0530428169877268,,,,,,,,,,,,,,,,,,,,,,,,,,,,062819_p2,001,2019_Jun_28_1423,body_behavioural,3.0.4,60.00004848236411,
2,The security guard stood shocked.,2,3,None,,,,,,0,2,2,2,,,,,0,21,21,21,,,,,,,,,,,,,,,,,,,,,,,,,,,,,,,,,1,1.0193057429860346,,,,,,,,,,,,,,,,,,,,,,,,,,,,062819_p2,001,2019_Jun_28_1423,body_behavioural,3.0.4,60.00004848236411,
2,All the people who were putting their shoes back on and gathering their belongings stopped and walked closer to the couple.,2,3,None,,,,,,0,2,2,2,,,,,0,22,22,22,,,,,,,,,,,,,,,,,,,,,,,,,,,,,,,,,1,2.4357857670402154,,,,,,,,,,,,,,,,,,,,,,,,,,,,062819_p2,001,2019_Jun_28_1423,body_behavioural,3.0.4,60.00004848236411,
2,Isabel didn’t know what to do since she was far too shy to respond in front of all the people around.,2,3,None,,,,,,0,2,2,2,,,,,0,23,23,23,,,,,,,,,,,,,,,,,,,,,,,,,,,,,,,,,1,2.2690804899903014,,,,,,,,,,,,,,,,,,,,,,,,,,,,062819_p2,001,2019_Jun_28_1423,body_behavioural,3.0.4,60.00004848236411,
2,"Without responding to Sven, she frantically grabbed her and Sven’s shoes, leaving Sven to retrieve the rest, and she quickly walked onto the concourse.",3,3,None,,,,,,0,2,2,2,,,,,0,24,24,24,,,,,,,,,,,,,,,,,,,,,,,,,,,,,,,,,1,4.986577246978413,,,,,,,,,,,,,,,,,,,,,,,,,,,,062819_p2,001,2019_Jun_28_1423,body_behavioural,3.0.4,60.00004848236411,
2,"Sven, terrified, grabbed everything and hurried after Isabel onto the concourse shoeless.",3,3,None,,,,,,0,2,2,2,,,,,0,25,25,25,,,,,,,,,,,,,,,,,,,,,,,,,,,,,,,,,1,2.91730584501056,,,,,,,,,,,,,,,,,,,,,,,,,,,,062819_p2,001,2019_Jun_28_1423,body_behavioural,3.0.4,60.00004848236411,
2,Sven eventually caught up to her with their bags and the open ring box.,3,3,None,,,,,,0,2,2,2,,,,,0,26,26,26,,,,,,,,,,,,,,,,,,,,,,,,,,,,,,,,,1,6.12034812499769,,,,,,,,,,,,,,,,,,,,,,,,,,,,062819_p2,001,2019_Jun_28_1423,body_behavioural,3.0.4,60.00004848236411,
2,"She stopped and with wide, excited eyes, shouted, “Of course yes, Sven!” ",3,4,None,,,,,,0,2,2,2,,,,,0,27,27,27,,,,,,,,,,,,,,,,,,,,,,,,,,,,,,,,,1,3.8532537950086407,,,,,,,,,,,,,,,,,,,,,,,,,,,,062819_p2,001,2019_Jun_28_1423,body_behavioural,3.0.4,60.00004848236411,
2,"They dropped their belongings and hugged, and Sven put the ring onto Isabel’s finger. ",3,4,None,,,,,,0,2,2,2,,,,,0,28,28,28,,,,,,,,,,,,,,,,,,,,,,,,,,,,,,,,,1,2.40417047298979,,,,,,,,,,,,,,,,,,,,,,,,,,,,062819_p2,001,2019_Jun_28_1423,body_behavioural,3.0.4,60.00004848236411,
2,"“Isabel, you scared me!” he said. ",3,4,None,,,,,,0,2,2,2,,,,,0,29,29,29,,,,,,,,,,,,,,,,,,,,,,,,,,,,,,,,,1,1.5199715180206113,,,,,,,,,,,,,,,,,,,,,,,,,,,,062819_p2,001,2019_Jun_28_1423,body_behavioural,3.0.4,60.00004848236411,
2,"After getting their shoes back on, they practically floated to gate C40.",3,4,None,,,,,,0,2,2,2,,,,,0,30,30,30,,,,,,,,,,,,,,,,,,,,,,,,,,,,,,,,,1,2.1201073020347394,,,,,,,,,,,,,,,,,,,,,,,,,,,,062819_p2,001,2019_Jun_28_1423,body_behavioural,3.0.4,60.00004848236411,
2,Sven was so happy he even high-fived a confused shoe-shine attendant as they passed.,3,4,None,,,,,,0,2,2,2,,,,,0,31,31,31,,,,,,,,,,,,,,,,,,,,,,,,,,,,,,,,,1,4.717769815004431,,,,,,,,,,,,,,,,,,,,,,,,,,,,062819_p2,001,2019_Jun_28_1423,body_behavioural,3.0.4,60.00004848236411,
2,Isabel texted her best friend telling her the news as they walked. ,3,4,None,,,,,,0,2,2,2,,,,,0,32,32,32,,,,,,,,,,,,,,,,,,,,,,,,,,,,,,,,,1,4.036139247997198,,,,,,,,,,,,,,,,,,,,,,,,,,,,062819_p2,001,2019_Jun_28_1423,body_behavioural,3.0.4,60.00004848236411,
2,"Having arrived at their gate, they waited, until the attendant called for passengers, and they scanned their tickets to board the plane.",4,4,None,,,,,,0,2,2,2,,,,,0,33,33,33,,,,,,,,,,,,,,,,,,,,,,,,,,,,,,,,,1,3.003298905037809,,,,,,,,,,,,,,,,,,,,,,,,,,,,062819_p2,001,2019_Jun_28_1423,body_behavioural,3.0.4,60.00004848236411,
2,"They walked through the connecting tunnel to the plane and sat together in first class, in seats 2A and 2B.",4,4,None,,,,,,0,2,2,2,,,,,0,34,34,34,,,,,,,,,,,,,,,,,,,,,,,,,,,,,,,,,9,4.23657720501069,,,,,,,,,,,,,,,,,,,,,,,,,,,,062819_p2,001,2019_Jun_28_1423,body_behavioural,3.0.4,60.00004848236411,
2,"Some of their neighboring passengers who had witnessed the proposal at security congratulated them, and a woman next to them showed them that she had been live-tweeting the whole event and that it was already going viral online.",4,4,None,,,,,,0,2,2,2,,,,,0,35,35,35,,,,,,,,,,,,,,,,,,,,,,,,,,,,,,,,,1,4.919694769952912,,,,,,,,,,,,,,,,,,,,,,,,,,,,062819_p2,001,2019_Jun_28_1423,body_behavioural,3.0.4,60.00004848236411,
2,"Isabel slid down in her seat with her hands over her face, embarrassed and overjoyed at the same time.
",4,4,None,,,,,,0,2,2,2,,,,,0,36,36,36,,,,,,,,,,,,,,,,,,,,,,,,,,,,,,,,,1,2.2533830500324257,,,,,,,,,,,,,,,,,,,,,,,,,,,,062819_p2,001,2019_Jun_28_1423,body_behavioural,3.0.4,60.00004848236411,
2,,,,,,,,,,0,2,2,2,,,,,,,,,,,,,,,,,,,,,,,,,,,,,,,,,,,,,,,,,,,,,,,,,,,,,,,,,,,,,,,,,,,,,,062819_p2,001,2019_Jun_28_1423,body_behavioural,3.0.4,60.00004848236411,
3,,,,,,,,,,0,3,3,3,0,0,0,0,,,,,,,,,,,,,,,,,,,,,,,,,,,space,1.1861263170139864,space,0.4861189099610783,space,0.9363240899983793,,,,,,,,,,,,,,,,,,,,,,,,,,,,,,,,,,062819_p2,001,2019_Jun_28_1423,body_behavioural,3.0.4,60.00004848236411,
3,"James noticed Teresa immediately as she walked into the restaurant - or, more accurately, as she attempted to walk into the restaurant. ",1,1,41.0,,,,,,0,3,3,3,,,,,0,0,0,0,,,,,,,,,,,,,,,,,,,,,,,,,,,,,space,0.0028443069895729423,space,0.43636060203425586,9,7.301177821995225,,,,,,,,,,,,,,,,,,,,,,,,,,,,062819_p2,001,2019_Jun_28_1423,body_behavioural,3.0.4,60.00004848236411,
3,She was typing intently on her phone and ran straight into the restaurant’s glass door with a painful thud. ,1,1,None,,,,,,0,3,3,3,,,,,0,1,1,1,,,,,,,,,,,,,,,,,,,,,,,,,,,,,,,,,1,4.453163239988498,,,,,,,,,,,,,,,,,,,,,,,,,,,,062819_p2,001,2019_Jun_28_1423,body_behavioural,3.0.4,60.00004848236411,
3,Everyone waiting around the cash register turned.,1,1,None,,,,,,0,3,3,3,,,,,0,2,2,2,,,,,,,,,,,,,,,,,,,,,,,,,,,,,,,,,1,2.384354876994621,,,,,,,,,,,,,,,,,,,,,,,,,,,,062819_p2,001,2019_Jun_28_1423,body_behavioural,3.0.4,60.00004848236411,
3,Teresa rubbed her head and put her phone away. ,1,1,None,,,,,,0,3,3,3,,,,,0,3,3,3,,,,,,,,,,,,,,,,,,,,,,,,,,,,,,,,,1,1.7860230449587107,,,,,,,,,,,,,,,,,,,,,,,,,,,,062819_p2,001,2019_Jun_28_1423,body_behavioural,3.0.4,60.00004848236411,
3,She looked somewhat confused but primarily indignant that the door had been in her way. ,1,1,None,,,,,,0,3,3,3,,,,,0,4,4,4,,,,,,,,,,,,,,,,,,,,,,,,,,,,,,,,,1,4.536510606994852,,,,,,,,,,,,,,,,,,,,,,,,,,,,062819_p2,001,2019_Jun_28_1423,body_behavioural,3.0.4,60.00004848236411,
3,"James found this quite charming and stole a couple glances at her, peeking up from the newspaper he was holding, until she noticed and wrinkled her eyebrows at him. ",1,1,None,,,,,,0,3,3,3,,,,,0,5,5,5,,,,,,,,,,,,,,,,,,,,,,,,,,,,,,,,,9,6.067954839963932,,,,,,,,,,,,,,,,,,,,,,,,,,,,062819_p2,001,2019_Jun_28_1423,body_behavioural,3.0.4,60.00004848236411,
3,James and Teresa had both chosen the least busy time to try out Atlanta’s newest sushi restaurant.  ,1,1,None,,,,,,0,3,3,3,,,,,0,6,6,6,,,,,,,,,,,,,,,,,,,,,,,,,,,,,,,,,1,2.9533826400293037,,,,,,,,,,,,,,,,,,,,,,,,,,,,062819_p2,001,2019_Jun_28_1423,body_behavioural,3.0.4,60.00004848236411,
3,It was notable for both the food and the decor. ,1,1,None,,,,,,0,3,3,3,,,,,0,7,7,7,,,,,,,,,,,,,,,,,,,,,,,,,,,,,,,,,1,3.3357431910117157,,,,,,,,,,,,,,,,,,,,,,,,,,,,062819_p2,001,2019_Jun_28_1423,body_behavioural,3.0.4,60.00004848236411,
3,"There were pine wood countertops and chairs, plants all along the sides of the walls, and branch-looking structures hanging from the ceiling. ",1,1,None,,,,,,0,3,3,3,,,,,0,8,8,8,,,,,,,,,,,,,,,,,,,,,,,,,,,,,,,,,1,10.070495616993867,,,,,,,,,,,,,,,,,,,,,,,,,,,,062819_p2,001,2019_Jun_28_1423,body_behavioural,3.0.4,60.00004848236411,
3,"The host sat James and Teresa, who were both dining alone, at the bar. ",2,1,None,,,,,,0,3,3,3,,,,,0,9,9,9,,,,,,,,,,,,,,,,,,,,,,,,,,,,,,,,,1,6.436991130001843,,,,,,,,,,,,,,,,,,,,,,,,,,,,062819_p2,001,2019_Jun_28_1423,body_behavioural,3.0.4,60.00004848236411,
3,They sat a seat apart from each other on the bench.,2,1,None,,,,,,0,3,3,3,,,,,0,10,10,10,,,,,,,,,,,,,,,,,,,,,,,,,,,,,,,,,1,4.703515191969927,,,,,,,,,,,,,,,,,,,,,,,,,,,,062819_p2,001,2019_Jun_28_1423,body_behavioural,3.0.4,60.00004848236411,
3,"The waitress behind the counter gave them bright neon menus that were filled with entrees in Japanese with small, English translations. ",2,1,None,,,,,,0,3,3,3,,,,,0,11,11,11,,,,,,,,,,,,,,,,,,,,,,,,,,,,,,,,,1,5.236674580024555,,,,,,,,,,,,,,,,,,,,,,,,,,,,062819_p2,001,2019_Jun_28_1423,body_behavioural,3.0.4,60.00004848236411,
3,James quickly glanced through it while Teresa took a longer time. ,2,1,None,,,,,,0,3,3,3,,,,,0,12,12,12,,,,,,,,,,,,,,,,,,,,,,,,,,,,,,,,,1,2.052935229963623,,,,,,,,,,,,,,,,,,,,,,,,,,,,062819_p2,001,2019_Jun_28_1423,body_behavioural,3.0.4,60.00004848236411,
3,"A few minutes passed before, James turned to Teresa and asked, “Is your forehead alright?”",2,2,None,,,,,,0,3,3,3,,,,,0,13,13,13,,,,,,,,,,,,,,,,,,,,,,,,,,,,,,,,,1,2.336556570022367,,,,,,,,,,,,,,,,,,,,,,,,,,,,062819_p2,001,2019_Jun_28_1423,body_behavioural,3.0.4,60.00004848236411,
3,She turned to him and smirked.,2,2,None,,,,,,0,3,3,3,,,,,0,14,14,14,,,,,,,,,,,,,,,,,,,,,,,,,,,,,,,,,1,1.0174539299914613,,,,,,,,,,,,,,,,,,,,,,,,,,,,062819_p2,001,2019_Jun_28_1423,body_behavioural,3.0.4,60.00004848236411,
3,“Have you ever been stung by a scorpion?” she asked him.,2,2,None,,,,,,0,3,3,3,,,,,0,15,15,15,,,,,,,,,,,,,,,,,,,,,,,,,,,,,,,,,1,2.4698055670014583,,,,,,,,,,,,,,,,,,,,,,,,,,,,062819_p2,001,2019_Jun_28_1423,body_behavioural,3.0.4,60.00004848236411,
3,“What?” he responded confusedly.,2,2,None,,,,,,0,3,3,3,,,,,0,16,16,16,,,,,,,,,,,,,,,,,,,,,,,,,,,,,,,,,1,1.0362117069889791,,,,,,,,,,,,,,,,,,,,,,,,,,,,062819_p2,001,2019_Jun_28_1423,body_behavioural,3.0.4,60.00004848236411,
3, “A scorpion.”,2,2,None,,,,,,0,3,3,3,,,,,0,17,17,17,,,,,,,,,,,,,,,,,,,,,,,,,,,,,,,,,1,0.6030169649748132,,,,,,,,,,,,,,,,,,,,,,,,,,,,062819_p2,001,2019_Jun_28_1423,body_behavioural,3.0.4,60.00004848236411,
3,James began to worry that Teresa had possibly suffered a concussion in the door crash.,2,2,None,,,,,,0,3,3,3,,,,,0,18,18,18,,,,,,,,,,,,,,,,,,,,,,,,,,,,,,,,,1,2.469697177002672,,,,,,,,,,,,,,,,,,,,,,,,,,,,062819_p2,001,2019_Jun_28_1423,body_behavioural,3.0.4,60.00004848236411,
3,"“Uh no, why?” he asked.",2,2,None,,,,,,0,3,3,3,,,,,0,19,19,19,,,,,,,,,,,,,,,,,,,,,,,,,,,,,,,,,1,1.169071674987208,,,,,,,,,,,,,,,,,,,,,,,,,,,,062819_p2,001,2019_Jun_28_1423,body_behavioural,3.0.4,60.00004848236411,
3,"“Because I’ve been stung by one, and since then, things like bumping into doors seem like pretty small potatoes.” ",2,2,None,,,,,,0,3,3,3,,,,,0,20,20,20,,,,,,,,,,,,,,,,,,,,,,,,,,,,,,,,,1,2.9202514049829915,,,,,,,,,,,,,,,,,,,,,,,,,,,,062819_p2,001,2019_Jun_28_1423,body_behavioural,3.0.4,60.00004848236411,
3,"They carried on talking, and Teresa told him all about her encounter with a Deathstalker scorpion while she was studying abroad in Egypt.",2,2,None,,,,,,0,3,3,3,,,,,0,21,21,21,,,,,,,,,,,,,,,,,,,,,,,,,,,,,,,,,1,4.019235086045228,,,,,,,,,,,,,,,,,,,,,,,,,,,,062819_p2,001,2019_Jun_28_1423,body_behavioural,3.0.4,60.00004848236411,
3,"The waitress behind the counter came up to them and asked, “Are you ready for your order?” ",3,2,None,,,,,,0,3,3,3,,,,,0,22,22,22,,,,,,,,,,,,,,,,,,,,,,,,,,,,,,,,,9,4.620476601994596,,,,,,,,,,,,,,,,,,,,,,,,,,,,062819_p2,001,2019_Jun_28_1423,body_behavioural,3.0.4,60.00004848236411,
3,"She first looked at Teresa who answered, “Yes, I’ll have a salmon roll and a Japanese beer.”",3,2,None,,,,,,0,3,3,3,,,,,0,23,23,23,,,,,,,,,,,,,,,,,,,,,,,,,,,,,,,,,1,4.619994045002386,,,,,,,,,,,,,,,,,,,,,,,,,,,,062819_p2,001,2019_Jun_28_1423,body_behavioural,3.0.4,60.00004848236411,
3,Then the waitress turned to James.,3,2,None,,,,,,0,3,3,3,,,,,0,24,24,24,,,,,,,,,,,,,,,,,,,,,,,,,,,,,,,,,1,3.169925627997145,,,,,,,,,,,,,,,,,,,,,,,,,,,,062819_p2,001,2019_Jun_28_1423,body_behavioural,3.0.4,60.00004848236411,
3,"He said, “I’ll have a tuna roll and a vegetable roll.” ",3,2,None,,,,,,0,3,3,3,,,,,0,25,25,25,,,,,,,,,,,,,,,,,,,,,,,,,,,,,,,,,1,1.469321571988985,,,,,,,,,,,,,,,,,,,,,,,,,,,,062819_p2,001,2019_Jun_28_1423,body_behavioural,3.0.4,60.00004848236411,
3,"“Alright, thank you!” the waitress said.",3,2,None,,,,,,0,3,3,3,,,,,0,26,26,26,,,,,,,,,,,,,,,,,,,,,,,,,,,,,,,,,1,1.1698471650015563,,,,,,,,,,,,,,,,,,,,,,,,,,,,062819_p2,001,2019_Jun_28_1423,body_behavioural,3.0.4,60.00004848236411,
3,"James and Teresa talked about a concert James was going to that night, and he suddenly and nervously invited her to come along.",3,3,None,,,,,,0,3,3,3,,,,,0,27,27,27,,,,,,,,,,,,,,,,,,,,,,,,,,,,,,,,,1,3.6864384819637053,,,,,,,,,,,,,,,,,,,,,,,,,,,,062819_p2,001,2019_Jun_28_1423,body_behavioural,3.0.4,60.00004848236411,
3,He promised her that the concert would be indoors and absolutely free of venomous insects.,3,3,None,,,,,,0,3,3,3,,,,,0,28,28,28,,,,,,,,,,,,,,,,,,,,,,,,,,,,,,,,,1,2.5673936899984255,,,,,,,,,,,,,,,,,,,,,,,,,,,,062819_p2,001,2019_Jun_28_1423,body_behavioural,3.0.4,60.00004848236411,
3,"Teresa agreed, gave him her number, and they worked out that James would pick her up that evening before the concert and drive them there.",3,3,None,,,,,,0,3,3,3,,,,,0,29,29,29,,,,,,,,,,,,,,,,,,,,,,,,,,,,,,,,,1,5.636389996972866,,,,,,,,,,,,,,,,,,,,,,,,,,,,062819_p2,001,2019_Jun_28_1423,body_behavioural,3.0.4,60.00004848236411,
3,"This was not what they had expected from their solitary lunch plans and were both excited, even though Teresa was doing a much better job of hiding it than James. ",3,3,None,,,,,,0,3,3,3,,,,,0,30,30,30,,,,,,,,,,,,,,,,,,,,,,,,,,,,,,,,,1,5.536606635025237,,,,,,,,,,,,,,,,,,,,,,,,,,,,062819_p2,001,2019_Jun_28_1423,body_behavioural,3.0.4,60.00004848236411,
3,"The waitress brought out their food, placing the plates close to each other so James had to sit closer to Teresa on the bench. ",4,3,None,,,,,,0,3,3,3,,,,,0,31,31,31,,,,,,,,,,,,,,,,,,,,,,,,,,,,,,,,,1,3.6865939600393176,,,,,,,,,,,,,,,,,,,,,,,,,,,,062819_p2,001,2019_Jun_28_1423,body_behavioural,3.0.4,60.00004848236411,
3,Teresa was happy to share the meal with James. ,4,3,None,,,,,,0,3,3,3,,,,,0,32,32,32,,,,,,,,,,,,,,,,,,,,,,,,,,,,,,,,,1,1.5693449369864538,,,,,,,,,,,,,,,,,,,,,,,,,,,,062819_p2,001,2019_Jun_28_1423,body_behavioural,3.0.4,60.00004848236411,
3,They really enjoyed their rolls because the fish tasted very fresh. ,4,3,None,,,,,,0,3,3,3,,,,,0,33,33,33,,,,,,,,,,,,,,,,,,,,,,,,,,,,,,,,,1,1.886260824976489,,,,,,,,,,,,,,,,,,,,,,,,,,,,062819_p2,001,2019_Jun_28_1423,body_behavioural,3.0.4,60.00004848236411,
3,"James looked at his watch and seeing that it was 3pm said, “I have to run- got to finish some errands before the show.”",4,4,None,,,,,,0,3,3,3,,,,,0,34,34,34,,,,,,,,,,,,,,,,,,,,,,,,,,,,,,,,,1,3.952666510012932,,,,,,,,,,,,,,,,,,,,,,,,,,,,062819_p2,001,2019_Jun_28_1423,body_behavioural,3.0.4,60.00004848236411,
3,See you tonight and watch out for that door!”,4,4,None,,,,,,0,3,3,3,,,,,0,35,35,35,,,,,,,,,,,,,,,,,,,,,,,,,,,,,,,,,1,2.1030657769879326,,,,,,,,,,,,,,,,,,,,,,,,,,,,062819_p2,001,2019_Jun_28_1423,body_behavioural,3.0.4,60.00004848236411,
3,,,,,,,,,,0,3,3,3,,,,,,,,,,,,,,,,,,,,,,,,,,,,,,,,,,,,,,,,,,,,,,,,,,,,,,,,,,,,,,,,,,,,,,062819_p2,001,2019_Jun_28_1423,body_behavioural,3.0.4,60.00004848236411,
4,,,,,,,,,,0,4,4,4,0,0,0,0,,,,,,,,,,,,,,,,,,,,,,,,,,,space,0.8365012450376526,space,0.5700780880288221,space,0.8359714020043612,,,,,,,,,,,,,,,,,,,,,,,,,,,,,,,,,,062819_p2,001,2019_Jun_28_1423,body_behavioural,3.0.4,60.00004848236411,
4,The grocery store was not the place Emmanuella and Liam wanted to be at the moment considering that they had been fighting to the point where Emmanuella was thinking of breaking up with Liam.,1.0,1.0,13.0,,,,,,0,4,4,4,,,,,0,0,0,0,,,,,,,,,,,,,,,,,,,,,,,,,,,,,space,0.40283166500739753,space,0.9528699819929898,9,8.286574625002686,,,,,,,,,,,,,,,,,,,,,,,,,,,,062819_p2,001,2019_Jun_28_1423,body_behavioural,3.0.4,60.00004848236411,
4,Emmanuella had been thinking of breaking up with Liam for the past 5 months.,None,None,None,,,,,,0,4,4,4,,,,,0,1,1,1,,,,,,,,,,,,,,,,,,,,,,,,,,,,,,,,,1,3.8034812179976143,,,,,,,,,,,,,,,,,,,,,,,,,,,,062819_p2,001,2019_Jun_28_1423,body_behavioural,3.0.4,60.00004848236411,
4,"Despite the current tension, they had to go grocery shopping because they were hosting a dinner party for friends that evening and had little at home with which to cook. ",1.0,1.0,None,,,,,,0,4,4,4,,,,,0,2,2,2,,,,,,,,,,,,,,,,,,,,,,,,,,,,,,,,,1,6.003552480018698,,,,,,,,,,,,,,,,,,,,,,,,,,,,062819_p2,001,2019_Jun_28_1423,body_behavioural,3.0.4,60.00004848236411,
4,"The grocery store smelled like lavender upon entering and was dimly lit with pine shelves in the entrance and obscure, organic products displayed on them.",1.0,1.0,None,,,,,,0,4,4,4,,,,,0,3,3,3,,,,,,,,,,,,,,,,,,,,,,,,,,,,,,,,,1,5.152840549999382,,,,,,,,,,,,,,,,,,,,,,,,,,,,062819_p2,001,2019_Jun_28_1423,body_behavioural,3.0.4,60.00004848236411,
4,"In the pasta section, Emmanuella grabbed a few boxes of bow-tie pasta.",2.0,1.0,None,,,,,,0,4,4,4,,,,,0,4,4,4,,,,,,,,,,,,,,,,,,,,,,,,,,,,,,,,,1,3.800836209964473,,,,,,,,,,,,,,,,,,,,,,,,,,,,062819_p2,001,2019_Jun_28_1423,body_behavioural,3.0.4,60.00004848236411,
4,"“I guess we are having a pasta dish tonight,” Liam said.",2.0,1.0,None,,,,,,0,4,4,4,,,,,0,5,5,5,,,,,,,,,,,,,,,,,,,,,,,,,,,,,,,,,1,1.753058210015297,,,,,,,,,,,,,,,,,,,,,,,,,,,,062819_p2,001,2019_Jun_28_1423,body_behavioural,3.0.4,60.00004848236411,
4,"Emmanuella looked back at him and said, “Well if you were going to actually help cook, I would be fine with something else.”",2.0,1.0,None,,,,,,0,4,4,4,,,,,0,6,6,6,,,,,,,,,,,,,,,,,,,,,,,,,,,,,,,,,1,3.2694143370026723,,,,,,,,,,,,,,,,,,,,,,,,,,,,062819_p2,001,2019_Jun_28_1423,body_behavioural,3.0.4,60.00004848236411,
4,"Liam sighed, and finally said, “You know- you don’t want me to help.",2.0,1.0,None,,,,,,0,4,4,4,,,,,0,7,7,7,,,,,,,,,,,,,,,,,,,,,,,,,,,,,,,,,1,2.8018630040460266,,,,,,,,,,,,,,,,,,,,,,,,,,,,062819_p2,001,2019_Jun_28_1423,body_behavioural,3.0.4,60.00004848236411,
4,"I try to, but it seems like I always get in the way!” ",2.0,1.0,None,,,,,,0,4,4,4,,,,,0,8,8,8,,,,,,,,,,,,,,,,,,,,,,,,,,,,,,,,,1,1.901539140031673,,,,,,,,,,,,,,,,,,,,,,,,,,,,062819_p2,001,2019_Jun_28_1423,body_behavioural,3.0.4,60.00004848236411,
4,Emmanuella shook her head and dropped the pasta boxes in the basket she was holding.,2.0,1.0,None,,,,,,0,4,4,4,,,,,0,9,9,9,,,,,,,,,,,,,,,,,,,,,,,,,,,,,,,,,1,6.55325100797927,,,,,,,,,,,,,,,,,,,,,,,,,,,,062819_p2,001,2019_Jun_28_1423,body_behavioural,3.0.4,60.00004848236411,
4," “Like you even try,” she mumbled to herself. ",2.0,1.0,None,,,,,,0,4,4,4,,,,,0,10,10,10,,,,,,,,,,,,,,,,,,,,,,,,,,,,,,,,,1,1.8697568799834698,,,,,,,,,,,,,,,,,,,,,,,,,,,,062819_p2,001,2019_Jun_28_1423,body_behavioural,3.0.4,60.00004848236411,
4,She continued down the aisle and studied a jar of vodka sauce and a can of olives before putting them in the basket as well. ,2.0,1.0,None,,,,,,0,4,4,4,,,,,0,11,11,11,,,,,,,,,,,,,,,,,,,,,,,,,,,,,,,,,1,3.9367457250482403,,,,,,,,,,,,,,,,,,,,,,,,,,,,062819_p2,001,2019_Jun_28_1423,body_behavioural,3.0.4,60.00004848236411,
4,"Emmanuella suddenly wrinkled her eyebrows, turned to Liam, and said, “I want to break up since I’m tired of the constant fighting. ",2.0,2.0,None,,,,,,0,4,4,4,,,,,0,12,12,12,,,,,,,,,,,,,,,,,,,,,,,,,,,,,,,,,9,5.75396440498298,,,,,,,,,,,,,,,,,,,,,,,,,,,,062819_p2,001,2019_Jun_28_1423,body_behavioural,3.0.4,60.00004848236411,
4,"I was going to wait until after this horribly-timed dinner party tonight to talk about this, but I might as well say it now.",2.0,2.0,None,,,,,,0,4,4,4,,,,,0,13,13,13,,,,,,,,,,,,,,,,,,,,,,,,,,,,,,,,,1,3.103167282009963,,,,,,,,,,,,,,,,,,,,,,,,,,,,062819_p2,001,2019_Jun_28_1423,body_behavioural,3.0.4,60.00004848236411,
4,"I feel like when we try to do anything anymore it ends up unpleasant for the stupidest reasons, and I am just past trying to work things out.”",2.0,2.0,None,,,,,,0,4,4,4,,,,,0,14,14,14,,,,,,,,,,,,,,,,,,,,,,,,,,,,,,,,,1,4.053532822988927,,,,,,,,,,,,,,,,,,,,,,,,,,,,062819_p2,001,2019_Jun_28_1423,body_behavioural,3.0.4,60.00004848236411,
4,Liam was nodding automatically.,2.0,2.0,None,,,,,,0,4,4,4,,,,,0,15,15,15,,,,,,,,,,,,,,,,,,,,,,,,,,,,,,,,,1,1.552992515033111,,,,,,,,,,,,,,,,,,,,,,,,,,,,062819_p2,001,2019_Jun_28_1423,body_behavioural,3.0.4,60.00004848236411,
4,"In the checkout area, there was only one station open, Station 2, but it was not very crowded.",3.0,2.0,None,,,,,,0,4,4,4,,,,,0,16,16,16,,,,,,,,,,,,,,,,,,,,,,,,,,,,,,,,,1,4.986542264989112,,,,,,,,,,,,,,,,,,,,,,,,,,,,062819_p2,001,2019_Jun_28_1423,body_behavioural,3.0.4,60.00004848236411,
4,They got in line.,3.0,2.0,None,,,,,,0,4,4,4,,,,,0,17,17,17,,,,,,,,,,,,,,,,,,,,,,,,,,,,,,,,,1,4.469779940031003,,,,,,,,,,,,,,,,,,,,,,,,,,,,062819_p2,001,2019_Jun_28_1423,body_behavioural,3.0.4,60.00004848236411,
4,"Liam gazed in the direction of the magazines, but his eyes were glazed over as he was working things out in his head while Emmanuella scrutinized the pasta sauce again. ",3.0,2.0,None,,,,,,0,4,4,4,,,,,0,18,18,18,,,,,,,,,,,,,,,,,,,,,,,,,,,,,,,,,1,4.303179876995273,,,,,,,,,,,,,,,,,,,,,,,,,,,,062819_p2,001,2019_Jun_28_1423,body_behavioural,3.0.4,60.00004848236411,
4,"After a few minutes of thinking, Liam recollected himself, turned to her, and sighed, “Yes, I think the same thing.",3.0,3.0,None,,,,,,0,4,4,4,,,,,0,19,19,19,,,,,,,,,,,,,,,,,,,,,,,,,,,,,,,,,1,3.3864567799610086,,,,,,,,,,,,,,,,,,,,,,,,,,,,062819_p2,001,2019_Jun_28_1423,body_behavioural,3.0.4,60.00004848236411,
4,I think we should break up because we could definitely be happier with other people.” ,3.0,3.0,None,,,,,,0,4,4,4,,,,,0,20,20,20,,,,,,,,,,,,,,,,,,,,,,,,,,,,,,,,,1,3.286229019984603,,,,,,,,,,,,,,,,,,,,,,,,,,,,062819_p2,001,2019_Jun_28_1423,body_behavioural,3.0.4,60.00004848236411,
4,Emmanuella nodded as she listened. ,3.0,3.0,None,,,,,,0,4,4,4,,,,,0,21,21,21,,,,,,,,,,,,,,,,,,,,,,,,,,,,,,,,,1,1.103085037029814,,,,,,,,,,,,,,,,,,,,,,,,,,,,062819_p2,001,2019_Jun_28_1423,body_behavioural,3.0.4,60.00004848236411,
4,The cashier scanned their groceries.,4.0,3.0,None,,,,,,0,4,4,4,,,,,0,22,22,22,,,,,,,,,,,,,,,,,,,,,,,,,,,,,,,,,1,1.852898724959232,,,,,,,,,,,,,,,,,,,,,,,,,,,,062819_p2,001,2019_Jun_28_1423,body_behavioural,3.0.4,60.00004848236411,
4,"The cost came to $30, and Emmanuella paid with her credit card.",4.0,3.0,None,,,,,,0,4,4,4,,,,,0,23,23,23,,,,,,,,,,,,,,,,,,,,,,,,,,,,,,,,,1,2.686562250019051,,,,,,,,,,,,,,,,,,,,,,,,,,,,062819_p2,001,2019_Jun_28_1423,body_behavioural,3.0.4,60.00004848236411,
4,"She asked Liam politely to take the bags, and he obliged, following her to the exit. ",4.0,3.0,None,,,,,,0,4,4,4,,,,,0,24,24,24,,,,,,,,,,,,,,,,,,,,,,,,,,,,,,,,,1,3.2369495250168256,,,,,,,,,,,,,,,,,,,,,,,,,,,,062819_p2,001,2019_Jun_28_1423,body_behavioural,3.0.4,60.00004848236411,
4,"Filled with a sudden wave of sadness, Emmanuella said, “Liam, I think we are making the right decision- this is good.”",4.0,4.0,None,,,,,,0,4,4,4,,,,,0,25,25,25,,,,,,,,,,,,,,,,,,,,,,,,,,,,,,,,,1,3.1189102670177817,,,,,,,,,,,,,,,,,,,,,,,,,,,,062819_p2,001,2019_Jun_28_1423,body_behavioural,3.0.4,60.00004848236411,
4,"“I agree,” he said, relieved at the hope he was entertaining that they had just gotten through their last fight. ",4.0,4.0,None,,,,,,0,4,4,4,,,,,0,26,26,26,,,,,,,,,,,,,,,,,,,,,,,,,,,,,,,,,1,3.414604839985259,,,,,,,,,,,,,,,,,,,,,,,,,,,,062819_p2,001,2019_Jun_28_1423,body_behavioural,3.0.4,60.00004848236411,
4,"“I think we can still host this dinner tonight, as long as you're still on board,” Emmanuella said.",4.0,4.0,None,,,,,,0,4,4,4,,,,,0,27,27,27,,,,,,,,,,,,,,,,,,,,,,,,,,,,,,,,,1,2.687289565044921,,,,,,,,,,,,,,,,,,,,,,,,,,,,062819_p2,001,2019_Jun_28_1423,body_behavioural,3.0.4,60.00004848236411,
4,"Liam nodded, “Yes, let’s just not tell anyone we’ve broken up tonight.” ",4.0,4.0,None,,,,,,0,4,4,4,,,,,0,28,28,28,,,,,,,,,,,,,,,,,,,,,,,,,,,,,,,,,1,1.669710637012031,,,,,,,,,,,,,,,,,,,,,,,,,,,,062819_p2,001,2019_Jun_28_1423,body_behavioural,3.0.4,60.00004848236411,
4,"Emmanuella laughed, “Whoever leaks it loses their right to the cat.”",4.0,4.0,None,,,,,,0,4,4,4,,,,,0,29,29,29,,,,,,,,,,,,,,,,,,,,,,,,,,,,,,,,,1,3.485130566987209,,,,,,,,,,,,,,,,,,,,,,,,,,,,062819_p2,001,2019_Jun_28_1423,body_behavioural,3.0.4,60.00004848236411,
4,"Liam chuckled and responded, “Hey!",4.0,4.0,None,,,,,,0,4,4,4,,,,,0,30,30,30,,,,,,,,,,,,,,,,,,,,,,,,,,,,,,,,,1,3.053752806968987,,,,,,,,,,,,,,,,,,,,,,,,,,,,062819_p2,001,2019_Jun_28_1423,body_behavioural,3.0.4,60.00004848236411,
4,Luna is mine and I want her back.”,4.0,4.0,None,,,,,,0,4,4,4,,,,,0,31,31,31,,,,,,,,,,,,,,,,,,,,,,,,,,,,,,,,,1,1.8362023570225574,,,,,,,,,,,,,,,,,,,,,,,,,,,,062819_p2,001,2019_Jun_28_1423,body_behavioural,3.0.4,60.00004848236411,
4,"Emmanuella rolled her eyes, knowing the cat would be a whole other issue to sort out later.
",4.0,4.0,None,,,,,,0,4,4,4,,,,,0,32,32,32,,,,,,,,,,,,,,,,,,,,,,,,,,,,,,,,,1,2.520692059013527,,,,,,,,,,,,,,,,,,,,,,,,,,,,062819_p2,001,2019_Jun_28_1423,body_behavioural,3.0.4,60.00004848236411,
4,,,,,,,,,,0,4,4,4,,,,,,,,,,,,,,,,,,,,,,,,,,,,,,,,,,,,,,,,,,,,,,,,,,,,,,,,,,,,,,,,,,,,,,062819_p2,001,2019_Jun_28_1423,body_behavioural,3.0.4,60.00004848236411,
5,,,,,,,,,,0,5,5,5,0,0,0,0,,,,,,,,,,,,,,,,,,,,,,,,,,,space,1.0199182420037687,space,0.7360537499771453,space,0.9357771520153619,,,,,,,,,,,,,,,,,,,,,,,,,,,,,,,,,,062819_p2,001,2019_Jun_28_1423,body_behavioural,3.0.4,60.00004848236411,
5,"Carina and Simon, both distracted in thought, nearly ran into each other as they walked into the grocery store. ",1,1,43.0,,,,,,0,5,5,5,,,,,0,0,0,0,,,,,,,,,,,,,,,,,,,,,,,,,,,,,space,0.11733049497706816,space,1.2700743830064312,9,8.936933066986967,,,,,,,,,,,,,,,,,,,,,,,,,,,,062819_p2,001,2019_Jun_28_1423,body_behavioural,3.0.4,60.00004848236411,
5,She nearly dropped the keys she was holding. ,1,1,None,,,,,,0,5,5,5,,,,,0,1,1,1,,,,,,,,,,,,,,,,,,,,,,,,,,,,,,,,,1,1.6198005799669772,,,,,,,,,,,,,,,,,,,,,,,,,,,,062819_p2,001,2019_Jun_28_1423,body_behavioural,3.0.4,60.00004848236411,
5,"The store they had entered looked like a warehouse, with high, black ceilings, industrial lights, and large packages of food. ",1,1,None,,,,,,0,5,5,5,,,,,0,2,2,2,,,,,,,,,,,,,,,,,,,,,,,,,,,,,,,,,1,8.053416720009409,,,,,,,,,,,,,,,,,,,,,,,,,,,,062819_p2,001,2019_Jun_28_1423,body_behavioural,3.0.4,60.00004848236411,
5,"In the meat section, Carina and Simon were looking over the same cuts of meat, because they were both preparing for barbecues.",2,1,None,,,,,,0,5,5,5,,,,,0,3,3,3,,,,,,,,,,,,,,,,,,,,,,,,,,,,,,,,,1,3.403237304999493,,,,,,,,,,,,,,,,,,,,,,,,,,,,062819_p2,001,2019_Jun_28_1423,body_behavioural,3.0.4,60.00004848236411,
5,"Simon had wanted to talk to Carina, and Carina had wanted to say something to Simon, but they felt embarrassed striking up a conversation with a stranger.",2,1,None,,,,,,0,5,5,5,,,,,0,4,4,4,,,,,,,,,,,,,,,,,,,,,,,,,,,,,,,,,1,4.236925031989813,,,,,,,,,,,,,,,,,,,,,,,,,,,,062819_p2,001,2019_Jun_28_1423,body_behavioural,3.0.4,60.00004848236411,
5,"Carina mustered the courage, turned to Simon and, pointing at a Cornish hen, asked, “Isn’t this meat cute?”",2,2,None,,,,,,0,5,5,5,,,,,0,5,5,5,,,,,,,,,,,,,,,,,,,,,,,,,,,,,,,,,1,3.8362914500175975,,,,,,,,,,,,,,,,,,,,,,,,,,,,062819_p2,001,2019_Jun_28_1423,body_behavioural,3.0.4,60.00004848236411,
5,"He laughed, and said, “It is very cute.",2,2,None,,,,,,0,5,5,5,,,,,0,6,6,6,,,,,,,,,,,,,,,,,,,,,,,,,,,,,,,,,1,1.903275134973228,,,,,,,,,,,,,,,,,,,,,,,,,,,,062819_p2,001,2019_Jun_28_1423,body_behavioural,3.0.4,60.00004848236411,
5,"Probably the younger brother of this guy,” and he picked up a regular-sized chicken.",2,2,None,,,,,,0,5,5,5,,,,,0,7,7,7,,,,,,,,,,,,,,,,,,,,,,,,,,,,,,,,,1,4.667585082992446,,,,,,,,,,,,,,,,,,,,,,,,,,,,062819_p2,001,2019_Jun_28_1423,body_behavioural,3.0.4,60.00004848236411,
5,"“Unlucky family,” she responded as she shook her head. ",2,2,None,,,,,,0,5,5,5,,,,,0,8,8,8,,,,,,,,,,,,,,,,,,,,,,,,,,,,,,,,,1,3.1868319820496254,,,,,,,,,,,,,,,,,,,,,,,,,,,,062819_p2,001,2019_Jun_28_1423,body_behavioural,3.0.4,60.00004848236411,
5,They chatted as they picked out a few last-minute groceries.,2,2,None,,,,,,0,5,5,5,,,,,0,9,9,9,,,,,,,,,,,,,,,,,,,,,,,,,,,,,,,,,1,3.4361081199604087,,,,,,,,,,,,,,,,,,,,,,,,,,,,062819_p2,001,2019_Jun_28_1423,body_behavioural,3.0.4,60.00004848236411,
5,"Simon helped Carina select the best ribs and his personal favorite barbecue sauce, and she helped him choose red peppers and spices for a vegetable kabob she recommended.",2,2,None,,,,,,0,5,5,5,,,,,0,10,10,10,,,,,,,,,,,,,,,,,,,,,,,,,,,,,,,,,9,10.003127774980385,,,,,,,,,,,,,,,,,,,,,,,,,,,,062819_p2,001,2019_Jun_28_1423,body_behavioural,3.0.4,60.00004848236411,
5,"In the checkout area, there were three lines open, and they went to the one labeled “8.”",3,2,None,,,,,,0,5,5,5,,,,,0,11,11,11,,,,,,,,,,,,,,,,,,,,,,,,,,,,,,,,,1,8.353607391996775,,,,,,,,,,,,,,,,,,,,,,,,,,,,062819_p2,001,2019_Jun_28_1423,body_behavioural,3.0.4,60.00004848236411,
5,"Carina and Simon made jokes about the magazine covers while waiting in line, and they were laughing so hard their stomachs hurt. ",3,2,None,,,,,,0,5,5,5,,,,,0,12,12,12,,,,,,,,,,,,,,,,,,,,,,,,,,,,,,,,,1,5.301031566981692,,,,,,,,,,,,,,,,,,,,,,,,,,,,062819_p2,001,2019_Jun_28_1423,body_behavioural,3.0.4,60.00004848236411,
5,"Simon turned to face Carina and, while looking at her straight in the eyes, asked, “Would you like to go out to dinner with me?",3,3,None,,,,,,0,5,5,5,,,,,0,13,13,13,,,,,,,,,,,,,,,,,,,,,,,,,,,,,,,,,1,6.136107389989775,,,,,,,,,,,,,,,,,,,,,,,,,,,,062819_p2,001,2019_Jun_28_1423,body_behavioural,3.0.4,60.00004848236411,
5,Next Saturday we could tour around Harvard Square and get something to eat.,3,3,None,,,,,,0,5,5,5,,,,,0,14,14,14,,,,,,,,,,,,,,,,,,,,,,,,,,,,,,,,,1,3.8177205129759386,,,,,,,,,,,,,,,,,,,,,,,,,,,,062819_p2,001,2019_Jun_28_1423,body_behavioural,3.0.4,60.00004848236411,
5,"There are a lot of great places around there, and it’s really nice during the summer.”",3,3,None,,,,,,0,5,5,5,,,,,0,15,15,15,,,,,,,,,,,,,,,,,,,,,,,,,,,,,,,,,1,4.102739146037493,,,,,,,,,,,,,,,,,,,,,,,,,,,,062819_p2,001,2019_Jun_28_1423,body_behavioural,3.0.4,60.00004848236411,
5,"Carina smiled, “I’d love to- that sounds great!”",3,3,None,,,,,,0,5,5,5,,,,,0,16,16,16,,,,,,,,,,,,,,,,,,,,,,,,,,,,,,,,,1,1.969710303004831,,,,,,,,,,,,,,,,,,,,,,,,,,,,062819_p2,001,2019_Jun_28_1423,body_behavioural,3.0.4,60.00004848236411,
5,The cashier scanned Carina’s groceries.,4,3,None,,,,,,0,5,5,5,,,,,0,17,17,17,,,,,,,,,,,,,,,,,,,,,,,,,,,,,,,,,1,1.2504619600367732,,,,,,,,,,,,,,,,,,,,,,,,,,,,062819_p2,001,2019_Jun_28_1423,body_behavioural,3.0.4,60.00004848236411,
5,"Simon lifted up the divider on the conveyor belt and said to the cashier, “Actually, these are together.",4,3,None,,,,,,0,5,5,5,,,,,0,18,18,18,,,,,,,,,,,,,,,,,,,,,,,,,,,,,,,,,1,3.619894055009354,,,,,,,,,,,,,,,,,,,,,,,,,,,,062819_p2,001,2019_Jun_28_1423,body_behavioural,3.0.4,60.00004848236411,
5,"Carina, I’ve got it.",4,3,None,,,,,,0,5,5,5,,,,,0,19,19,19,,,,,,,,,,,,,,,,,,,,,,,,,,,,,,,,,1,4.570021532010287,,,,,,,,,,,,,,,,,,,,,,,,,,,,062819_p2,001,2019_Jun_28_1423,body_behavioural,3.0.4,60.00004848236411,
5,This was kind-of a date today.”,4,3,None,,,,,,0,5,5,5,,,,,0,20,20,20,,,,,,,,,,,,,,,,,,,,,,,,,,,,,,,,,1,2.286466314981226,,,,,,,,,,,,,,,,,,,,,,,,,,,,062819_p2,001,2019_Jun_28_1423,body_behavioural,3.0.4,60.00004848236411,
5,Carina blushed and laughed; she thought this was ridiculous but also very sweet. ,4,3,None,,,,,,0,5,5,5,,,,,0,21,21,21,,,,,,,,,,,,,,,,,,,,,,,,,,,,,,,,,1,2.2868785470491275,,,,,,,,,,,,,,,,,,,,,,,,,,,,062819_p2,001,2019_Jun_28_1423,body_behavioural,3.0.4,60.00004848236411,
5,"The cashier rolled her eyes when they weren’t looking, and she scanned the rest of his items. ",4,3,None,,,,,,0,5,5,5,,,,,0,22,22,22,,,,,,,,,,,,,,,,,,,,,,,,,,,,,,,,,1,2.917514040018432,,,,,,,,,,,,,,,,,,,,,,,,,,,,062819_p2,001,2019_Jun_28_1423,body_behavioural,3.0.4,60.00004848236411,
5,"The total came to $52, and he paid with his credit card.",4,3,None,,,,,,0,5,5,5,,,,,0,23,23,23,,,,,,,,,,,,,,,,,,,,,,,,,,,,,,,,,1,2.03640424500918,,,,,,,,,,,,,,,,,,,,,,,,,,,,062819_p2,001,2019_Jun_28_1423,body_behavioural,3.0.4,60.00004848236411,
5,"Seeing that it was 4:30 PM on her phone, Carina gasped because she realized she was late for her own barbecue. ",4,4,None,,,,,,0,5,5,5,,,,,0,24,24,24,,,,,,,,,,,,,,,,,,,,,,,,,,,,,,,,,1,4.217652457009535,,,,,,,,,,,,,,,,,,,,,,,,,,,,062819_p2,001,2019_Jun_28_1423,body_behavioural,3.0.4,60.00004848236411,
5,Carina thanked Simon and took her groceries and ran. ,4,4,None,,,,,,0,5,5,5,,,,,0,25,25,25,,,,,,,,,,,,,,,,,,,,,,,,,,,,,,,,,1,1.603085544949863,,,,,,,,,,,,,,,,,,,,,,,,,,,,062819_p2,001,2019_Jun_28_1423,body_behavioural,3.0.4,60.00004848236411,
5,"“I hope her guests aren’t hungry,” the cashier remarked.",4,4,None,,,,,,0,5,5,5,,,,,0,26,26,26,,,,,,,,,,,,,,,,,,,,,,,,,,,,,,,,,1,1.8532843950088136,,,,,,,,,,,,,,,,,,,,,,,,,,,,062819_p2,001,2019_Jun_28_1423,body_behavioural,3.0.4,60.00004848236411,
5,Simon was thoroughly charmed and barely heard the comment as he watched her go. ,4,4,None,,,,,,0,5,5,5,,,,,0,27,27,27,,,,,,,,,,,,,,,,,,,,,,,,,,,,,,,,,1,2.8860545399948023,,,,,,,,,,,,,,,,,,,,,,,,,,,,062819_p2,001,2019_Jun_28_1423,body_behavioural,3.0.4,60.00004848236411,
5,,,,,,,,,,0,5,5,5,,,,,,,,,,,,,,,,,,,,,,,,,,,,,,,,,,,,,,,,,,,,,,,,,,,,,,,,,,,,,,,,,,,,,,062819_p2,001,2019_Jun_28_1423,body_behavioural,3.0.4,60.00004848236411,
6,,,,,,,,,,0,6,6,6,0,0,0,0,,,,,,,,,,,,,,,,,,,,,,,,,,,space,1.5357949570170604,space,0.4695212200167589,space,0.8197426450205967,,,,,,,,,,,,,,,,,,,,,,,,,,,,,,,,,,062819_p2,001,2019_Jun_28_1423,body_behavioural,3.0.4,60.00004848236411,
6,"Thomas, dreading the approaching breakup conversation he was about to start, got to Annika’s Finer Diner late but Sadie, his girlfriend, was not there yet.",1,1,11.0,None,None,None,None,,0,6,6,6,,,,,0,0,0,0,,,,,,,,,,,,,,,,,,,,,,,,,,,,,space,0.6530553050106391,space,1.2697807520162314,9,10.287162637978327,,,,,,,,,,,,,,,,,,,,,,,,,,,,062819_p2,001,2019_Jun_28_1423,body_behavioural,3.0.4,60.00004848236411,
6,Thomas had been thinking about breaking up with her for 2 months now.,1,1,None,None,None,1.0,None,,0,6,6,6,,,,,0,1,1,1,,,,,,,,,,,,,,,,,,,,,,,,,,,,,,,,,1,2.403608663007617,,,,,,,,,,,,,,,,,,,,,,,,,,,,062819_p2,001,2019_Jun_28_1423,body_behavioural,3.0.4,60.00004848236411,
6,"The restaurant he had chosen to meet at was reminiscent of a diner from the 70’s; there was black and white checkerboard tiling on the floor, a long bar in the front, and booths and stools with red, leather upholstery. ",1,1,None,None,None,None,1.0,,0,6,6,6,,,,,0,2,2,2,,,,,,,,,,,,,,,,,,,,,,,,,,,,,,,,,1,7.284386145009194,,,,,,,,,,,,,,,,,,,,,,,,,,,,062819_p2,001,2019_Jun_28_1423,body_behavioural,3.0.4,60.00004848236411,
6,"A bell chimed as the door swung open, and Sadie entered to find Thomas ruminating at the bar.",1,1,None,None,None,None,None,,0,6,6,6,,,,,0,3,3,3,,,,,,,,,,,,,,,,,,,,,,,,,,,,,,,,,1,5.7199189880047925,,,,,,,,,,,,,,,,,,,,,,,,,,,,062819_p2,001,2019_Jun_28_1423,body_behavioural,3.0.4,60.00004848236411,
6,"He stood up and gave her a side hug, asking quickly, “How was your day?”",1,1,None,None,None,None,None,,0,6,6,6,,,,,0,4,4,4,,,,,,,,,,,,,,,,,,,,,,,,,,,,,,,,,1,4.017542034969665,,,,,,,,,,,,,,,,,,,,,,,,,,,,062819_p2,001,2019_Jun_28_1423,body_behavioural,3.0.4,60.00004848236411,
6,"She clung onto him, “It was okay- I missed you today.”",1,1,None,None,None,None,None,,0,6,6,6,,,,,0,5,5,5,,,,,,,,,,,,,,,,,,,,,,,,,,,,,,,,,1,2.1198561450000852,,,,,,,,,,,,,,,,,,,,,,,,,,,,062819_p2,001,2019_Jun_28_1423,body_behavioural,3.0.4,60.00004848236411,
6,"He looked away and addressed the hostess coming towards them, “Can we have a booth in the back?”",1,1,None,None,None,None,None,,0,6,6,6,,,,,0,6,6,6,,,,,,,,,,,,,,,,,,,,,,,,,,,,,,,,,1,4.236702409980353,,,,,,,,,,,,,,,,,,,,,,,,,,,,062819_p2,001,2019_Jun_28_1423,body_behavioural,3.0.4,60.00004848236411,
6,"She shrugged and after loudly popping her bubblegum replied, “Sure, honey.”",1,1,None,9.0,None,None,None,,0,6,6,6,,,,,0,7,7,7,,,,,,,,,,,,,,,,,,,,,,,,,,,,,,,,,1,3.5034172820160165,,,,,,,,,,,,,,,,,,,,,,,,,,,,062819_p2,001,2019_Jun_28_1423,body_behavioural,3.0.4,60.00004848236411,
6,She seated them at a booth in the back corner of the diner.  ,2,1,None,None,None,None,None,,0,6,6,6,,,,,0,8,8,8,,,,,,,,,,,,,,,,,,,,,,,,,,,,,,,,,1,2.417435041978024,,,,,,,,,,,,,,,,,,,,,,,,,,,,062819_p2,001,2019_Jun_28_1423,body_behavioural,3.0.4,60.00004848236411,
6,Sadie slipped into the cushioned seat and grabbed Thomas’ hand.,2,1,None,None,None,None,None,,0,6,6,6,,,,,0,9,9,9,,,,,,,,,,,,,,,,,,,,,,,,,,,,,,,,,1,5.369758576969616,,,,,,,,,,,,,,,,,,,,,,,,,,,,062819_p2,001,2019_Jun_28_1423,body_behavioural,3.0.4,60.00004848236411,
6,“Tell me about your day!” she sang.,2,1,None,None,None,None,None,,0,6,6,6,,,,,0,10,10,10,,,,,,,,,,,,,,,,,,,,,,,,,,,,,,,,,1,3.9033000870258547,,,,,,,,,,,,,,,,,,,,,,,,,,,,062819_p2,001,2019_Jun_28_1423,body_behavioural,3.0.4,60.00004848236411,
6,He looked at her silently and pulled his hand slowly from hers as a puzzled look grew on Sadie’s face. ,2,1,None,None,None,None,None,,0,6,6,6,,,,,0,11,11,11,,,,,,,,,,,,,,,,,,,,,,,,,,,,,,,,,1,3.402891467034351,,,,,,,,,,,,,,,,,,,,,,,,,,,,062819_p2,001,2019_Jun_28_1423,body_behavioural,3.0.4,60.00004848236411,
6,Thomas looked away and took a deep breath. ,2,1,None,None,None,None,None,,0,6,6,6,,,,,0,12,12,12,,,,,,,,,,,,,,,,,,,,,,,,,,,,,,,,,1,2.0534120100201108,,,,,,,,,,,,,,,,,,,,,,,,,,,,062819_p2,001,2019_Jun_28_1423,body_behavioural,3.0.4,60.00004848236411,
6,"Sadie asked, “What’s wrong?” ",2,1,None,None,None,None,None,,0,6,6,6,,,,,0,13,13,13,,,,,,,,,,,,,,,,,,,,,,,,,,,,,,,,,1,1.0871363999904133,,,,,,,,,,,,,,,,,,,,,,,,,,,,062819_p2,001,2019_Jun_28_1423,body_behavioural,3.0.4,60.00004848236411,
6,Thomas picked at his fingernails.,2,1,None,None,22.0,None,None,,0,6,6,6,,,,,0,14,14,14,,,,,,,,,,,,,,,,,,,,,,,,,,,,,,,,,1,1.6531760669895448,,,,,,,,,,,,,,,,,,,,,,,,,,,,062819_p2,001,2019_Jun_28_1423,body_behavioural,3.0.4,60.00004848236411,
6,"After a few moments, Thomas let out a deep breath and said, “Sadie, I’ve been thinking, and I need a break from this relationship because I need to figure out my career path on my own.”",2,2,None,None,None,None,None,,0,6,6,6,,,,,0,15,15,15,,,,,,,,,,,,,,,,,,,,,,,,,,,,,,,,,1,4.869781739951577,,,,,,,,,,,,,,,,,,,,,,,,,,,,062819_p2,001,2019_Jun_28_1423,body_behavioural,3.0.4,60.00004848236411,
6,Sadie sat back in her seat.,2,2,None,None,None,None,None,,0,6,6,6,,,,,0,16,16,16,,,,,,,,,,,,,,,,,,,,,,,,,,,,,,,,,1,1.6026256199693307,,,,,,,,,,,,,,,,,,,,,,,,,,,,062819_p2,001,2019_Jun_28_1423,body_behavioural,3.0.4,60.00004848236411,
6,"Thomas continued, “Things have been really picking up at work, and I’m not sure that this is the job I want to do anymore.",2,2,None,None,None,None,None,,0,6,6,6,,,,,0,17,17,17,,,,,,,,,,,,,,,,,,,,,,,,,,,,,,,,,1,4.234329380036797,,,,,,,,,,,,,,,,,,,,,,,,,,,,062819_p2,001,2019_Jun_28_1423,body_behavioural,3.0.4,60.00004848236411,
6,"Plus, it’s been really overwhelming between working and figuring out if I should change careers, and I really feel like I need more time to figure it out.” ",2,2,None,17.0,None,None,None,,0,6,6,6,,,,,0,18,18,18,,,,,,,,,,,,,,,,,,,,,,,,,,,,,,,,,1,3.919659187027719,,,,,,,,,,,,,,,,,,,,,,,,,,,,062819_p2,001,2019_Jun_28_1423,body_behavioural,3.0.4,60.00004848236411,
6,"The waiter appeared and cheerily asked, “Have you decided what you would like?”",3,2,None,None,None,None,None,,0,6,6,6,,,,,0,19,19,19,,,,,,,,,,,,,,,,,,,,,,,,,,,,,,,,,1,2.0834492949652486,,,,,,,,,,,,,,,,,,,,,,,,,,,,062819_p2,001,2019_Jun_28_1423,body_behavioural,3.0.4,60.00004848236411,
6,"Thomas and Sadie realized there were menus on the table, and they glanced at them quickly.",3,2,None,None,None,None,None,,0,6,6,6,,,,,0,20,20,20,,,,,,,,,,,,,,,,,,,,,,,,,,,,,,,,,1,3.2198588519822806,,,,,,,,,,,,,,,,,,,,,,,,,,,,062819_p2,001,2019_Jun_28_1423,body_behavioural,3.0.4,60.00004848236411,
6,"The menus were laminated posters with silly names for all the foods, and since they didn’t want to read through each item description, they settled on familiar orders.",3,2,None,None,None,None,None,,0,6,6,6,,,,,0,21,21,21,,,,,,,,,,,,,,,,,,,,,,,,,,,,,,,,,1,4.386866843036842,,,,,,,,,,,,,,,,,,,,,,,,,,,,062819_p2,001,2019_Jun_28_1423,body_behavioural,3.0.4,60.00004848236411,
6,"“I’ll have a burger, no tomatoes,” Thomas said.",3,2,None,None,None,None,None,,0,6,6,6,,,,,0,22,22,22,,,,,,,,,,,,,,,,,,,,,,,,,,,,,,,,,1,2.6197495499509387,,,,,,,,,,,,,,,,,,,,,,,,,,,,062819_p2,001,2019_Jun_28_1423,body_behavioural,3.0.4,60.00004848236411,
6,"Sadie asked about the reuben, and the waiter told her it was excellent.",3,2,None,None,None,None,None,,0,6,6,6,,,,,0,23,23,23,,,,,,,,,,,,,,,,,,,,,,,,,,,,,,,,,1,3.052971458004322,,,,,,,,,,,,,,,,,,,,,,,,,,,,062819_p2,001,2019_Jun_28_1423,body_behavioural,3.0.4,60.00004848236411,
6,"Confirming that that was all they’d like, the waiter walked away. ",3,2,None,None,None,None,None,,0,6,6,6,,,,,0,24,24,24,,,,,,,,,,,,,,,,,,,,,,,,,,,,,,,,,1,1.8508682299870998,,,,,,,,,,,,,,,,,,,,,,,,,,,,062819_p2,001,2019_Jun_28_1423,body_behavioural,3.0.4,60.00004848236411,
6,Sadie- not so quietly- burst into tears. ,3,3,None,None,None,None,None,,0,6,6,6,,,,,0,25,25,25,,,,,,,,,,,,,,,,,,,,,,,,,,,,,,,,,1,1.436239000002388,,,,,,,,,,,,,,,,,,,,,,,,,,,,062819_p2,001,2019_Jun_28_1423,body_behavioural,3.0.4,60.00004848236411,
6,People sitting at the bar looked over and quickly averted their gaze when they figured what was happening. ,3,3,None,None,None,None,None,,0,6,6,6,,,,,0,26,26,26,,,,,,,,,,,,,,,,,,,,,,,,,,,,,,,,,1,2.669832285027951,,,,,,,,,,,,,,,,,,,,,,,,,,,,062819_p2,001,2019_Jun_28_1423,body_behavioural,3.0.4,60.00004848236411,
6,"She whispered, “Is this really what you want?",3,3,None,None,None,None,None,,0,6,6,6,,,,,0,27,27,27,,,,,,,,,,,,,,,,,,,,,,,,,,,,,,,,,1,1.3697284850059077,,,,,,,,,,,,,,,,,,,,,,,,,,,,062819_p2,001,2019_Jun_28_1423,body_behavioural,3.0.4,60.00004848236411,
6,"I don’t understand- things were fine, I thought. ",3,3,None,None,None,None,None,,0,6,6,6,,,,,0,28,28,28,,,,,,,,,,,,,,,,,,,,,,,,,,,,,,,,,1,1.0030240620253608,,,,,,,,,,,,,,,,,,,,,,,,,,,,062819_p2,001,2019_Jun_28_1423,body_behavioural,3.0.4,60.00004848236411,
6,I think we should stay together because we can change how much we hang out. ,3,3,None,None,None,None,None,,0,6,6,6,,,,,0,29,29,29,,,,,,,,,,,,,,,,,,,,,,,,,,,,,,,,,1,3.036460321978666,,,,,,,,,,,,,,,,,,,,,,,,,,,,062819_p2,001,2019_Jun_28_1423,body_behavioural,3.0.4,60.00004848236411,
6,"We don’t have to hang out all the time, or as much as we do now.”",3,3,None,None,None,None,None,,0,6,6,6,,,,,0,30,30,30,,,,,,,,,,,,,,,,,,,,,,,,,,,,,,,,,1,2.469956830027513,,,,,,,,,,,,,,,,,,,,,,,,,,,,062819_p2,001,2019_Jun_28_1423,body_behavioural,3.0.4,60.00004848236411,
6,Thomas chewed on his bottom lip and picked at his now bleeding hangnail. ,3,3,None,20.0,None,None,None,,0,6,6,6,,,,,0,31,31,31,,,,,,,,,,,,,,,,,,,,,,,,,,,,,,,,,1,4.286544634960592,,,,,,,,,,,,,,,,,,,,,,,,,,,,062819_p2,001,2019_Jun_28_1423,body_behavioural,3.0.4,60.00004848236411,
6,The waiter appeared with the burger and reuben and set them in front of them.,4,3,None,None,None,None,None,,0,6,6,6,,,,,0,32,32,32,,,,,,,,,,,,,,,,,,,,,,,,,,,,,,,,,1,2.5174994220142253,,,,,,,,,,,,,,,,,,,,,,,,,,,,062819_p2,001,2019_Jun_28_1423,body_behavioural,3.0.4,60.00004848236411,
6,“Is there anything else I can get for you two?,4,3,None,None,None,None,None,,0,6,6,6,,,,,0,33,33,33,,,,,,,,,,,,,,,,,,,,,,,,,,,,,,,,,1,2.88416854001116,,,,,,,,,,,,,,,,,,,,,,,,,,,,062819_p2,001,2019_Jun_28_1423,body_behavioural,3.0.4,60.00004848236411,
6,Will you be getting dessert tonight?” he asked.,4,3,None,None,None,None,None,,0,6,6,6,,,,,0,34,34,34,,,,,,,,,,,,,,,,,,,,,,,,,,,,,,,,,1,5.536390661960468,,,,,,,,,,,,,,,,,,,,,,,,,,,,062819_p2,001,2019_Jun_28_1423,body_behavioural,3.0.4,60.00004848236411,
6,"“Oh no, we’re good, thanks,” Thomas said blankly.",4,3,None,None,None,None,None,,0,6,6,6,,,,,0,35,35,35,,,,,,,,,,,,,,,,,,,,,,,,,,,,,,,,,1,2.253216367040295,,,,,,,,,,,,,,,,,,,,,,,,,,,,062819_p2,001,2019_Jun_28_1423,body_behavioural,3.0.4,60.00004848236411,
6," With the waiter gone, Sadie suddenly stood up, grabbed half of the reuben, and shook it at him as she growled, “Don’t follow me, and don’t talk to me anymore!",4,4,None,None,None,None,None,,0,6,6,6,,,,,0,36,36,36,,,,,,,,,,,,,,,,,,,,,,,,,,,,,,,,,1,6.270094462030102,,,,,,,,,,,,,,,,,,,,,,,,,,,,062819_p2,001,2019_Jun_28_1423,body_behavioural,3.0.4,60.00004848236411,
6,"Also, I want my polaroid camera and Beatles poster back!”",4,4,None,None,None,None,None,,0,6,6,6,,,,,0,37,37,37,,,,,,,,,,,,,,,,,,,,,,,,,,,,,,,,,1,4.620041319984011,,,,,,,,,,,,,,,,,,,,,,,,,,,,062819_p2,001,2019_Jun_28_1423,body_behavioural,3.0.4,60.00004848236411,
6,"She stormed off, and the bell above the door jingled cheerfully as the door closed behind her.",4,4,None,None,None,None,None,,0,6,6,6,,,,,0,38,38,38,,,,,,,,,,,,,,,,,,,,,,,,,,,,,,,,,1,3.202995244995691,,,,,,,,,,,,,,,,,,,,,,,,,,,,062819_p2,001,2019_Jun_28_1423,body_behavioural,3.0.4,60.00004848236411,
6,Thomas sat there for awhile surprised at how quickly everything had transpired. ,4,4,None,None,None,None,None,,0,6,6,6,,,,,0,39,39,39,,,,,,,,,,,,,,,,,,,,,,,,,,,,,,,,,1,3.0533172850264236,,,,,,,,,,,,,,,,,,,,,,,,,,,,062819_p2,001,2019_Jun_28_1423,body_behavioural,3.0.4,60.00004848236411,
6,"He grabbed his burger and took a bite of it, creating a dry and fishy taste in his mouth.",4,4,None,None,None,None,None,,0,6,6,6,,,,,0,40,40,40,,,,,,,,,,,,,,,,,,,,,,,,,,,,,,,,,1,4.619922787009273,,,,,,,,,,,,,,,,,,,,,,,,,,,,062819_p2,001,2019_Jun_28_1423,body_behavioural,3.0.4,60.00004848236411,
6,He dropped it back on his plate and wondered if the restaurant was responsible for the foul taste. ,4,4,None,13.0,5.0,None,None,,0,6,6,6,,,,,0,41,41,41,,,,,,,,,,,,,,,,,,,,,,,,,,,,,,,,,1,4.051071017980576,,,,,,,,,,,,,,,,,,,,,,,,,,,,062819_p2,001,2019_Jun_28_1423,body_behavioural,3.0.4,60.00004848236411,
6,,,,,,,,,,0,6,6,6,,,,,,,,,,,,,,,,,,,,,,,,,,,,,,,,,,,,,,,,,,,,,,,,,,,,,,,,,,,,,,,,,,,,,,062819_p2,001,2019_Jun_28_1423,body_behavioural,3.0.4,60.00004848236411,
7,,,,,,,,,,0,7,7,7,0,0,0,0,,,,,,,,,,,,,,,,,,,,,,,,,,,space,1.0198431729804724,space,0.7362062949687243,space,0.7712222900008783,,,,,,,,,,,,,,,,,,,,,,,,,,,,,,,,,,062819_p2,001,2019_Jun_28_1423,body_behavioural,3.0.4,60.00004848236411,
7,"Jeff, hoping that today would be a pivotal day for his company, had only been waiting inside the entrance of the airport for a few minutes when he saw William and eagerly waved him over. ",1,1,32.0,,,,,,0,7,7,7,,,,,0,0,0,0,,,,,,,,,,,,,,,,,,,,,,,,,,,,,space,0.719485089997761,space,0.8692693199845962,9,8.28762291802559,,,,,,,,,,,,,,,,,,,,,,,,,,,,062819_p2,001,2019_Jun_28_1423,body_behavioural,3.0.4,60.00004848236411,
7,William checked his watch and was pleased to see that the two of them had two hours to discuss business before their flights left Boston.,1,1,None,,,,,,0,7,7,7,,,,,0,1,1,1,,,,,,,,,,,,,,,,,,,,,,,,,,,,,,,,,1,4.886585516971536,,,,,,,,,,,,,,,,,,,,,,,,,,,,062819_p2,001,2019_Jun_28_1423,body_behavioural,3.0.4,60.00004848236411,
7,Jeff and William had met the night before in line for the bathroom at a local bar. ,1,1,None,,,,,,0,7,7,7,,,,,0,2,2,2,,,,,,,,,,,,,,,,,,,,,,,,,,,,,,,,,1,4.486240661994088,,,,,,,,,,,,,,,,,,,,,,,,,,,,062819_p2,001,2019_Jun_28_1423,body_behavioural,3.0.4,60.00004848236411,
7,Jeff had delivered some surprisingly-detailed complaints to William about the wine selection.,1,1,None,,,,,,0,7,7,7,,,,,0,3,3,3,,,,,,,,,,,,,,,,,,,,,,,,,,,,,,,,,1,5.020084250019863,,,,,,,,,,,,,,,,,,,,,,,,,,,,062819_p2,001,2019_Jun_28_1423,body_behavioural,3.0.4,60.00004848236411,
7,They quickly learned that they were both in the wine industry: Jeff was a sales associate for wine vineyards in the Northeast and William was a wine buyer for corporate events.,1,1,None,,,,,,0,7,7,7,,,,,0,4,4,4,,,,,,,,,,,,,,,,,,,,,,,,,,,,,,,,,1,8.017360514961183,,,,,,,,,,,,,,,,,,,,,,,,,,,,062819_p2,001,2019_Jun_28_1423,body_behavioural,3.0.4,60.00004848236411,
7,"Since they both had flights out of Boston at the same time, they had agreed to meet at the airport and talk about doing business together. ",1,1,None,,,,,,0,7,7,7,,,,,0,5,5,5,,,,,,,,,,,,,,,,,,,,,,,,,,,,,,,,,1,3.8171980049810372,,,,,,,,,,,,,,,,,,,,,,,,,,,,062819_p2,001,2019_Jun_28_1423,body_behavioural,3.0.4,60.00004848236411,
7,They waited in line at security.,2,1,None,,,,,,0,7,7,7,,,,,0,6,6,6,,,,,,,,,,,,,,,,,,,,,,,,,,,,,,,,,1,3.1371089100139216,,,,,,,,,,,,,,,,,,,,,,,,,,,,062819_p2,001,2019_Jun_28_1423,body_behavioural,3.0.4,60.00004848236411,
7,"“It’s crazy that we met last night,” William said.",2,1,None,,,,,,0,7,7,7,,,,,0,7,7,7,,,,,,,,,,,,,,,,,,,,,,,,,,,,,,,,,1,1.4866624569986016,,,,,,,,,,,,,,,,,,,,,,,,,,,,062819_p2,001,2019_Jun_28_1423,body_behavioural,3.0.4,60.00004848236411,
7,"“I am flying out right now to meet my boss, and was worried that I was going to show up empty handed without anything to show for the East Coast.” ",2,1,None,,,,,,0,7,7,7,,,,,0,8,8,8,,,,,,,,,,,,,,,,,,,,,,,,,,,,,,,,,1,6.503514617972542,,,,,,,,,,,,,,,,,,,,,,,,,,,,062819_p2,001,2019_Jun_28_1423,body_behavioural,3.0.4,60.00004848236411,
7,"“I know, what are the chances, right?” Jeff replied.",2,1,None,,,,,,0,7,7,7,,,,,0,9,9,9,,,,,,,,,,,,,,,,,,,,,,,,,,,,,,,,,1,1.4018320150207728,,,,,,,,,,,,,,,,,,,,,,,,,,,,062819_p2,001,2019_Jun_28_1423,body_behavioural,3.0.4,60.00004848236411,
7,"William laughed and said, “I’m glad our complaining can come in handy.”",2,1,None,,,,,,0,7,7,7,,,,,0,10,10,10,,,,,,,,,,,,,,,,,,,,,,,,,,,,,,,,,1,3.269836029969156,,,,,,,,,,,,,,,,,,,,,,,,,,,,062819_p2,001,2019_Jun_28_1423,body_behavioural,3.0.4,60.00004848236411,
7,"William got focused and, shifting gears, said, “I know this is fast, but I'd like to get right down to business since time is a limiting factor.",2,2,None,,,,,,0,7,7,7,,,,,0,11,11,11,,,,,,,,,,,,,,,,,,,,,,,,,,,,,,,,,1,3.8196179550141096,,,,,,,,,,,,,,,,,,,,,,,,,,,,062819_p2,001,2019_Jun_28_1423,body_behavioural,3.0.4,60.00004848236411,
7,I'd really like to order a couple of sample shipments from you and present them to our clients: I think they’d really love to have some East Coast variety. ,2,2,None,,,,,,0,7,7,7,,,,,0,12,12,12,,,,,,,,,,,,,,,,,,,,,,,,,,,,,,,,,1,6.0367109419894405,,,,,,,,,,,,,,,,,,,,,,,,,,,,062819_p2,001,2019_Jun_28_1423,body_behavioural,3.0.4,60.00004848236411,
7,"Now, typically we expect to get these kinds of samples at a steep discount, at least half-off the label price.",2,2,None,,,,,,0,7,7,7,,,,,0,13,13,13,,,,,,,,,,,,,,,,,,,,,,,,,,,,,,,,,1,6.703481050033588,,,,,,,,,,,,,,,,,,,,,,,,,,,,062819_p2,001,2019_Jun_28_1423,body_behavioural,3.0.4,60.00004848236411,
7,This small loss is well worth the profit you’d be making if even a single client makes a contract.,2,2,None,,,,,,0,7,7,7,,,,,0,14,14,14,,,,,,,,,,,,,,,,,,,,,,,,,,,,,,,,,1,5.120017306995578,,,,,,,,,,,,,,,,,,,,,,,,,,,,062819_p2,001,2019_Jun_28_1423,body_behavioural,3.0.4,60.00004848236411,
7,So I propose that you send us 5 barrels of your select wines for $800.”,2,2,None,,,,,,0,7,7,7,,,,,0,15,15,15,,,,,,,,,,,,,,,,,,,,,,,,,,,,,,,,,1,4.68646014702972,,,,,,,,,,,,,,,,,,,,,,,,,,,,062819_p2,001,2019_Jun_28_1423,body_behavioural,3.0.4,60.00004848236411,
7,"Before going through the metal detector, there was a pause in the security line to roll out the empty bin cart and roll in a filled one. ",2,2,None,,,,,,0,7,7,7,,,,,0,16,16,16,,,,,,,,,,,,,,,,,,,,,,,,,,,,,,,,,1,7.601078974956181,,,,,,,,,,,,,,,,,,,,,,,,,,,,062819_p2,001,2019_Jun_28_1423,body_behavioural,3.0.4,60.00004848236411,
7,They placed everything in their bins. ,2,2,None,,,,,,0,7,7,7,,,,,0,17,17,17,,,,,,,,,,,,,,,,,,,,,,,,,,,,,,,,,1,1.3360598350409418,,,,,,,,,,,,,,,,,,,,,,,,,,,,062819_p2,001,2019_Jun_28_1423,body_behavioural,3.0.4,60.00004848236411,
7,"Jeff mulled over the offer, nodding noncommittally to William's pitch as they proceeded through the metal detector.",2,2,None,,,,,,0,7,7,7,,,,,0,18,18,18,,,,,,,,,,,,,,,,,,,,,,,,,,,,,,,,,1,3.9531200200435705,,,,,,,,,,,,,,,,,,,,,,,,,,,,062819_p2,001,2019_Jun_28_1423,body_behavioural,3.0.4,60.00004848236411,
7,"Having recovered from the security check, they began to walk through the concourse toward Jeff’s gate, B8, and William handed some printed spreadsheets to Jeff.",3,2,None,,,,,,0,7,7,7,,,,,0,19,19,19,,,,,,,,,,,,,,,,,,,,,,,,,,,,,,,,,1,8.052700158965308,,,,,,,,,,,,,,,,,,,,,,,,,,,,062819_p2,001,2019_Jun_28_1423,body_behavioural,3.0.4,60.00004848236411,
7,"Jeff, weaving through the crowd of travelers, squinted at William's rosy projections of the number of bottles he would purchase in the future.",3,2,None,,,,,,0,7,7,7,,,,,0,20,20,20,,,,,,,,,,,,,,,,,,,,,,,,,,,,,,,,,1,5.23717839299934,,,,,,,,,,,,,,,,,,,,,,,,,,,,062819_p2,001,2019_Jun_28_1423,body_behavioural,3.0.4,60.00004848236411,
7,"After thinking for a couple minutes and walking past a number of coffee shops that William was eyeing, Jeff said, “I am not sure about this since we’re not coming a corporate vineyard and gambling with sample shipments is the kind of risk we can’t necessarily make. ",3,3,None,,,,,,0,7,7,7,,,,,0,21,21,21,,,,,,,,,,,,,,,,,,,,,,,,,,,,,,,,,1,12.50152165000327,,,,,,,,,,,,,,,,,,,,,,,,,,,,062819_p2,001,2019_Jun_28_1423,body_behavioural,3.0.4,60.00004848236411,
7,"These corporate purchases would have to be huge and practically guaranteed, to offset the loss from selling sample shipments at a price like you suggest.”",3,3,None,,,,,,0,7,7,7,,,,,0,22,22,22,,,,,,,,,,,,,,,,,,,,,,,,,,,,,,,,,1,6.436746747000143,,,,,,,,,,,,,,,,,,,,,,,,,,,,062819_p2,001,2019_Jun_28_1423,body_behavioural,3.0.4,60.00004848236411,
7,"William decided to tell Jeff that they had made the same offer to their competitor, Yankee Vines, who had refused and that they would make a better offer to Jeff and his company.",3,3,None,,,,,,0,7,7,7,,,,,0,23,23,23,,,,,,,,,,,,,,,,,,,,,,,,,,,,,,,,,1,6.853572989988606,,,,,,,,,,,,,,,,,,,,,,,,,,,,062819_p2,001,2019_Jun_28_1423,body_behavioural,3.0.4,60.00004848236411,
7,"They walked to the gates very slowly, barely registering the hubbub of the airport.",3,3,None,,,,,,0,7,7,7,,,,,0,24,24,24,,,,,,,,,,,,,,,,,,,,,,,,,,,,,,,,,1,3.8031314369873144,,,,,,,,,,,,,,,,,,,,,,,,,,,,062819_p2,001,2019_Jun_28_1423,body_behavioural,3.0.4,60.00004848236411,
7,"William and Jeff came to an agreement on a compromise rate on the sample shipment, paying $400 for a $600 shipment of wine sample, and they finalized the deal with a handshake. ",3,4,None,,,,,,0,7,7,7,,,,,0,25,25,25,,,,,,,,,,,,,,,,,,,,,,,,,,,,,,,,,1,6.753516461991239,,,,,,,,,,,,,,,,,,,,,,,,,,,,062819_p2,001,2019_Jun_28_1423,body_behavioural,3.0.4,60.00004848236411,
7,"“Well, what a tremendous pleasure to do business with you and to have all this work out,” William said.",3,4,None,,,,,,0,7,7,7,,,,,0,26,26,26,,,,,,,,,,,,,,,,,,,,,,,,,,,,,,,,,1,2.135687794012483,,,,,,,,,,,,,,,,,,,,,,,,,,,,062819_p2,001,2019_Jun_28_1423,body_behavioural,3.0.4,60.00004848236411,
7,"Jeff nodded enthusiastically, and responded, “Likewise- this has been great.  ",3,4,None,,,,,,0,7,7,7,,,,,0,27,27,27,,,,,,,,,,,,,,,,,,,,,,,,,,,,,,,,,1,1.3190919870394282,,,,,,,,,,,,,,,,,,,,,,,,,,,,062819_p2,001,2019_Jun_28_1423,body_behavioural,3.0.4,60.00004848236411,
7,I'll let you get to your gate.,3,4,None,,,,,,0,7,7,7,,,,,0,28,28,28,,,,,,,,,,,,,,,,,,,,,,,,,,,,,,,,,1,0.9697102749487385,,,,,,,,,,,,,,,,,,,,,,,,,,,,062819_p2,001,2019_Jun_28_1423,body_behavioural,3.0.4,60.00004848236411,
7,"Once we’re both back on the ground, we can work out all the official documentation and get this in the books.”",3,4,None,,,,,,0,7,7,7,,,,,0,29,29,29,,,,,,,,,,,,,,,,,,,,,,,,,,,,,,,,,1,4.2533678420004435,,,,,,,,,,,,,,,,,,,,,,,,,,,,062819_p2,001,2019_Jun_28_1423,body_behavioural,3.0.4,60.00004848236411,
7,"Jeff jogged to his gate, scanned his boarding pass, and walked onto the plane.",4,4,None,,,,,,0,7,7,7,,,,,0,30,30,30,,,,,,,,,,,,,,,,,,,,,,,,,,,,,,,,,1,3.3694915050291456,,,,,,,,,,,,,,,,,,,,,,,,,,,,062819_p2,001,2019_Jun_28_1423,body_behavioural,3.0.4,60.00004848236411,
7,He sat down in seat 4A in the business class section and  typed out a quick email on his phone letting the rest of his team know the good news. ,4,4,None,,,,,,0,7,7,7,,,,,0,31,31,31,,,,,,,,,,,,,,,,,,,,,,,,,,,,,,,,,1,5.4199976900126785,,,,,,,,,,,,,,,,,,,,,,,,,,,,062819_p2,001,2019_Jun_28_1423,body_behavioural,3.0.4,60.00004848236411,
7,"When the flight attendant came by, he ordered a glass of champagne to celebrate.",4,4,None,,,,,,0,7,7,7,,,,,0,32,32,32,,,,,,,,,,,,,,,,,,,,,,,,,,,,,,,,,1,2.053016359976027,,,,,,,,,,,,,,,,,,,,,,,,,,,,062819_p2,001,2019_Jun_28_1423,body_behavioural,3.0.4,60.00004848236411,
7,,,,,,,,,,0,7,7,7,,,,,,,,,,,,,,,,,,,,,,,,,,,,,,,,,,,,,,,,,,,,,,,,,,,,,,,,,,,,,,,,,,,,,,062819_p2,001,2019_Jun_28_1423,body_behavioural,3.0.4,60.00004848236411,
,,,,,,,,,,,,,,,,,,,,,,,,,,,,,,,,,,,,,,,,,,,,,,,,,,,,,,,,1327.6538939999882,space,2.119593547016848,,,,,,,,,,,,,,,,,,,,,,,,,062819_p2,001,2019_Jun_28_1423,body_behavioural,3.0.4,60.00004848236411,
,,,,,,,,,"In this next part of the experiment, please recall each story to the best of your ability.",,,,,,,,,,,,,0,0,0,0,,,,,,,,,,,,,,,,,,,,,,,,,,,,,,,,,,space,4.90349661000073,,,,,,,,,,,,,,,,,,,,,,,062819_p2,001,2019_Jun_28_1423,body_behavioural,3.0.4,60.00004848236411,
,,,,,,,,,"You will be presented with the story title, names, the images, and a blank text box for each story.",,,,,,,,,,,,,0,1,1,1,,,,,,,,,,,,,,,,,,,,,,,,,,,,,,,,,,space,2.0339794469764456,,,,,,,,,,,,,,,,,,,,,,,062819_p2,001,2019_Jun_28_1423,body_behavioural,3.0.4,60.00004848236411,
,,,,,,,,,Describe the story indicated with as many details as you can remember in the space provided. ,,,,,,,,,,,,,0,2,2,2,,,,,,,,,,,,,,,,,,,,,,,,,,,,,,,,,,space,1.8363599820295349,,,,,,,,,,,,,,,,,,,,,,,062819_p2,001,2019_Jun_28_1423,body_behavioural,3.0.4,60.00004848236411,
,,,,,,,,,"When you are finished recalling one story, to move onto the next one, press the ‘return’ key. ",,,,,,,,,,,,,0,3,3,3,,,,,,,,,,,,,,,,,,,,,,,,,,,,,,,,,,space,1.3174754270003177,,,,,,,,,,,,,,,,,,,,,,,062819_p2,001,2019_Jun_28_1423,body_behavioural,3.0.4,60.00004848236411,
,,,,,,,,,There is a 5 minute time limit to make your response. ,,,,,,,,,,,,,0,4,4,4,,,,,,,,,,,,,,,,,,,,,,,,,,,,,,,,,,space,1.1532150800339878,,,,,,,,,,,,,,,,,,,,,,,062819_p2,001,2019_Jun_28_1423,body_behavioural,3.0.4,60.00004848236411,
,,,,,,,,,Please note that you will not be able to capitalize any letters except for the first letter of your answer. This will not effect the scoring of your recall answer.,,,,,,,,,,,,,0,5,5,5,,,,,,,,,,,,,,,,,,,,,,,,,,,,,,,,,,space,3.186672332987655,,,,,,,,,,,,,,,,,,,,,,,062819_p2,001,2019_Jun_28_1423,body_behavioural,3.0.4,60.00004848236411,
0,,,,,,,,,,,,,,,,,,,,,,,,,,0,0,0,0,,,,,,,,,,,,,,,,,,,,,,,,,,,,,,,,space,1.3531554020009935,"They were in a history class. the professor was talking about roman architecture. charlie was a data analyst for a corporate club in his school. alma was a ceo of a firm. charlie decided with his club that they would make 25,000$ investment to alma's company, though alma would not accept that agreement, as she needs the rest of the money first in order to turn in profits. thus, charlie decides to give alma 50,000$ in total. he agrees to alma's proposition considering that alma is also looking at their competitor's funds as well. professor dismisses the class, saying that they have an assignment next week. ",,,,,,,,,,,,,,,,,,,,062819_p2,001,2019_Jun_28_1423,body_behavioural,3.0.4,60.00004848236411,
1,,,,,,,,,,,,,,,,,,,,,,,,,,0,1,1,1,,,,,,,,,,,,,,,,,,,,,,,,,,,,,,,,space,1.450705363007728,"Aaron and lana began dating since they met three years ago while they were freshmen. they are in introduction to chemistry class together. the topic of the lecture is ionization process, and that ionic bonds is one of the strongest bonds out there. throughout the lecture, professor winks at aaron. aaron prepared a diamond ring with five red diamonds on a silver band, as lana loves avant-garde aesthetic. professor calls out lana in class to come front. aaron also comes out and proposes to lana. the crowd cheers, their friends come by to congratualte them outside class. professor mentions that they have midterm next week covering the first four weeks of class. lana texts her sister. ",,,,,,,,,,,,,,,,,,,,062819_p2,001,2019_Jun_28_1423,body_behavioural,3.0.4,60.00004848236411,
2,,,,,,,,,,,,,,,,,,,,,,,,,,0,2,2,2,,,,,,,,,,,,,,,,,,,,,,,,,,,,,,,,space,0.9030557219521143,"Sven and isabel are at the airport. they have met isabel's parents, and sven is intent on proposing to isabel. they arrive 2 hours before, but since they don't have any luaggage to check and have their e boarding pass, they go straight to security. while at security, there is some delay at front. sven has diamond ring he got for isabel in his pocket. at the security, he goes through the metal detector and realizes that he still has his diamond ring in his pocket. sven says screw it and decides to propose to isabel on the spot, at the metal detector. isabel is shy and runs away. sven follows her to their concourse 5a. there, isabel says yes. they enter the plane, and one of their fellow passanger live-tweets the entire event and the whole story becomes viral",,,,,,,,,,,,,,,,,,,,062819_p2,001,2019_Jun_28_1423,body_behavioural,3.0.4,60.00004848236411,
3,,,,,,,,,,,,,,,,,,,,,,,,,,0,3,3,3,,,,,,,,,,,,,,,,,,,,,,,,,,,,,,,,space,1.0027756679919548,"James and teresa are eating lunch separately. james is reading a newspaper. teresa, when entering the restaurant, bumps her head into the glass. james asks teresa how does it feel bumping her head into the glass, and teresa says that she was bitten by a scorpion before, so bumping her head in glass is not that much of a concern. james is worried that teresa has concussion, and might be destable for the rest of her life. nonetheless, james decides to ask teresa out, as james have avocado roll and teresa have sushi roll at atlanta's newest sushi restuarant. when they order new foods, waiter places their dishes closer, so they have to sit closer. the food is awesome. james ask teresa to go to a concert together later this afternoon. teresa says yes. they depart their ways. ",,,,,,,,,,,,,,,,,,,,062819_p2,001,2019_Jun_28_1423,body_behavioural,3.0.4,60.00004848236411,
4,,,,,,,,,,,,,,,,,,,,,,,,,,0,4,4,4,,,,,,,,,,,,,,,,,,,,,,,,,,,,,,,,space,0.73693211999489,"Emmanuella and liam are shopping in a grocery so that they can have food for their guests coming for a dinner at their place. emmanuella has been thinking  about breaking up with liam for a good 5 months now, due to their constant fighting. the grocery store smells like lavendar and is very nice. while they are looking for pasta, emmanuella makes a snide remark that liam can't help her cook, which liam gurdginly accepts. emmanuella spells the beans asking liam to separate. liam, after thinking for a bit, agrees. emmanuella pays for the grocery with her credit card totalling 30$. they decide not to tell their guests that they are separating. they wonder who would get the cat. ",,,,,,,,,,,,,,,,,,,,062819_p2,001,2019_Jun_28_1423,body_behavioural,3.0.4,60.00004848236411,
5,,,,,,,,,,,,,,,,,,,,,,,,,,0,5,5,5,,,,,,,,,,,,,,,,,,,,,,,,,,,,,,,,space,0.8702980900416151,"Simon and carina meet at a grocery store. carina makes a punny remark that the meat looks so cute. simon agrees. carina makes another remark that chicken looks like its sad brother. sad family, remarks simon. they realize that they have a chemistry going on. grocery store looks like a warehouse. they decide to go on a date next saturday near harvard square. they both are shopping for their barbeque parties. simon makes a gringe move when he says to the cashier that his and carina's shopping bags are on him. he pays with his credit card. they decide to meet later, and part their ways back to where they came from. ",,,,,,,,,,,,,,,,,,,,062819_p2,001,2019_Jun_28_1423,body_behavioural,3.0.4,60.00004848236411,
6,,,,,,,,,,,,,,,,,,,,,,,,,,0,6,6,6,,,,,,,,,,,,,,,,,,,,,,,,,,,,,,,,space,1.5697203919989988,"Thomas and sadie decide to break up. thomas has been thinking of breaking up with sadie for a long time. sadie did not expect that. they are in a restaurant that has 50s vibe. they look at the menu with small letters. they decide to order something familar. thomas orders hamburgers while sadie orders reuben. excellent  choice, says the waiter. thomas wants to break up with sadie because supposedly his guy needs more time to find himself when changing his jobs, as if sadie has been a problem in thomas's venture of self discovery. sadie cries when hearing this from thomas. she takes the reuben and wants their beatles poster. thomas finishes the burger . it is really bad. ",,,,,,,,,,,,,,,,,,,,062819_p2,001,2019_Jun_28_1423,body_behavioural,3.0.4,60.00004848236411,
7,,,,,,,,,,,,,,,,,,,,,,,,,,0,7,7,7,,,,,,,,,,,,,,,,,,,,,,,,,,,,,,,,space,1.1196777449804358,"Jeff and william met at a bar last night. they have in wine business. jeff is the company event wine vendor, while william sells wines. they discuss business whie they go through the boston airport, exchanging spreadsheets and negotiating prices. william wants  jeff to send samples of their wine, so that their vendors might make a contract. jeff tries to reduce the price. william mentions they offered same deal to yankee wines and they refused. when jeff goes to concourse 5a, they decide the deal, shake hands, and part their ways. when jef sits in his business class, he orders a champagne to celebrate the occasion. ",,,,,,,,,,,,,,,,,,,,062819_p2,001,2019_Jun_28_1423,body_behavioural,3.0.4,60.00004848236411,
,,,,,,,,,,,,,,,,,,,,,,,,,,,,,,,,,,,,,,,,,,,,,,,,,,,,,,,,,,,,,,,,2680.3275147830136,space,1.5198565049795434,,,,,,,,,,,,,,,,,062819_p2,001,2019_Jun_28_1423,body_behavioural,3.0.4,60.00004848236411,
,,,,,,,,,"In this last part of the experiment, please answer 8 questions about each story.",,,,,,,,,,,,,,,,,,,,,0,0,0,0,,,,,,,,,,,,,,,,,,,,,,,,,,,,,,,,,,space,2.4700309070176445,,,,,,,,,,,,,,,062819_p2,001,2019_Jun_28_1423,body_behavioural,3.0.4,60.00004848236411,
,,,,,,,,,Some of the questions are not related to the perspective you were asked to assume.,,,,,,,,,,,,,,,,,,,,,0,1,1,1,,,,,,,,,,,,,,,,,,,,,,,,,,,,,,,,,,space,2.169761959987227,,,,,,,,,,,,,,,062819_p2,001,2019_Jun_28_1423,body_behavioural,3.0.4,60.00004848236411,
,,,,,,,,,"We realize that we did not tell you to think of these questions during the story, but please do your best to answer them.",,,,,,,,,,,,,,,,,,,,,0,2,2,2,,,,,,,,,,,,,,,,,,,,,,,,,,,,,,,,,,space,3.9196328300167806,,,,,,,,,,,,,,,062819_p2,001,2019_Jun_28_1423,body_behavioural,3.0.4,60.00004848236411,
,,,,,,,,,"When you have finished typing your answer, hit ‘return’ to submit your answer and move onto the next question. ",,,,,,,,,,,,,,,,,,,,,0,3,3,3,,,,,,,,,,,,,,,,,,,,,,,,,,,,,,,,,,space,1.8028794249985367,,,,,,,,,,,,,,,062819_p2,001,2019_Jun_28_1423,body_behavioural,3.0.4,60.00004848236411,
0,,,,,,,,,,,,,,,,,,,,,,,,,,,,,,,,,,0,0,0,0,,,,,,,,,,,,,,,,,,,,,,,,,,They hug,,,,,,space,0.652652905031573,It is round and desks are uncomfortable,primed first,The day's lecture is about roman architeture,The professor teaches about roman architecture,There is an essay due next monday,"Charlie is data analyst, alma is ceo","35,000$",Churchill ventures,They hug,,,,062819_p2,001,2019_Jun_28_1423,body_behavioural,3.0.4,60.00004848236411,
1,,,,,,,,,,,,,,,,,,,,,,,,,,,,,,,,,,0,1,1,1,,,,,,,,,,,,,,,,,,,,,,,,,,Her sista,,,,,,space,2.636300360027235,It is round and desks are uncomfortable,non-primed first,This is introduction to chemistry class on ionic bonds,Ionic bonds in chemicals,There is a midterm next monday,Three years,There are 5 red diamonds,It is presented in a box,Her sista,,,,062819_p2,001,2019_Jun_28_1423,body_behavioural,3.0.4,60.00004848236411,
2,,,,,,,,,,,,,,,,,,,,,,,,,,,,,,,,,,0,2,2,2,,,,,,,,,,,,,,,,,,,,,,,,,,She texts her mother,,,,,,space,1.4699654470314272,2 hours,primed first,Sven has diamond ring in his pocket,5a,"5a, 5b",11 months,One diamond ring,Sven's pocket,She texts her mother,,,,062819_p2,001,2019_Jun_28_1423,body_behavioural,3.0.4,60.00004848236411,
3,,,,,,,,,,,,,,,,,,,,,,,,,,,,,,,,,,0,3,3,3,,,,,,,,,,,,,,,,,,,,,,,,,,2,,,,,,space,0.9529230520129204,Japanese style,non-primed first,Written in japanese with small english letters ,"James order tuna roll, teresa orders sushi",They like it very much,James is holdign a newspaper,They take about teresa bumping her head,They decide to meet this evening for a concert,2,,,,062819_p2,001,2019_Jun_28_1423,body_behavioural,3.0.4,60.00004848236411,
4,,,,,,,,,,,,,,,,,,,,,,,,,,,,,,,,,,0,4,4,4,,,,,,,,,,,,,,,,,,,,,,,,,,Cat,,,,,,space,0.9527664699708112,It smells like lavendar,non-primed first,They pick out pasta,There are only one lane3 open,30$ paid by a credit card by emmanuealla,Emmanuella has been thinking about it for five month,They have arguing agaisnt each other,They both want to break up,Cat,,,,062819_p2,001,2019_Jun_28_1423,body_behavioural,3.0.4,60.00004848236411,
5,,,,,,,,,,,,,,,,,,,,,,,,,,,,,,,,,,0,5,5,5,,,,,,,,,,,,,,,,,,,,,,,,,,2pm,,,,,,space,0.8362398300087079,It looks like a warehouse,primed first,They pick meat,There are 3 open,Simon pays for carina's groceries totalling 55 $ using his credit card,Meat,Talking about how cute the meat is,Next saturday for a tour at harvard square of all the possible places for a date,2pm,,,,062819_p2,001,2019_Jun_28_1423,body_behavioural,3.0.4,60.00004848236411,
6,,,,,,,,,,,,,,,,,,,,,,,,,,,,,,,,,,0,6,6,6,,,,,,,,,,,,,,,,,,,,,,,,,,Sadie wants her beatles poster back,,,,,,space,2.702408551995177,It has 50s vibe,primed first,It has small english letters,"Thomas orders bruger, sadie gets reuben",They dont like it very much,Thomas has been thinking for some time now,"Thomas wants to job, needs to find himself, having existential midlike crisis. ",Sadie does not want to break up. promises to spend time less together,Sadie wants her beatles poster back,,,,062819_p2,001,2019_Jun_28_1423,body_behavioural,3.0.4,60.00004848236411,
7,,,,,,,,,,,,,,,,,,,,,,,,,,,,,,,,,,0,7,7,7,,,,,,,,,,,,,,,,,,,,,,,,,,Business class,,,,,,space,1.103139986982569,"Jeff is vendor, william is seller",primed first,600$,Yankee vineyards,Shake hands,2 hours,Getting stuff into bins,5,Business class,,,,062819_p2,001,2019_Jun_28_1423,body_behavioural,3.0.4,60.00004848236411,
,,,,,,,,,,,,,,,,,,,,,,,,,,,,,,,,,,,,,,,,,,,,,,,,,,,,,,,,,,,,,,,,,,,,,,,,,,,,,,,,3246.783321175026,space,1.4192401410546154,062819_p2,001,2019_Jun_28_1423,body_behavioural,3.0.4,60.00004848236411,
,,,,,,,,,,,,,,,,,,,,,,,,,,,,,,,,,,,,,,0,0,0,0,,,,,,,,,,,,,,,,,,,,,,,,,,,,,,,,,,,,,,,,,,062819_p2,001,2019_Jun_28_1423,body_behavioural,3.0.4,60.00004848236411,
,,,,,,,,,,,,,,,,,,,,,,,,,,,,,,,,,,,,,,1,0,1,0,,,,,,,,,,,,,,,,,,,,,,,,,,,,,,,,,,,,,,,,,,062819_p2,001,2019_Jun_28_1423,body_behavioural,3.0.4,60.00004848236411,
,,,,,,,,,,,,,,,,,,,,,,,,,,,,,,,,,,,,,,2,0,2,0,,,,,,,,,,,,,,,,,,,,,,,,,,,,,,,,,,,,,,,,,,062819_p2,001,2019_Jun_28_1423,body_behavioural,3.0.4,60.00004848236411,
,,,,,,,,,,,,,,,,,,,,,,,,,,,,,,,,,,,,,,3,0,3,0,,,,,,,,,,,,,,,,,,,,,,,,,,,,,,,,,,,,,,,,,,062819_p2,001,2019_Jun_28_1423,body_behavioural,3.0.4,60.00004848236411,
,,,,,,,,,,,,,,,,,,,,,,,,,,,,,,,,,,,,,,4,0,4,0,,,,,,,,,,,,,,,,,,,,,,,,,,,,,,,,,,,,,,,,,,062819_p2,001,2019_Jun_28_1423,body_behavioural,3.0.4,60.00004848236411,
