count,storyText,locationEvent,socialEvent,story,locationEventSize,socialEventSize,instructText,trials.thisRepN,trials.thisTrialN,trials.thisN,trials.thisIndex,trials_7.thisRepN,trials_7.thisTrialN,trials_7.thisN,trials_7.thisIndex,trials_2.thisRepN,trials_2.thisTrialN,trials_2.thisN,trials_2.thisIndex,trials_3.thisRepN,trials_3.thisTrialN,trials_3.thisN,trials_3.thisIndex,trials_4.thisRepN,trials_4.thisTrialN,trials_4.thisN,trials_4.thisIndex,trials_5.thisRepN,trials_5.thisTrialN,trials_5.thisN,trials_5.thisIndex,trials_6.thisRepN,trials_6.thisTrialN,trials_6.thisN,trials_6.thisIndex,trials_8.thisRepN,trials_8.thisTrialN,trials_8.thisN,trials_8.thisIndex,order of stories,order of perspectives,participant 2 order - stories,participant 2 order  - schemas types,key_resp_8.keys,key_resp_8.rt,key_resp_5.keys,key_resp_5.rt,key_resp_7.keys,key_resp_7.rt,key_resp_15.keys,key_resp_15.rt,key_resp_14.keys,key_resp_14.rt,story_presses.keys,story_presses.rt,story time,key_resp_6.keys,key_resp_6.rt,key_resp_2.keys,key_resp_2.rt,key_resp_10.keys,key_resp_10.rt,recall,recall time,key_resp_12.keys,key_resp_12.rt,key_resp_3.keys,key_resp_3.rt,key_resp_11.keys,key_resp_11.rt,question1_answer,order of question,question2_answer,question3_answer,question4_answer,question5_answer,question6_answer,question7_answer,question8_answer,questions time,key_resp_13.keys,key_resp_13.rt,participant,session,date,expName,psychopyVersion,frameRate,
0,,,,,,,,0,0,0,0,0,0,0,0,,,,,,,,,,,,,,,,,,,,,,,,,[42 31 23 21 12 33 14 44 34 24 22 41 13 43 11 32],"['Social' 'Social' 'Social' 'Location' 'Location' 'Location' 'Social'
 'Location' 'Location' 'Social' 'Location' 'Social' 'Social' 'Location'
 'Location' 'Social']",[34 24 22 41 13 43 11 32],"['Location' 'Social' 'Location' 'Social' 'Social' 'Location' 'Location'
 'Social']",space,2.2049408520106226,space,2.0526257430319674,space,2.7196439999970607,,,,,,,,,,,,,,,,,,,,,,,,,,,,,,,,,,062819_p1,001,2019_Jun_28_1218,body_behavioural,3.0.4,59.996883176600896,
0,,,,,,,,0,0,0,0,1,0,1,0,,,,,,,,,,,,,,,,,,,,,,,,,,,,,,,,,space,1.7530227429815568,,,,,,,,,,,,,,,,,,,,,,,,,,,,,,,,,,062819_p1,001,2019_Jun_28_1218,body_behavioural,3.0.4,59.996883176600896,
0,,,,,,,,0,0,0,0,2,0,2,0,,,,,,,,,,,,,,,,,,,,,,,,,,,,,,,,,space,1.8363255800213665,,,,,,,,,,,,,,,,,,,,,,,,,,,,,,,,,,062819_p1,001,2019_Jun_28_1218,body_behavioural,3.0.4,59.996883176600896,
0,,,,,,,,0,0,0,0,3,0,3,0,,,,,,,,,,,,,,,,,,,,,,,,,,,,,,,,,space,0.669697942037601,,,,,,,,,,,,,,,,,,,,,,,,,,,,,,,,,,062819_p1,001,2019_Jun_28_1218,body_behavioural,3.0.4,59.996883176600896,
0,,,,,,,,0,0,0,0,4,0,4,0,,,,,,,,,,,,,,,,,,,,,,,,,,,,,,,,,space,0.9529893000144511,,,,,,,,,,,,,,,,,,,,,,,,,,,,,,,,,,062819_p1,001,2019_Jun_28_1218,body_behavioural,3.0.4,59.996883176600896,
0,,,,,,,,0,0,0,0,5,0,5,0,,,,,,,,,,,,,,,,,,,,,,,,,,,,,,,,,space,0.5190765319857746,,,,,,,,,,,,,,,,,,,,,,,,,,,,,,,,,,062819_p1,001,2019_Jun_28_1218,body_behavioural,3.0.4,59.996883176600896,
0,,,,,,,,0,0,0,0,6,0,6,0,,,,,,,,,,,,,,,,,,,,,,,,,,,,,,,,,space,0.6031130530172959,,,,,,,,,,,,,,,,,,,,,,,,,,,,,,,,,,062819_p1,001,2019_Jun_28_1218,body_behavioural,3.0.4,59.996883176600896,
0,David saw Anna for the first time when she burst into the airport frazzled with her half-zipped bag skidding behind her.,1,1,42.0,,,,0,0,0,0,,,,,0,0,0,0,,,,,,,,,,,,,,,,,,,,,,,,,,,,,,,space,2.4527060970431194,space,3.1360888149938546,9,37.92278634296963,,,,,,,,,,,,,,,,,,,,,,,,,,,,062819_p1,001,2019_Jun_28_1218,body_behavioural,3.0.4,59.996883176600896,
0,"He had three hours until his flight and was reading a book on the laptop he was holding in the entrance to the airport, but she had only 35 minutes and was hoping to spend as little time in the entrance as possible. ",1,1,None,,,,0,0,0,0,,,,,0,1,1,1,,,,,,,,,,,,,,,,,,,,,,,,,,,,,,,,,,,1,17.220869792974554,,,,,,,,,,,,,,,,,,,,,,,,,,,,062819_p1,001,2019_Jun_28_1218,body_behavioural,3.0.4,59.996883176600896,
0,"Anna, a few strides into the airport, suddenly realized to her dismay that her shoes were untied, so she hunched over to tie them.",1,1,None,,,,0,0,0,0,,,,,0,2,2,2,,,,,,,,,,,,,,,,,,,,,,,,,,,,,,,,,,,9,11.28740851196926,,,,,,,,,,,,,,,,,,,,,,,,,,,,062819_p1,001,2019_Jun_28_1218,body_behavioural,3.0.4,59.996883176600896,
0,"David, who had been intrigued by Anna, observed that someone with a tall cart of luggage was heading straight for where she was kneeling and that both her and the person driving the cart were oblivious to the impeding collision. ",1,1,None,,,,0,0,0,0,,,,,0,3,3,3,,,,,,,,,,,,,,,,,,,,,,,,,,,,,,,,,,,1,25.48847650497919,,,,,,,,,,,,,,,,,,,,,,,,,,,,062819_p1,001,2019_Jun_28_1218,body_behavioural,3.0.4,59.996883176600896,
0,"After a few moment of deliberation, David decided to intervene, and he ran in front of the cart pushing her out of the way just in the nick of time, and they tumbled on the airport floor. ",1,2,None,,,,0,0,0,0,,,,,0,4,4,4,,,,,,,,,,,,,,,,,,,,,,,,,,,,,,,,,,,1,11.235403735016007,,,,,,,,,,,,,,,,,,,,,,,,,,,,062819_p1,001,2019_Jun_28_1218,body_behavioural,3.0.4,59.996883176600896,
0,"Anna, bewildered, looked up and saw the cart pass by and then looked at David. ",1,2,None,,,,0,0,0,0,,,,,0,5,5,5,,,,,,,,,,,,,,,,,,,,,,,,,,,,,,,,,,,1,6.802035789994989,,,,,,,,,,,,,,,,,,,,,,,,,,,,062819_p1,001,2019_Jun_28_1218,body_behavioural,3.0.4,59.996883176600896,
0,He flashed a smile.,1,2,None,,,,0,0,0,0,,,,,0,6,6,6,,,,,,,,,,,,,,,,,,,,,,,,,,,,,,,,,,,1,2.5013539920328185,,,,,,,,,,,,,,,,,,,,,,,,,,,,062819_p1,001,2019_Jun_28_1218,body_behavioural,3.0.4,59.996883176600896,
0,“Were you ever a gymnast?,1,2,None,,,,0,0,0,0,,,,,0,7,7,7,,,,,,,,,,,,,,,,,,,,,,,,,,,,,,,,,,,1,2.436928151990287,,,,,,,,,,,,,,,,,,,,,,,,,,,,062819_p1,001,2019_Jun_28_1218,body_behavioural,3.0.4,59.996883176600896,
0," That was a nice tumble,” he said.",1,2,None,,,,0,0,0,0,,,,,0,8,8,8,,,,,,,,,,,,,,,,,,,,,,,,,,,,,,,,,,,1,6.720281429996248,,,,,,,,,,,,,,,,,,,,,,,,,,,,062819_p1,001,2019_Jun_28_1218,body_behavioural,3.0.4,59.996883176600896,
0,"She managed a chuckle and said, “Actually yes, but I’d say that deserved a score of zero.",1,2,None,,,,0,0,0,0,,,,,0,9,9,9,,,,,,,,,,,,,,,,,,,,,,,,,,,,,,,,,,,1,8.270786642038729,,,,,,,,,,,,,,,,,,,,,,,,,,,,062819_p1,001,2019_Jun_28_1218,body_behavioural,3.0.4,59.996883176600896,
0,Wow- I almost got smooshed by that cart.”,1,2,None,,,,0,0,0,0,,,,,0,10,10,10,,,,,,,,,,,,,,,,,,,,,,,,,,,,,,,,,,,1,3.769723179982975,,,,,,,,,,,,,,,,,,,,,,,,,,,,062819_p1,001,2019_Jun_28_1218,body_behavioural,3.0.4,59.996883176600896,
0,Her head was still spinning as she stared at the handsome stranger who had saved her. ,1,2,None,,,,0,0,0,0,,,,,0,11,11,11,,,,,,,,,,,,,,,,,,,,,,,,,,,,,,,,,,,9,18.221018415002618,,,,,,,,,,,,,,,,,,,,,,,,,,,,062819_p1,001,2019_Jun_28_1218,body_behavioural,3.0.4,59.996883176600896,
0,David helped her up and had to keep holding on to her arms to steady her even once they were standing.,1,2,None,,,,0,0,0,0,,,,,0,12,12,12,,,,,,,,,,,,,,,,,,,,,,,,,,,,,,,,,,,1,10.253789344977122,,,,,,,,,,,,,,,,,,,,,,,,,,,,062819_p1,001,2019_Jun_28_1218,body_behavioural,3.0.4,59.996883176600896,
0,"“I’m really late for my flight,” she said. ",1,2,None,,,,0,0,0,0,,,,,0,13,13,13,,,,,,,,,,,,,,,,,,,,,,,,,,,,,,,,,,,1,4.351430901966523,,,,,,,,,,,,,,,,,,,,,,,,,,,,062819_p1,001,2019_Jun_28_1218,body_behavioural,3.0.4,59.996883176600896,
0,"“Don't worry,” said David, "let me help you get to your gate." ",1,2,None,,,,0,0,0,0,,,,,0,14,14,14,,,,,,,,,,,,,,,,,,,,,,,,,,,,,,,,,,,1,4.087334434967488,,,,,,,,,,,,,,,,,,,,,,,,,,,,062819_p1,001,2019_Jun_28_1218,body_behavioural,3.0.4,59.996883176600896,
0,He waved off her half-hearted protests. ,1,2,None,,,,0,0,0,0,,,,,0,15,15,15,,,,,,,,,,,,,,,,,,,,,,,,,,,,,,,,,,,1,2.436532410036307,,,,,,,,,,,,,,,,,,,,,,,,,,,,062819_p1,001,2019_Jun_28_1218,body_behavioural,3.0.4,59.996883176600896,
0,“Really- I have plenty of time and nothing better to do.” he said. ,1,2,None,,,,0,0,0,0,,,,,0,16,16,16,,,,,,,,,,,,,,,,,,,,,,,,,,,,,,,,,,,1,4.736599706986453,,,,,,,,,,,,,,,,,,,,,,,,,,,,062819_p1,001,2019_Jun_28_1218,body_behavioural,3.0.4,59.996883176600896,
0,"At security, the line was not long, but since Anna’s flight was so soon the security guard allowed them to go to the front of the line.",2,2,None,,,,0,0,0,0,,,,,0,17,17,17,,,,,,,,,,,,,,,,,,,,,,,,,,,,,,,,,,,9,7.386275241966359,,,,,,,,,,,,,,,,,,,,,,,,,,,,062819_p1,001,2019_Jun_28_1218,body_behavioural,3.0.4,59.996883176600896,
0,"They had to wait however, because there was a strange malfunction of the metal detector. ",2,2,None,,,,0,0,0,0,,,,,0,18,18,18,,,,,,,,,,,,,,,,,,,,,,,,,,,,,,,,,,,1,3.7699086549691856,,,,,,,,,,,,,,,,,,,,,,,,,,,,062819_p1,001,2019_Jun_28_1218,body_behavioural,3.0.4,59.996883176600896,
0,"In this span of time, they managed to find out that they had gone to the same high school and that Anna had graduated 3 years before David. ",2,2,None,,,,0,0,0,0,,,,,0,19,19,19,,,,,,,,,,,,,,,,,,,,,,,,,,,,,,,,,,,1,8.086687621951569,,,,,,,,,,,,,,,,,,,,,,,,,,,,062819_p1,001,2019_Jun_28_1218,body_behavioural,3.0.4,59.996883176600896,
0,They hurriedly took off their shoes and coats.,2,2,None,,,,0,0,0,0,,,,,0,20,20,20,,,,,,,,,,,,,,,,,,,,,,,,,,,,,,,,,,,9,4.00350225699367,,,,,,,,,,,,,,,,,,,,,,,,,,,,062819_p1,001,2019_Jun_28_1218,body_behavioural,3.0.4,59.996883176600896,
0,"Anna placed her purse and suitcase on the conveyor belt, and David put his backpack on the conveyor belt as well, with his laptop in a separate bin. ",2,2,None,,,,0,0,0,0,,,,,0,21,21,21,,,,,,,,,,,,,,,,,,,,,,,,,,,,,,,,,,,1,6.436983435007278,,,,,,,,,,,,,,,,,,,,,,,,,,,,062819_p1,001,2019_Jun_28_1218,body_behavioural,3.0.4,59.996883176600896,
0,Both of them went through the metal detector without any problems. ,2,2,None,,,,0,0,0,0,,,,,0,22,22,22,,,,,,,,,,,,,,,,,,,,,,,,,,,,,,,,,,,1,5.886630385008175,,,,,,,,,,,,,,,,,,,,,,,,,,,,062819_p1,001,2019_Jun_28_1218,body_behavioural,3.0.4,59.996883176600896,
0,"As they were rushing to put their shoes and coats on, they shared when they were coming back. ",2,2,None,,,,0,0,0,0,,,,,0,23,23,23,,,,,,,,,,,,,,,,,,,,,,,,,,,,,,,,,,,1,6.4368870799662545,,,,,,,,,,,,,,,,,,,,,,,,,,,,062819_p1,001,2019_Jun_28_1218,body_behavioural,3.0.4,59.996883176600896,
0,"In a moment of boldness, David asked, “When we're back in town next Tuesday, is there any chance you'd want to get dinner?",2,3,None,,,,0,0,0,0,,,,,0,24,24,24,,,,,,,,,,,,,,,,,,,,,,,,,,,,,,,,,,,1,5.252902245032601,,,,,,,,,,,,,,,,,,,,,,,,,,,,062819_p1,001,2019_Jun_28_1218,body_behavioural,3.0.4,59.996883176600896,
0,"I know we just met, but when life throws a luggage cart at you it seems like we should listen. “",2,3,None,,,,0,0,0,0,,,,,0,25,25,25,,,,,,,,,,,,,,,,,,,,,,,,,,,,,,,,,,,1,4.469992124999408,,,,,,,,,,,,,,,,,,,,,,,,,,,,062819_p1,001,2019_Jun_28_1218,body_behavioural,3.0.4,59.996883176600896,
0,"She stopped packing, and said with a smile, “Yes I would love that.”",2,3,None,,,,0,0,0,0,,,,,0,26,26,26,,,,,,,,,,,,,,,,,,,,,,,,,,,,,,,,,,,1,2.6531558120041154,,,,,,,,,,,,,,,,,,,,,,,,,,,,062819_p1,001,2019_Jun_28_1218,body_behavioural,3.0.4,59.996883176600896,
0,"On the concourse, they were running to get to Anna’s gate, J37, which was at the end of the terminal. ",3,3,None,,,,0,0,0,0,,,,,0,27,27,27,,,,,,,,,,,,,,,,,,,,,,,,,,,,,,,,,,,9,11.251439646992367,,,,,,,,,,,,,,,,,,,,,,,,,,,,062819_p1,001,2019_Jun_28_1218,body_behavioural,3.0.4,59.996883176600896,
0,"David took her suitcase, grabbed her hand, and weaved crowd of people.",3,3,None,,,,0,0,0,0,,,,,0,28,28,28,,,,,,,,,,,,,,,,,,,,,,,,,,,,,,,,,,,1,4.753622037998866,,,,,,,,,,,,,,,,,,,,,,,,,,,,062819_p1,001,2019_Jun_28_1218,body_behavioural,3.0.4,59.996883176600896,
0,People passing them were giving them funny looks because Anna looked so bewildered.,3,3,None,,,,0,0,0,0,,,,,0,29,29,29,,,,,,,,,,,,,,,,,,,,,,,,,,,,,,,,,,,1,4.303006638016086,,,,,,,,,,,,,,,,,,,,,,,,,,,,062819_p1,001,2019_Jun_28_1218,body_behavioural,3.0.4,59.996883176600896,
0,"Before getting to the gate, explaining that she would sprint the rest of the way, Anna fished out a crumpled business card from her pocket and handed it to David, who handed her the suitcase.",3,4,None,,,,0,0,0,0,,,,,0,30,30,30,,,,,,,,,,,,,,,,,,,,,,,,,,,,,,,,,,,1,10.153507960028946,,,,,,,,,,,,,,,,,,,,,,,,,,,,062819_p1,001,2019_Jun_28_1218,body_behavioural,3.0.4,59.996883176600896,
0,"She gave him one last embarrassed smile, thanked him, and hurried away.",3,4,None,,,,0,0,0,0,,,,,0,31,31,31,,,,,,,,,,,,,,,,,,,,,,,,,,,,,,,,,,,1,2.8340764050371945,,,,,,,,,,,,,,,,,,,,,,,,,,,,062819_p1,001,2019_Jun_28_1218,body_behavioural,3.0.4,59.996883176600896,
0,"David looked at his watch which read 10:55 AM, 5 minutes before her flight was supposed to leave. ",3,4,None,,,,0,0,0,0,,,,,0,32,32,32,,,,,,,,,,,,,,,,,,,,,,,,,,,,,,,,,,,9,4.219862012017984,,,,,,,,,,,,,,,,,,,,,,,,,,,,062819_p1,001,2019_Jun_28_1218,body_behavioural,3.0.4,59.996883176600896,
0,"At the gate, Anna waved to the flight attendant who motioned for her to hurry and she boarded the plane. ",4,4,None,,,,0,0,0,0,,,,,0,33,33,33,,,,,,,,,,,,,,,,,,,,,,,,,,,,,,,,,,,9,6.619625247025397,,,,,,,,,,,,,,,,,,,,,,,,,,,,062819_p1,001,2019_Jun_28_1218,body_behavioural,3.0.4,59.996883176600896,
0,"She slid into her window seat 7D in business class, and barely containing her glee, she hugged the plastic-wrapped blanket. ",4,4,None,,,,0,0,0,0,,,,,0,34,34,34,,,,,,,,,,,,,,,,,,,,,,,,,,,,,,,,,,,1,6.970163308025803,,,,,,,,,,,,,,,,,,,,,,,,,,,,062819_p1,001,2019_Jun_28_1218,body_behavioural,3.0.4,59.996883176600896,
0,"She was thankful that she had not only made it onto the plane in time, but also that she had been clumsy enough to forget to tie her shoes.",4,4,None,,,,0,0,0,0,,,,,0,35,35,35,,,,,,,,,,,,,,,,,,,,,,,,,,,,,,,,,,,9,9.503664986987133,,,,,,,,,,,,,,,,,,,,,,,,,,,,062819_p1,001,2019_Jun_28_1218,body_behavioural,3.0.4,59.996883176600896,
0,,,,,,,,0,0,0,0,,,,,,,,,,,,,,,,,,,,,,,,,,,,,,,,,,,,,,,,,,,,,,,,,,,,,,,,,,,,,,,,,,,,,,,,062819_p1,001,2019_Jun_28_1218,body_behavioural,3.0.4,59.996883176600896,
1,,,,,,,,0,1,1,1,0,0,0,0,,,,,,,,,,,,,,,,,,,,,,,,,,,,,space,1.886289720016066,space,1.3526511949603446,space,2.7363357249996625,,,,,,,,,,,,,,,,,,,,,,,,,,,,,,,,,,062819_p1,001,2019_Jun_28_1218,body_behavioural,3.0.4,59.996883176600896,
1,,,,,,,,0,1,1,1,1,0,1,0,,,,,,,,,,,,,,,,,,,,,,,,,,,,,,,,,space,0.5029550569597632,,,,,,,,,,,,,,,,,,,,,,,,,,,,,,,,,,062819_p1,001,2019_Jun_28_1218,body_behavioural,3.0.4,59.996883176600896,
1,,,,,,,,0,1,1,1,2,0,2,0,,,,,,,,,,,,,,,,,,,,,,,,,,,,,,,,,space,0.4697218800429255,,,,,,,,,,,,,,,,,,,,,,,,,,,,,,,,,,062819_p1,001,2019_Jun_28_1218,body_behavioural,3.0.4,59.996883176600896,
1,,,,,,,,0,1,1,1,3,0,3,0,,,,,,,,,,,,,,,,,,,,,,,,,,,,,,,,,space,0.6364310799981467,,,,,,,,,,,,,,,,,,,,,,,,,,,,,,,,,,062819_p1,001,2019_Jun_28_1218,body_behavioural,3.0.4,59.996883176600896,
1,Mr. Shelton and Mr. Gordon shook hands inside the waiting area of the restaurant: lunch today was about big business. ,1,1,31.0,,,,0,1,1,1,,,,,0,0,0,0,,,,,,,,,,,,,,,,,,,,,,,,,,,,,,,space,0.8363164550391957,space,2.0196913499967195,9,12.488189016992692,,,,,,,,,,,,,,,,,,,,,,,,,,,,062819_p1,001,2019_Jun_28_1218,body_behavioural,3.0.4,59.996883176600896,
1,They were both in the airplane manufacturing industry.,1,1,None,,,,0,1,1,1,,,,,0,1,1,1,,,,,,,,,,,,,,,,,,,,,,,,,,,,,,,,,,,1,4.187236002995633,,,,,,,,,,,,,,,,,,,,,,,,,,,,062819_p1,001,2019_Jun_28_1218,body_behavioural,3.0.4,59.996883176600896,
1,"Mr. Shelton was the CFO of a larger, well-established company and had been in the aviation business for decades.",1,1,None,,,,0,1,1,1,,,,,0,2,2,2,,,,,,,,,,,,,,,,,,,,,,,,,,,,,,,,,,,1,9.586980039952323,,,,,,,,,,,,,,,,,,,,,,,,,,,,062819_p1,001,2019_Jun_28_1218,body_behavioural,3.0.4,59.996883176600896,
1,Mr. Gordon was the CEO of a smaller but technologically-advanced company that was projected to disrupt the airplane manufacturing market. ,1,1,None,,,,0,1,1,1,,,,,0,3,3,3,,,,,,,,,,,,,,,,,,,,,,,,,,,,,,,,,,,1,4.683724819973577,,,,,,,,,,,,,,,,,,,,,,,,,,,,062819_p1,001,2019_Jun_28_1218,body_behavioural,3.0.4,59.996883176600896,
1,"They chose to meet at an old steakhouse with dark wood paneling on the floor and ceilings, taxidermy animals on the walls, and a candelabra on every table.",1,1,None,,,,0,1,1,1,,,,,0,4,4,4,,,,,,,,,,,,,,,,,,,,,,,,,,,,,,,,,,,1,4.636710365011822,,,,,,,,,,,,,,,,,,,,,,,,,,,,062819_p1,001,2019_Jun_28_1218,body_behavioural,3.0.4,59.996883176600896,
1,The waitress seated them at their table in the back. ,2,1,None,,,,0,1,1,1,,,,,0,5,5,5,,,,,,,,,,,,,,,,,,,,,,,,,,,,,,,,,,,1,1.4034539690474048,,,,,,,,,,,,,,,,,,,,,,,,,,,,062819_p1,001,2019_Jun_28_1218,body_behavioural,3.0.4,59.996883176600896,
1,"She brought out the menus, and they briefly chatted about personal happenings. ",2,1,None,,,,0,1,1,1,,,,,0,6,6,6,,,,,,,,,,,,,,,,,,,,,,,,,,,,,,,,,,,1,2.1842223669518717,,,,,,,,,,,,,,,,,,,,,,,,,,,,062819_p1,001,2019_Jun_28_1218,body_behavioural,3.0.4,59.996883176600896,
1,"Mr. Gordon took out a picture of his daughter and talked about her recent engagement, and Mr. Gordon mentioned his purchase of a Tesla. ",2,1,None,,,,0,1,1,1,,,,,0,7,7,7,,,,,,,,,,,,,,,,,,,,,,,,,,,,,,,,,,,1,4.283707124995999,,,,,,,,,,,,,,,,,,,,,,,,,,,,062819_p1,001,2019_Jun_28_1218,body_behavioural,3.0.4,59.996883176600896,
1,They also looked over the menus which were heavy and covered in felt.,2,1,None,,,,0,1,1,1,,,,,0,8,8,8,,,,,,,,,,,,,,,,,,,,,,,,,,,,,,,,,,,1,5.086369240016211,,,,,,,,,,,,,,,,,,,,,,,,,,,,062819_p1,001,2019_Jun_28_1218,body_behavioural,3.0.4,59.996883176600896,
1,Flipping to the back of the menu brought one to a lengthy drink selection.,2,1,None,,,,0,1,1,1,,,,,0,9,9,9,,,,,,,,,,,,,,,,,,,,,,,,,,,,,,,,,,,1,2.9866888649994507,,,,,,,,,,,,,,,,,,,,,,,,,,,,062819_p1,001,2019_Jun_28_1218,body_behavioural,3.0.4,59.996883176600896,
1,Mr. Shelton got serious and brought the conversation around to business.,2,2,None,,,,0,1,1,1,,,,,0,10,10,10,,,,,,,,,,,,,,,,,,,,,,,,,,,,,,,,,,,1,4.9366450469824485,,,,,,,,,,,,,,,,,,,,,,,,,,,,062819_p1,001,2019_Jun_28_1218,body_behavioural,3.0.4,59.996883176600896,
1,"“Mr. Gordon, we really admire what you’re doing at your company.",2,2,None,,,,0,1,1,1,,,,,0,11,11,11,,,,,,,,,,,,,,,,,,,,,,,,,,,,,,,,,,,1,2.586285842000507,,,,,,,,,,,,,,,,,,,,,,,,,,,,062819_p1,001,2019_Jun_28_1218,body_behavioural,3.0.4,59.996883176600896,
1,We think it’s genius; we want to support your vision and make this tiny company of yours internationally known.,2,2,None,,,,0,1,1,1,,,,,0,12,12,12,,,,,,,,,,,,,,,,,,,,,,,,,,,,,,,,,,,1,3.970098957011942,,,,,,,,,,,,,,,,,,,,,,,,,,,,062819_p1,001,2019_Jun_28_1218,body_behavioural,3.0.4,59.996883176600896,
1,"But honestly, your company doesn’t have the resources to reach international markets right now.",2,2,None,,,,0,1,1,1,,,,,0,13,13,13,,,,,,,,,,,,,,,,,,,,,,,,,,,,,,,,,,,1,4.486864389968105,,,,,,,,,,,,,,,,,,,,,,,,,,,,062819_p1,001,2019_Jun_28_1218,body_behavioural,3.0.4,59.996883176600896,
1,"Maybe in a few years you could, but by that time, other companies may have already filled your niche.",2,2,None,,,,0,1,1,1,,,,,0,14,14,14,,,,,,,,,,,,,,,,,,,,,,,,,,,,,,,,,,,1,2.9365936869871803,,,,,,,,,,,,,,,,,,,,,,,,,,,,062819_p1,001,2019_Jun_28_1218,body_behavioural,3.0.4,59.996883176600896,
1,I think we should join forces.”,2,2,None,,,,0,1,1,1,,,,,0,15,15,15,,,,,,,,,,,,,,,,,,,,,,,,,,,,,,,,,,,1,1.486886452010367,,,,,,,,,,,,,,,,,,,,,,,,,,,,062819_p1,001,2019_Jun_28_1218,body_behavioural,3.0.4,59.996883176600896,
1,The waitress arrived and asked if they were ready to order.,3,2,None,,,,0,1,1,1,,,,,0,16,16,16,,,,,,,,,,,,,,,,,,,,,,,,,,,,,,,,,,,9,8.434304755006451,,,,,,,,,,,,,,,,,,,,,,,,,,,,062819_p1,001,2019_Jun_28_1218,body_behavioural,3.0.4,59.996883176600896,
1,"Mr. Gordon chose the medium-rare steak and a martini, and Mr. Shelton ordered the veal and a manhattan. ",3,2,None,,,,0,1,1,1,,,,,0,17,17,17,,,,,,,,,,,,,,,,,,,,,,,,,,,,,,,,,,,1,4.8696320679737255,,,,,,,,,,,,,,,,,,,,,,,,,,,,062819_p1,001,2019_Jun_28_1218,body_behavioural,3.0.4,59.996883176600896,
1,"Then Mr. Shelton continued, “Look, I’ve talked to other members of the board, and we are prepared to offer $600 million to buy your company. ",3,2,None,,,,0,1,1,1,,,,,0,18,18,18,,,,,,,,,,,,,,,,,,,,,,,,,,,,,,,,,,,9,2.703266180003993,,,,,,,,,,,,,,,,,,,,,,,,,,,,062819_p1,001,2019_Jun_28_1218,body_behavioural,3.0.4,59.996883176600896,
1,"We'd keep on all of your current employees, and you would join as the director of your company branch.” ",3,2,None,,,,0,1,1,1,,,,,0,19,19,19,,,,,,,,,,,,,,,,,,,,,,,,,,,,,,,,,,,1,3.78715186502086,,,,,,,,,,,,,,,,,,,,,,,,,,,,062819_p1,001,2019_Jun_28_1218,body_behavioural,3.0.4,59.996883176600896,
1,"Mr. Gordon looked at Mr. Shelton skeptically for a few moments considering his response until he said, “Mr. Shelton, I think that you make a compelling offer, but there are definitely some disadvantages to attaching our small, streamlined productions to a large company like yours.",3,3,None,,,,0,1,1,1,,,,,0,20,20,20,,,,,,,,,,,,,,,,,,,,,,,,,,,,,,,,,,,1,3.6031311699771322,,,,,,,,,,,,,,,,,,,,,,,,,,,,062819_p1,001,2019_Jun_28_1218,body_behavioural,3.0.4,59.996883176600896,
1,"We operate in a very different way than a large company, and the kind of administrative complexity that makes the scale of your productions possible would suffocate our business.",3,3,None,,,,0,1,1,1,,,,,0,21,21,21,,,,,,,,,,,,,,,,,,,,,,,,,,,,,,,,,,,1,3.3365930770523846,,,,,,,,,,,,,,,,,,,,,,,,,,,,062819_p1,001,2019_Jun_28_1218,body_behavioural,3.0.4,59.996883176600896,
1,"With our product, scaling-up doesn’t necessarily make sense.” ",3,3,None,,,,0,1,1,1,,,,,0,22,22,22,,,,,,,,,,,,,,,,,,,,,,,,,,,,,,,,,,,1,2.6033881500479765,,,,,,,,,,,,,,,,,,,,,,,,,,,,062819_p1,001,2019_Jun_28_1218,body_behavioural,3.0.4,59.996883176600896,
1,Mr. Shelton had expected this response and had come prepared.,3,3,None,,,,0,1,1,1,,,,,0,23,23,23,,,,,,,,,,,,,,,,,,,,,,,,,,,,,,,,,,,1,2.2704941569827497,,,,,,,,,,,,,,,,,,,,,,,,,,,,062819_p1,001,2019_Jun_28_1218,body_behavioural,3.0.4,59.996883176600896,
1,He began laying out the details of how he had handled similar acquisitions successfully in the past.,3,3,None,,,,0,1,1,1,,,,,0,24,24,24,,,,,,,,,,,,,,,,,,,,,,,,,,,,,,,,,,,1,4.303354712028522,,,,,,,,,,,,,,,,,,,,,,,,,,,,062819_p1,001,2019_Jun_28_1218,body_behavioural,3.0.4,59.996883176600896,
1,"He also played out projections of how Mr. Gordon’s company could out-compete their own main competitor in the industry, TechJet, by using the resources of a larger corporation. ",3,3,None,,,,0,1,1,1,,,,,0,25,25,25,,,,,,,,,,,,,,,,,,,,,,,,,,,,,,,,,,,1,2.602860897022765,,,,,,,,,,,,,,,,,,,,,,,,,,,,062819_p1,001,2019_Jun_28_1218,body_behavioural,3.0.4,59.996883176600896,
1,"Mr. Gordon was impressed, and they went back and forth hashing out what the company configuration would look like post-merger. ",3,3,None,,,,0,1,1,1,,,,,0,26,26,26,,,,,,,,,,,,,,,,,,,,,,,,,,,,,,,,,,,1,3.6862487149774097,,,,,,,,,,,,,,,,,,,,,,,,,,,,062819_p1,001,2019_Jun_28_1218,body_behavioural,3.0.4,59.996883176600896,
1,The waitress brought out their food on a large tray.,4,3,None,,,,0,1,1,1,,,,,0,27,27,27,,,,,,,,,,,,,,,,,,,,,,,,,,,,,,,,,,,9,1.536374245013576,,,,,,,,,,,,,,,,,,,,,,,,,,,,062819_p1,001,2019_Jun_28_1218,body_behavioural,3.0.4,59.996883176600896,
1,“Oh this looks so good!” Mr. Gordon said. ,4,3,None,,,,0,1,1,1,,,,,0,28,28,28,,,,,,,,,,,,,,,,,,,,,,,,,,,,,,,,,,,1,1.2529813249711879,,,,,,,,,,,,,,,,,,,,,,,,,,,,062819_p1,001,2019_Jun_28_1218,body_behavioural,3.0.4,59.996883176600896,
1, “Can I get you anything else?” the waitress asked.,4,3,None,,,,0,1,1,1,,,,,0,29,29,29,,,,,,,,,,,,,,,,,,,,,,,,,,,,,,,,,,,1,1.469726154988166,,,,,,,,,,,,,,,,,,,,,,,,,,,,062819_p1,001,2019_Jun_28_1218,body_behavioural,3.0.4,59.996883176600896,
1,They declined and began to eat. ,4,3,None,,,,0,1,1,1,,,,,0,30,30,30,,,,,,,,,,,,,,,,,,,,,,,,,,,,,,,,,,,1,0.8698406749754213,,,,,,,,,,,,,,,,,,,,,,,,,,,,062819_p1,001,2019_Jun_28_1218,body_behavioural,3.0.4,59.996883176600896,
1,The meal was subpar- they both found the meat to be a bit overcooked and dry. ,4,3,None,,,,0,1,1,1,,,,,0,31,31,31,,,,,,,,,,,,,,,,,,,,,,,,,,,,,,,,,,,1,2.084309089987073,,,,,,,,,,,,,,,,,,,,,,,,,,,,062819_p1,001,2019_Jun_28_1218,body_behavioural,3.0.4,59.996883176600896,
1,"Mr. Gordon, after taking a contemplative bite and swallowing, said, “Mr. Shelton, I think we have a deal. ",4,4,None,,,,0,1,1,1,,,,,0,32,32,32,,,,,,,,,,,,,,,,,,,,,,,,,,,,,,,,,,,9,3.6862113449606113,,,,,,,,,,,,,,,,,,,,,,,,,,,,062819_p1,001,2019_Jun_28_1218,body_behavioural,3.0.4,59.996883176600896,
1,"If you can guarantee that I can still have the final say in the all the work done by my team, I think this could be beneficial for both of us.",4,4,None,,,,0,1,1,1,,,,,0,33,33,33,,,,,,,,,,,,,,,,,,,,,,,,,,,,,,,,,,,1,4.169613225036301,,,,,,,,,,,,,,,,,,,,,,,,,,,,062819_p1,001,2019_Jun_28_1218,body_behavioural,3.0.4,59.996883176600896,
1,I propose a toast to the merging of our companies.”,4,4,None,,,,0,1,1,1,,,,,0,34,34,34,,,,,,,,,,,,,,,,,,,,,,,,,,,,,,,,,,,1,1.7507980050286278,,,,,,,,,,,,,,,,,,,,,,,,,,,,062819_p1,001,2019_Jun_28_1218,body_behavioural,3.0.4,59.996883176600896,
1,Mr. Shelton grinned and lifted his martini to clink glasses.,4,4,None,,,,0,1,1,1,,,,,0,35,35,35,,,,,,,,,,,,,,,,,,,,,,,,,,,,,,,,,,,1,3.5029199949931353,,,,,,,,,,,,,,,,,,,,,,,,,,,,062819_p1,001,2019_Jun_28_1218,body_behavioural,3.0.4,59.996883176600896,
1,"He said, “Cheers to a lifelong partnership and to the growth of our company.” ",4,4,None,,,,0,1,1,1,,,,,0,36,36,36,,,,,,,,,,,,,,,,,,,,,,,,,,,,,,,,,,,1,2.519777929992415,,,,,,,,,,,,,,,,,,,,,,,,,,,,062819_p1,001,2019_Jun_28_1218,body_behavioural,3.0.4,59.996883176600896,
1,,,,,,,,0,1,1,1,,,,,,,,,,,,,,,,,,,,,,,,,,,,,,,,,,,,,,,,,,,,,,,,,,,,,,,,,,,,,,,,,,,,,,,,062819_p1,001,2019_Jun_28_1218,body_behavioural,3.0.4,59.996883176600896,
2,,,,,,,,0,2,2,2,0,0,0,0,,,,,,,,,,,,,,,,,,,,,,,,,,,,,space,0.867285534972325,space,1.0528357749572024,space,0.7860416569747031,,,,,,,,,,,,,,,,,,,,,,,,,,,,,,,,,,062819_p1,001,2019_Jun_28_1218,body_behavioural,3.0.4,59.996883176600896,
2,"Alex was a distracted, sweaty mess as he walked into the grocery store with Chloe; he was hoping that she wouldn't suspect that he was about to propose.",1,1,23.0,,,,0,2,2,2,,,,,0,0,0,0,,,,,,,,,,,,,,,,,,,,,,,,,,,,,,,space,0.7362400220008567,space,1.6693438799702562,9,19.87128317001043,,,,,,,,,,,,,,,,,,,,,,,,,,,,062819_p1,001,2019_Jun_28_1218,body_behavioural,3.0.4,59.996883176600896,
2,The grocery store was brightly lit with sunshine pouring in through glass walls at the front of the store.,1,1,None,,,,0,2,2,2,,,,,0,1,1,1,,,,,,,,,,,,,,,,,,,,,,,,,,,,,,,,,,,9,7.653191679972224,,,,,,,,,,,,,,,,,,,,,,,,,,,,062819_p1,001,2019_Jun_28_1218,body_behavioural,3.0.4,59.996883176600896,
2,Also in the front area were large posters advertising thanksgiving promotions.,1,1,None,,,,0,2,2,2,,,,,0,2,2,2,,,,,,,,,,,,,,,,,,,,,,,,,,,,,,,,,,,9,8.137149559974205,,,,,,,,,,,,,,,,,,,,,,,,,,,,062819_p1,001,2019_Jun_28_1218,body_behavioural,3.0.4,59.996883176600896,
2,"The store was buzzing with activity because the next day was Thanksgiving, and most shoppers had carts piled high with turkey, stuffing, and pies.",1,1,None,,,,0,2,2,2,,,,,0,3,3,3,,,,,,,,,,,,,,,,,,,,,,,,,,,,,,,,,,,1,6.136638091993518,,,,,,,,,,,,,,,,,,,,,,,,,,,,062819_p1,001,2019_Jun_28_1218,body_behavioural,3.0.4,59.996883176600896,
2,Alex wanted to propose here because he knew Chloe would be wonderfully surprised. ,1,1,None,,,,0,2,2,2,,,,,0,4,4,4,,,,,,,,,,,,,,,,,,,,,,,,,,,,,,,,,,,9,3.6868778499774635,,,,,,,,,,,,,,,,,,,,,,,,,,,,062819_p1,001,2019_Jun_28_1218,body_behavioural,3.0.4,59.996883176600896,
2,"After 23 months of dating, Alex knew one of the things Chloe loved most was surprises. ",1,1,None,,,,0,2,2,2,,,,,0,5,5,5,,,,,,,,,,,,,,,,,,,,,,,,,,,,,,,,,,,1,6.803717543021776,,,,,,,,,,,,,,,,,,,,,,,,,,,,062819_p1,001,2019_Jun_28_1218,body_behavioural,3.0.4,59.996883176600896,
2,"Chloe perused the canned goods aisle, and said, “Alex, we need a couple things.”",2,1,None,,,,0,2,2,2,,,,,0,6,6,6,,,,,,,,,,,,,,,,,,,,,,,,,,,,,,,,,,,9,8.420743487018626,,,,,,,,,,,,,,,,,,,,,,,,,,,,062819_p1,001,2019_Jun_28_1218,body_behavioural,3.0.4,59.996883176600896,
2,"He didn’t hear her and was fanning himself, and Chloe asked him if he was okay.",2,1,None,,,,0,2,2,2,,,,,0,7,7,7,,,,,,,,,,,,,,,,,,,,,,,,,,,,,,,,,,,1,4.137102828011848,,,,,,,,,,,,,,,,,,,,,,,,,,,,062819_p1,001,2019_Jun_28_1218,body_behavioural,3.0.4,59.996883176600896,
2,"“Oh yeah, for sure,” he said, unconvincingly. ",2,1,None,,,,0,2,2,2,,,,,0,8,8,8,,,,,,,,,,,,,,,,,,,,,,,,,,,,,,,,,,,1,1.136406985053327,,,,,,,,,,,,,,,,,,,,,,,,,,,,062819_p1,001,2019_Jun_28_1218,body_behavioural,3.0.4,59.996883176600896,
2,"She chuckled, “Alright, whatever you say.” ",2,1,None,,,,0,2,2,2,,,,,0,9,9,9,,,,,,,,,,,,,,,,,,,,,,,,,,,,,,,,,,,1,2.350745845003985,,,,,,,,,,,,,,,,,,,,,,,,,,,,062819_p1,001,2019_Jun_28_1218,body_behavioural,3.0.4,59.996883176600896,
2,"She had a can of pumpkin puree and a bottle of vinegar picked out, and she was now mulling over the different cans of cranberry sauce.",2,1,None,,,,0,2,2,2,,,,,0,10,10,10,,,,,,,,,,,,,,,,,,,,,,,,,,,,,,,,,,,1,9.75369486497948,,,,,,,,,,,,,,,,,,,,,,,,,,,,062819_p1,001,2019_Jun_28_1218,body_behavioural,3.0.4,59.996883176600896,
2,"Alex was guessing she would be a while, and he turned his back to her and pulled out the ring to look at it one more time. ",2,2,None,,,,0,2,2,2,,,,,0,11,11,11,,,,,,,,,,,,,,,,,,,,,,,,,,,,,,,,,,,1,5.517707396997139,,,,,,,,,,,,,,,,,,,,,,,,,,,,062819_p1,001,2019_Jun_28_1218,body_behavioural,3.0.4,59.996883176600896,
2,The ring a thin band with one white diamond that glittered excessively in the light. ,2,2,None,,,,0,2,2,2,,,,,0,12,12,12,,,,,,,,,,,,,,,,,,,,,,,,,,,,,,,,,,,1,2.170179004955571,,,,,,,,,,,,,,,,,,,,,,,,,,,,062819_p1,001,2019_Jun_28_1218,body_behavioural,3.0.4,59.996883176600896,
2,“Do we need anything else?” she called out to him. ,2,2,None,,,,0,2,2,2,,,,,0,13,13,13,,,,,,,,,,,,,,,,,,,,,,,,,,,,,,,,,,,1,1.4029159850324504,,,,,,,,,,,,,,,,,,,,,,,,,,,,062819_p1,001,2019_Jun_28_1218,body_behavioural,3.0.4,59.996883176600896,
2,"“Yeah I don’t know, honey,” he said back, still looking at the ring. ",2,2,None,,,,0,2,2,2,,,,,0,14,14,14,,,,,,,,,,,,,,,,,,,,,,,,,,,,,,,,,,,1,2.7866620419663377,,,,,,,,,,,,,,,,,,,,,,,,,,,,062819_p1,001,2019_Jun_28_1218,body_behavioural,3.0.4,59.996883176600896,
2,"In the checkout area, there were 5 aisles open and they stepped in line for station 3. ",3,2,None,,,,0,2,2,2,,,,,0,15,15,15,,,,,,,,,,,,,,,,,,,,,,,,,,,,,,,,,,,1,2.436453939997591,,,,,,,,,,,,,,,,,,,,,,,,,,,,062819_p1,001,2019_Jun_28_1218,body_behavioural,3.0.4,59.996883176600896,
2,Alex was staring intensely off into the distance for most of the time and fidgeting with his wallet. ,3,2,None,,,,0,2,2,2,,,,,0,16,16,16,,,,,,,,,,,,,,,,,,,,,,,,,,,,,,,,,,,1,3.1032245719688945,,,,,,,,,,,,,,,,,,,,,,,,,,,,062819_p1,001,2019_Jun_28_1218,body_behavioural,3.0.4,59.996883176600896,
2,"Chloe watched him trying to decide whether he looked scared or confused, and shrugged, pulling out her phone since she figured he’d talk about whatever was on his mind when he was ready. ",3,2,None,,,,0,2,2,2,,,,,0,17,17,17,,,,,,,,,,,,,,,,,,,,,,,,,,,,,,,,,,,1,3.9363346170284785,,,,,,,,,,,,,,,,,,,,,,,,,,,,062819_p1,001,2019_Jun_28_1218,body_behavioural,3.0.4,59.996883176600896,
2,Alex looked over at their friends who were waiting by the entrance of the grocery store.,3,2,None,,,,0,2,2,2,,,,,0,18,18,18,,,,,,,,,,,,,,,,,,,,,,,,,,,,,,,,,,,1,5.436803635035176,,,,,,,,,,,,,,,,,,,,,,,,,,,,062819_p1,001,2019_Jun_28_1218,body_behavioural,3.0.4,59.996883176600896,
2,They walked over slowly. ,3,2,None,,,,0,2,2,2,,,,,0,19,19,19,,,,,,,,,,,,,,,,,,,,,,,,,,,,,,,,,,,1,1.053330825001467,,,,,,,,,,,,,,,,,,,,,,,,,,,,062819_p1,001,2019_Jun_28_1218,body_behavioural,3.0.4,59.996883176600896,
2,"Seemingly out of nowhere, Alex took Chloe’s hand and he got down on one knee. ",3,3,None,,,,0,2,2,2,,,,,0,20,20,20,,,,,,,,,,,,,,,,,,,,,,,,,,,,,,,,,,,1,2.5843232850311324,,,,,,,,,,,,,,,,,,,,,,,,,,,,062819_p1,001,2019_Jun_28_1218,body_behavioural,3.0.4,59.996883176600896,
2,Chloe gasped,3,3,None,,,,0,2,2,2,,,,,0,21,21,21,,,,,,,,,,,,,,,,,,,,,,,,,,,,,,,,,,,1,1.1030636420473456,,,,,,,,,,,,,,,,,,,,,,,,,,,,062819_p1,001,2019_Jun_28_1218,body_behavioural,3.0.4,59.996883176600896,
2,"“Chloe, I love you so much and I want to be with you forever, I can’t imagine a day without you.”",3,3,None,,,,0,2,2,2,,,,,0,22,22,22,,,,,,,,,,,,,,,,,,,,,,,,,,,,,,,,,,,1,3.1699500549584627,,,,,,,,,,,,,,,,,,,,,,,,,,,,062819_p1,001,2019_Jun_28_1218,body_behavioural,3.0.4,59.996883176600896,
2,"“Alex, me too,” she replied.",3,3,None,,,,0,2,2,2,,,,,0,23,23,23,,,,,,,,,,,,,,,,,,,,,,,,,,,,,,,,,,,1,1.3360821949900128,,,,,,,,,,,,,,,,,,,,,,,,,,,,062819_p1,001,2019_Jun_28_1218,body_behavioural,3.0.4,59.996883176600896,
2,"The ring was in the crevice of his wallet, and he opened it.",3,3,None,,,,0,2,2,2,,,,,0,24,24,24,,,,,,,,,,,,,,,,,,,,,,,,,,,,,,,,,,,1,2.7037120680324733,,,,,,,,,,,,,,,,,,,,,,,,,,,,062819_p1,001,2019_Jun_28_1218,body_behavioural,3.0.4,59.996883176600896,
2,“Will you marry me?”,3,3,None,,,,0,2,2,2,,,,,0,25,25,25,,,,,,,,,,,,,,,,,,,,,,,,,,,,,,,,,,,1,0.6029065870097838,,,,,,,,,,,,,,,,,,,,,,,,,,,,062819_p1,001,2019_Jun_28_1218,body_behavioural,3.0.4,59.996883176600896,
2,"The people in line around them realized what was happening, stepped back, and started taking pictures.",3,3,None,,,,0,2,2,2,,,,,0,26,26,26,,,,,,,,,,,,,,,,,,,,,,,,,,,,,,,,,,,1,6.119950752006844,,,,,,,,,,,,,,,,,,,,,,,,,,,,062819_p1,001,2019_Jun_28_1218,body_behavioural,3.0.4,59.996883176600896,
2,Their friends were no longer trying to hide and were videotaping and taking pictures too. ,3,3,None,,,,0,2,2,2,,,,,0,27,27,27,,,,,,,,,,,,,,,,,,,,,,,,,,,,,,,,,,,1,2.820081365003716,,,,,,,,,,,,,,,,,,,,,,,,,,,,062819_p1,001,2019_Jun_28_1218,body_behavioural,3.0.4,59.996883176600896,
2,"After a few moments of suspense she shouted,“Yes!”, and she jumped to embrace Alex in a hug. ",3,4,None,,,,0,2,2,2,,,,,0,28,28,28,,,,,,,,,,,,,,,,,,,,,,,,,,,,,,,,,,,1,3.7182163419784047,,,,,,,,,,,,,,,,,,,,,,,,,,,,062819_p1,001,2019_Jun_28_1218,body_behavioural,3.0.4,59.996883176600896,
2,Everyone in line clapped and cheered. ,3,4,None,,,,0,2,2,2,,,,,0,29,29,29,,,,,,,,,,,,,,,,,,,,,,,,,,,,,,,,,,,1,3.5865962270181626,,,,,,,,,,,,,,,,,,,,,,,,,,,,062819_p1,001,2019_Jun_28_1218,body_behavioural,3.0.4,59.996883176600896,
2,"Alex put the ring on Chloe’s finger, who was nearly spinning in excitement.",3,4,None,,,,0,2,2,2,,,,,0,30,30,30,,,,,,,,,,,,,,,,,,,,,,,,,,,,,,,,,,,1,2.1532848050119355,,,,,,,,,,,,,,,,,,,,,,,,,,,,062819_p1,001,2019_Jun_28_1218,body_behavioural,3.0.4,59.996883176600896,
2,“I love it!,3,4,None,,,,0,2,2,2,,,,,0,31,31,31,,,,,,,,,,,,,,,,,,,,,,,,,,,,,,,,,,,1,0.6366143979830667,,,,,,,,,,,,,,,,,,,,,,,,,,,,062819_p1,001,2019_Jun_28_1218,body_behavioural,3.0.4,59.996883176600896,
2,Oh my- it’s so glittery!,3,4,None,,,,0,2,2,2,,,,,0,32,32,32,,,,,,,,,,,,,,,,,,,,,,,,,,,,,,,,,,,1,0.8533008400117978,,,,,,,,,,,,,,,,,,,,,,,,,,,,062819_p1,001,2019_Jun_28_1218,body_behavioural,3.0.4,59.996883176600896,
2,Look at this!” she said as she shoved her hand in a stranger’s face.,3,4,None,,,,0,2,2,2,,,,,0,33,33,33,,,,,,,,,,,,,,,,,,,,,,,,,,,,,,,,,,,1,3.6528176550054923,,,,,,,,,,,,,,,,,,,,,,,,,,,,062819_p1,001,2019_Jun_28_1218,body_behavioural,3.0.4,59.996883176600896,
2,Their friends came over and hugged them.,3,4,None,,,,0,2,2,2,,,,,0,34,34,34,,,,,,,,,,,,,,,,,,,,,,,,,,,,,,,,,,,1,1.9363207099959254,,,,,,,,,,,,,,,,,,,,,,,,,,,,062819_p1,001,2019_Jun_28_1218,body_behavioural,3.0.4,59.996883176600896,
2,The other people let them move up to the front of the checkout line. ,3,4,None,,,,0,2,2,2,,,,,0,35,35,35,,,,,,,,,,,,,,,,,,,,,,,,,,,,,,,,,,,1,1.1861644700402394,,,,,,,,,,,,,,,,,,,,,,,,,,,,062819_p1,001,2019_Jun_28_1218,body_behavioural,3.0.4,59.996883176600896,
2,Chloe immediately texted her mom a picture of her hand. ,3,4,None,,,,0,2,2,2,,,,,0,36,36,36,,,,,,,,,,,,,,,,,,,,,,,,,,,,,,,,,,,1,1.96974362997571,,,,,,,,,,,,,,,,,,,,,,,,,,,,062819_p1,001,2019_Jun_28_1218,body_behavioural,3.0.4,59.996883176600896,
2,The cashier congratulated them and scanned their groceries. ,4,4,None,,,,0,2,2,2,,,,,0,37,37,37,,,,,,,,,,,,,,,,,,,,,,,,,,,,,,,,,,,1,1.6019833100144751,,,,,,,,,,,,,,,,,,,,,,,,,,,,062819_p1,001,2019_Jun_28_1218,body_behavioural,3.0.4,59.996883176600896,
2,The total came to $14 and Alex paid in cash while Chloe greeted their friends.,4,4,None,,,,0,2,2,2,,,,,0,38,38,38,,,,,,,,,,,,,,,,,,,,,,,,,,,,,,,,,,,1,3.253271169960499,,,,,,,,,,,,,,,,,,,,,,,,,,,,062819_p1,001,2019_Jun_28_1218,body_behavioural,3.0.4,59.996883176600896,
2,"Alex grabbed the bags, and they all walked out together working out where they’d go to celebrate.  ",4,4,None,,,,0,2,2,2,,,,,0,39,39,39,,,,,,,,,,,,,,,,,,,,,,,,,,,,,,,,,,,1,3.686567419965286,,,,,,,,,,,,,,,,,,,,,,,,,,,,062819_p1,001,2019_Jun_28_1218,body_behavioural,3.0.4,59.996883176600896,
2,,,,,,,,0,2,2,2,,,,,,,,,,,,,,,,,,,,,,,,,,,,,,,,,,,,,,,,,,,,,,,,,,,,,,,,,,,,,,,,,,,,,,,,062819_p1,001,2019_Jun_28_1218,body_behavioural,3.0.4,59.996883176600896,
3,,,,,,,,0,3,3,3,0,0,0,0,,,,,,,,,,,,,,,,,,,,,,,,,,,,,space,1.450792226998601,space,2.3197008020360954,space,1.1361913380096667,,,,,,,,,,,,,,,,,,,,,,,,,,,,,,,,,,062819_p1,001,2019_Jun_28_1218,body_behavioural,3.0.4,59.996883176600896,
3,"Alvira and Senna walked into the restaurant hand in sweaty hand with quite different expectations for the night because Senna, after 5 years of dating, was going to propose, and Alvira had no idea.",1.0,1.0,21.0,None,None,,0,3,3,3,,,,,0,0,0,0,,,,,,,,,,,,,,,,,,,,,,,,,,,,,,,space,2.454357335984241,space,2.053469375008717,1,11.334825208003167,,,,,,,,,,,,,,,,,,,,,,,,,,,,062819_p1,001,2019_Jun_28_1218,body_behavioural,3.0.4,59.996883176600896,
3,"He took a deep breath, trying to calm his nerves as worst case scenarios ran through his mind. ",1.0,1.0,None,None,None,,0,3,3,3,,,,,0,1,1,1,,,,,,,,,,,,,,,,,,,,,,,,,,,,,,,,,,,1,6.820113405003212,,,,,,,,,,,,,,,,,,,,,,,,,,,,062819_p1,001,2019_Jun_28_1218,body_behavioural,3.0.4,59.996883176600896,
3,The restaurant was on the beach and had floor-to-ceiling arched windows that framed an incredible view of the Pacific Ocean.,1.0,1.0,None,None,None,,0,3,3,3,,,,,0,2,2,2,,,,,,,,,,,,,,,,,,,,,,,,,,,,,,,,,,,1,7.734052311978303,,,,,,,,,,,,,,,,,,,,,,,,,,,,062819_p1,001,2019_Jun_28_1218,body_behavioural,3.0.4,59.996883176600896,
3,"Besides the view, the restaurant itself was beautiful- crystal chandeliers hung from the high ceiling above small tables covered with white table clothes.
",1.0,1.0,None,None,None,,0,3,3,3,,,,,0,3,3,3,,,,,,,,,,,,,,,,,,,,,,,,,,,,,,,,,,,1,3.869784435024485,,,,,,,,,,,,,,,,,,,,,,,,,,,,062819_p1,001,2019_Jun_28_1218,body_behavioural,3.0.4,59.996883176600896,
3,This was surely one of the best restaurants on the West Coast.,1.0,1.0,None,None,None,,0,3,3,3,,,,,0,4,4,4,,,,,,,,,,,,,,,,,,,,,,,,,,,,,,,,,,,1,1.7531425249762833,,,,,,,,,,,,,,,,,,,,,,,,,,,,062819_p1,001,2019_Jun_28_1218,body_behavioural,3.0.4,59.996883176600896,
3,"After Senna gave his name to the host, who discretely winked at Senna, they were seated at a table right by the window. ",2.0,1.0,None,7.0,None,,0,3,3,3,,,,,0,5,5,5,,,,,,,,,,,,,,,,,,,,,,,,,,,,,,,,,,,1,4.152843296993524,,,,,,,,,,,,,,,,,,,,,,,,,,,,062819_p1,001,2019_Jun_28_1218,body_behavioural,3.0.4,59.996883176600896,
3,The waiter brought out some very small menus.,2.0,1.0,None,None,9.0,,0,3,3,3,,,,,0,6,6,6,,,,,,,,,,,,,,,,,,,,,,,,,,,,,,,,,,,1,1.8193115919712,,,,,,,,,,,,,,,,,,,,,,,,,,,,062819_p1,001,2019_Jun_28_1218,body_behavioural,3.0.4,59.996883176600896,
3,"They consisted of a short list of the head chef's carefully selected daily dishes written in a loopy, cursive font unadorned by any mention of prices.",None,None,None,None,None,,0,3,3,3,,,,,0,7,7,7,,,,,,,,,,,,,,,,,,,,,,,,,,,,,,,,,,,1,3.3513592099770904,,,,,,,,,,,,,,,,,,,,,,,,,,,,062819_p1,001,2019_Jun_28_1218,body_behavioural,3.0.4,59.996883176600896,
3,"Senna got nervous about the ring, and he slipped off to the bathroom to check to make sure it looked alright.",2.0,2.0,None,None,None,,0,3,3,3,,,,,0,8,8,8,,,,,,,,,,,,,,,,,,,,,,,,,,,,,,,,,,,1,6.853580836963374,,,,,,,,,,,,,,,,,,,,,,,,,,,,062819_p1,001,2019_Jun_28_1218,body_behavioural,3.0.4,59.996883176600896,
3,The ring contained three canary yellow diamonds that had been in his grandmother’s wedding ring. ,2.0,2.0,None,None,None,,0,3,3,3,,,,,0,9,9,9,,,,,,,,,,,,,,,,,,,,,,,,,,,,,,,,,,,1,3.7366729670320638,,,,,,,,,,,,,,,,,,,,,,,,,,,,062819_p1,001,2019_Jun_28_1218,body_behavioural,3.0.4,59.996883176600896,
3,"After Senna had gotten back to the table, the waiter appeared at their table to take their order.",3.0,2.0,None,None,None,,0,3,3,3,,,,,0,10,10,10,,,,,,,,,,,,,,,,,,,,,,,,,,,,,,,,,,,9,7.0368915920262225,,,,,,,,,,,,,,,,,,,,,,,,,,,,062819_p1,001,2019_Jun_28_1218,body_behavioural,3.0.4,59.996883176600896,
3,"Senna ordered the oysters with garlic-parmesan sauce, and Alvira ordered the sauteed sea scallops with caramelized apples. ",3.0,2.0,None,None,None,,0,3,3,3,,,,,0,11,11,11,,,,,,,,,,,,,,,,,,,,,,,,,,,,,,,,,,,1,4.936763795034494,,,,,,,,,,,,,,,,,,,,,,,,,,,,062819_p1,001,2019_Jun_28_1218,body_behavioural,3.0.4,59.996883176600896,
3,"“Excellent choices,” the waiter said, and he left.",3.0,2.0,None,None,None,,0,3,3,3,,,,,0,12,12,12,,,,,,,,,,,,,,,,,,,,,,,,,,,,,,,,,,,1,2.3175189979956485,,,,,,,,,,,,,,,,,,,,,,,,,,,,062819_p1,001,2019_Jun_28_1218,body_behavioural,3.0.4,59.996883176600896,
3,"“What a beautiful place, Senna. ",3.0,2.0,None,None,None,,0,3,3,3,,,,,0,13,13,13,,,,,,,,,,,,,,,,,,,,,,,,,,,,,,,,,,,9,1.6530394770088606,,,,,,,,,,,,,,,,,,,,,,,,,,,,062819_p1,001,2019_Jun_28_1218,body_behavioural,3.0.4,59.996883176600896,
3,"This is too much just to celebrate the first tomatoes I grew in the garden- really, this is absurd,” Alvira said.",3.0,2.0,None,None,None,,0,3,3,3,,,,,0,14,14,14,,,,,,,,,,,,,,,,,,,,,,,,,,,,,,,,,,,1,7.169950381969102,,,,,,,,,,,,,,,,,,,,,,,,,,,,062819_p1,001,2019_Jun_28_1218,body_behavioural,3.0.4,59.996883176600896,
3,"Senna laughed and said, “No, those were really the best tomatoes I’ve ever had. ",3.0,2.0,None,None,None,,0,3,3,3,,,,,0,15,15,15,,,,,,,,,,,,,,,,,,,,,,,,,,,,,,,,,,,1,5.902781231969129,,,,,,,,,,,,,,,,,,,,,,,,,,,,062819_p1,001,2019_Jun_28_1218,body_behavioural,3.0.4,59.996883176600896,
3,We had to celebrate.” ,3.0,2.0,None,None,None,,0,3,3,3,,,,,0,16,16,16,,,,,,,,,,,,,,,,,,,,,,,,,,,,,,,,,,,1,1.0696734099765308,,,,,,,,,,,,,,,,,,,,,,,,,,,,062819_p1,001,2019_Jun_28_1218,body_behavioural,3.0.4,59.996883176600896,
3,"They talked and laughed as the sun sank below the horizon, lighting up the sky and water, and slowly the glow from the windows was replaced by the chandeliers.",3.0,2.0,None,8.0,None,,0,3,3,3,,,,,0,17,17,17,,,,,,,,,,,,,,,,,,,,,,,,,,,,,,,,,,,9,7.27003319200594,,,,,,,,,,,,,,,,,,,,,,,,,,,,062819_p1,001,2019_Jun_28_1218,body_behavioural,3.0.4,59.996883176600896,
3,The waiter returned with their dishes.,4.0,2.0,None,None,None,,0,3,3,3,,,,,0,18,18,18,,,,,,,,,,,,,,,,,,,,,,,,,,,,,,,,,,,9,1.9702625650097616,,,,,,,,,,,,,,,,,,,,,,,,,,,,062819_p1,001,2019_Jun_28_1218,body_behavioural,3.0.4,59.996883176600896,
3,"Everything was even more delicious than they had expected, especially the oysters, which Senna said tasted like the ocean. ",4.0,2.0,None,None,None,,0,3,3,3,,,,,0,19,19,19,,,,,,,,,,,,,,,,,,,,,,,,,,,,,,,,,,,1,6.270057618035935,,,,,,,,,,,,,,,,,,,,,,,,,,,,062819_p1,001,2019_Jun_28_1218,body_behavioural,3.0.4,59.996883176600896,
3," As they were eating, Senna recounted to Alvira how they had met, and he told her in many words how much he loved her and what he loved about her, almost tearing up at moments. ",4.0,2.0,None,None,None,,0,3,3,3,,,,,0,20,20,20,,,,,,,,,,,,,,,,,,,,,,,,,,,,,,,,,,,9,6.786635944969021,,,,,,,,,,,,,,,,,,,,,,,,,,,,062819_p1,001,2019_Jun_28_1218,body_behavioural,3.0.4,59.996883176600896,
3,"When they had finished eating, Senna nodded at the waiter who had been watching attentively, and he quickly strode over to place a small, elegant cake topped with the ring in front of Alvira. ",4.0,3.0,None,None,None,,0,3,3,3,,,,,0,21,21,21,,,,,,,,,,,,,,,,,,,,,,,,,,,,,,,,,,,9,12.554061701986939,,,,,,,,,,,,,,,,,,,,,,,,,,,,062819_p1,001,2019_Jun_28_1218,body_behavioural,3.0.4,59.996883176600896,
3,Her eyes widened in shock when she realized what she was looking at.,4.0,3.0,None,None,None,,0,3,3,3,,,,,0,22,22,22,,,,,,,,,,,,,,,,,,,,,,,,,,,,,,,,,,,1,2.1865886799641885,,,,,,,,,,,,,,,,,,,,,,,,,,,,062819_p1,001,2019_Jun_28_1218,body_behavioural,3.0.4,59.996883176600896,
3,"Senna got down on one knee and said,“Alvira, will you marry me? ",4.0,3.0,None,None,None,,0,3,3,3,,,,,0,23,23,23,,,,,,,,,,,,,,,,,,,,,,,,,,,,,,,,,,,1,3.053302312036976,,,,,,,,,,,,,,,,,,,,,,,,,,,,062819_p1,001,2019_Jun_28_1218,body_behavioural,3.0.4,59.996883176600896,
3,"I love you, and I will never stop loving you.” ",4.0,3.0,None,None,None,,0,3,3,3,,,,,0,24,24,24,,,,,,,,,,,,,,,,,,,,,,,,,,,,,,,,,,,1,1.017787977005355,,,,,,,,,,,,,,,,,,,,,,,,,,,,062819_p1,001,2019_Jun_28_1218,body_behavioural,3.0.4,59.996883176600896,
3,"After a few moments with everyone turned and looking at Elvira in expectation, she exclaimed, “Yes, of course, yes!”",4.0,4.0,None,None,None,,0,3,3,3,,,,,0,25,25,25,,,,,,,,,,,,,,,,,,,,,,,,,,,,,,,,,,,1,3.8528606349718757,,,,,,,,,,,,,,,,,,,,,,,,,,,,062819_p1,001,2019_Jun_28_1218,body_behavioural,3.0.4,59.996883176600896,
3,She hugged Senna with tears flowing down her cheeks. ,4.0,4.0,None,None,None,,0,3,3,3,,,,,0,26,26,26,,,,,,,,,,,,,,,,,,,,,,,,,,,,,,,,,,,1,8.617733699968085,,,,,,,,,,,,,,,,,,,,,,,,,,,,062819_p1,001,2019_Jun_28_1218,body_behavioural,3.0.4,59.996883176600896,
3,"The other guests exploded in applause, and the waiter returned with a bottle of champagne and popped it.",4.0,4.0,None,None,None,,0,3,3,3,,,,,0,27,27,27,,,,,,,,,,,,,,,,,,,,,,,,,,,,,,,,,,,9,4.436763130011968,,,,,,,,,,,,,,,,,,,,,,,,,,,,062819_p1,001,2019_Jun_28_1218,body_behavioural,3.0.4,59.996883176600896,
3,Senna slipped the ring onto Alvira’s finger and she held up her hand to admire it.,4.0,4.0,None,None,None,,0,3,3,3,,,,,0,28,28,28,,,,,,,,,,,,,,,,,,,,,,,,,,,,,,,,,,,1,2.953428980021272,,,,,,,,,,,,,,,,,,,,,,,,,,,,062819_p1,001,2019_Jun_28_1218,body_behavioural,3.0.4,59.996883176600896,
3,“I need to text my dad and tell him!” she sang. ,4.0,4.0,None,None,None,,0,3,3,3,,,,,0,29,29,29,,,,,,,,,,,,,,,,,,,,,,,,,,,,,,,,,,,1,2.3028441399801522,,,,,,,,,,,,,,,,,,,,,,,,,,,,062819_p1,001,2019_Jun_28_1218,body_behavioural,3.0.4,59.996883176600896,
3,The whole restaurant proceeded in cheers with them to celebrate the joyous occasion.  ,4.0,4.0,None,None,None,,0,3,3,3,,,,,0,30,30,30,,,,,,,,,,,,,,,,,,,,,,,,,,,,,,,,,,,1,3.470333262986969,,,,,,,,,,,,,,,,,,,,,,,,,,,,062819_p1,001,2019_Jun_28_1218,body_behavioural,3.0.4,59.996883176600896,
3,,,,,,,,0,3,3,3,,,,,,,,,,,,,,,,,,,,,,,,,,,,,,,,,,,,,,,,,,,,,,,,,,,,,,,,,,,,,,,,,,,,,,,,062819_p1,001,2019_Jun_28_1218,body_behavioural,3.0.4,59.996883176600896,
4,,,,,,,,0,4,4,4,0,0,0,0,,,,,,,,,,,,,,,,,,,,,,,,,,,,,space,0.8508934929850511,space,0.6529503450146876,space,0.6197377149946988,,,,,,,,,,,,,,,,,,,,,,,,,,,,,,,,,,062819_p1,001,2019_Jun_28_1218,body_behavioural,3.0.4,59.996883176600896,
4,,,,,,,,0,4,4,4,1,0,1,0,,,,,,,,,,,,,,,,,,,,,,,,,,,,,,,,,space,0.9672784150461666,,,,,,,,,,,,,,,,,,,,,,,,,,,,,,,,,,062819_p1,001,2019_Jun_28_1218,body_behavioural,3.0.4,59.996883176600896,
4,,,,,,,,0,4,4,4,2,0,2,0,,,,,,,,,,,,,,,,,,,,,,,,,,,,,,,,,space,0.48609457700513303,,,,,,,,,,,,,,,,,,,,,,,,,,,,,,,,,,062819_p1,001,2019_Jun_28_1218,body_behavioural,3.0.4,59.996883176600896,
4,,,,,,,,0,4,4,4,3,0,3,0,,,,,,,,,,,,,,,,,,,,,,,,,,,,,,,,,space,0.8840870929998346,,,,,,,,,,,,,,,,,,,,,,,,,,,,,,,,,,062819_p1,001,2019_Jun_28_1218,body_behavioural,3.0.4,59.996883176600896,
4,,,,,,,,0,4,4,4,4,0,4,0,,,,,,,,,,,,,,,,,,,,,,,,,,,,,,,,,space,1.1202243929728866,,,,,,,,,,,,,,,,,,,,,,,,,,,,,,,,,,062819_p1,001,2019_Jun_28_1218,body_behavioural,3.0.4,59.996883176600896,
4,"It didn’t help the situation that Calvin and Jessie were running late to the airport, since Jessie had already been fuming at Calvin and preparing to end the relationship with him.",1,1,12.0,,,,0,4,4,4,,,,,0,0,0,0,,,,,,,,,,,,,,,,,,,,,,,,,,,,,,,space,1.1530458999914117,space,1.5862993100308813,9,24.30489830300212,,,,,,,,,,,,,,,,,,,,,,,,,,,,062819_p1,001,2019_Jun_28_1218,body_behavioural,3.0.4,59.996883176600896,
4,"Upon arriving at their terminal, they had only 45 minutes until their international flight would depart from Jamaica for the US.",1,1,None,,,,0,4,4,4,,,,,0,1,1,1,,,,,,,,,,,,,,,,,,,,,,,,,,,,,,,,,,,9,5.336786466999911,,,,,,,,,,,,,,,,,,,,,,,,,,,,062819_p1,001,2019_Jun_28_1218,body_behavioural,3.0.4,59.996883176600896,
4,"It had been a tough vacation, which was planned well before Jessie began to think of breaking up 6 weeks ago.  ",1,1,None,,,,0,4,4,4,,,,,0,2,2,2,,,,,,,,,,,,,,,,,,,,,,,,,,,,,,,,,,,9,4.0842394169885665,,,,,,,,,,,,,,,,,,,,,,,,,,,,062819_p1,001,2019_Jun_28_1218,body_behavioural,3.0.4,59.996883176600896,
4,"Calvin knew that Jessie was upset, but wasn't sure what to do besides attempt to carry on as normal.",1,1,None,,,,0,4,4,4,,,,,0,3,3,3,,,,,,,,,,,,,,,,,,,,,,,,,,,,,,,,,,,9,4.053511829988565,,,,,,,,,,,,,,,,,,,,,,,,,,,,062819_p1,001,2019_Jun_28_1218,body_behavioural,3.0.4,59.996883176600896,
4,"The security line was very short, and once the online boarding passes were scanned, Calvin took off his belt and watch, and they put their bags on the conveyor belt.",2,1,None,,,,0,4,4,4,,,,,0,4,4,4,,,,,,,,,,,,,,,,,,,,,,,,,,,,,,,,,,,9,5.070083694998175,,,,,,,,,,,,,,,,,,,,,,,,,,,,062819_p1,001,2019_Jun_28_1218,body_behavioural,3.0.4,59.996883176600896,
4,"There was a short halt in security proceedings so that the security guards could change shifts, but, once everything was back in order, they were ushered quickly through the metal detector. ",2,1,None,,,,0,4,4,4,,,,,0,5,5,5,,,,,,,,,,,,,,,,,,,,,,,,,,,,,,,,,,,1,4.786668347020168,,,,,,,,,,,,,,,,,,,,,,,,,,,,062819_p1,001,2019_Jun_28_1218,body_behavioural,3.0.4,59.996883176600896,
4,"“The infrastructure of this airport is really quite poor," said Calvin as they waited for their bags to emerge from the x-ray machine.",2,1,None,,,,0,4,4,4,,,,,0,6,6,6,,,,,,,,,,,,,,,,,,,,,,,,,,,,,,,,,,,1,4.203315168037079,,,,,,,,,,,,,,,,,,,,,,,,,,,,062819_p1,001,2019_Jun_28_1218,body_behavioural,3.0.4,59.996883176600896,
4,“I could've hidden something in my shoes quite easily.” ,2,1,None,,,,0,4,4,4,,,,,0,7,7,7,,,,,,,,,,,,,,,,,,,,,,,,,,,,,,,,,,,1,2.169740275014192,,,,,,,,,,,,,,,,,,,,,,,,,,,,062819_p1,001,2019_Jun_28_1218,body_behavioural,3.0.4,59.996883176600896,
4,"Jessie, exasperated, scowled at the conveyor belt.",2,1,None,,,,0,4,4,4,,,,,0,8,8,8,,,,,,,,,,,,,,,,,,,,,,,,,,,,,,,,,,,1,2.319486810010858,,,,,,,,,,,,,,,,,,,,,,,,,,,,062819_p1,001,2019_Jun_28_1218,body_behavioural,3.0.4,59.996883176600896,
4,“What?” he asked.,2,1,None,,,,0,4,4,4,,,,,0,9,9,9,,,,,,,,,,,,,,,,,,,,,,,,,,,,,,,,,,,1,0.8197154470253736,,,,,,,,,,,,,,,,,,,,,,,,,,,,062819_p1,001,2019_Jun_28_1218,body_behavioural,3.0.4,59.996883176600896,
4,"Balling up her fists and turning to him angrily, she said, “Calvin, I really don’t think I can do this anymore because I don’t think our personalities are compatible. ",2,2,None,,,,0,4,4,4,,,,,0,10,10,10,,,,,,,,,,,,,,,,,,,,,,,,,,,,,,,,,,,9,8.336512276961002,,,,,,,,,,,,,,,,,,,,,,,,,,,,062819_p1,001,2019_Jun_28_1218,body_behavioural,3.0.4,59.996883176600896,
4,I think it’s best that once we get to the States we part ways for good.” ,2,2,None,,,,0,4,4,4,,,,,0,11,11,11,,,,,,,,,,,,,,,,,,,,,,,,,,,,,,,,,,,1,4.853818485978991,,,,,,,,,,,,,,,,,,,,,,,,,,,,062819_p1,001,2019_Jun_28_1218,body_behavioural,3.0.4,59.996883176600896,
4,Calvin said nothing as he grabbed his bag.,3,2,None,,,,0,4,4,4,,,,,0,12,12,12,,,,,,,,,,,,,,,,,,,,,,,,,,,,,,,,,,,1,2.769840405031573,,,,,,,,,,,,,,,,,,,,,,,,,,,,062819_p1,001,2019_Jun_28_1218,body_behavioural,3.0.4,59.996883176600896,
4,Jessie trailed behind him as they hurried their way quickly toward gate A28.,3,2,None,,,,0,4,4,4,,,,,0,13,13,13,,,,,,,,,,,,,,,,,,,,,,,,,,,,,,,,,,,1,4.767590029980056,,,,,,,,,,,,,,,,,,,,,,,,,,,,062819_p1,001,2019_Jun_28_1218,body_behavioural,3.0.4,59.996883176600896,
4,“So now you have nothing to say?” Jessie said. ,3,2,None,,,,0,4,4,4,,,,,0,14,14,14,,,,,,,,,,,,,,,,,,,,,,,,,,,,,,,,,,,1,2.3842599419876933,,,,,,,,,,,,,,,,,,,,,,,,,,,,062819_p1,001,2019_Jun_28_1218,body_behavioural,3.0.4,59.996883176600896,
4,"Calvin didn't answer, gritting his teeth and staring straight ahead. ",3,2,None,,,,0,4,4,4,,,,,0,15,15,15,,,,,,,,,,,,,,,,,,,,,,,,,,,,,,,,,,,1,4.969963858020492,,,,,,,,,,,,,,,,,,,,,,,,,,,,062819_p1,001,2019_Jun_28_1218,body_behavioural,3.0.4,59.996883176600896,
4,"He was very frustrated that he felt he had been trying to appease Jessie for the entirety of the vacation, and it seemed to be completed unappreciated. ",3,2,None,,,,0,4,4,4,,,,,0,16,16,16,,,,,,,,,,,,,,,,,,,,,,,,,,,,,,,,,,,1,8.036933074996341,,,,,,,,,,,,,,,,,,,,,,,,,,,,062819_p1,001,2019_Jun_28_1218,body_behavioural,3.0.4,59.996883176600896,
4,"Their silence was punctuated only by the rapid, rhythmic clacking of their suitcase wheels over the tile floor as they continued power-walking through the terminal. ",3,2,None,,,,0,4,4,4,,,,,0,17,17,17,,,,,,,,,,,,,,,,,,,,,,,,,,,,,,,,,,,1,6.2845573899685405,,,,,,,,,,,,,,,,,,,,,,,,,,,,062819_p1,001,2019_Jun_28_1218,body_behavioural,3.0.4,59.996883176600896,
4,"Calvin finally turned to address her as they continued walking: “Jessie, this makes perfect sense. ",3,3,None,,,,0,4,4,4,,,,,0,18,18,18,,,,,,,,,,,,,,,,,,,,,,,,,,,,,,,,,,,1,3.0692957309656776,,,,,,,,,,,,,,,,,,,,,,,,,,,,062819_p1,001,2019_Jun_28_1218,body_behavioural,3.0.4,59.996883176600896,
4,"If you feel this way, then I think we should break up because I don’t want to keep boring you.",3,3,None,,,,0,4,4,4,,,,,0,19,19,19,,,,,,,,,,,,,,,,,,,,,,,,,,,,,,,,,,,1,4.803501896967646,,,,,,,,,,,,,,,,,,,,,,,,,,,,062819_p1,001,2019_Jun_28_1218,body_behavioural,3.0.4,59.996883176600896,
4,"I agree, let’s part ways once we make it back.",3,3,None,,,,0,4,4,4,,,,,0,20,20,20,,,,,,,,,,,,,,,,,,,,,,,,,,,,,,,,,,,1,2.4365064699668437,,,,,,,,,,,,,,,,,,,,,,,,,,,,062819_p1,001,2019_Jun_28_1218,body_behavioural,3.0.4,59.996883176600896,
4,You should’ve spoken up about my apparent intolerability before you decided to plan this vacation.”,3,3,None,,,,0,4,4,4,,,,,0,21,21,21,,,,,,,,,,,,,,,,,,,,,,,,,,,,,,,,,,,1,4.253358721965924,,,,,,,,,,,,,,,,,,,,,,,,,,,,062819_p1,001,2019_Jun_28_1218,body_behavioural,3.0.4,59.996883176600896,
4,"He was very hurt, even though he didn’t want to show it. ",3,3,None,,,,0,4,4,4,,,,,0,22,22,22,,,,,,,,,,,,,,,,,,,,,,,,,,,,,,,,,,,1,2.6362088250461966,,,,,,,,,,,,,,,,,,,,,,,,,,,,062819_p1,001,2019_Jun_28_1218,body_behavioural,3.0.4,59.996883176600896,
4,"Having made it to their gate, they scanned their tickets, and the annoyed flight attendant shooed them onto the jet bridge and then closed the plane door behind them.",4,3,None,,,,0,4,4,4,,,,,0,23,23,23,,,,,,,,,,,,,,,,,,,,,,,,,,,,,,,,,,,1,9.453858920023777,,,,,,,,,,,,,,,,,,,,,,,,,,,,062819_p1,001,2019_Jun_28_1218,body_behavioural,3.0.4,59.996883176600896,
4,"Luckily, they had forgotten to arrange seats next to each other on the flight back.",4,3,None,,,,0,4,4,4,,,,,0,24,24,24,,,,,,,,,,,,,,,,,,,,,,,,,,,,,,,,,,,1,7.384451650024857,,,,,,,,,,,,,,,,,,,,,,,,,,,,062819_p1,001,2019_Jun_28_1218,body_behavioural,3.0.4,59.996883176600896,
4,"They were both in economy, but Jessie was headed for seat 33A while Calvin's seat was 33F. ",4,3,None,,,,0,4,4,4,,,,,0,25,25,25,,,,,,,,,,,,,,,,,,,,,,,,,,,,,,,,,,,1,3.436922844965011,,,,,,,,,,,,,,,,,,,,,,,,,,,,062819_p1,001,2019_Jun_28_1218,body_behavioural,3.0.4,59.996883176600896,
4,"Before Jessie sat down, she took a deep breath, calmed her emotions, and then awkwardly shook Calvin’s hand, mumbling, “Have a nice flight. ",4,4,None,,,,0,4,4,4,,,,,0,26,26,26,,,,,,,,,,,,,,,,,,,,,,,,,,,,,,,,,,,1,5.466997587005608,,,,,,,,,,,,,,,,,,,,,,,,,,,,062819_p1,001,2019_Jun_28_1218,body_behavioural,3.0.4,59.996883176600896,
4,"Oh, and when you get a chance, could you send me back all the philosophy books I lent you?”",4,4,None,,,,0,4,4,4,,,,,0,27,27,27,,,,,,,,,,,,,,,,,,,,,,,,,,,,,,,,,,,1,3.720024390029721,,,,,,,,,,,,,,,,,,,,,,,,,,,,062819_p1,001,2019_Jun_28_1218,body_behavioural,3.0.4,59.996883176600896,
4,He laughed in disbelief and walked to his window seat three rows back to get ready for takeoff.,4,4,None,,,,0,4,4,4,,,,,0,28,28,28,,,,,,,,,,,,,,,,,,,,,,,,,,,,,,,,,,,1,5.020252159971278,,,,,,,,,,,,,,,,,,,,,,,,,,,,062819_p1,001,2019_Jun_28_1218,body_behavioural,3.0.4,59.996883176600896,
4,Both were upset but glad that they would have this flight in solitude.,4,4,None,,,,0,4,4,4,,,,,0,29,29,29,,,,,,,,,,,,,,,,,,,,,,,,,,,,,,,,,,,1,3.603161414968781,,,,,,,,,,,,,,,,,,,,,,,,,,,,062819_p1,001,2019_Jun_28_1218,body_behavioural,3.0.4,59.996883176600896,
4,,,,,,,,0,4,4,4,,,,,,,,,,,,,,,,,,,,,,,,,,,,,,,,,,,,,,,,,,,,,,,,,,,,,,,,,,,,,,,,,,,,,,,,062819_p1,001,2019_Jun_28_1218,body_behavioural,3.0.4,59.996883176600896,
5,,,,,,,,0,5,5,5,0,0,0,0,,,,,,,,,,,,,,,,,,,,,,,,,,,,,space,0.9362547799828462,space,0.8030482729664072,space,0.7693634729948826,,,,,,,,,,,,,,,,,,,,,,,,,,,,,,,,,,062819_p1,001,2019_Jun_28_1218,body_behavioural,3.0.4,59.996883176600896,
5,"Ms. Bianchi and Ms. Morrison walked into the grocery store at the same time, and, after a moment of mutual recognition, greeted each other with a handshake.",1.0,1.0,33.0,,,,0,5,5,5,,,,,0,0,0,0,,,,,,,,,,,,,,,,,,,,,,,,,,,,,,,space,1.2862956399912946,space,0.8860422470024787,9,9.020579750009347,,,,,,,,,,,,,,,,,,,,,,,,,,,,062819_p1,001,2019_Jun_28_1218,body_behavioural,3.0.4,59.996883176600896,
5,"They were standing in the entrance of the grocery store, which had displays of pumpkins, candy, and halloween decorations set up in different stations around the door. ",1.0,1.0,None,,,,0,5,5,5,,,,,0,1,1,1,,,,,,,,,,,,,,,,,,,,,,,,,,,,,,,,,,,9,5.303903849970084,,,,,,,,,,,,,,,,,,,,,,,,,,,,062819_p1,001,2019_Jun_28_1218,body_behavioural,3.0.4,59.996883176600896,
5,"“Thank you again for inviting me here to discuss my business proposal,” said Ms. Bianchi.",1.0,1.0,None,,,,0,5,5,5,,,,,0,2,2,2,,,,,,,,,,,,,,,,,,,,,,,,,,,,,,,,,,,1,3.0533959600143135,,,,,,,,,,,,,,,,,,,,,,,,,,,,062819_p1,001,2019_Jun_28_1218,body_behavioural,3.0.4,59.996883176600896,
5,“It’s a pleasure to be out of the office.” ,1.0,1.0,None,,,,0,5,5,5,,,,,0,3,3,3,,,,,,,,,,,,,,,,,,,,,,,,,,,,,,,,,,,1,1.5195125449681655,,,,,,,,,,,,,,,,,,,,,,,,,,,,062819_p1,001,2019_Jun_28_1218,body_behavioural,3.0.4,59.996883176600896,
5,"As an account representative for an Italian cheese company that was trying to expand its outreach to American grocery stores, this meeting was pivotal for Ms. Bianchi.",1.0,1.0,None,,,,0,5,5,5,,,,,0,4,4,4,,,,,,,,,,,,,,,,,,,,,,,,,,,,,,,,,,,9,7.487314040015917,,,,,,,,,,,,,,,,,,,,,,,,,,,,062819_p1,001,2019_Jun_28_1218,body_behavioural,3.0.4,59.996883176600896,
5,"Her sales target, Ms. Morrison, was the senior product manager for a corporate grocer and she had a say in the products distributed in stores across the West Coast.",1.0,1.0,None,,,,0,5,5,5,,,,,0,5,5,5,,,,,,,,,,,,,,,,,,,,,,,,,,,,,,,,,,,1,4.203167286992539,,,,,,,,,,,,,,,,,,,,,,,,,,,,062819_p1,001,2019_Jun_28_1218,body_behavioural,3.0.4,59.996883176600896,
5,"Ms. Morrison was also known for doing things unconventionally: for example, she said that she liked to make deals with suppliers in the place where the products were sold- “to keep their minds focused on what’s important.” ",1.0,1.0,None,,,,0,5,5,5,,,,,0,6,6,6,,,,,,,,,,,,,,,,,,,,,,,,,,,,,,,,,,,1,7.2200504500069655,,,,,,,,,,,,,,,,,,,,,,,,,,,,062819_p1,001,2019_Jun_28_1218,body_behavioural,3.0.4,59.996883176600896,
5,"In the cheese section of the grocery store, Ms. Morrison motioned to the parmesan.",2.0,1.0,None,,,,0,5,5,5,,,,,0,7,7,7,,,,,,,,,,,,,,,,,,,,,,,,,,,,,,,,,,,9,6.151970935985446,,,,,,,,,,,,,,,,,,,,,,,,,,,,062819_p1,001,2019_Jun_28_1218,body_behavioural,3.0.4,59.996883176600896,
5,“We have quite a selection here.,2.0,1.0,None,,,,0,5,5,5,,,,,0,8,8,8,,,,,,,,,,,,,,,,,,,,,,,,,,,,,,,,,,,1,1.0675735030090436,,,,,,,,,,,,,,,,,,,,,,,,,,,,062819_p1,001,2019_Jun_28_1218,body_behavioural,3.0.4,59.996883176600896,
5,I don’t know that we need an additional section for gourmet cheeses.” ,2.0,1.0,None,,,,0,5,5,5,,,,,0,9,9,9,,,,,,,,,,,,,,,,,,,,,,,,,,,,,,,,,,,1,1.3030703269760124,,,,,,,,,,,,,,,,,,,,,,,,,,,,062819_p1,001,2019_Jun_28_1218,body_behavioural,3.0.4,59.996883176600896,
5," Ms. Bianchi did not hesitate but launched into her pitch: “Ms. Morrison, I think you would agree that selling food is more than just providing variety, but also about providing the highest quality.",2.0,2.0,None,,,,0,5,5,5,,,,,0,10,10,10,,,,,,,,,,,,,,,,,,,,,,,,,,,,,,,,,,,1,6.353909155004658,,,,,,,,,,,,,,,,,,,,,,,,,,,,062819_p1,001,2019_Jun_28_1218,body_behavioural,3.0.4,59.996883176600896,
5,You don’t have cheeses made in America that are like ours- it is true.,2.0,2.0,None,,,,0,5,5,5,,,,,0,11,11,11,,,,,,,,,,,,,,,,,,,,,,,,,,,,,,,,,,,1,1.7198621819843538,,,,,,,,,,,,,,,,,,,,,,,,,,,,062819_p1,001,2019_Jun_28_1218,body_behavioural,3.0.4,59.996883176600896,
5,The availability of a product of excellent quality leads to the appreciation of the product.,2.0,2.0,None,,,,0,5,5,5,,,,,0,12,12,12,,,,,,,,,,,,,,,,,,,,,,,,,,,,,,,,,,,1,5.020191892050207,,,,,,,,,,,,,,,,,,,,,,,,,,,,062819_p1,001,2019_Jun_28_1218,body_behavioural,3.0.4,59.996883176600896,
5,"Your consumers will want to buy other, finer products to compliment that first ingredient, and suddenly your customer will be consuming in a new, more profitable way.",2.0,2.0,None,,,,0,5,5,5,,,,,0,13,13,13,,,,,,,,,,,,,,,,,,,,,,,,,,,,,,,,,,,9,4.553846372000407,,,,,,,,,,,,,,,,,,,,,,,,,,,,062819_p1,001,2019_Jun_28_1218,body_behavioural,3.0.4,59.996883176600896,
5,"I propose that you give it a shot: buy $1500 worth of cheese products for a few stores, and see how the sales increase not only in our cheeses but also in products related to cheeses: crackers, jams, olives.”",2.0,2.0,None,,,,0,5,5,5,,,,,0,14,14,14,,,,,,,,,,,,,,,,,,,,,,,,,,,,,,,,,,,1,5.453329031995963,,,,,,,,,,,,,,,,,,,,,,,,,,,,062819_p1,001,2019_Jun_28_1218,body_behavioural,3.0.4,59.996883176600896,
5,"Ms. Bianchi picked up a box of crackers by the cheese section, and said, “Here, I will buy these, and we can try some of our cheeses that I've brought with me.”",2.0,2.0,None,,,,0,5,5,5,,,,,0,15,15,15,,,,,,,,,,,,,,,,,,,,,,,,,,,,,,,,,,,1,4.119470381992869,,,,,,,,,,,,,,,,,,,,,,,,,,,,062819_p1,001,2019_Jun_28_1218,body_behavioural,3.0.4,59.996883176600896,
5,"Ms. Morrison, who was thinking about the proposed offer, nodded in agreement and said, “That sounds like a great idea, but those crackers are on me.”",2.0,2.0,None,,,,0,5,5,5,,,,,0,16,16,16,,,,,,,,,,,,,,,,,,,,,,,,,,,,,,,,,,,1,1.819775890035089,,,,,,,,,,,,,,,,,,,,,,,,,,,,062819_p1,001,2019_Jun_28_1218,body_behavioural,3.0.4,59.996883176600896,
5,She took the crackers from Ms. Bianchi and also picked up a bottle of ketchup and a case of sparkling water “for later.”,2.0,2.0,None,,,,0,5,5,5,,,,,0,17,17,17,,,,,,,,,,,,,,,,,,,,,,,,,,,,,,,,,,,1,3.6197904419968836,,,,,,,,,,,,,,,,,,,,,,,,,,,,062819_p1,001,2019_Jun_28_1218,body_behavioural,3.0.4,59.996883176600896,
5,It was very busy in the checkout area.,3.0,2.0,None,,,,0,5,5,5,,,,,0,18,18,18,,,,,,,,,,,,,,,,,,,,,,,,,,,,,,,,,,,9,2.836182844999712,,,,,,,,,,,,,,,,,,,,,,,,,,,,062819_p1,001,2019_Jun_28_1218,body_behavioural,3.0.4,59.996883176600896,
5,"People were stocking up for Halloween parties and trick-or-treating, and there were 10 aisles open. ",3.0,2.0,None,,,,0,5,5,5,,,,,0,19,19,19,,,,,,,,,,,,,,,,,,,,,,,,,,,,,,,,,,,1,2.936314981954638,,,,,,,,,,,,,,,,,,,,,,,,,,,,062819_p1,001,2019_Jun_28_1218,body_behavioural,3.0.4,59.996883176600896,
5,They stepped into lane 6 and waited.,3.0,2.0,None,,,,0,5,5,5,,,,,0,20,20,20,,,,,,,,,,,,,,,,,,,,,,,,,,,,,,,,,,,1,1.0697868569986895,,,,,,,,,,,,,,,,,,,,,,,,,,,,062819_p1,001,2019_Jun_28_1218,body_behavioural,3.0.4,59.996883176600896,
5,Ms. Bianchi handed to Ms. Morrison a packet with printed graphs of the increase in profits that several other stores in Italy had seen after starting to carry their products.,3.0,2.0,None,,,,0,5,5,5,,,,,0,21,21,21,,,,,,,,,,,,,,,,,,,,,,,,,,,,,,,,,,,9,8.654243502009194,,,,,,,,,,,,,,,,,,,,,,,,,,,,062819_p1,001,2019_Jun_28_1218,body_behavioural,3.0.4,59.996883176600896,
5,"After a couple minutes of thinking, Ms. Morrison widened her eyes and said confidently, “You know what, I think you've convinced me that this could work. ",3.0,3.0,None,,,,0,5,5,5,,,,,0,22,22,22,,,,,,,,,,,,,,,,,,,,,,,,,,,,,,,,,,,1,2.8531871270388365,,,,,,,,,,,,,,,,,,,,,,,,,,,,062819_p1,001,2019_Jun_28_1218,body_behavioural,3.0.4,59.996883176600896,
5,We've been trying to find a way to add a little European cachet to our stores.,3.0,3.0,None,,,,0,5,5,5,,,,,0,23,23,23,,,,,,,,,,,,,,,,,,,,,,,,,,,,,,,,,,,1,2.1202199200051837,,,,,,,,,,,,,,,,,,,,,,,,,,,,062819_p1,001,2019_Jun_28_1218,body_behavioural,3.0.4,59.996883176600896,
5,"Our competitor, Orange Grocers, hasn’t expanded in this direction yet, and I’d like to beat them to it. ",3.0,3.0,None,,,,0,5,5,5,,,,,0,24,24,24,,,,,,,,,,,,,,,,,,,,,,,,,,,,,,,,,,,1,2.0529920179978944,,,,,,,,,,,,,,,,,,,,,,,,,,,,062819_p1,001,2019_Jun_28_1218,body_behavioural,3.0.4,59.996883176600896,
5,There's still a problem though- I'm worried we'll be paying out the nose for the import taxes.,3.0,3.0,None,,,,0,5,5,5,,,,,0,25,25,25,,,,,,,,,,,,,,,,,,,,,,,,,,,,,,,,,,,1,3.2341826469637454,,,,,,,,,,,,,,,,,,,,,,,,,,,,062819_p1,001,2019_Jun_28_1218,body_behavioural,3.0.4,59.996883176600896,
5,Is that the case?",3.0,3.0,None,,,,0,5,5,5,,,,,0,26,26,26,,,,,,,,,,,,,,,,,,,,,,,,,,,,,,,,,,,1,1.2530040220008232,,,,,,,,,,,,,,,,,,,,,,,,,,,,062819_p1,001,2019_Jun_28_1218,body_behavioural,3.0.4,59.996883176600896,
5,"It was Ms. Morrison’s turn to check out, and the cashier chatted with Ms. Morrison as she scanned the items.",4.0,3.0,None,,,,0,5,5,5,,,,,0,27,27,27,,,,,,,,,,,,,,,,,,,,,,,,,,,,,,,,,,,1,3.1862602349719964,,,,,,,,,,,,,,,,,,,,,,,,,,,,062819_p1,001,2019_Jun_28_1218,body_behavioural,3.0.4,59.996883176600896,
5,Ms. Morrison was also distinguished for knowing most of the employees personally. ,None,None,None,,,,0,5,5,5,,,,,0,28,28,28,,,,,,,,,,,,,,,,,,,,,,,,,,,,,,,,,,,9,2.3031508120475337,,,,,,,,,,,,,,,,,,,,,,,,,,,,062819_p1,001,2019_Jun_28_1218,body_behavioural,3.0.4,59.996883176600896,
5,Ms. Bianchi watched in amusement as Ms. Morrison paid the $23 price by writing a check. ,4.0,3.0,None,,,,0,5,5,5,,,,,0,29,29,29,,,,,,,,,,,,,,,,,,,,,,,,,,,,,,,,,,,1,1.5871351539972238,,,,,,,,,,,,,,,,,,,,,,,,,,,,062819_p1,001,2019_Jun_28_1218,body_behavioural,3.0.4,59.996883176600896,
5,"After Ms. Bianci addressed Ms. Morrison’s concerns, they came to an agreement and would have enough cheese shipments, $20,000 worth, to different stores to qualify for a subsidized import tax. ",4.0,4.0,None,,,,0,5,5,5,,,,,0,30,30,30,,,,,,,,,,,,,,,,,,,,,,,,,,,,,,,,,,,1,4.81830165500287,,,,,,,,,,,,,,,,,,,,,,,,,,,,062819_p1,001,2019_Jun_28_1218,body_behavioural,3.0.4,59.996883176600896,
5,"Ms. Morrison had had a small bottle of champagne in her purse, and she pulled it out and popped it in celebration of their deal. ",4.0,4.0,None,,,,0,5,5,5,,,,,0,31,31,31,,,,,,,,,,,,,,,,,,,,,,,,,,,,,,,,,,,1,3.50350857200101,,,,,,,,,,,,,,,,,,,,,,,,,,,,062819_p1,001,2019_Jun_28_1218,body_behavioural,3.0.4,59.996883176600896,
5,Ms. Bianchi decided that she loved doing business with Americans. ,4.0,4.0,None,,,,0,5,5,5,,,,,0,32,32,32,,,,,,,,,,,,,,,,,,,,,,,,,,,,,,,,,,,1,2.1697428630432114,,,,,,,,,,,,,,,,,,,,,,,,,,,,062819_p1,001,2019_Jun_28_1218,body_behavioural,3.0.4,59.996883176600896,
5,,,,,,,,0,5,5,5,,,,,,,,,,,,,,,,,,,,,,,,,,,,,,,,,,,,,,,,,,,,,,,,,,,,,,,,,,,,,,,,,,,,,,,,062819_p1,001,2019_Jun_28_1218,body_behavioural,3.0.4,59.996883176600896,
6,,,,,,,,0,6,6,6,0,0,0,0,,,,,,,,,,,,,,,,,,,,,,,,,,,,,space,0.7880022199824452,space,0.753102625021711,space,0.7014965889975429,,,,,,,,,,,,,,,,,,,,,,,,,,,,,,,,,,062819_p1,001,2019_Jun_28_1218,body_behavioural,3.0.4,59.996883176600896,
6,,,,,,,,0,6,6,6,1,0,1,0,,,,,,,,,,,,,,,,,,,,,,,,,,,,,,,,,space,0.5529471949557774,,,,,,,,,,,,,,,,,,,,,,,,,,,,,,,,,,062819_p1,001,2019_Jun_28_1218,body_behavioural,3.0.4,59.996883176600896,
6,,,,,,,,0,6,6,6,2,0,2,0,,,,,,,,,,,,,,,,,,,,,,,,,,,,,,,,,space,0.552491540031042,,,,,,,,,,,,,,,,,,,,,,,,,,,,,,,,,,062819_p1,001,2019_Jun_28_1218,body_behavioural,3.0.4,59.996883176600896,
6,,,,,,,,0,6,6,6,3,0,3,0,,,,,,,,,,,,,,,,,,,,,,,,,,,,,,,,,space,0.4359933650121093,,,,,,,,,,,,,,,,,,,,,,,,,,,,,,,,,,062819_p1,001,2019_Jun_28_1218,body_behavioural,3.0.4,59.996883176600896,
6,Henry walked into lecture with Maria who was mentally rehearsing what she should say to break up with him.,1,1,14.0,,,,0,6,6,6,,,,,0,0,0,0,,,,,,,,,,,,,,,,,,,,,,,,,,,,,,,space,2.036304761946667,space,1.0198580650030635,9,8.034704755002167,,,,,,,,,,,,,,,,,,,,,,,,,,,,062819_p1,001,2019_Jun_28_1218,body_behavioural,3.0.4,59.996883176600896,
6,She had been putting it off with a growing sense of dread as she had been since she started to think about it a week ago.,1,1,None,,,,0,6,6,6,,,,,0,1,1,1,,,,,,,,,,,,,,,,,,,,,,,,,,,,,,,,,,,1,4.536183717020322,,,,,,,,,,,,,,,,,,,,,,,,,,,,062819_p1,001,2019_Jun_28_1218,body_behavioural,3.0.4,59.996883176600896,
6,Now this lecture was the last chance to do it. ,1,1,None,,,,0,6,6,6,,,,,0,2,2,2,,,,,,,,,,,,,,,,,,,,,,,,,,,,,,,,,,,1,2.669793684966862,,,,,,,,,,,,,,,,,,,,,,,,,,,,062819_p1,001,2019_Jun_28_1218,body_behavioural,3.0.4,59.996883176600896,
6,"The lecture hall was large, with a stage for the lecturer in the front of the room, and 15 tiered rows of desks. ",1,1,None,,,,0,6,6,6,,,,,0,3,3,3,,,,,,,,,,,,,,,,,,,,,,,,,,,,,,,,,,,1,6.736621634976473,,,,,,,,,,,,,,,,,,,,,,,,,,,,062819_p1,001,2019_Jun_28_1218,body_behavioural,3.0.4,59.996883176600896,
6,Maria and Henry slid into neighboring seats near the back of the room.,1,1,None,,,,0,6,6,6,,,,,0,4,4,4,,,,,,,,,,,,,,,,,,,,,,,,,,,,,,,,,,,1,2.8535203830106184,,,,,,,,,,,,,,,,,,,,,,,,,,,,062819_p1,001,2019_Jun_28_1218,body_behavioural,3.0.4,59.996883176600896,
6,"The professor opened up the lecture with a hardy greeting, “Good afternoon, everybody.”",2,1,None,,,,0,6,6,6,,,,,0,5,5,5,,,,,,,,,,,,,,,,,,,,,,,,,,,,,,,,,,,1,2.6696015400229953,,,,,,,,,,,,,,,,,,,,,,,,,,,,062819_p1,001,2019_Jun_28_1218,body_behavioural,3.0.4,59.996883176600896,
6,"As he fiddled with the cords to connect his laptop to the projector, he continued to say, “Welcome to Week 4 of Intro to Ancient Philosophy. ",2,1,None,,,,0,6,6,6,,,,,0,6,6,6,,,,,,,,,,,,,,,,,,,,,,,,,,,,,,,,,,,1,3.3358156390022486,,,,,,,,,,,,,,,,,,,,,,,,,,,,062819_p1,001,2019_Jun_28_1218,body_behavioural,3.0.4,59.996883176600896,
6,Today we are going to continue our lecture on Aristotelian Philosophy.”,2,1,None,,,,0,6,6,6,,,,,0,7,7,7,,,,,,,,,,,,,,,,,,,,,,,,,,,,,,,,,,,1,1.3363093100488186,,,,,,,,,,,,,,,,,,,,,,,,,,,,062819_p1,001,2019_Jun_28_1218,body_behavioural,3.0.4,59.996883176600896,
6,Mostly everyone in class was taking notes.,2,1,None,,,,0,6,6,6,,,,,0,8,8,8,,,,,,,,,,,,,,,,,,,,,,,,,,,,,,,,,,,1,2.4037016869988292,,,,,,,,,,,,,,,,,,,,,,,,,,,,062819_p1,001,2019_Jun_28_1218,body_behavioural,3.0.4,59.996883176600896,
6,"Maria took a deep breath, decided to rip off the bandaid, and leaning into Henry’s desk, said, “Henry, I think we should- I think we should break up because I don’t think I can do long distance.",2,2,None,,,,0,6,6,6,,,,,0,9,9,9,,,,,,,,,,,,,,,,,,,,,,,,,,,,,,,,,,,1,5.317722100007813,,,,,,,,,,,,,,,,,,,,,,,,,,,,062819_p1,001,2019_Jun_28_1218,body_behavioural,3.0.4,59.996883176600896,
6,"I think what we have here is great, but I think it will be really hard when we are so far apart for so long during my study abroad.",2,2,None,,,,0,6,6,6,,,,,0,10,10,10,,,,,,,,,,,,,,,,,,,,,,,,,,,,,,,,,,,1,4.353173694980796,,,,,,,,,,,,,,,,,,,,,,,,,,,,062819_p1,001,2019_Jun_28_1218,body_behavioural,3.0.4,59.996883176600896,
6,"I’m sorry I’m telling you now in lecture, but you know, I have to leave for the airport after class and this is really hard for me to tell you.",2,2,None,,,,0,6,6,6,,,,,0,11,11,11,,,,,,,,,,,,,,,,,,,,,,,,,,,,,,,,,,,1,4.886490845005028,,,,,,,,,,,,,,,,,,,,,,,,,,,,062819_p1,001,2019_Jun_28_1218,body_behavioural,3.0.4,59.996883176600896,
6,I just know when I’m there I’m going to be so busy and I really want to be immersed in the life of the place I’m in.”,2,2,None,,,,0,6,6,6,,,,,0,12,12,12,,,,,,,,,,,,,,,,,,,,,,,,,,,,,,,,,,,1,3.8519692120025866,,,,,,,,,,,,,,,,,,,,,,,,,,,,062819_p1,001,2019_Jun_28_1218,body_behavioural,3.0.4,59.996883176600896,
6,"The professor said, “We will now talk about one of Aristotle’s works, The Categories.",3,2,None,,,,0,6,6,6,,,,,0,13,13,13,,,,,,,,,,,,,,,,,,,,,,,,,,,,,,,,,,,9,5.804257665993646,,,,,,,,,,,,,,,,,,,,,,,,,,,,062819_p1,001,2019_Jun_28_1218,body_behavioural,3.0.4,59.996883176600896,
6,"This text, as you might have been able to guess, is about the kinds, or categories, of things that there are.",3,2,None,,,,0,6,6,6,,,,,0,14,14,14,,,,,,,,,,,,,,,,,,,,,,,,,,,,,,,,,,,1,6.3031994350021705,,,,,,,,,,,,,,,,,,,,,,,,,,,,062819_p1,001,2019_Jun_28_1218,body_behavioural,3.0.4,59.996883176600896,
6,"In fact, our term category comes from this Aristotelian context.",3,2,None,,,,0,6,6,6,,,,,0,15,15,15,,,,,,,,,,,,,,,,,,,,,,,,,,,,,,,,,,,1,1.619691635016352,,,,,,,,,,,,,,,,,,,,,,,,,,,,062819_p1,001,2019_Jun_28_1218,body_behavioural,3.0.4,59.996883176600896,
6,"The Categories, traditionally interpreted as an introduction to Aristotle’s logical work, divides all of  being into ten categories.” ",3,2,None,,,,0,6,6,6,,,,,0,16,16,16,,,,,,,,,,,,,,,,,,,,,,,,,,,,,,,,,,,1,4.070568758004811,,,,,,,,,,,,,,,,,,,,,,,,,,,,062819_p1,001,2019_Jun_28_1218,body_behavioural,3.0.4,59.996883176600896,
6,"Henry felt horrible, like the wind had just been knocked out of him and he whispered back, “Maria, I don’t want to break up with you because I love you.",3,3,None,,,,0,6,6,6,,,,,0,17,17,17,,,,,,,,,,,,,,,,,,,,,,,,,,,,,,,,,,,9,6.853074710001238,,,,,,,,,,,,,,,,,,,,,,,,,,,,062819_p1,001,2019_Jun_28_1218,body_behavioural,3.0.4,59.996883176600896,
6,I’ll come visit you and it will be fine.,3,3,None,,,,0,6,6,6,,,,,0,18,18,18,,,,,,,,,,,,,,,,,,,,,,,,,,,,,,,,,,,1,2.6360038120183162,,,,,,,,,,,,,,,,,,,,,,,,,,,,062819_p1,001,2019_Jun_28_1218,body_behavioural,3.0.4,59.996883176600896,
6,I don’t want to break up.”,3,3,None,,,,0,6,6,6,,,,,0,19,19,19,,,,,,,,,,,,,,,,,,,,,,,,,,,,,,,,,,,1,1.084180584992282,,,,,,,,,,,,,,,,,,,,,,,,,,,,062819_p1,001,2019_Jun_28_1218,body_behavioural,3.0.4,59.996883176600896,
6,"Maria felt so guilty that she nearly gave in, but forced herself to hold her ground, knowing that this would make things much easier for both of them in the future.",3,3,None,,,,0,6,6,6,,,,,0,20,20,20,,,,,,,,,,,,,,,,,,,,,,,,,,,,,,,,,,,9,4.284370545006823,,,,,,,,,,,,,,,,,,,,,,,,,,,,062819_p1,001,2019_Jun_28_1218,body_behavioural,3.0.4,59.996883176600896,
6,"She gave his hand a squeeze but shook her head sadly, before turning back to look at her empty desk. ",3,3,None,,,,0,6,6,6,,,,,0,21,21,21,,,,,,,,,,,,,,,,,,,,,,,,,,,,,,,,,,,1,3.5199582600034773,,,,,,,,,,,,,,,,,,,,,,,,,,,,062819_p1,001,2019_Jun_28_1218,body_behavioural,3.0.4,59.996883176600896,
6,"The professor wrapped up, “Alright, class, that’s all for today.",4,3,None,,,,0,6,6,6,,,,,0,22,22,22,,,,,,,,,,,,,,,,,,,,,,,,,,,,,,,,,,,9,2.8196811249945313,,,,,,,,,,,,,,,,,,,,,,,,,,,,062819_p1,001,2019_Jun_28_1218,body_behavioural,3.0.4,59.996883176600896,
6,"Remember the final exam is coming up next week on Tuesday on the Pre-Socratics, Plato, and Aristotle, so feel free to come by office hours to discuss if you have the inspiration.",4,3,None,,,,0,6,6,6,,,,,0,23,23,23,,,,,,,,,,,,,,,,,,,,,,,,,,,,,,,,,,,1,2.6531614220002666,,,,,,,,,,,,,,,,,,,,,,,,,,,,062819_p1,001,2019_Jun_28_1218,body_behavioural,3.0.4,59.996883176600896,
6,"If anyone has any conflicts with another exam, please email me so that we can figure out a time to reschedule it. ",4,3,None,,,,0,6,6,6,,,,,0,24,24,24,,,,,,,,,,,,,,,,,,,,,,,,,,,,,,,,,,,1,4.26989901199704,,,,,,,,,,,,,,,,,,,,,,,,,,,,062819_p1,001,2019_Jun_28_1218,body_behavioural,3.0.4,59.996883176600896,
6,"Have a good day, folks.” ",4,3,None,,,,0,6,6,6,,,,,0,25,25,25,,,,,,,,,,,,,,,,,,,,,,,,,,,,,,,,,,,1,0.902582969982177,,,,,,,,,,,,,,,,,,,,,,,,,,,,062819_p1,001,2019_Jun_28_1218,body_behavioural,3.0.4,59.996883176600896,
6,"Maria and Henry packed up hurriedly, and they hugged; both of them had tears. ",4,4,None,,,,0,6,6,6,,,,,0,26,26,26,,,,,,,,,,,,,,,,,,,,,,,,,,,,,,,,,,,9,2.569382072018925,,,,,,,,,,,,,,,,,,,,,,,,,,,,062819_p1,001,2019_Jun_28_1218,body_behavioural,3.0.4,59.996883176600896,
6,"“Maria, I don’t want you to leave.",4,4,None,,,,0,6,6,6,,,,,0,27,27,27,,,,,,,,,,,,,,,,,,,,,,,,,,,,,,,,,,,9,2.819606280012522,,,,,,,,,,,,,,,,,,,,,,,,,,,,062819_p1,001,2019_Jun_28_1218,body_behavioural,3.0.4,59.996883176600896,
6,I don’t want this to end. ,4,4,None,,,,0,6,6,6,,,,,0,28,28,28,,,,,,,,,,,,,,,,,,,,,,,,,,,,,,,,,,,1,1.0701713179587387,,,,,,,,,,,,,,,,,,,,,,,,,,,,062819_p1,001,2019_Jun_28_1218,body_behavioural,3.0.4,59.996883176600896,
6,"But if this is what you think is best, I can’t make it otherwise.” ",4,4,None,,,,0,6,6,6,,,,,0,29,29,29,,,,,,,,,,,,,,,,,,,,,,,,,,,,,,,,,,,1,2.153063567006029,,,,,,,,,,,,,,,,,,,,,,,,,,,,062819_p1,001,2019_Jun_28_1218,body_behavioural,3.0.4,59.996883176600896,
6,"They hugged one last time, and then Maria remembered she had left her favorite Alpaca sweater in Henry’s room.",4,4,None,,,,0,6,6,6,,,,,0,30,30,30,,,,,,,,,,,,,,,,,,,,,,,,,,,,,,,,,,,9,3.5361335949855857,,,,,,,,,,,,,,,,,,,,,,,,,,,,062819_p1,001,2019_Jun_28_1218,body_behavioural,3.0.4,59.996883176600896,
6,"“Henry, I’m so sorry to ask this now but could you grab my alpaca sweater from your dorm and meet me in front of the student center?”",4,4,None,,,,0,6,6,6,,,,,0,31,31,31,,,,,,,,,,,,,,,,,,,,,,,,,,,,,,,,,,,9,4.052851187007036,,,,,,,,,,,,,,,,,,,,,,,,,,,,062819_p1,001,2019_Jun_28_1218,body_behavioural,3.0.4,59.996883176600896,
6,"He agreed, and she ran off to get her things from her dorm as he sadly watched her go. ",4,4,None,,,,0,6,6,6,,,,,0,32,32,32,,,,,,,,,,,,,,,,,,,,,,,,,,,,,,,,,,,9,4.069701034983154,,,,,,,,,,,,,,,,,,,,,,,,,,,,062819_p1,001,2019_Jun_28_1218,body_behavioural,3.0.4,59.996883176600896,
6,,,,,,,,0,6,6,6,,,,,,,,,,,,,,,,,,,,,,,,,,,,,,,,,,,,,,,,,,,,,,,,,,,,,,,,,,,,,,,,,,,,,,,,062819_p1,001,2019_Jun_28_1218,body_behavioural,3.0.4,59.996883176600896,
7,,,,,,,,0,7,7,7,0,0,0,0,,,,,,,,,,,,,,,,,,,,,,,,,,,,,space,1.2863784150104038,space,0.5864379199920222,space,0.6695883450447582,,,,,,,,,,,,,,,,,,,,,,,,,,,,,,,,,,062819_p1,001,2019_Jun_28_1218,body_behavioural,3.0.4,59.996883176600896,
7,,,,,,,,0,7,7,7,1,0,1,0,,,,,,,,,,,,,,,,,,,,,,,,,,,,,,,,,space,0.36954397201770917,,,,,,,,,,,,,,,,,,,,,,,,,,,,,,,,,,062819_p1,001,2019_Jun_28_1218,body_behavioural,3.0.4,59.996883176600896,
7,,,,,,,,0,7,7,7,2,0,2,0,,,,,,,,,,,,,,,,,,,,,,,,,,,,,,,,,space,0.4864506020094268,,,,,,,,,,,,,,,,,,,,,,,,,,,,,,,,,,062819_p1,001,2019_Jun_28_1218,body_behavioural,3.0.4,59.996883176600896,
7,,,,,,,,0,7,7,7,3,0,3,0,,,,,,,,,,,,,,,,,,,,,,,,,,,,,,,,,space,0.3696011070278473,,,,,,,,,,,,,,,,,,,,,,,,,,,,,,,,,,062819_p1,001,2019_Jun_28_1218,body_behavioural,3.0.4,59.996883176600896,
7,,,,,,,,0,7,7,7,4,0,4,0,,,,,,,,,,,,,,,,,,,,,,,,,,,,,,,,,space,0.4031741500366479,,,,,,,,,,,,,,,,,,,,,,,,,,,,,,,,,,062819_p1,001,2019_Jun_28_1218,body_behavioural,3.0.4,59.996883176600896,
7,,,,,,,,0,7,7,7,5,0,5,0,,,,,,,,,,,,,,,,,,,,,,,,,,,,,,,,,space,0.38629289995878935,,,,,,,,,,,,,,,,,,,,,,,,,,,,,,,,,,062819_p1,001,2019_Jun_28_1218,body_behavioural,3.0.4,59.996883176600896,
7,,,,,,,,0,7,7,7,6,0,6,0,,,,,,,,,,,,,,,,,,,,,,,,,,,,,,,,,space,0.4169391499599442,,,,,,,,,,,,,,,,,,,,,,,,,,,,,,,,,,062819_p1,001,2019_Jun_28_1218,body_behavioural,3.0.4,59.996883176600896,
7,"Ariana hurried into the classroom, and Leon did a double-take when he saw her, almost dropping the eraser he had in his hand. ",1.0,1.0,44.0,,,,0,7,7,7,,,,,0,0,0,0,,,,,,,,,,,,,,,,,,,,,,,,,,,,,,,space,1.2030469019664451,space,0.9026844020118006,9,7.22056574805174,,,,,,,,,,,,,,,,,,,,,,,,,,,,062819_p1,001,2019_Jun_28_1218,body_behavioural,3.0.4,59.996883176600896,
7,"This was his first day in college, and he had assumed that he wouldn’t know anyone on campus, but he had a strong feeling that he had seen her somewhere before. ",1.0,1.0,None,,,,0,7,7,7,,,,,0,1,1,1,,,,,,,,,,,,,,,,,,,,,,,,,,,,,,,,,,,1,5.9197815820225514,,,,,,,,,,,,,,,,,,,,,,,,,,,,062819_p1,001,2019_Jun_28_1218,body_behavioural,3.0.4,59.996883176600896,
7,They were in a small classroom with rows of chairs with foldable desks.,1.0,1.0,None,,,,0,7,7,7,,,,,0,2,2,2,,,,,,,,,,,,,,,,,,,,,,,,,,,,,,,,,,,1,1.9342046650126576,,,,,,,,,,,,,,,,,,,,,,,,,,,,062819_p1,001,2019_Jun_28_1218,body_behavioural,3.0.4,59.996883176600896,
7,These faced the speaker’s podium and a blackboard on wheels. ,None,None,None,,,,0,7,7,7,,,,,0,3,3,3,,,,,,,,,,,,,,,,,,,,,,,,,,,,,,,,,,,1,2.2000432059867308,,,,,,,,,,,,,,,,,,,,,,,,,,,,062819_p1,001,2019_Jun_28_1218,body_behavioural,3.0.4,59.996883176600896,
7,"There were no windows in the room, since they were down in the basement of the History Department.",1.0,1.0,None,,,,0,7,7,7,,,,,0,4,4,4,,,,,,,,,,,,,,,,,,,,,,,,,,,,,,,,,,,1,1.736830364970956,,,,,,,,,,,,,,,,,,,,,,,,,,,,062819_p1,001,2019_Jun_28_1218,body_behavioural,3.0.4,59.996883176600896,
7,"Leon, trying to figure out where he had seen her before, could not stop looking over at Ariana.",1.0,1.0,None,,,,0,7,7,7,,,,,0,5,5,5,,,,,,,,,,,,,,,,,,,,,,,,,,,,,,,,,,,1,2.8529210570268333,,,,,,,,,,,,,,,,,,,,,,,,,,,,062819_p1,001,2019_Jun_28_1218,body_behavioural,3.0.4,59.996883176600896,
7,Ariana was oblivious to Leon’s gaze and was only focused on getting ready for class. ,1.0,1.0,None,,,,0,7,7,7,,,,,0,6,6,6,,,,,,,,,,,,,,,,,,,,,,,,,,,,,,,,,,,1,3.58602254698053,,,,,,,,,,,,,,,,,,,,,,,,,,,,062819_p1,001,2019_Jun_28_1218,body_behavioural,3.0.4,59.996883176600896,
7,"“Good morning, everyone,” the professor began.",2.0,1.0,None,,,,0,7,7,7,,,,,0,7,7,7,,,,,,,,,,,,,,,,,,,,,,,,,,,,,,,,,,,9,1.6861613069777377,,,,,,,,,,,,,,,,,,,,,,,,,,,,062819_p1,001,2019_Jun_28_1218,body_behavioural,3.0.4,59.996883176600896,
7,“Welcome to History of Egypt. ,2.0,1.0,None,,,,0,7,7,7,,,,,0,8,8,8,,,,,,,,,,,,,,,,,,,,,,,,,,,,,,,,,,,1,0.9200010750209913,,,,,,,,,,,,,,,,,,,,,,,,,,,,062819_p1,001,2019_Jun_28_1218,body_behavioural,3.0.4,59.996883176600896,
7,"Today we will be talking about mummification, one of the most famous and often misunderstood customs in ancient Egyptian society.”",2.0,1.0,None,,,,0,7,7,7,,,,,0,9,9,9,,,,,,,,,,,,,,,,,,,,,,,,,,,,,,,,,,,1,1.502580776985269,,,,,,,,,,,,,,,,,,,,,,,,,,,,062819_p1,001,2019_Jun_28_1218,body_behavioural,3.0.4,59.996883176600896,
7,Leon and Ariana began taking notes. ,2.0,1.0,None,,,,0,7,7,7,,,,,0,10,10,10,,,,,,,,,,,,,,,,,,,,,,,,,,,,,,,,,,,1,2.4381386219756678,,,,,,,,,,,,,,,,,,,,,,,,,,,,062819_p1,001,2019_Jun_28_1218,body_behavioural,3.0.4,59.996883176600896,
7,"Within a few minutes, Leon found his attention wandering from the lecture and back to Ariana, and he decided to do something about it by putting a note on her desk.",2.0,2.0,None,,,,0,7,7,7,,,,,0,11,11,11,,,,,,,,,,,,,,,,,,,,,,,,,,,,,,,,,,,1,3.053776081011165,,,,,,,,,,,,,,,,,,,,,,,,,,,,062819_p1,001,2019_Jun_28_1218,body_behavioural,3.0.4,59.996883176600896,
7,"“Are you from LA?” it read, “Sorry to distract you from mummies, but you look really familiar.”",2.0,2.0,None,,,,0,7,7,7,,,,,0,12,12,12,,,,,,,,,,,,,,,,,,,,,,,,,,,,,,,,,,,9,4.369852485018782,,,,,,,,,,,,,,,,,,,,,,,,,,,,062819_p1,001,2019_Jun_28_1218,body_behavioural,3.0.4,59.996883176600896,
7,"She looked at the note with surprise, and then turned to notice Leon for the first time. ",2.0,2.0,None,,,,0,7,7,7,,,,,0,13,13,13,,,,,,,,,,,,,,,,,,,,,,,,,,,,,,,,,,,1,2.6531817769864574,,,,,,,,,,,,,,,,,,,,,,,,,,,,062819_p1,001,2019_Jun_28_1218,body_behavioural,3.0.4,59.996883176600896,
7,She instantly liked him when she saw him.,2.0,2.0,None,,,,0,7,7,7,,,,,0,14,14,14,,,,,,,,,,,,,,,,,,,,,,,,,,,,,,,,,,,1,2.6530386970262043,,,,,,,,,,,,,,,,,,,,,,,,,,,,062819_p1,001,2019_Jun_28_1218,body_behavioural,3.0.4,59.996883176600896,
7,She thought he looked trustworthy and genuine.,2.0,2.0,None,,,,0,7,7,7,,,,,0,15,15,15,,,,,,,,,,,,,,,,,,,,,,,,,,,,,,,,,,,1,1.186746450024657,,,,,,,,,,,,,,,,,,,,,,,,,,,,062819_p1,001,2019_Jun_28_1218,body_behavioural,3.0.4,59.996883176600896,
7,"Ariana passed the note back to Leon, and she had replied, “No, but maybe my twin and I were separated at birth.”",2.0,2.0,None,,,,0,7,7,7,,,,,0,16,16,16,,,,,,,,,,,,,,,,,,,,,,,,,,,,,,,,,,,1,4.503337722970173,,,,,,,,,,,,,,,,,,,,,,,,,,,,062819_p1,001,2019_Jun_28_1218,body_behavioural,3.0.4,59.996883176600896,
7,"The professor continued, “One may well question why the ancient Egyptians spent so much time and effort on their funerary practices.",3.0,2.0,None,,,,0,7,7,7,,,,,0,17,17,17,,,,,,,,,,,,,,,,,,,,,,,,,,,,,,,,,,,9,3.55382681498304,,,,,,,,,,,,,,,,,,,,,,,,,,,,062819_p1,001,2019_Jun_28_1218,body_behavioural,3.0.4,59.996883176600896,
7,"Not only was the mummification process itself a complicated affair, but there were also elaborate rituals before, during, and after death.",3.0,2.0,None,,,,0,7,7,7,,,,,0,18,18,18,,,,,,,,,,,,,,,,,,,,,,,,,,,,,,,,,,,1,1.7359284720150754,,,,,,,,,,,,,,,,,,,,,,,,,,,,062819_p1,001,2019_Jun_28_1218,body_behavioural,3.0.4,59.996883176600896,
7,The practice required teams of experts with years of training and took a total of 70 days to complete.” ,3.0,2.0,None,,,,0,7,7,7,,,,,0,19,19,19,,,,,,,,,,,,,,,,,,,,,,,,,,,,,,,,,,,1,1.2861880519776605,,,,,,,,,,,,,,,,,,,,,,,,,,,,062819_p1,001,2019_Jun_28_1218,body_behavioural,3.0.4,59.996883176600896,
7,"They passed notes back and forth the whole class like they were in high school, and Leon wrote in one, “Would you like to go on a walk this evening?”",3.0,3.0,None,,,,0,7,7,7,,,,,0,20,20,20,,,,,,,,,,,,,,,,,,,,,,,,,,,,,,,,,,,9,5.453698796976823,,,,,,,,,,,,,,,,,,,,,,,,,,,,062819_p1,001,2019_Jun_28_1218,body_behavioural,3.0.4,59.996883176600896,
7,"When Ariana read this, she looked at him and nodded her head",3.0,3.0,None,,,,0,7,7,7,,,,,0,21,21,21,,,,,,,,,,,,,,,,,,,,,,,,,,,,,,,,,,,1,2.1865477900137194,,,,,,,,,,,,,,,,,,,,,,,,,,,,062819_p1,001,2019_Jun_28_1218,body_behavioural,3.0.4,59.996883176600896,
7,"She wrote back on the slip of paper, “Let’s meet at 8 in front of my dorm, Patton Hall.”",3.0,3.0,None,,,,0,7,7,7,,,,,0,22,22,22,,,,,,,,,,,,,,,,,,,,,,,,,,,,,,,,,,,1,2.9698165699956007,,,,,,,,,,,,,,,,,,,,,,,,,,,,062819_p1,001,2019_Jun_28_1218,body_behavioural,3.0.4,59.996883176600896,
7,The professor ended the lecture and announced to the class that they would have their first quiz next class on Friday on mummification. ,4.0,3.0,None,,,,0,7,7,7,,,,,0,23,23,23,,,,,,,,,,,,,,,,,,,,,,,,,,,,,,,,,,,9,2.3031096220365725,,,,,,,,,,,,,,,,,,,,,,,,,,,,062819_p1,001,2019_Jun_28_1218,body_behavioural,3.0.4,59.996883176600896,
7,Everyone packed up and filed out of the classroom except for Ariana and Leon. ,4.0,3.0,None,,,,0,7,7,7,,,,,0,24,24,24,,,,,,,,,,,,,,,,,,,,,,,,,,,,,,,,,,,1,3.2366405449574813,,,,,,,,,,,,,,,,,,,,,,,,,,,,062819_p1,001,2019_Jun_28_1218,body_behavioural,3.0.4,59.996883176600896,
7,"Ariana spoke first, “I have to go to my next class.”",4.0,4.0,None,,,,0,7,7,7,,,,,0,25,25,25,,,,,,,,,,,,,,,,,,,,,,,,,,,,,,,,,,,1,2.016966830007732,,,,,,,,,,,,,,,,,,,,,,,,,,,,062819_p1,001,2019_Jun_28_1218,body_behavioural,3.0.4,59.996883176600896,
7,"She looked at the clock which read noon and headed for the door saying, “I should run, but I’ll see you later tonight!” ",4.0,4.0,None,,,,0,7,7,7,,,,,0,26,26,26,,,,,,,,,,,,,,,,,,,,,,,,,,,,,,,,,,,1,4.5027457299875095,,,,,,,,,,,,,,,,,,,,,,,,,,,,062819_p1,001,2019_Jun_28_1218,body_behavioural,3.0.4,59.996883176600896,
7,"She waved as she ran out the door, and Leon was still pondering where he had known her before, even more convinced that they had met before having heard her voice.",4.0,4.0,None,,,,0,7,7,7,,,,,0,27,27,27,,,,,,,,,,,,,,,,,,,,,,,,,,,,,,,,,,,1,5.250783045019489,,,,,,,,,,,,,,,,,,,,,,,,,,,,062819_p1,001,2019_Jun_28_1218,body_behavioural,3.0.4,59.996883176600896,
7,,,,,,,,0,7,7,7,,,,,,,,,,,,,,,,,,,,,,,,,,,,,,,,,,,,,,,,,,,,,,,,,,,,,,,,,,,,,,,,,,,,,,,,062819_p1,001,2019_Jun_28_1218,body_behavioural,3.0.4,59.996883176600896,
,,,,,,,,,,,,,,,,,,,,,,,,,,,,,,,,,,,,,,,,,,,,,,,,,,,,,,,,1887.5205372899654,space,0.7029207129962742,,,,,,,,,,,,,,,,,,,,,,,,,062819_p1,001,2019_Jun_28_1218,body_behavioural,3.0.4,59.996883176600896,
,,,,,,,"In this next part of the experiment, please recall each story to the best of your ability.",,,,,,,,,,,,,0,0,0,0,,,,,,,,,,,,,,,,,,,,,,,,,,,,,,,,,,,,space,3.6201217499910854,,,,,,,,,,,,,,,,,,,,,,,062819_p1,001,2019_Jun_28_1218,body_behavioural,3.0.4,59.996883176600896,
,,,,,,,"You will be presented with the story title, names, the images, and a blank text box for each story.",,,,,,,,,,,,,0,1,1,1,,,,,,,,,,,,,,,,,,,,,,,,,,,,,,,,,,,,space,4.2364346900139935,,,,,,,,,,,,,,,,,,,,,,,062819_p1,001,2019_Jun_28_1218,body_behavioural,3.0.4,59.996883176600896,
,,,,,,,Describe the story indicated with as many details as you can remember in the space provided. ,,,,,,,,,,,,,0,2,2,2,,,,,,,,,,,,,,,,,,,,,,,,,,,,,,,,,,,,space,2.4702630750252865,,,,,,,,,,,,,,,,,,,,,,,062819_p1,001,2019_Jun_28_1218,body_behavioural,3.0.4,59.996883176600896,
,,,,,,,"When you are finished recalling one story, to move onto the next one, press the ‘return’ key. ",,,,,,,,,,,,,0,3,3,3,,,,,,,,,,,,,,,,,,,,,,,,,,,,,,,,,,,,space,2.636114457040094,,,,,,,,,,,,,,,,,,,,,,,062819_p1,001,2019_Jun_28_1218,body_behavioural,3.0.4,59.996883176600896,
,,,,,,,There is a 5 minute time limit to make your response. ,,,,,,,,,,,,,0,4,4,4,,,,,,,,,,,,,,,,,,,,,,,,,,,,,,,,,,,,space,2.2529504600097425,,,,,,,,,,,,,,,,,,,,,,,062819_p1,001,2019_Jun_28_1218,body_behavioural,3.0.4,59.996883176600896,
,,,,,,,Please note that you will not be able to capitalize any letters except for the first letter of your answer. This will not effect the scoring of your recall answer.,,,,,,,,,,,,,0,5,5,5,,,,,,,,,,,,,,,,,,,,,,,,,,,,,,,,,,,,space,4.336858691996895,,,,,,,,,,,,,,,,,,,,,,,062819_p1,001,2019_Jun_28_1218,body_behavioural,3.0.4,59.996883176600896,
0,,,,,,,,,,,,,,,,,,,,,,,,0,0,0,0,,,,,,,,,,,,,,,,,,,,,,,,,,,,,,,,,,space,1.6532649620203301,"David saw anna in the airport as she was carrying her lugguage through the security check. a truck/trailer full of lugguage was heading straight toward her so david leaped toward her pushing them both out of the way. they exchanged words and joked about being gymnast. he asked if he could take her out when they get back to town. she agreed and gave him her crumbled up buisness card from her pocket. he watched her walk through the gate onto her flight. david was fond of her even though she was frazzled, so frazzled that people in the airport watched as they held hands running with their luggage.  ",,,,,,,,,,,,,,,,,,,,062819_p1,001,2019_Jun_28_1218,body_behavioural,3.0.4,59.996883176600896,
1,,,,,,,,,,,,,,,,,,,,,,,,0,1,1,1,,,,,,,,,,,,,,,,,,,,,,,,,,,,,,,,,,space,1.4531563670025207,"Mr. shelton and mr. gordon met at a restaurant for a business meeting. mr. shelton's objective was to convince mr. gordon to partner with him on some project or company. they ordered food, one of them got fish, and they both got drinks. mr. shelton flattered mr. gordon, eventually they came to an agreement which mr. shelton was exceptionally happy about. they cheered with mr. shelton's martini and mr. gordon's drink. ",,,,,,,,,,,,,,,,,,,,062819_p1,001,2019_Jun_28_1218,body_behavioural,3.0.4,59.996883176600896,
2,,,,,,,,,,,,,,,,,,,,,,,,0,2,2,2,,,,,,,,,,,,,,,,,,,,,,,,,,,,,,,,,,space,0.8502416049595922,Alex and chloe went to the grocery store. alex had preplanned his proposal to chloe which would take place at the grocery store where their friends would be hiding with cameras to capture the moment. alex seemed off so chloe asked how he was doing. he replied that he was fine and chloe said okay if you say so. they continued to shop until they got to an open area in which alex got down on a knee and proposed to chloe. he said i love you very much and i will always love you. she replied yes with exageration. then she said i must call my dad. strangers and their friends were taking photos. their friends were no longer hiding. alex paid $14 for the items and they left the store. ,,,,,,,,,,,,,,,,,,,,062819_p1,001,2019_Jun_28_1218,body_behavioural,3.0.4,59.996883176600896,
3,,,,,,,,,,,,,,,,,,,,,,,,0,3,3,3,,,,,,,,,,,,,,,,,,,,,,,,,,,,,,,,,,space,0.78671655501239,"Senna took alvira out to celebrate that she had recently grown tomatoes in her garden. alvira thought the dinner was too elaborate for simple gardening celebration, but senna replied those were the best tomatoes i've ever had. really, senna was planning on proposing to alvira that night at the restaurant. the place was very nice with a view. they ordered food. while they ate senna shared stories about their relationship including when they first met; stories which alvira loved. after finishing their food, senna waved down the server who had been tenatively waiting for the cue. the server brought to the table a cake which he placed infront of alvira. the cake had the engagment ring in the middle. senna got down on a knee and proposed to alvira. she said yes. ",,,,,,,,,,,,,,,,,,,,062819_p1,001,2019_Jun_28_1218,body_behavioural,3.0.4,59.996883176600896,
4,,,,,,,,,,,,,,,,,,,,,,,,0,4,4,4,,,,,,,,,,,,,,,,,,,,,,,,,,,,,,,,,,space,0.7507618970121257,"Calvin and jessie had been dating for awhile. jessie planned an elaborate vacation for the two of them. on the vacation calvin did whatever he could to cater to jessie. while at the airport headed back home, while waiting for their luggage, jessie verbally broke up with calvin. calvin was surprised and frustrated that he'd just spent the vacation trying to make her happy. he asked why she had even planned the trip. he agreed that breaking up is what they should do, even though he didn't want to, because he liked jessie. they borded their plane home, luckily having separate seats 33d and 33f. before sitting down in their seats jessie asked calvin if he could give back all the books she'd lent him. calvin chuckled in disbelief. they were both grateful to have separate seats on the flight home. ",,,,,,,,,,,,,,,,,,,,062819_p1,001,2019_Jun_28_1218,body_behavioural,3.0.4,59.996883176600896,
5,,,,,,,,,,,,,,,,,,,,,,,,0,5,5,5,,,,,,,,,,,,,,,,,,,,,,,,,,,,,,,,,,space,0.6696078199893236,"Ms. bianchi and ms. morrison met at a grocery store. ms. bianchi did some shopping which being convinced by ms. morrison to purchase her cheese for her grocery store chain. she would agree to purchase $20,000 worth of cheese. excitedly, ms. morrison reached into her purse to pull out a bottle of champage to celebrate the business deal. ms bianchi was glad to work with an american who would celebrate like ms. morrison. ms. bianchi checked out at the grocery store with her minimal purchase. ",,,,,,,,,,,,,,,,,,,,062819_p1,001,2019_Jun_28_1218,body_behavioural,3.0.4,59.996883176600896,
6,,,,,,,,,,,,,,,,,,,,,,,,0,6,6,6,,,,,,,,,,,,,,,,,,,,,,,,,,,,,,,,,,space,0.9696829849854112,"Maria and henry were dating. they sat down for the first day of class. maria leans to henry and verbalizes that she wants to break up with him as she'll be studying abroad soon and it just makes sense. henry expresses how he loves maria and doesn't want to break up, but maria stands her ground. they break up. maria remembers she left her favorite sweater in henrys dorm room so she asks henry if he can bring it to the dinning hall. they meet there exchange the sweater. ",,,,,,,,,,,,,,,,,,,,062819_p1,001,2019_Jun_28_1218,body_behavioural,3.0.4,59.996883176600896,
7,,,,,,,,,,,,,,,,,,,,,,,,0,7,7,7,,,,,,,,,,,,,,,,,,,,,,,,,,,,,,,,,,space,1.1356538349646144,"Leon and ariana walk into the first day of class. leon thinks ariana looks familiar. he sends her a note asking if she is from la. she replies no, but maybe my twin is. she's attracted to leon. leon asks if ariana would like to go out that night. she agrees. they continue in class. ",,,,,,,,,,,,,,,,,,,,062819_p1,001,2019_Jun_28_1218,body_behavioural,3.0.4,59.996883176600896,
,,,,,,,,,,,,,,,,,,,,,,,,,,,,,,,,,,,,,,,,,,,,,,,,,,,,,,,,,,,,,,,,3429.0272907330072,space,1.4698402030044235,,,,,,,,,,,,,,,,,062819_p1,001,2019_Jun_28_1218,body_behavioural,3.0.4,59.996883176600896,
,,,,,,,"In this last part of the experiment, please answer 8 questions about each story.",,,,,,,,,,,,,,,,,,,,,0,0,0,0,,,,,,,,,,,,,,,,,,,,,,,,,,,,,,,,,,,,space,3.970055866986513,,,,,,,,,,,,,,,062819_p1,001,2019_Jun_28_1218,body_behavioural,3.0.4,59.996883176600896,
,,,,,,,Some of the questions are not related to the perspective you were asked to assume.,,,,,,,,,,,,,,,,,,,,,0,1,1,1,,,,,,,,,,,,,,,,,,,,,,,,,,,,,,,,,,,,space,0.736491265008226,,,,,,,,,,,,,,,062819_p1,001,2019_Jun_28_1218,body_behavioural,3.0.4,59.996883176600896,
,,,,,,,"We realize that we did not tell you to think of these questions during the story, but please do your best to answer them.",,,,,,,,,,,,,,,,,,,,,0,2,2,2,,,,,,,,,,,,,,,,,,,,,,,,,,,,,,,,,,,,space,5.219616428017616,,,,,,,,,,,,,,,062819_p1,001,2019_Jun_28_1218,body_behavioural,3.0.4,59.996883176600896,
,,,,,,,"When you have finished typing your answer, hit ‘return’ to submit your answer and move onto the next question. ",,,,,,,,,,,,,,,,,,,,,0,3,3,3,,,,,,,,,,,,,,,,,,,,,,,,,,,,,,,,,,,,space,6.803240404988173,,,,,,,,,,,,,,,062819_p1,001,2019_Jun_28_1218,body_behavioural,3.0.4,59.996883176600896,
0,,,,,,,,,,,,,,,,,,,,,,,,,,,,,,,,0,0,0,0,,,,,,,,,,,,,,,,,,,,,,,,,,,,She sits in first class and he is in the back,,,,,,space,1.1341962370206602,Coffee cup,primed first,Are you a former gymnast,When they get back from vacation in a few days. to go on a date,Afternoon,4 horus,,,She sits in first class and he is in the back,,,,062819_p1,001,2019_Jun_28_1218,body_behavioural,3.0.4,59.996883176600896,
1,,,,,,,,,,,,,,,,,,,,,,,,,,,,,,,,0,1,1,1,,,,,,,,,,,,,,,,,,,,,,,,,,,,Hand shake,,,,,,space,3.3033086479990743,Western,non-primed first,Thick,Fish and martinis,They like it,Cfo and executive director,A lot,,Hand shake,,,,062819_p1,001,2019_Jun_28_1218,body_behavioural,3.0.4,59.996883176600896,
2,,,,,,,,,,,,,,,,,,,,,,,,,,,,,,,,0,2,2,2,,,,,,,,,,,,,,,,,,,,,,,,,,,,,,,,,,space,2.535974183003418,Regular,non-primed first,Onions,,$14 with cash,4,"Yellow, 3",From alex's wallet,,,,,062819_p1,001,2019_Jun_28_1218,body_behavioural,3.0.4,59.996883176600896,
3,,,,,,,,,,,,,,,,,,,,,,,,,,,,,,,,0,3,3,3,,,,,,,,,,,,,,,,,,,,,,,,,,,,Her dad,,,,,,space,1.2361847830470651,Fancy with a view,primed first,Nice,,Its delicious,23 months,,Cake,Her dad,,,,062819_p1,001,2019_Jun_28_1218,body_behavioural,3.0.4,59.996883176600896,
4,,,,,,,,,,,,,,,,,,,,,,,,,,,,,,,,0,4,4,4,,,,,,,,,,,,,,,,,,,,,,,,,,,,Books,,,,,,space,1.0029465280240402,Not long,primed first,Baggage issue,5,33d and 33f,While ,She's not happy anymore,"No he doesn't, though he agrees anway since that's what she wants",Books,,,,062819_p1,001,2019_Jun_28_1218,body_behavioural,3.0.4,59.996883176600896,
5,,,,,,,,,,,,,,,,,,,,,,,,,,,,,,,,0,5,5,5,,,,,,,,,,,,,,,,,,,,,,,,,,,,,,,,,,space,1.2175077630090527,,non-primed first,"$20,000",,Champage celebration toast,,Cheese,,,,,,062819_p1,001,2019_Jun_28_1218,body_behavioural,3.0.4,59.996883176600896,
6,,,,,,,,,,,,,,,,,,,,,,,,,,,,,,,,0,6,6,6,,,,,,,,,,,,,,,,,,,,,,,,,,,,Sweater,,,,,,space,1.403553375042975,Large,non-primed first,Philosophy ,,,While,She's going to study abroad and long distance is hard,No he doesn't,Sweater,,,,062819_p1,001,2019_Jun_28_1218,body_behavioural,3.0.4,59.996883176600896,
7,,,,,,,,,,,,,,,,,,,,,,,,,,,,,,,,0,7,7,7,,,,,,,,,,,,,,,,,,,,,,,,,,,,,,,,,,space,1.1864741030149162,School books,non-primed first,Are you from laquestion,That night ,After class,Large,,,,,,,062819_p1,001,2019_Jun_28_1218,body_behavioural,3.0.4,59.996883176600896,
,,,,,,,,,,,,,,,,,,,,,,,,,,,,,,,,,,,,,,,,,,,,,,,,,,,,,,,,,,,,,,,,,,,,,,,,,,,,,,,,3869.6401125999982,space,1.4026245690183714,062819_p1,001,2019_Jun_28_1218,body_behavioural,3.0.4,59.996883176600896,
,,,,,,,,,,,,,,,,,,,,,,,,,,,,,,,,,,,,0,0,0,0,,,,,,,,,,,,,,,,,,,,,,,,,,,,,,,,,,,,,,,,,,,,062819_p1,001,2019_Jun_28_1218,body_behavioural,3.0.4,59.996883176600896,
