instruct_text,this_pic,rolePic,job,instruct_text2,trials_2.thisRepN,trials_2.thisTrialN,trials_2.thisN,trials_2.thisIndex,trials_4.thisRepN,trials_4.thisTrialN,trials_4.thisN,trials_4.thisIndex,loop3.thisRepN,loop3.thisTrialN,loop3.thisN,loop3.thisIndex,trials_3.thisRepN,trials_3.thisTrialN,trials_3.thisN,trials_3.thisIndex,Q1,Q2,Q3,Q4,D1,D2,roleName,trials.thisRepN,trials.thisTrialN,trials.thisN,trials.thisIndex,key_resp_8.keys,key_resp_8.rt,key_resp_2.keys,key_resp_2.rt,key_resp_6.keys,key_resp_6.rt,key_resp_14.keys,key_resp_14.rt,key_resp_10.keys,key_resp_10.rt,key_resp_11.keys,key_resp_11.rt,key_resp_12.keys,key_resp_12.rt,key_resp_13.keys,key_resp_13.rt,key_resp_4.keys,key_resp_4.rt,participant,session,date,expName,psychopyVersion,frameRate,
Welcome to the Job Simulator Task!,instructions_photos/pixel.png,,,,0,0,0,0,,,,,,,,,,,,,,,,,,,,,,,,space,0.4049254199999268,,,,,,,,,,,,,,,,,021219_p1,001,2019_Feb_12_1238,part1_subjective_segmentation,3.0.3,59.99969820149009,
"In this task, you’ll first be introduced to the perspectives of 8 different jobs. ",instructions_photos/i1.png,,,,0,1,1,1,,,,,,,,,,,,,,,,,,,,,,,,space,0.3861640670002089,,,,,,,,,,,,,,,,,021219_p1,001,2019_Feb_12_1238,part1_subjective_segmentation,3.0.3,59.99969820149009,
You’ll then learn 4 questions associated with each perspective. ,instructions_photos/i2.png,,,,0,2,2,2,,,,,,,,,,,,,,,,,,,,,,,,space,0.4027054270000008,,,,,,,,,,,,,,,,,021219_p1,001,2019_Feb_12_1238,part1_subjective_segmentation,3.0.3,59.99969820149009,
"Subsequently, you will be asked to apply those perspectives and questions to 8 stories.",instructions_photos/i3.png,,,,0,3,3,3,,,,,,,,,,,,,,,,,,,,,,,,space,0.36967730700052925,,,,,,,,,,,,,,,,,021219_p1,001,2019_Feb_12_1238,part1_subjective_segmentation,3.0.3,59.99969820149009,
"For each story you read, you will be asked to assume one of the perspectives. ",instructions_photos/i3.png,,,,0,4,4,4,,,,,,,,,,,,,,,,,,,,,,,,space,0.25300826000056986,,,,,,,,,,,,,,,,,021219_p1,001,2019_Feb_12_1238,part1_subjective_segmentation,3.0.3,59.99969820149009,
"While reading, try to remember the perspective and the questions of that perspective. ",instructions_photos/i3.png,,,,0,5,5,5,,,,,,,,,,,,,,,,,,,,,,,,space,0.2340263700007199,,,,,,,,,,,,,,,,,021219_p1,001,2019_Feb_12_1238,part1_subjective_segmentation,3.0.3,59.99969820149009,
"After you’re finished reading all the stories, you will be asked to recall the stories and answer questions about them. ",instructions_photos/i4.png,,,,0,6,6,6,,,,,,,,,,,,,,,,,,,,,,,,space,0.07060837000062747,,,,,,,,,,,,,,,,,021219_p1,001,2019_Feb_12_1238,part1_subjective_segmentation,3.0.3,59.99969820149009,
Let’s begin! The 8 perspectives are as follows:,None,,,,0,7,7,7,,,,,,,,,,,,,,,,,,,,,,,,space,0.33633306800038554,,,,,,,,,,,,,,,,,021219_p1,001,2019_Feb_12_1238,part1_subjective_segmentation,3.0.3,59.99969820149009,
,,jobphotos/weddingplanner.jpg,Wedding Planner,,,,,,0,0,0,3,,,,,,,,,,,,,,,,,,,,,,space,0.1864390219998313,,,,,,,,,,,,,,,021219_p1,001,2019_Feb_12_1238,part1_subjective_segmentation,3.0.3,59.99969820149009,
,,jobphotos/acem.jpg,Airport Customer Experience Manager,,,,,,0,1,1,4,,,,,,,,,,,,,,,,,,,,,,space,0.13393422499939334,,,,,,,,,,,,,,,021219_p1,001,2019_Feb_12_1238,part1_subjective_segmentation,3.0.3,59.99969820149009,
,,jobphotos/business_reporter.jpg,Business Reporter,,,,,,0,2,2,0,,,,,,,,,,,,,,,,,,,,,,space,0.11723557200002688,,,,,,,,,,,,,,,021219_p1,001,2019_Feb_12_1238,part1_subjective_segmentation,3.0.3,59.99969820149009,
,,jobphotos/gscem.jpg,"Grocery Store Customer Experience Manager
",,,,,,0,3,3,5,,,,,,,,,,,,,,,,,,,,,,space,0.10293744999944465,,,,,,,,,,,,,,,021219_p1,001,2019_Feb_12_1238,part1_subjective_segmentation,3.0.3,59.99969820149009,
,,jobphotos/dean.jpg,Dean of Academic Studies,,,,,,0,4,4,6,,,,,,,,,,,,,,,,,,,,,,space,0.10302026699991984,,,,,,,,,,,,,,,021219_p1,001,2019_Feb_12_1238,part1_subjective_segmentation,3.0.3,59.99969820149009,
,,jobphotos/matchmaker.jpg,Matchmaker,,,,,,0,5,5,2,,,,,,,,,,,,,,,,,,,,,,space,0.11991020999994362,,,,,,,,,,,,,,,021219_p1,001,2019_Feb_12_1238,part1_subjective_segmentation,3.0.3,59.99969820149009,
,,jobphotos/restaurant_critic.jpg,Restaurant Critic,,,,,,0,6,6,1,,,,,,,,,,,,,,,,,,,,,,space,0.08621007500005362,,,,,,,,,,,,,,,021219_p1,001,2019_Feb_12_1238,part1_subjective_segmentation,3.0.3,59.99969820149009,
,,jobphotos/couples.jpeg,"Couples Therapist
",,,,,,0,7,7,7,,,,,,,,,,,,,,,,,,,,,,space,0.10287374499966973,,,,,,,,,,,,,,,021219_p1,001,2019_Feb_12_1238,part1_subjective_segmentation,3.0.3,59.99969820149009,
Each of these perspectives will be applied to one story. ,,,,(press space to continue),,,,,,,,,0,0,0,0,,,,,,,,,,,,,,,,,,,,space,0.13638449000063702,,,,,,,,,,,,,021219_p1,001,2019_Feb_12_1238,part1_subjective_segmentation,3.0.3,59.99969820149009,
"Each perspective has 4 questions, and you will answer these questions about each story.",,,,None,,,,,,,,,0,1,1,1,,,,,,,,,,,,,,,,,,,,space,0.38610545699975773,,,,,,,,,,,,,021219_p1,001,2019_Feb_12_1238,part1_subjective_segmentation,3.0.3,59.99969820149009,
You’ll answer these questions about each story after reading all 8 stories. ,,,,None,,,,,,,,,0,2,2,2,,,,,,,,,,,,,,,,,,,,space,0.3363022550001915,,,,,,,,,,,,,021219_p1,001,2019_Feb_12_1238,part1_subjective_segmentation,3.0.3,59.99969820149009,
You’ll learn these questions with a series of pre-task quizzes and then the story reading will begin.,,,,None,,,,,,,,,0,3,3,3,,,,,,,,,,,,,,,,,,,,space,0.21954293999988295,,,,,,,,,,,,,021219_p1,001,2019_Feb_12_1238,part1_subjective_segmentation,3.0.3,59.99969820149009,
"Once the story-reading task has begun, remember your answers to the questions for each story.",,,,None,,,,,,,,,0,4,4,4,,,,,,,,,,,,,,,,,,,,space,0.21971511999981885,,,,,,,,,,,,,021219_p1,001,2019_Feb_12_1238,part1_subjective_segmentation,3.0.3,59.99969820149009,
Press the space bar to begin learning the perspectives and the questions for each one.,,,,None,,,,,,,,,0,5,5,5,,,,,,,,,,,,,,,,,,,,space,0.20259919799991621,,,,,,,,,,,,,021219_p1,001,2019_Feb_12_1238,part1_subjective_segmentation,3.0.3,59.99969820149009,
,,,,,,,,,,,,,,,,,,,,,,,,,,,,,,,,,,,,,,space,0.5029807719993187,space,0.30333070999949996,space,0.503021386999535,space,1.1841106219999347,space,0.2862271079993661,space,0.5507340749991272,,,,,,,
