count,storyText,locationEvent,socialEvent,locationEventSize,socialEventSize,instructText,trials.thisRepN,trials.thisTrialN,trials.thisN,trials.thisIndex,trials_7.thisRepN,trials_7.thisTrialN,trials_7.thisN,trials_7.thisIndex,trials_2.thisRepN,trials_2.thisTrialN,trials_2.thisN,trials_2.thisIndex,trials_3.thisRepN,trials_3.thisTrialN,trials_3.thisN,trials_3.thisIndex,trials_4.thisRepN,trials_4.thisTrialN,trials_4.thisN,trials_4.thisIndex,trials_5.thisRepN,trials_5.thisTrialN,trials_5.thisN,trials_5.thisIndex,trials_6.thisRepN,trials_6.thisTrialN,trials_6.thisN,trials_6.thisIndex,trials_8.thisRepN,trials_8.thisTrialN,trials_8.thisN,trials_8.thisIndex,order of stories,order of perspectives,participant 2 order - stories,participant 2 order  - schemas types,key_resp_8.keys,key_resp_8.rt,key_resp_5.keys,key_resp_5.rt,key_resp_7.keys,key_resp_7.rt,story_presses.keys,story_presses.rt,story time,key_resp_6.keys,key_resp_6.rt,key_resp_2.keys,key_resp_2.rt,key_resp_10.keys,key_resp_10.rt,recall,recall time,key_resp_12.keys,key_resp_12.rt,key_resp_3.keys,key_resp_3.rt,key_resp_11.keys,key_resp_11.rt,question1_answer,order of question,question2_answer,question3_answer,question4_answer,question5_answer,question6_answer,question7_answer,question8_answer,questions time,key_resp_13.keys,key_resp_13.rt,participant,session,date,expName,psychopyVersion,frameRate,
0,,,,,,,0,0,0,0,0,0,0,0,,,,,,,,,,,,,,,,,,,,,,,,,[11 44 43 31 12 24 23 32 13 34 33 22 42 21 41 14],"['Location' 'Social' 'Location' 'Social' 'Social' 'Location' 'Social'
 'Location' 'Location' 'Location' 'Social' 'Location' 'Social' 'Social'
 'Location' 'Social']",[13 34 33 22 42 21 41 14],"['Location' 'Location' 'Social' 'Location' 'Social' 'Social' 'Location'
 'Social']",space,20.556831060000007,space,4.535752192999979,space,2.635958343999988,,,,,,,,,,,,,,,,,,,,,,,,,,,,,,021519_p1,001,2019_Feb_13_1434,body_behavioural,3.0.3,59.799281320272236,
0,"Thomas, dreading the conversation he was about to have, got to Annika’s Finer Diner early.",1,1,None,None,,0,0,0,0,,,,,0,0,0,0,,,,,,,,,,,,,,,,,,,,,,,,,,,,,,,1,18.368175314999974,,,,,,,,,,,,,,,,,,,,,,,,,,,,021519_p1,001,2019_Feb_13_1434,body_behavioural,3.0.3,59.799281320272236,
0,The restaurant had a kitschy charm and was reminiscent of a diner from the 70’s. ,1,1,None,None,,0,0,0,0,,,,,0,1,1,1,,,,,,,,,,,,,,,,,,,,,,,,,,,,,,,1,3.8029008999999974,,,,,,,,,,,,,,,,,,,,,,,,,,,,021519_p1,001,2019_Feb_13_1434,body_behavioural,3.0.3,59.799281320272236,
0,A bell chimed as the door swung open and Sadie entered to find Thomas deep in thought on a bench by the door.,1,1,None,None,,0,0,0,0,,,,,0,2,2,2,,,,,,,,,,,,,,,,,,,,,,,,,,,,,,,1,7.216908977000003,,,,,,,,,,,,,,,,,,,,,,,,,,,,021519_p1,001,2019_Feb_13_1434,body_behavioural,3.0.3,59.799281320272236,
0,He jumped up and gave her a side hug. ,1,1,None,None,,0,0,0,0,,,,,0,3,3,3,,,,,,,,,,,,,,,,,,,,,,,,,,,,,,,1,2.420455247999996,,,,,,,,,,,,,,,,,,,,,,,,,,,,021519_p1,001,2019_Feb_13_1434,body_behavioural,3.0.3,59.799281320272236,
0,"“How was your day?”, he asked.",1,1,None,None,,0,0,0,0,,,,,0,4,4,4,,,,,,,,,,,,,,,,,,,,,,,,,,,,,,,1,1.767965796999988,,,,,,,,,,,,,,,,,,,,,,,,,,,,021519_p1,001,2019_Feb_13_1434,body_behavioural,3.0.3,59.799281320272236,
0,"She clung onto him, “It was okay.",1,1,None,None,,0,0,0,0,,,,,0,5,5,5,,,,,,,,,,,,,,,,,,,,,,,,,,,,,,,1,1.7867280950000008,,,,,,,,,,,,,,,,,,,,,,,,,,,,021519_p1,001,2019_Feb_13_1434,body_behavioural,3.0.3,59.799281320272236,
0,I missed you today.”,1,1,None,None,,0,0,0,0,,,,,0,6,6,6,,,,,,,,,,,,,,,,,,,,,,,,,,,,,,,1,1.5366540450000343,,,,,,,,,,,,,,,,,,,,,,,,,,,,021519_p1,001,2019_Feb_13_1434,body_behavioural,3.0.3,59.799281320272236,
0,He looked at the hostess coming towards them.,1,1,None,None,,0,0,0,0,,,,,0,7,7,7,,,,,,,,,,,,,,,,,,,,,,,,,,,,,,,1,5.554715794000003,,,,,,,,,,,,,,,,,,,,,,,,,,,,021519_p1,001,2019_Feb_13_1434,body_behavioural,3.0.3,59.799281320272236,
0,"“Can we have a table in the back?”, Thomas asked.",1,1,None,None,,0,0,0,0,,,,,0,8,8,8,,,,,,,,,,,,,,,,,,,,,,,,,,,,,,,1,3.134081144999982,,,,,,,,,,,,,,,,,,,,,,,,,,,,021519_p1,001,2019_Feb_13_1434,body_behavioural,3.0.3,59.799281320272236,
0,"She shrugged and, as she loudly popped her bubblegum, replied, “Sure, honey, this way.”",1,1,9.0,None,,0,0,0,0,,,,,0,9,9,9,,,,,,,,,,,,,,,,,,,,,,,,,,,,,,,1,0.7023538880000046,,,,,,,,,,,,,,,,,,,,,,,,,,,,021519_p1,001,2019_Feb_13_1434,body_behavioural,3.0.3,59.799281320272236,
0,She led them to the back of the restaurant where there were dimly lit tables. ,2,1,None,None,,0,0,0,0,,,,,0,10,10,10,,,,,,,,,,,,,,,,,,,,,,,,,,,,,,,1,5.984586712999999,,,,,,,,,,,,,,,,,,,,,,,,,,,,021519_p1,001,2019_Feb_13_1434,body_behavioural,3.0.3,59.799281320272236,
0,"“Is this alright?”, the hostess asked.",2,1,None,None,,0,0,0,0,,,,,0,11,11,11,,,,,,,,,,,,,,,,,,,,,,,,,,,,,,,1,1.5521429099999864,,,,,,,,,,,,,,,,,,,,,,,,,,,,021519_p1,001,2019_Feb_13_1434,body_behavioural,3.0.3,59.799281320272236,
0,Thomas cleared his throat and tried not to grimace at the stained fabric that lined the booth.,2,1,None,None,,0,0,0,0,,,,,0,12,12,12,,,,,,,,,,,,,,,,,,,,,,,,,,,,,,,1,4.750651121999965,,,,,,,,,,,,,,,,,,,,,,,,,,,,021519_p1,001,2019_Feb_13_1434,body_behavioural,3.0.3,59.799281320272236,
0,“This is great.,2,1,None,None,,0,0,0,0,,,,,0,13,13,13,,,,,,,,,,,,,,,,,,,,,,,,,,,,,,,1,0.952080637999984,,,,,,,,,,,,,,,,,,,,,,,,,,,,021519_p1,001,2019_Feb_13_1434,body_behavioural,3.0.3,59.799281320272236,
0,"Thank you,” Thomas said.",2,1,None,None,,0,0,0,0,,,,,0,14,14,14,,,,,,,,,,,,,,,,,,,,,,,,,,,,,,,1,3.0026410620000092,,,,,,,,,,,,,,,,,,,,,,,,,,,,021519_p1,001,2019_Feb_13_1434,body_behavioural,3.0.3,59.799281320272236,
0,Sadie slipped into the cushioned seat and grabbed Thomas’ hand.,2,1,None,None,,0,0,0,0,,,,,0,15,15,15,,,,,,,,,,,,,,,,,,,,,,,,,,,,,,,1,8.520667915000047,,,,,,,,,,,,,,,,,,,,,,,,,,,,021519_p1,001,2019_Feb_13_1434,body_behavioural,3.0.3,59.799281320272236,
0,"“Tell me about your day!”, Sadie sang as Thomas sat down.",2,1,None,None,,0,0,0,0,,,,,0,16,16,16,,,,,,,,,,,,,,,,,,,,,,,,,,,,,,,9,4.836738598000011,,,,,,,,,,,,,,,,,,,,,,,,,,,,021519_p1,001,2019_Feb_13_1434,body_behavioural,3.0.3,59.799281320272236,
0,He looked at her silently and pulled his hand slowly from hers.,2,1,None,None,,0,0,0,0,,,,,0,17,17,17,,,,,,,,,,,,,,,,,,,,,,,,,,,,,,,1,6.268533802000036,,,,,,,,,,,,,,,,,,,,,,,,,,,,021519_p1,001,2019_Feb_13_1434,body_behavioural,3.0.3,59.799281320272236,
0,Sadie gave him a puzzled look.,2,1,None,None,,0,0,0,0,,,,,0,18,18,18,,,,,,,,,,,,,,,,,,,,,,,,,,,,,,,1,2.519492516000014,,,,,,,,,,,,,,,,,,,,,,,,,,,,021519_p1,001,2019_Feb_13_1434,body_behavioural,3.0.3,59.799281320272236,
0,Thomas looked away and took a deep breath. ,2,1,None,None,,0,0,0,0,,,,,0,19,19,19,,,,,,,,,,,,,,,,,,,,,,,,,,,,,,,1,2.234146571999986,,,,,,,,,,,,,,,,,,,,,,,,,,,,021519_p1,001,2019_Feb_13_1434,body_behavioural,3.0.3,59.799281320272236,
0,"Sadie asked, “What’s wrong?” ",2,1,None,None,,0,0,0,0,,,,,0,20,20,20,,,,,,,,,,,,,,,,,,,,,,,,,,,,,,,1,1.087338289999991,,,,,,,,,,,,,,,,,,,,,,,,,,,,021519_p1,001,2019_Feb_13_1434,body_behavioural,3.0.3,59.799281320272236,
0,Thomas picked at his fingernails.,2,1,None,22.0,,0,0,0,0,,,,,0,21,21,21,,,,,,,,,,,,,,,,,,,,,,,,,,,,,,,1,2.4377094789999774,,,,,,,,,,,,,,,,,,,,,,,,,,,,021519_p1,001,2019_Feb_13_1434,body_behavioural,3.0.3,59.799281320272236,
0,"“Sadie, I’ve been thinking, and I need to figure out some stuff… on my own.”",2,2,None,None,,0,0,0,0,,,,,0,22,22,22,,,,,,,,,,,,,,,,,,,,,,,,,,,,,,,1,4.919753946000014,,,,,,,,,,,,,,,,,,,,,,,,,,,,021519_p1,001,2019_Feb_13_1434,body_behavioural,3.0.3,59.799281320272236,
0,Sadie’s mouth popped open for a moment.,2,2,None,None,,0,0,0,0,,,,,0,23,23,23,,,,,,,,,,,,,,,,,,,,,,,,,,,,,,,1,2.5855761020000045,,,,,,,,,,,,,,,,,,,,,,,,,,,,021519_p1,001,2019_Feb_13_1434,body_behavioural,3.0.3,59.799281320272236,
0,Then she swallowed and shifted back in her seat.,2,2,None,None,,0,0,0,0,,,,,0,24,24,24,,,,,,,,,,,,,,,,,,,,,,,,,,,,,,,1,5.686140147999993,,,,,,,,,,,,,,,,,,,,,,,,,,,,021519_p1,001,2019_Feb_13_1434,body_behavioural,3.0.3,59.799281320272236,
0,“Things have been really picking up at work.,2,2,None,None,,0,0,0,0,,,,,0,25,25,25,,,,,,,,,,,,,,,,,,,,,,,,,,,,,,,1,11.970319036999967,,,,,,,,,,,,,,,,,,,,,,,,,,,,021519_p1,001,2019_Feb_13_1434,body_behavioural,3.0.3,59.799281320272236,
0,And I’m not sure that this is the job I want to do anymore.,2,2,None,None,,0,0,0,0,,,,,0,26,26,26,,,,,,,,,,,,,,,,,,,,,,,,,,,,,,,1,3.6191431830000056,,,,,,,,,,,,,,,,,,,,,,,,,,,,021519_p1,001,2019_Feb_13_1434,body_behavioural,3.0.3,59.799281320272236,
0,It’s been really overwhelming between working and figuring out if I should change careers.” ,2,2,17.0,None,,0,0,0,0,,,,,0,27,27,27,,,,,,,,,,,,,,,,,,,,,,,,,,,,,,,1,4.854545569999971,,,,,,,,,,,,,,,,,,,,,,,,,,,,021519_p1,001,2019_Feb_13_1434,body_behavioural,3.0.3,59.799281320272236,
0,The waiter appeared and interrupted the speech Thomas had been practicing.,3,2,None,None,,0,0,0,0,,,,,0,28,28,28,,,,,,,,,,,,,,,,,,,,,,,,,,,,,,,1,3.737256521000006,,,,,,,,,,,,,,,,,,,,,,,,,,,,021519_p1,001,2019_Feb_13_1434,body_behavioural,3.0.3,59.799281320272236,
0,"“Hello you two!”, the waiter said.",3,2,None,None,,0,0,0,0,,,,,0,29,29,29,,,,,,,,,,,,,,,,,,,,,,,,,,,,,,,1,1.3027594999999792,,,,,,,,,,,,,,,,,,,,,,,,,,,,021519_p1,001,2019_Feb_13_1434,body_behavioural,3.0.3,59.799281320272236,
0,“Have you decided what you would like?”,3,2,None,None,,0,0,0,0,,,,,0,30,30,30,,,,,,,,,,,,,,,,,,,,,,,,,,,,,,,1,3.3696336140000085,,,,,,,,,,,,,,,,,,,,,,,,,,,,021519_p1,001,2019_Feb_13_1434,body_behavioural,3.0.3,59.799281320272236,
0,"Thomas and Sadie realized there were menus on the table, and they glanced at the lengthy list quickly.",3,2,None,None,,0,0,0,0,,,,,0,31,31,31,,,,,,,,,,,,,,,,,,,,,,,,,,,,,,,9,7.969755300000031,,,,,,,,,,,,,,,,,,,,,,,,,,,,021519_p1,001,2019_Feb_13_1434,body_behavioural,3.0.3,59.799281320272236,
0,"There were so many strange dishes they had never heard of before, so they settled on familiar orders.",3,2,None,None,,0,0,0,0,,,,,0,32,32,32,,,,,,,,,,,,,,,,,,,,,,,,,,,,,,,1,5.0524242299999855,,,,,,,,,,,,,,,,,,,,,,,,,,,,021519_p1,001,2019_Feb_13_1434,body_behavioural,3.0.3,59.799281320272236,
0,"“I’ll have a burger, no tomatoes,” Thomas said.",3,2,None,None,,0,0,0,0,,,,,0,33,33,33,,,,,,,,,,,,,,,,,,,,,,,,,,,,,,,1,1.018690122999999,,,,,,,,,,,,,,,,,,,,,,,,,,,,021519_p1,001,2019_Feb_13_1434,body_behavioural,3.0.3,59.799281320272236,
0,"Sadie asked about the reuben, and the waiter told her it was excellent.",3,2,None,None,,0,0,0,0,,,,,0,34,34,34,,,,,,,,,,,,,,,,,,,,,,,,,,,,,,,1,3.035953366000001,,,,,,,,,,,,,,,,,,,,,,,,,,,,021519_p1,001,2019_Feb_13_1434,body_behavioural,3.0.3,59.799281320272236,
0,"Once she agreed to get that, he walked away. ",3,2,None,None,,0,0,0,0,,,,,0,35,35,35,,,,,,,,,,,,,,,,,,,,,,,,,,,,,,,9,6.437843080999983,,,,,,,,,,,,,,,,,,,,,,,,,,,,021519_p1,001,2019_Feb_13_1434,body_behavioural,3.0.3,59.799281320272236,
0,Sadie and Thomas looked at each other. ,3,2,None,None,,0,0,0,0,,,,,0,36,36,36,,,,,,,,,,,,,,,,,,,,,,,,,,,,,,,1,2.336077665000005,,,,,,,,,,,,,,,,,,,,,,,,,,,,021519_p1,001,2019_Feb_13_1434,body_behavioural,3.0.3,59.799281320272236,
0,"“So what are you saying?”, Sadie asked. ",3,2,None,None,,0,0,0,0,,,,,0,37,37,37,,,,,,,,,,,,,,,,,,,,,,,,,,,,,,,1,2.468663122999999,,,,,,,,,,,,,,,,,,,,,,,,,,,,021519_p1,001,2019_Feb_13_1434,body_behavioural,3.0.3,59.799281320272236,
0,"Thomas replied, “I want to take a break for awhile.",3,2,None,None,,0,0,0,0,,,,,0,38,38,38,,,,,,,,,,,,,,,,,,,,,,,,,,,,,,,1,3.934613082999988,,,,,,,,,,,,,,,,,,,,,,,,,,,,021519_p1,001,2019_Feb_13_1434,body_behavioural,3.0.3,59.799281320272236,
0,"You know, have space to figure out what I’m supposed to be doing.”",3,2,None,17.0,,0,0,0,0,,,,,0,39,39,39,,,,,,,,,,,,,,,,,,,,,,,,,,,,,,,1,4.6033687849999865,,,,,,,,,,,,,,,,,,,,,,,,,,,,021519_p1,001,2019_Feb_13_1434,body_behavioural,3.0.3,59.799281320272236,
0,Sadie quietly burst into tears. ,3,3,None,None,,0,0,0,0,,,,,0,40,40,40,,,,,,,,,,,,,,,,,,,,,,,,,,,,,,,1,1.7031122300000447,,,,,,,,,,,,,,,,,,,,,,,,,,,,021519_p1,001,2019_Feb_13_1434,body_behavioural,3.0.3,59.799281320272236,
0,"Nevertheless, people sitting at the adjacent table looked over and quickly averted their gaze as they realized what was happening. ",3,3,None,None,,0,0,0,0,,,,,0,41,41,41,,,,,,,,,,,,,,,,,,,,,,,,,,,,,,,1,5.535505704999991,,,,,,,,,,,,,,,,,,,,,,,,,,,,021519_p1,001,2019_Feb_13_1434,body_behavioural,3.0.3,59.799281320272236,
0,“Is this really what you want?,3,3,None,None,,0,0,0,0,,,,,0,42,42,42,,,,,,,,,,,,,,,,,,,,,,,,,,,,,,,1,1.400683622000031,,,,,,,,,,,,,,,,,,,,,,,,,,,,021519_p1,001,2019_Feb_13_1434,body_behavioural,3.0.3,59.799281320272236,
0,I don’t understand.,3,3,None,None,,0,0,0,0,,,,,0,43,43,43,,,,,,,,,,,,,,,,,,,,,,,,,,,,,,,1,0.6004950269999654,,,,,,,,,,,,,,,,,,,,,,,,,,,,021519_p1,001,2019_Feb_13_1434,body_behavioural,3.0.3,59.799281320272236,
0,I don’t understand.,3,3,None,None,,0,0,0,0,,,,,0,44,44,44,,,,,,,,,,,,,,,,,,,,,,,,,,,,,,,1,1.1860064119999834,,,,,,,,,,,,,,,,,,,,,,,,,,,,021519_p1,001,2019_Feb_13_1434,body_behavioural,3.0.3,59.799281320272236,
0,Things were fine. ,3,3,None,None,,0,0,0,0,,,,,0,45,45,45,,,,,,,,,,,,,,,,,,,,,,,,,,,,,,,1,0.7009401020000041,,,,,,,,,,,,,,,,,,,,,,,,,,,,021519_p1,001,2019_Feb_13_1434,body_behavioural,3.0.3,59.799281320272236,
0,"We don’t have to hang out all the time, or as much as we do now.”",3,3,None,None,,0,0,0,0,,,,,0,46,46,46,,,,,,,,,,,,,,,,,,,,,,,,,,,,,,,1,3.835950906999983,,,,,,,,,,,,,,,,,,,,,,,,,,,,021519_p1,001,2019_Feb_13_1434,body_behavioural,3.0.3,59.799281320272236,
0,Thomas chewed on his bottom lip and picked at his now bleeding hangnail. ,3,3,20.0,None,,0,0,0,0,,,,,0,47,47,47,,,,,,,,,,,,,,,,,,,,,,,,,,,,,,,1,5.320048474000032,,,,,,,,,,,,,,,,,,,,,,,,,,,,021519_p1,001,2019_Feb_13_1434,body_behavioural,3.0.3,59.799281320272236,
0,"At that moment, the waiter arrived with the burger and reuben and set them on the table.",4,3,None,None,,0,0,0,0,,,,,0,48,48,48,,,,,,,,,,,,,,,,,,,,,,,,,,,,,,,1,3.1033780299999876,,,,,,,,,,,,,,,,,,,,,,,,,,,,021519_p1,001,2019_Feb_13_1434,body_behavioural,3.0.3,59.799281320272236,
0,“Is there anything else I can get for you two?,4,3,None,None,,0,0,0,0,,,,,0,49,49,49,,,,,,,,,,,,,,,,,,,,,,,,,,,,,,,1,4.354174720000003,,,,,,,,,,,,,,,,,,,,,,,,,,,,021519_p1,001,2019_Feb_13_1434,body_behavioural,3.0.3,59.799281320272236,
0,"Will you be getting dessert tonight?”, he asked.",4,3,None,None,,0,0,0,0,,,,,0,50,50,50,,,,,,,,,,,,,,,,,,,,,,,,,,,,,,,1,1.8200335269999641,,,,,,,,,,,,,,,,,,,,,,,,,,,,021519_p1,001,2019_Feb_13_1434,body_behavioural,3.0.3,59.799281320272236,
0,"“Oh no, we’re good, thanks,” Thomas said.",4,3,None,None,,0,0,0,0,,,,,0,51,51,51,,,,,,,,,,,,,,,,,,,,,,,,,,,,,,,1,1.2683053179999888,,,,,,,,,,,,,,,,,,,,,,,,,,,,021519_p1,001,2019_Feb_13_1434,body_behavioural,3.0.3,59.799281320272236,
0,"Once the waiter had walked away still oblivious to the situation, Thomas sighed and said, “Sadie, I’m sorry.",4,3,None,None,,0,0,0,0,,,,,0,52,52,52,,,,,,,,,,,,,,,,,,,,,,,,,,,,,,,9,13.802998755000033,,,,,,,,,,,,,,,,,,,,,,,,,,,,021519_p1,001,2019_Feb_13_1434,body_behavioural,3.0.3,59.799281320272236,
0,"You are so great, and I love hanging out with you.",4,3,None,None,,0,0,0,0,,,,,0,53,53,53,,,,,,,,,,,,,,,,,,,,,,,,,,,,,,,1,3.0699293019999914,,,,,,,,,,,,,,,,,,,,,,,,,,,,021519_p1,001,2019_Feb_13_1434,body_behavioural,3.0.3,59.799281320272236,
0,But I need some time.,4,3,None,None,,0,0,0,0,,,,,0,54,54,54,,,,,,,,,,,,,,,,,,,,,,,,,,,,,,,1,0.8012701129999868,,,,,,,,,,,,,,,,,,,,,,,,,,,,021519_p1,001,2019_Feb_13_1434,body_behavioural,3.0.3,59.799281320272236,
0,I’m so sorry.”,4,3,None,None,,0,0,0,0,,,,,0,55,55,55,,,,,,,,,,,,,,,,,,,,,,,,,,,,,,,1,0.7023502779999831,,,,,,,,,,,,,,,,,,,,,,,,,,,,021519_p1,001,2019_Feb_13_1434,body_behavioural,3.0.3,59.799281320272236,
0,"He grabbed her hand, and she pulled it out of his.",4,3,None,None,,0,0,0,0,,,,,0,56,56,56,,,,,,,,,,,,,,,,,,,,,,,,,,,,,,,1,2.70341360499998,,,,,,,,,,,,,,,,,,,,,,,,,,,,021519_p1,001,2019_Feb_13_1434,body_behavioural,3.0.3,59.799281320272236,
0,"“Sadie,” he said.",4,3,None,17.0,,0,0,0,0,,,,,0,57,57,57,,,,,,,,,,,,,,,,,,,,,,,,,,,,,,,1,1.2702317619999803,,,,,,,,,,,,,,,,,,,,,,,,,,,,021519_p1,001,2019_Feb_13_1434,body_behavioural,3.0.3,59.799281320272236,
0," She stood up, grabbed half of the reuben and shook it at him as she growled, “Don’t follow me, and don’t talk to me anymore!”",4,4,None,None,,0,0,0,0,,,,,0,58,58,58,,,,,,,,,,,,,,,,,,,,,,,,,,,,,,,1,7.120464483999967,,,,,,,,,,,,,,,,,,,,,,,,,,,,021519_p1,001,2019_Feb_13_1434,body_behavioural,3.0.3,59.799281320272236,
0,"Sadie's heels clacked loudly against the black and white linoleum, and the bell above the door jingled cheerfully as the door closed behind her.",4,4,None,None,,0,0,0,0,,,,,0,59,59,59,,,,,,,,,,,,,,,,,,,,,,,,,,,,,,,9,9.987199589999989,,,,,,,,,,,,,,,,,,,,,,,,,,,,021519_p1,001,2019_Feb_13_1434,body_behavioural,3.0.3,59.799281320272236,
0,Thomas sat there for awhile in shock at how quickly everything transpired. ,4,4,None,None,,0,0,0,0,,,,,0,60,60,60,,,,,,,,,,,,,,,,,,,,,,,,,,,,,,,1,4.8024261869999805,,,,,,,,,,,,,,,,,,,,,,,,,,,,021519_p1,001,2019_Feb_13_1434,body_behavioural,3.0.3,59.799281320272236,
0,"He grabbed his burger and took a bite of it, creating a dry and fishy taste in his mouth.",4,4,None,None,,0,0,0,0,,,,,0,61,61,61,,,,,,,,,,,,,,,,,,,,,,,,,,,,,,,1,4.635063753999987,,,,,,,,,,,,,,,,,,,,,,,,,,,,021519_p1,001,2019_Feb_13_1434,body_behavioural,3.0.3,59.799281320272236,
0,He dropped it back on his plate and wondered if the restaurant was responsible for the foul taste. ,4,4,13.0,5.0,,0,0,0,0,,,,,0,62,62,62,,,,,,,,,,,,,,,,,,,,,,,,,,,,,,,1,3.0356007290000093,,,,,,,,,,,,,,,,,,,,,,,,,,,,021519_p1,001,2019_Feb_13_1434,body_behavioural,3.0.3,59.799281320272236,
0,,,,,,,0,0,0,0,,,,,,,,,,,,,,,,,,,,,,,,,,,,,,,,,,,,,,,,,,,,,,,,,,,,,,,,,,,,,,,,,,,,021519_p1,001,2019_Feb_13_1434,body_behavioural,3.0.3,59.799281320272236,
1,,,,,,,0,1,1,1,0,0,0,0,,,,,,,,,,,,,,,,,,,,,,,,,,,,,space,4.134341587000051,space,1.4535194900000192,space,0.9666017690000217,,,,,,,,,,,,,,,,,,,,,,,,,,,,,,021519_p1,001,2019_Feb_13_1434,body_behavioural,3.0.3,59.799281320272236,
1,"Leon and  Ariana hurried into the classroom at the same time, and Leon did a double-take when he saw her. ",1,1,,,,0,1,1,1,,,,,0,0,0,0,,,,,,,,,,,,,,,,,,,,,,,,,,,,,,,1,7.986883209999974,,,,,,,,,,,,,,,,,,,,,,,,,,,,021519_p1,001,2019_Feb_13_1434,body_behavioural,3.0.3,59.799281320272236,
1,"This was his first day after transferring to this university, and he had assumed that he wouldn’t know anyone on campus, but he couldn't shake the nagging feeling  that he had seen her somewhere before. ",1,1,,,,0,1,1,1,,,,,0,1,1,1,,,,,,,,,,,,,,,,,,,,,,,,,,,,,,,1,8.670504794000067,,,,,,,,,,,,,,,,,,,,,,,,,,,,021519_p1,001,2019_Feb_13_1434,body_behavioural,3.0.3,59.799281320272236,
1,"They were both a bit late, so they quickly slid into seats next to each other in the back of the small classroom.",1,1,,,,0,1,1,1,,,,,0,2,2,2,,,,,,,,,,,,,,,,,,,,,,,,,,,,,,,9,12.038937481999938,,,,,,,,,,,,,,,,,,,,,,,,,,,,021519_p1,001,2019_Feb_13_1434,body_behavioural,3.0.3,59.799281320272236,
1,"This room was usually used for small meetings, but had been rearranged with the table pushed to the side and chairs set up in rows to face the projector screen. ",1,1,,,,0,1,1,1,,,,,0,3,3,3,,,,,,,,,,,,,,,,,,,,,,,,,,,,,,,1,7.4536480900000015,,,,,,,,,,,,,,,,,,,,,,,,,,,,021519_p1,001,2019_Feb_13_1434,body_behavioural,3.0.3,59.799281320272236,
1,"There were no windows in the room, since they were down in the sub-basement of the history department.",1,1,,,,0,1,1,1,,,,,0,4,4,4,,,,,,,,,,,,,,,,,,,,,,,,,,,,,,,1,5.970807212000068,,,,,,,,,,,,,,,,,,,,,,,,,,,,021519_p1,001,2019_Feb_13_1434,body_behavioural,3.0.3,59.799281320272236,
1,"Leon, trying to figure out where he had seen her before, could not stop looking over at Ariana.",1,1,,,,0,1,1,1,,,,,0,5,5,5,,,,,,,,,,,,,,,,,,,,,,,,,,,,,,,9,5.536350940000034,,,,,,,,,,,,,,,,,,,,,,,,,,,,021519_p1,001,2019_Feb_13_1434,body_behavioural,3.0.3,59.799281320272236,
1,Ariana was oblivious to Leon’s gaze and was only focused on getting ready for class. ,1,1,,,,0,1,1,1,,,,,0,6,6,6,,,,,,,,,,,,,,,,,,,,,,,,,,,,,,,1,9.004228544000057,,,,,,,,,,,,,,,,,,,,,,,,,,,,021519_p1,001,2019_Feb_13_1434,body_behavioural,3.0.3,59.799281320272236,
1,"“Good afternoon class,” the professor began.",2,1,,,,0,1,1,1,,,,,0,7,7,7,,,,,,,,,,,,,,,,,,,,,,,,,,,,,,,1,1.335737748999918,,,,,,,,,,,,,,,,,,,,,,,,,,,,021519_p1,001,2019_Feb_13_1434,body_behavioural,3.0.3,59.799281320272236,
1,“Welcome to Egyptian Cultural Studies. ,2,1,,,,0,1,1,1,,,,,0,8,8,8,,,,,,,,,,,,,,,,,,,,,,,,,,,,,,,1,0.9363063659999398,,,,,,,,,,,,,,,,,,,,,,,,,,,,021519_p1,001,2019_Feb_13_1434,body_behavioural,3.0.3,59.799281320272236,
1,"Today we will be talking about mummification, one of the most famous and often misunderstood customs in ancient Egyptian society.”",2,1,,,,0,1,1,1,,,,,0,9,9,9,,,,,,,,,,,,,,,,,,,,,,,,,,,,,,,1,1.4703906369999231,,,,,,,,,,,,,,,,,,,,,,,,,,,,021519_p1,001,2019_Feb_13_1434,body_behavioural,3.0.3,59.799281320272236,
1,Leon pulled out his notebook and tried to concentrate on the class.,2,1,,,,0,1,1,1,,,,,0,10,10,10,,,,,,,,,,,,,,,,,,,,,,,,,,,,,,,1,3.1186727450000262,,,,,,,,,,,,,,,,,,,,,,,,,,,,021519_p1,001,2019_Feb_13_1434,body_behavioural,3.0.3,59.799281320272236,
1,Within a few minutes though he found his attention wandering back to Ariana.,2,1,,,,0,1,1,1,,,,,0,11,11,11,,,,,,,,,,,,,,,,,,,,,,,,,,,,,,,1,3.6362407939999457,,,,,,,,,,,,,,,,,,,,,,,,,,,,021519_p1,001,2019_Feb_13_1434,body_behavioural,3.0.3,59.799281320272236,
1,"He decided to do something about his hunch so he ripped off a corner of a page in his notebook, wrote a note, and set it on her desk.",2,1,,,,0,1,1,1,,,,,0,12,12,12,,,,,,,,,,,,,,,,,,,,,,,,,,,,,,,1,7.151315030999967,,,,,,,,,,,,,,,,,,,,,,,,,,,,021519_p1,001,2019_Feb_13_1434,body_behavioural,3.0.3,59.799281320272236,
1,"“Hi, sorry to distract you from mummies, but you look really familiar," it read.",2,2,,,,0,1,1,1,,,,,0,13,13,13,,,,,,,,,,,,,,,,,,,,,,,,,,,,,,,1,7.119909815000028,,,,,,,,,,,,,,,,,,,,,,,,,,,,021519_p1,001,2019_Feb_13_1434,body_behavioural,3.0.3,59.799281320272236,
1,It continued: “Do I know you from somewhere?”,2,2,,,,0,1,1,1,,,,,0,14,14,14,,,,,,,,,,,,,,,,,,,,,,,,,,,,,,,1,1.5033571999999822,,,,,,,,,,,,,,,,,,,,,,,,,,,,021519_p1,001,2019_Feb_13_1434,body_behavioural,3.0.3,59.799281320272236,
1,"She looked at the note with surprise, and then turned to notice Leon for the first time. ",2,2,,,,0,1,1,1,,,,,0,15,15,15,,,,,,,,,,,,,,,,,,,,,,,,,,,,,,,1,2.9522243320000143,,,,,,,,,,,,,,,,,,,,,,,,,,,,021519_p1,001,2019_Feb_13_1434,body_behavioural,3.0.3,59.799281320272236,
1,"She instantly liked him when she saw him; he had very soft eyes and sharp features, a combination that made him seem  trustworthy and genuine.",2,2,,,,0,1,1,1,,,,,0,16,16,16,,,,,,,,,,,,,,,,,,,,,,,,,,,,,,,1,2.352373711999917,,,,,,,,,,,,,,,,,,,,,,,,,,,,021519_p1,001,2019_Feb_13_1434,body_behavioural,3.0.3,59.799281320272236,
1,He smiled at her and she flashed him a smile back.,2,2,,,,0,1,1,1,,,,,0,17,17,17,,,,,,,,,,,,,,,,,,,,,,,,,,,,,,,1,1.869358410000018,,,,,,,,,,,,,,,,,,,,,,,,,,,,021519_p1,001,2019_Feb_13_1434,body_behavioural,3.0.3,59.799281320272236,
1,Then she turned the note over to the back and started to write a reply.,2,2,,,,0,1,1,1,,,,,0,18,18,18,,,,,,,,,,,,,,,,,,,,,,,,,,,,,,,1,3.18474001200002,,,,,,,,,,,,,,,,,,,,,,,,,,,,021519_p1,001,2019_Feb_13_1434,body_behavioural,3.0.3,59.799281320272236,
1,"Meanwhile the professor continued, “One may well question why the ancient Egyptians spent so much time and effort on their funerary practices.",3,2,,,,0,1,1,1,,,,,0,19,19,19,,,,,,,,,,,,,,,,,,,,,,,,,,,,,,,9,1.8670879820000437,,,,,,,,,,,,,,,,,,,,,,,,,,,,021519_p1,001,2019_Feb_13_1434,body_behavioural,3.0.3,59.799281320272236,
1,"Not only was the mummification process itself a complicated affair, but there were also elaborate rituals before, during, and after death.",3,2,,,,0,1,1,1,,,,,0,20,20,20,,,,,,,,,,,,,,,,,,,,,,,,,,,,,,,1,2.388433512000006,,,,,,,,,,,,,,,,,,,,,,,,,,,,021519_p1,001,2019_Feb_13_1434,body_behavioural,3.0.3,59.799281320272236,
1,The practice required teams of experts with years of training and took a total of 70 days to complete.” ,3,2,,,,0,1,1,1,,,,,0,21,21,21,,,,,,,,,,,,,,,,,,,,,,,,,,,,,,,1,1.7696060690000195,,,,,,,,,,,,,,,,,,,,,,,,,,,,021519_p1,001,2019_Feb_13_1434,body_behavioural,3.0.3,59.799281320272236,
1,"Ariana passed the note back to Leon, and she had replied, “No, but maybe my twin and I were separated at birth.”",3,2,,,,0,1,1,1,,,,,0,22,22,22,,,,,,,,,,,,,,,,,,,,,,,,,,,,,,,9,4.835626155,,,,,,,,,,,,,,,,,,,,,,,,,,,,021519_p1,001,2019_Feb_13_1434,body_behavioural,3.0.3,59.799281320272236,
1,They passed notes back and forth the whole class like they were back in high school.,3,2,,,,0,1,1,1,,,,,0,23,23,23,,,,,,,,,,,,,,,,,,,,,,,,,,,,,,,1,1.1838935749999564,,,,,,,,,,,,,,,,,,,,,,,,,,,,021519_p1,001,2019_Feb_13_1434,body_behavioural,3.0.3,59.799281320272236,
1,"Near the end of the lecture, Leon wrote, “Would you like to go to dinner tonight?” ",3,3,,,,0,1,1,1,,,,,0,24,24,24,,,,,,,,,,,,,,,,,,,,,,,,,,,,,,,1,1.5367082269999628,,,,,,,,,,,,,,,,,,,,,,,,,,,,021519_p1,001,2019_Feb_13_1434,body_behavioural,3.0.3,59.799281320272236,
1,"Ariana read the note, and looked at him and nodded her head",3,3,,,,0,1,1,1,,,,,0,25,25,25,,,,,,,,,,,,,,,,,,,,,,,,,,,,,,,1,1.836042142999986,,,,,,,,,,,,,,,,,,,,,,,,,,,,021519_p1,001,2019_Feb_13_1434,body_behavioural,3.0.3,59.799281320272236,
1,"She wrote back on the slip of paper, “Pick me up at 6 in front of Patton Hall.”",3,3,,,,0,1,1,1,,,,,0,26,26,26,,,,,,,,,,,,,,,,,,,,,,,,,,,,,,,1,1.4354521169999543,,,,,,,,,,,,,,,,,,,,,,,,,,,,021519_p1,001,2019_Feb_13_1434,body_behavioural,3.0.3,59.799281320272236,
1,Then the professor ended the lecture and announced to the class that they would have their first quiz next class on Friday on mummification. ,4,3,,,,0,1,1,1,,,,,0,27,27,27,,,,,,,,,,,,,,,,,,,,,,,,,,,,,,,9,8.200725927999997,,,,,,,,,,,,,,,,,,,,,,,,,,,,021519_p1,001,2019_Feb_13_1434,body_behavioural,3.0.3,59.799281320272236,
1,"Everyone packed up and started heading out, as well as Sophie and Leon.",4,3,,,,0,1,1,1,,,,,0,28,28,28,,,,,,,,,,,,,,,,,,,,,,,,,,,,,,,1,1.5532372900000837,,,,,,,,,,,,,,,,,,,,,,,,,,,,021519_p1,001,2019_Feb_13_1434,body_behavioural,3.0.3,59.799281320272236,
1,"They approached each other smiling, and Leon said, “Well it was great to meet you, again, or maybe not again, but regardless it was great to meet you.” ",4,3,,,,0,1,1,1,,,,,0,29,29,29,,,,,,,,,,,,,,,,,,,,,,,,,,,,,,,9,6.419973592000019,,,,,,,,,,,,,,,,,,,,,,,,,,,,021519_p1,001,2019_Feb_13_1434,body_behavioural,3.0.3,59.799281320272236,
1,"She replied, “Yes, it was.",4,4,,,,0,1,1,1,,,,,0,30,30,30,,,,,,,,,,,,,,,,,,,,,,,,,,,,,,,1,1.0193390760000511,,,,,,,,,,,,,,,,,,,,,,,,,,,,021519_p1,001,2019_Feb_13_1434,body_behavioural,3.0.3,59.799281320272236,
1,"I have to run to my next class, but I’ll see you later tonight.” ",4,4,,,,0,1,1,1,,,,,0,31,31,31,,,,,,,,,,,,,,,,,,,,,,,,,,,,,,,1,1.8860925819999466,,,,,,,,,,,,,,,,,,,,,,,,,,,,021519_p1,001,2019_Feb_13_1434,body_behavioural,3.0.3,59.799281320272236,
1,"She waved as they parted ways outside of the door of the classroom, and Leon was still trying to figure out where he had seen her before as he watched her go. ",4,4,,,,0,1,1,1,,,,,0,32,32,32,,,,,,,,,,,,,,,,,,,,,,,,,,,,,,,1,3.0526890319999893,,,,,,,,,,,,,,,,,,,,,,,,,,,,021519_p1,001,2019_Feb_13_1434,body_behavioural,3.0.3,59.799281320272236,
1,,,,,,,0,1,1,1,,,,,,,,,,,,,,,,,,,,,,,,,,,,,,,,,,,,,,,,,,,,,,,,,,,,,,,,,,,,,,,,,,,,021519_p1,001,2019_Feb_13_1434,body_behavioural,3.0.3,59.799281320272236,
2,,,,,,,0,2,2,2,0,0,0,0,,,,,,,,,,,,,,,,,,,,,,,,,,,,,space,3.753097486999991,space,0.6354266350000444,space,0.6863696410000557,,,,,,,,,,,,,,,,,,,,,,,,,,,,,,021519_p1,001,2019_Feb_13_1434,body_behavioural,3.0.3,59.799281320272236,
2,,,,,,,0,2,2,2,1,0,1,0,,,,,,,,,,,,,,,,,,,,,,,,,,,,,,,,,space,0.9204755250000289,,,,,,,,,,,,,,,,,,,,,,,,,,,,,,021519_p1,001,2019_Feb_13_1434,body_behavioural,3.0.3,59.799281320272236,
2,"Simon and Carina noticed each other as they walked into the grocery store at the same time, their carts nearly colliding as they squeezed into the entrance.",1,1,,,,0,2,2,2,,,,,0,0,0,0,,,,,,,,,,,,,,,,,,,,,,,,,,,,,,,1,6.651201785000012,,,,,,,,,,,,,,,,,,,,,,,,,,,,021519_p1,001,2019_Feb_13_1434,body_behavioural,3.0.3,59.799281320272236,
2,"They were both new to the Boston area, and this was their first time in this store. ",1,1,,,,0,2,2,2,,,,,0,1,1,1,,,,,,,,,,,,,,,,,,,,,,,,,,,,,,,1,4.553646569999955,,,,,,,,,,,,,,,,,,,,,,,,,,,,021519_p1,001,2019_Feb_13_1434,body_behavioural,3.0.3,59.799281320272236,
2,"It kind of looked like a large warehouse, with high unfurnished ceilings, industrial lights, and large packages of food. ",1,1,,,,0,2,2,2,,,,,0,2,2,2,,,,,,,,,,,,,,,,,,,,,,,,,,,,,,,1,2.6705987469999855,,,,,,,,,,,,,,,,,,,,,,,,,,,,021519_p1,001,2019_Feb_13_1434,body_behavioural,3.0.3,59.799281320272236,
2,"They went off along separate routes, but soon ended up back together in the meat section. ",2,1,,,,0,2,2,2,,,,,0,3,3,3,,,,,,,,,,,,,,,,,,,,,,,,,,,,,,,1,2.467496474000086,,,,,,,,,,,,,,,,,,,,,,,,,,,,021519_p1,001,2019_Feb_13_1434,body_behavioural,3.0.3,59.799281320272236,
2,"They were both preparing for barbecues, so they were looking over the same cuts of meat. ",2,1,,,,0,2,2,2,,,,,0,4,4,4,,,,,,,,,,,,,,,,,,,,,,,,,,,,,,,9,3.402207338999915,,,,,,,,,,,,,,,,,,,,,,,,,,,,021519_p1,001,2019_Feb_13_1434,body_behavioural,3.0.3,59.799281320272236,
2,"Simon really wanted to talk to Carina, and Carina really wanted to say something to Simon, but they felt embarrassed striking up a conversation with a stranger.",2,1,,,,0,2,2,2,,,,,0,5,5,5,,,,,,,,,,,,,,,,,,,,,,,,,,,,,,,1,3.6155449320000344,,,,,,,,,,,,,,,,,,,,,,,,,,,,021519_p1,001,2019_Feb_13_1434,body_behavioural,3.0.3,59.799281320272236,
2,"Carina suddenly turned to Simon and, pointing at a Cornish hen, asked, “Isn’t this meat cute?”",2,2,,,,0,2,2,2,,,,,0,6,6,6,,,,,,,,,,,,,,,,,,,,,,,,,,,,,,,1,1.9702722449999328,,,,,,,,,,,,,,,,,,,,,,,,,,,,021519_p1,001,2019_Feb_13_1434,body_behavioural,3.0.3,59.799281320272236,
2,"He laughed, and said, “It is very cute.",2,2,,,,0,2,2,2,,,,,0,7,7,7,,,,,,,,,,,,,,,,,,,,,,,,,,,,,,,1,0.8010176450000017,,,,,,,,,,,,,,,,,,,,,,,,,,,,021519_p1,001,2019_Feb_13_1434,body_behavioural,3.0.3,59.799281320272236,
2,"Probably the younger brother of this guy,” and he picked up a regular-sized chicken.",2,2,,,,0,2,2,2,,,,,0,8,8,8,,,,,,,,,,,,,,,,,,,,,,,,,,,,,,,1,2.103969132999964,,,,,,,,,,,,,,,,,,,,,,,,,,,,021519_p1,001,2019_Feb_13_1434,body_behavioural,3.0.3,59.799281320272236,
2,"“Unlucky family,” she responded. ",2,2,,,,0,2,2,2,,,,,0,9,9,9,,,,,,,,,,,,,,,,,,,,,,,,,,,,,,,1,1.436158192999983,,,,,,,,,,,,,,,,,,,,,,,,,,,,021519_p1,001,2019_Feb_13_1434,body_behavioural,3.0.3,59.799281320272236,
2,They continued to chat as they picked out their groceries.,2,2,,,,0,2,2,2,,,,,0,10,10,10,,,,,,,,,,,,,,,,,,,,,,,,,,,,,,,1,2.90108792500007,,,,,,,,,,,,,,,,,,,,,,,,,,,,021519_p1,001,2019_Feb_13_1434,body_behavioural,3.0.3,59.799281320272236,
2,"Simon helped Carina pick out the best ribs and his personal favorite barbeque sauce, and she helped him gather the  peppers, onions, and spices for a vegetable kabob she recommended.",2,2,,,,0,2,2,2,,,,,0,11,11,11,,,,,,,,,,,,,,,,,,,,,,,,,,,,,,,9,3.2353591840000036,,,,,,,,,,,,,,,,,,,,,,,,,,,,021519_p1,001,2019_Feb_13_1434,body_behavioural,3.0.3,59.799281320272236,
2,"When they were both finished shopping, they went to the checkout area.",3,2,,,,0,2,2,2,,,,,0,12,12,12,,,,,,,,,,,,,,,,,,,,,,,,,,,,,,,1,4.9027160059999915,,,,,,,,,,,,,,,,,,,,,,,,,,,,021519_p1,001,2019_Feb_13_1434,body_behavioural,3.0.3,59.799281320272236,
2,"Simon was disappointed to see that the lines were short, since he had been hoping for an excuse to spend more time with Carina.",3,2,,,,0,2,2,2,,,,,0,13,13,13,,,,,,,,,,,,,,,,,,,,,,,,,,,,,,,9,5.9024216079999405,,,,,,,,,,,,,,,,,,,,,,,,,,,,021519_p1,001,2019_Feb_13_1434,body_behavioural,3.0.3,59.799281320272236,
2,"They had real chemistry, and both of them could definitely see a future together despite having just met.",3,2,,,,0,2,2,2,,,,,0,14,14,14,,,,,,,,,,,,,,,,,,,,,,,,,,,,,,,1,1.8678641929999458,,,,,,,,,,,,,,,,,,,,,,,,,,,,021519_p1,001,2019_Feb_13_1434,body_behavioural,3.0.3,59.799281320272236,
2,"“So you haven’t been around the city much?”, Simon asked. ",3,2,,,,0,2,2,2,,,,,0,15,15,15,,,,,,,,,,,,,,,,,,,,,,,,,,,,,,,1,1.2527374200000168,,,,,,,,,,,,,,,,,,,,,,,,,,,,021519_p1,001,2019_Feb_13_1434,body_behavioural,3.0.3,59.799281320272236,
2,"“No, not really.",3,2,,,,0,2,2,2,,,,,0,16,16,16,,,,,,,,,,,,,,,,,,,,,,,,,,,,,,,1,0.5363156989999425,,,,,,,,,,,,,,,,,,,,,,,,,,,,021519_p1,001,2019_Feb_13_1434,body_behavioural,3.0.3,59.799281320272236,
2,I’ve mainly been working and setting up my apartment.”,3,2,,,,0,2,2,2,,,,,0,17,17,17,,,,,,,,,,,,,,,,,,,,,,,,,,,,,,,1,2.0372870250000688,,,,,,,,,,,,,,,,,,,,,,,,,,,,021519_p1,001,2019_Feb_13_1434,body_behavioural,3.0.3,59.799281320272236,
2,"Simon asked her, “Ok well, if you’d like I could pick you up next weekend, and we could go around Harvard Square and get dinner.",3,3,,,,0,2,2,2,,,,,0,18,18,18,,,,,,,,,,,,,,,,,,,,,,,,,,,,,,,1,2.3678227180000704,,,,,,,,,,,,,,,,,,,,,,,,,,,,021519_p1,001,2019_Feb_13_1434,body_behavioural,3.0.3,59.799281320272236,
2,"There are a lot of great places around there, and it’s really nice during the summer.",3,3,,,,0,2,2,2,,,,,0,19,19,19,,,,,,,,,,,,,,,,,,,,,,,,,,,,,,,1,1.584706542000049,,,,,,,,,,,,,,,,,,,,,,,,,,,,021519_p1,001,2019_Feb_13_1434,body_behavioural,3.0.3,59.799281320272236,
2,The Harvard campus is also beautiful.” ,3,3,,,,0,2,2,2,,,,,0,20,20,20,,,,,,,,,,,,,,,,,,,,,,,,,,,,,,,1,1.4840139249999993,,,,,,,,,,,,,,,,,,,,,,,,,,,,021519_p1,001,2019_Feb_13_1434,body_behavioural,3.0.3,59.799281320272236,
2,"Carina smiled, “I’d love to: that sounds great!”",3,3,,,,0,2,2,2,,,,,0,21,21,21,,,,,,,,,,,,,,,,,,,,,,,,,,,,,,,1,1.4356448590000355,,,,,,,,,,,,,,,,,,,,,,,,,,,,021519_p1,001,2019_Feb_13_1434,body_behavioural,3.0.3,59.799281320272236,
2,"She quickly entered her number in his phone, since they only had to wait a couple minutes in line.",3,3,,,,0,2,2,2,,,,,0,22,22,22,,,,,,,,,,,,,,,,,,,,,,,,,,,,,,,1,3.4859616020000885,,,,,,,,,,,,,,,,,,,,,,,,,,,,021519_p1,001,2019_Feb_13_1434,body_behavioural,3.0.3,59.799281320272236,
2,Then it was her turn to check out with the cashier. ,4,3,,,,0,2,2,2,,,,,0,23,23,23,,,,,,,,,,,,,,,,,,,,,,,,,,,,,,,9,5.367964620000066,,,,,,,,,,,,,,,,,,,,,,,,,,,,021519_p1,001,2019_Feb_13_1434,body_behavioural,3.0.3,59.799281320272236,
2,"Simon, wanting to make a gesture of his affection, lifted up the divider on the conveyor belt and said to the cashier, “Actually these are together.",4,3,,,,0,2,2,2,,,,,0,24,24,24,,,,,,,,,,,,,,,,,,,,,,,,,,,,,,,1,6.370522353000069,,,,,,,,,,,,,,,,,,,,,,,,,,,,021519_p1,001,2019_Feb_13_1434,body_behavioural,3.0.3,59.799281320272236,
2,"Carina, I’ve got it.",4,3,,,,0,2,2,2,,,,,0,25,25,25,,,,,,,,,,,,,,,,,,,,,,,,,,,,,,,1,0.8833376449999832,,,,,,,,,,,,,,,,,,,,,,,,,,,,021519_p1,001,2019_Feb_13_1434,body_behavioural,3.0.3,59.799281320272236,
2,This was kind-of a date today.”,4,3,,,,0,2,2,2,,,,,0,26,26,26,,,,,,,,,,,,,,,,,,,,,,,,,,,,,,,1,5.935414941999966,,,,,,,,,,,,,,,,,,,,,,,,,,,,021519_p1,001,2019_Feb_13_1434,body_behavioural,3.0.3,59.799281320272236,
2,Carina blushed and laughed; she thought this was ridiculous but also very sweet. ,4,3,,,,0,2,2,2,,,,,0,27,27,27,,,,,,,,,,,,,,,,,,,,,,,,,,,,,,,1,2.3705236050000167,,,,,,,,,,,,,,,,,,,,,,,,,,,,021519_p1,001,2019_Feb_13_1434,body_behavioural,3.0.3,59.799281320272236,
2,"The cashier rolled her eyes when they weren’t looking, and she scanned the rest of his items. ",4,3,,,,0,2,2,2,,,,,0,28,28,28,,,,,,,,,,,,,,,,,,,,,,,,,,,,,,,1,2.33657158799997,,,,,,,,,,,,,,,,,,,,,,,,,,,,021519_p1,001,2019_Feb_13_1434,body_behavioural,3.0.3,59.799281320272236,
2,"The total came to $120, and he paid with his credit card.",4,3,,,,0,2,2,2,,,,,0,29,29,29,,,,,,,,,,,,,,,,,,,,,,,,,,,,,,,1,2.752810269999941,,,,,,,,,,,,,,,,,,,,,,,,,,,,021519_p1,001,2019_Feb_13_1434,body_behavioural,3.0.3,59.799281320272236,
2,"Carina thanked him, and they took the groceries and walked out.",4,3,,,,0,2,2,2,,,,,0,30,30,30,,,,,,,,,,,,,,,,,,,,,,,,,,,,,,,1,2.3864777040000718,,,,,,,,,,,,,,,,,,,,,,,,,,,,021519_p1,001,2019_Feb_13_1434,body_behavioural,3.0.3,59.799281320272236,
2,"As they were walking towards the exit, Carina reluctantly said goodbye since she was running late for the barbeque she was hosting that afternoon.",4,4,,,,0,2,2,2,,,,,0,31,31,31,,,,,,,,,,,,,,,,,,,,,,,,,,,,,,,9,1.0703550320000659,,,,,,,,,,,,,,,,,,,,,,,,,,,,021519_p1,001,2019_Feb_13_1434,body_behavioural,3.0.3,59.799281320272236,
2,"They hugged and parted ways, stealing glances at each other as they both walked back to their cars.",4,4,,,,0,2,2,2,,,,,0,32,32,32,,,,,,,,,,,,,,,,,,,,,,,,,,,,,,,1,1.3198195470000655,,,,,,,,,,,,,,,,,,,,,,,,,,,,021519_p1,001,2019_Feb_13_1434,body_behavioural,3.0.3,59.799281320272236,
2,,,,,,,0,2,2,2,,,,,,,,,,,,,,,,,,,,,,,,,,,,,,,,,,,,,,,,,,,,,,,,,,,,,,,,,,,,,,,,,,,,021519_p1,001,2019_Feb_13_1434,body_behavioural,3.0.3,59.799281320272236,
3,,,,,,,0,3,3,3,0,0,0,0,,,,,,,,,,,,,,,,,,,,,,,,,,,,,space,1.718275804999962,space,0.8858487190000233,space,1.420561355000018,,,,,,,,,,,,,,,,,,,,,,,,,,,,,,021519_p1,001,2019_Feb_13_1434,body_behavioural,3.0.3,59.799281320272236,
3,Mr. Shelton and Mr. Gordon shook hands inside the foyer of the restaurant: lunch today was about big business. ,1,1,,,,0,3,3,3,,,,,0,0,0,0,,,,,,,,,,,,,,,,,,,,,,,,,,,,,,,1,9.203949797000064,,,,,,,,,,,,,,,,,,,,,,,,,,,,021519_p1,001,2019_Feb_13_1434,body_behavioural,3.0.3,59.799281320272236,
3,Mr. Shelton and Mr. Gordon both were CEOs of airplane manufacturing companies.,1,1,,,,0,3,3,3,,,,,0,1,1,1,,,,,,,,,,,,,,,,,,,,,,,,,,,,,,,9,7.886901902999966,,,,,,,,,,,,,,,,,,,,,,,,,,,,021519_p1,001,2019_Feb_13_1434,body_behavioural,3.0.3,59.799281320272236,
3,"Mr. Shelton was in charge of a larger, well-established company and had been in the aviation business for decades, whereas Mr. Gordon led a smaller but technologically-advanced company that was projected to disrupt the airplane manufacturing market. ",1,1,,,,0,3,3,3,,,,,0,2,2,2,,,,,,,,,,,,,,,,,,,,,,,,,,,,,,,1,2.3691199749999896,,,,,,,,,,,,,,,,,,,,,,,,,,,,021519_p1,001,2019_Feb_13_1434,body_behavioural,3.0.3,59.799281320272236,
3,"The restaurant they chose to meet at was old and fancy with high ceilings, dark wood paneling, and crystal chandeliers.",1,1,,,,0,3,3,3,,,,,0,3,3,3,,,,,,,,,,,,,,,,,,,,,,,,,,,,,,,1,3.9205811550000362,,,,,,,,,,,,,,,,,,,,,,,,,,,,021519_p1,001,2019_Feb_13_1434,body_behavioural,3.0.3,59.799281320272236,
3,"The waitress led them to their table in the back, and they settled into a private table in the corner by the fireplace. ",2,1,,,,0,3,3,3,,,,,0,4,4,4,,,,,,,,,,,,,,,,,,,,,,,,,,,,,,,1,0.8691350760000205,,,,,,,,,,,,,,,,,,,,,,,,,,,,021519_p1,001,2019_Feb_13_1434,body_behavioural,3.0.3,59.799281320272236,
3,The waitress brought out the menus and they broke the ice with some small talk.,2,1,,,,0,3,3,3,,,,,0,5,5,5,,,,,,,,,,,,,,,,,,,,,,,,,,,,,,,1,0.7525753280000345,,,,,,,,,,,,,,,,,,,,,,,,,,,,021519_p1,001,2019_Feb_13_1434,body_behavioural,3.0.3,59.799281320272236,
3,"Mr. Gordon took out a picture of his daughter and talked about her recent engagement, and Mr. Gordon boasted about his purchase of a Tesla. ",2,1,,,,0,3,3,3,,,,,0,6,6,6,,,,,,,,,,,,,,,,,,,,,,,,,,,,,,,9,4.436232393000068,,,,,,,,,,,,,,,,,,,,,,,,,,,,021519_p1,001,2019_Feb_13_1434,body_behavioural,3.0.3,59.799281320272236,
3,"They looked at the menus as well, which were full of Italian classics like Carbonara and Tiramisu, and in the back section of the menu was a lengthy drink selection.",2,1,,,,0,3,3,3,,,,,0,7,7,7,,,,,,,,,,,,,,,,,,,,,,,,,,,,,,,1,2.284028820000003,,,,,,,,,,,,,,,,,,,,,,,,,,,,021519_p1,001,2019_Feb_13_1434,body_behavioural,3.0.3,59.799281320272236,
3,"After awhile, Mr. Shelton brought the conversation around to business.",2,2,,,,0,3,3,3,,,,,0,8,8,8,,,,,,,,,,,,,,,,,,,,,,,,,,,,,,,1,6.488481442000079,,,,,,,,,,,,,,,,,,,,,,,,,,,,021519_p1,001,2019_Feb_13_1434,body_behavioural,3.0.3,59.799281320272236,
3,"“Mr. Gordon, we really admire what you’re doing at your company.",2,2,,,,0,3,3,3,,,,,0,9,9,9,,,,,,,,,,,,,,,,,,,,,,,,,,,,,,,1,1.0526425919999838,,,,,,,,,,,,,,,,,,,,,,,,,,,,021519_p1,001,2019_Feb_13_1434,body_behavioural,3.0.3,59.799281320272236,
3,We think it’s genius; we want to support your vision and make this tiny company of yours internationally known.,2,2,,,,0,3,3,3,,,,,0,10,10,10,,,,,,,,,,,,,,,,,,,,,,,,,,,,,,,1,3.8027951849999226,,,,,,,,,,,,,,,,,,,,,,,,,,,,021519_p1,001,2019_Feb_13_1434,body_behavioural,3.0.3,59.799281320272236,
3,"But honestly, your company doesn’t have the resources to reach international markets right now, maybe in a few years you could, but by that time, other companies may have already filled your niche.",2,2,,,,0,3,3,3,,,,,0,11,11,11,,,,,,,,,,,,,,,,,,,,,,,,,,,,,,,1,3.4038576680000006,,,,,,,,,,,,,,,,,,,,,,,,,,,,021519_p1,001,2019_Feb_13_1434,body_behavioural,3.0.3,59.799281320272236,
3,I think we should join forces.”,2,2,,,,0,3,3,3,,,,,0,12,12,12,,,,,,,,,,,,,,,,,,,,,,,,,,,,,,,1,1.018217615000026,,,,,,,,,,,,,,,,,,,,,,,,,,,,021519_p1,001,2019_Feb_13_1434,body_behavioural,3.0.3,59.799281320272236,
3,The waitress came up to them and asked if they were ready to order.,3,2,,,,0,3,3,3,,,,,0,13,13,13,,,,,,,,,,,,,,,,,,,,,,,,,,,,,,,1,1.5835876899999448,,,,,,,,,,,,,,,,,,,,,,,,,,,,021519_p1,001,2019_Feb_13_1434,body_behavioural,3.0.3,59.799281320272236,
3,"Mr. Gordon ordered a medium-rare steak and martini, and Mr. Shelton ordered veal and a manhattan. ",3,2,,,,0,3,3,3,,,,,0,14,14,14,,,,,,,,,,,,,,,,,,,,,,,,,,,,,,,1,1.1529562050000095,,,,,,,,,,,,,,,,,,,,,,,,,,,,021519_p1,001,2019_Feb_13_1434,body_behavioural,3.0.3,59.799281320272236,
3,"Then Mr. Shelton continued, “Look, I’ve talked to other members of the board, and we are prepared to offer $600 million to buy your company. ",3,2,,,,0,3,3,3,,,,,0,15,15,15,,,,,,,,,,,,,,,,,,,,,,,,,,,,,,,1,4.220407039999941,,,,,,,,,,,,,,,,,,,,,,,,,,,,021519_p1,001,2019_Feb_13_1434,body_behavioural,3.0.3,59.799281320272236,
3,"We'd keep on all of your current employees, and you would join as the director of your company branch.” ",3,2,,,,0,3,3,3,,,,,0,16,16,16,,,,,,,,,,,,,,,,,,,,,,,,,,,,,,,1,0.9536153620000505,,,,,,,,,,,,,,,,,,,,,,,,,,,,021519_p1,001,2019_Feb_13_1434,body_behavioural,3.0.3,59.799281320272236,
3,Mr. Gordon sat looking at Mr. Shelton for a few moments considering his response. ,3,2,,,,0,3,3,3,,,,,0,17,17,17,,,,,,,,,,,,,,,,,,,,,,,,,,,,,,,1,0.936857520999979,,,,,,,,,,,,,,,,,,,,,,,,,,,,021519_p1,001,2019_Feb_13_1434,body_behavioural,3.0.3,59.799281320272236,
3,He looked at Mr. Shelton skeptically.,3,2,,,,0,3,3,3,,,,,0,18,18,18,,,,,,,,,,,,,,,,,,,,,,,,,,,,,,,1,4.653621401999999,,,,,,,,,,,,,,,,,,,,,,,,,,,,021519_p1,001,2019_Feb_13_1434,body_behavioural,3.0.3,59.799281320272236,
3,"He said, “Mr. Shelton, I think that you make a compelling offer, but there are definitely some disadvantages to attaching our small, streamlined productions to a large company like yours.",3,3,,,,0,3,3,3,,,,,0,19,19,19,,,,,,,,,,,,,,,,,,,,,,,,,,,,,,,1,2.2528374549999626,,,,,,,,,,,,,,,,,,,,,,,,,,,,021519_p1,001,2019_Feb_13_1434,body_behavioural,3.0.3,59.799281320272236,
3,"We operate in a very different way than a large company, and the kind of administrative complexity that makes the scale of your productions possible would suffocate our business.",3,3,,,,0,3,3,3,,,,,0,20,20,20,,,,,,,,,,,,,,,,,,,,,,,,,,,,,,,1,0.6499619559999701,,,,,,,,,,,,,,,,,,,,,,,,,,,,021519_p1,001,2019_Feb_13_1434,body_behavioural,3.0.3,59.799281320272236,
3,"With our product, scaling-up doesn’t necessarily make sense.” ",3,3,,,,0,3,3,3,,,,,0,21,21,21,,,,,,,,,,,,,,,,,,,,,,,,,,,,,,,1,1.070695437999916,,,,,,,,,,,,,,,,,,,,,,,,,,,,021519_p1,001,2019_Feb_13_1434,body_behavioural,3.0.3,59.799281320272236,
3,Mr. Shelton had expected this response and had come prepared.,3,3,,,,0,3,3,3,,,,,0,22,22,22,,,,,,,,,,,,,,,,,,,,,,,,,,,,,,,1,1.7368392590000212,,,,,,,,,,,,,,,,,,,,,,,,,,,,021519_p1,001,2019_Feb_13_1434,body_behavioural,3.0.3,59.799281320272236,
3,He began laying out the details of how he had handled similar acquisitions successfully in the past.,3,3,,,,0,3,3,3,,,,,0,23,23,23,,,,,,,,,,,,,,,,,,,,,,,,,,,,,,,1,3.6871776059999775,,,,,,,,,,,,,,,,,,,,,,,,,,,,021519_p1,001,2019_Feb_13_1434,body_behavioural,3.0.3,59.799281320272236,
3,"Mr. Gordon was impressed, and they went back and forth hashing out what the company configuration would look like post-merger. ",3,3,,,,0,3,3,3,,,,,0,24,24,24,,,,,,,,,,,,,,,,,,,,,,,,,,,,,,,1,3.053104681000036,,,,,,,,,,,,,,,,,,,,,,,,,,,,021519_p1,001,2019_Feb_13_1434,body_behavioural,3.0.3,59.799281320272236,
3,"The waitress brought the food out, interrupting their animated conversation.",4,3,,,,0,3,3,3,,,,,0,25,25,25,,,,,,,,,,,,,,,,,,,,,,,,,,,,,,,1,0.7344602580000128,,,,,,,,,,,,,,,,,,,,,,,,,,,,021519_p1,001,2019_Feb_13_1434,body_behavioural,3.0.3,59.799281320272236,
3,“Oh this looks so good!” Mr. Gordon said. ,4,3,,,,0,3,3,3,,,,,0,26,26,26,,,,,,,,,,,,,,,,,,,,,,,,,,,,,,,9,0.7023692800000845,,,,,,,,,,,,,,,,,,,,,,,,,,,,021519_p1,001,2019_Feb_13_1434,body_behavioural,3.0.3,59.799281320272236,
3, “Can I get you anything else?” the waitress asked.,4,3,,,,0,3,3,3,,,,,0,27,27,27,,,,,,,,,,,,,,,,,,,,,,,,,,,,,,,1,0.7525122289999899,,,,,,,,,,,,,,,,,,,,,,,,,,,,021519_p1,001,2019_Feb_13_1434,body_behavioural,3.0.3,59.799281320272236,
3,They declined and continued to talk.,4,3,,,,0,3,3,3,,,,,0,28,28,28,,,,,,,,,,,,,,,,,,,,,,,,,,,,,,,1,1.003324445999965,,,,,,,,,,,,,,,,,,,,,,,,,,,,021519_p1,001,2019_Feb_13_1434,body_behavioural,3.0.3,59.799281320272236,
3,"The meal lived up to the reputation of the restaurant, which was known for having the best cuts of meat in the area.",4,3,,,,0,3,3,3,,,,,0,29,29,29,,,,,,,,,,,,,,,,,,,,,,,,,,,,,,,9,2.3847614769999836,,,,,,,,,,,,,,,,,,,,,,,,,,,,021519_p1,001,2019_Feb_13_1434,body_behavioural,3.0.3,59.799281320272236,
3,"Mr. Gordon, after taking a contemplative bite of his food, said, “Mr. Shelton, I think we have a deal. ",4,4,,,,0,3,3,3,,,,,0,30,30,30,,,,,,,,,,,,,,,,,,,,,,,,,,,,,,,1,1.3518048100000897,,,,,,,,,,,,,,,,,,,,,,,,,,,,021519_p1,001,2019_Feb_13_1434,body_behavioural,3.0.3,59.799281320272236,
3,"If you can guarantee that I can still have the final say in the all the work done by my team, I think this could be beneficial for both of us.",4,4,,,,0,3,3,3,,,,,0,31,31,31,,,,,,,,,,,,,,,,,,,,,,,,,,,,,,,1,1.586505337999938,,,,,,,,,,,,,,,,,,,,,,,,,,,,021519_p1,001,2019_Feb_13_1434,body_behavioural,3.0.3,59.799281320272236,
3,I propose a toast to the merging of our companies.”,4,4,,,,0,3,3,3,,,,,0,32,32,32,,,,,,,,,,,,,,,,,,,,,,,,,,,,,,,1,0.8364141170000039,,,,,,,,,,,,,,,,,,,,,,,,,,,,021519_p1,001,2019_Feb_13_1434,body_behavioural,3.0.3,59.799281320272236,
3,Mr. Shelton grinned and lifted his martini to clink glasses.,4,4,,,,0,3,3,3,,,,,0,33,33,33,,,,,,,,,,,,,,,,,,,,,,,,,,,,,,,1,0.5533296319999863,,,,,,,,,,,,,,,,,,,,,,,,,,,,021519_p1,001,2019_Feb_13_1434,body_behavioural,3.0.3,59.799281320272236,
3,"He said, “Cheers to a lifelong partnership and to the growth of your company.” ",4,4,,,,0,3,3,3,,,,,0,34,34,34,,,,,,,,,,,,,,,,,,,,,,,,,,,,,,,1,2.270270789000051,,,,,,,,,,,,,,,,,,,,,,,,,,,,021519_p1,001,2019_Feb_13_1434,body_behavioural,3.0.3,59.799281320272236,
3,,,,,,,0,3,3,3,,,,,,,,,,,,,,,,,,,,,,,,,,,,,,,,,,,,,,,,,,,,,,,,,,,,,,,,,,,,,,,,,,,,021519_p1,001,2019_Feb_13_1434,body_behavioural,3.0.3,59.799281320272236,
4,,,,,,,0,4,4,4,0,0,0,0,,,,,,,,,,,,,,,,,,,,,,,,,,,,,space,1.0692836499999885,space,0.7505323770000132,space,0.6854017480000039,,,,,,,,,,,,,,,,,,,,,,,,,,,,,,021519_p1,001,2019_Feb_13_1434,body_behavioural,3.0.3,59.799281320272236,
4,,,,,,,0,4,4,4,1,0,1,0,,,,,,,,,,,,,,,,,,,,,,,,,,,,,,,,,space,0.7525716339999917,,,,,,,,,,,,,,,,,,,,,,,,,,,,,,021519_p1,001,2019_Feb_13_1434,body_behavioural,3.0.3,59.799281320272236,
4,,,,,,,0,4,4,4,2,0,2,0,,,,,,,,,,,,,,,,,,,,,,,,,,,,,,,,,space,0.5017711659999122,,,,,,,,,,,,,,,,,,,,,,,,,,,,,,021519_p1,001,2019_Feb_13_1434,body_behavioural,3.0.3,59.799281320272236,
4,,,,,,,0,4,4,4,3,0,3,0,,,,,,,,,,,,,,,,,,,,,,,,,,,,,,,,,space,0.5029339530000243,,,,,,,,,,,,,,,,,,,,,,,,,,,,,,021519_p1,001,2019_Feb_13_1434,body_behavioural,3.0.3,59.799281320272236,
4,,,,,,,0,4,4,4,4,0,4,0,,,,,,,,,,,,,,,,,,,,,,,,,,,,,,,,,space,0.41998823500000526,,,,,,,,,,,,,,,,,,,,,,,,,,,,,,021519_p1,001,2019_Feb_13_1434,body_behavioural,3.0.3,59.799281320272236,
4,"It didn’t help the situation that Calvin and Jessie were running late to the airport, since Jessie had already been fuming at Calvin and preparing to end things with him.",1,1,,,,0,4,4,4,,,,,0,0,0,0,,,,,,,,,,,,,,,,,,,,,,,,,,,,,,,1,9.420773844999985,,,,,,,,,,,,,,,,,,,,,,,,,,,,021519_p1,001,2019_Feb_13_1434,body_behavioural,3.0.3,59.799281320272236,
4,"Upon arriving, they had only 45 minutes until their international flight would depart from Jamaica for the US.",1,1,,,,0,4,4,4,,,,,0,1,1,1,,,,,,,,,,,,,,,,,,,,,,,,,,,,,,,1,1.935652244000039,,,,,,,,,,,,,,,,,,,,,,,,,,,,021519_p1,001,2019_Feb_13_1434,body_behavioural,3.0.3,59.799281320272236,
4,It had been a tough vacation for them.,1,1,,,,0,4,4,4,,,,,0,2,2,2,,,,,,,,,,,,,,,,,,,,,,,,,,,,,,,1,1.971189699999968,,,,,,,,,,,,,,,,,,,,,,,,,,,,021519_p1,001,2019_Feb_13_1434,body_behavioural,3.0.3,59.799281320272236,
4,"Jessie had really had it with Calvin’s constant ramblings about the same excruciatingly boring golfing and work stories, which he insisted on repeating to her regardless of how little interest she showed.",1,1,,,,0,4,4,4,,,,,0,3,3,3,,,,,,,,,,,,,,,,,,,,,,,,,,,,,,,1,5.903510466999933,,,,,,,,,,,,,,,,,,,,,,,,,,,,021519_p1,001,2019_Feb_13_1434,body_behavioural,3.0.3,59.799281320272236,
4,"Calvin knew that Jessie was upset, but wasn't sure what to do besides attempting to carry on as normal and tell stories that took up the silence. ",1,1,,,,0,4,4,4,,,,,0,4,4,4,,,,,,,,,,,,,,,,,,,,,,,,,,,,,,,1,1.6666955610000969,,,,,,,,,,,,,,,,,,,,,,,,,,,,021519_p1,001,2019_Feb_13_1434,body_behavioural,3.0.3,59.799281320272236,
4,"The security line was luckily very short, and once the online boarding passes were scanned they were ushered quickly through the metal detector, not having to take off their shoes or remove the liquids from their bags.",2,1,,,,0,4,4,4,,,,,0,5,5,5,,,,,,,,,,,,,,,,,,,,,,,,,,,,,,,9,1.88438457999996,,,,,,,,,,,,,,,,,,,,,,,,,,,,021519_p1,001,2019_Feb_13_1434,body_behavioural,3.0.3,59.799281320272236,
4,"“The infrastructure of this airport is really quite poor," said Calvin as they waited for their bags to emerge from the x-ray machine.",2,1,,,,0,4,4,4,,,,,0,6,6,6,,,,,,,,,,,,,,,,,,,,,,,,,,,,,,,1,1.468968225000026,,,,,,,,,,,,,,,,,,,,,,,,,,,,021519_p1,001,2019_Feb_13_1434,body_behavioural,3.0.3,59.799281320272236,
4,“I really could've hidden something in my shoes quite easily.” ,2,1,,,,0,4,4,4,,,,,0,7,7,7,,,,,,,,,,,,,,,,,,,,,,,,,,,,,,,1,1.2035989080000036,,,,,,,,,,,,,,,,,,,,,,,,,,,,021519_p1,001,2019_Feb_13_1434,body_behavioural,3.0.3,59.799281320272236,
4,"Jessie, exasperated at his need to broadcast his every inner thought, scowled at the conveyor belt.",2,1,,,,0,4,4,4,,,,,0,8,8,8,,,,,,,,,,,,,,,,,,,,,,,,,,,,,,,1,3.0168014630000926,,,,,,,,,,,,,,,,,,,,,,,,,,,,021519_p1,001,2019_Feb_13_1434,body_behavioural,3.0.3,59.799281320272236,
4,"“What?”, he asked.",2,1,,,,0,4,4,4,,,,,0,9,9,9,,,,,,,,,,,,,,,,,,,,,,,,,,,,,,,1,1.0523406170000271,,,,,,,,,,,,,,,,,,,,,,,,,,,,021519_p1,001,2019_Feb_13_1434,body_behavioural,3.0.3,59.799281320272236,
4,She balled up her fists and turned to face him.,2,1,,,,0,4,4,4,,,,,0,10,10,10,,,,,,,,,,,,,,,,,,,,,,,,,,,,,,,1,2.269550943000013,,,,,,,,,,,,,,,,,,,,,,,,,,,,021519_p1,001,2019_Feb_13_1434,body_behavioural,3.0.3,59.799281320272236,
4,"“Calvin, I really don’t think I can do this anymore.",2,2,,,,0,4,4,4,,,,,0,11,11,11,,,,,,,,,,,,,,,,,,,,,,,,,,,,,,,1,1.501513283000122,,,,,,,,,,,,,,,,,,,,,,,,,,,,021519_p1,001,2019_Feb_13_1434,body_behavioural,3.0.3,59.799281320272236,
4,I think it’s best that once we get to the States we part ways for good.” ,2,2,,,,0,4,4,4,,,,,0,12,12,12,,,,,,,,,,,,,,,,,,,,,,,,,,,,,,,1,6.802470155000037,,,,,,,,,,,,,,,,,,,,,,,,,,,,021519_p1,001,2019_Feb_13_1434,body_behavioural,3.0.3,59.799281320272236,
4,Calvin said nothing as he grabbed his bag and quickly walked away.,2,2,,,,0,4,4,4,,,,,0,13,13,13,,,,,,,,,,,,,,,,,,,,,,,,,,,,,,,1,1.5532260120000956,,,,,,,,,,,,,,,,,,,,,,,,,,,,021519_p1,001,2019_Feb_13_1434,body_behavioural,3.0.3,59.799281320272236,
4,"Jessie trailed behind him as they made their way quickly toward their gate, shouting at his back in hopes of getting a response.",3,2,,,,0,4,4,4,,,,,0,14,14,14,,,,,,,,,,,,,,,,,,,,,,,,,,,,,,,9,1.368505794999919,,,,,,,,,,,,,,,,,,,,,,,,,,,,021519_p1,001,2019_Feb_13_1434,body_behavioural,3.0.3,59.799281320272236,
4,“So now you have nothing to say?,3,2,,,,0,4,4,4,,,,,0,15,15,15,,,,,,,,,,,,,,,,,,,,,,,,,,,,,,,1,1.0522290379999504,,,,,,,,,,,,,,,,,,,,,,,,,,,,021519_p1,001,2019_Feb_13_1434,body_behavioural,3.0.3,59.799281320272236,
4,"Every time we talk, you are just looking for a way to steer the conversation back into your stories.”",3,2,,,,0,4,4,4,,,,,0,16,16,16,,,,,,,,,,,,,,,,,,,,,,,,,,,,,,,1,1.1034368660000382,,,,,,,,,,,,,,,,,,,,,,,,,,,,021519_p1,001,2019_Feb_13_1434,body_behavioural,3.0.3,59.799281320272236,
4,"Calvin didn't slow his pace, gritting his teeth and staring straight ahead. ",3,2,,,,0,4,4,4,,,,,0,17,17,17,,,,,,,,,,,,,,,,,,,,,,,,,,,,,,,1,3.5520562040001096,,,,,,,,,,,,,,,,,,,,,,,,,,,,021519_p1,001,2019_Feb_13_1434,body_behavioural,3.0.3,59.799281320272236,
4,He was very frustrated that he had been trying to appease Jessie this whole time and this was how she responded. ,3,2,,,,0,4,4,4,,,,,0,18,18,18,,,,,,,,,,,,,,,,,,,,,,,,,,,,,,,1,7.035569152000107,,,,,,,,,,,,,,,,,,,,,,,,,,,,021519_p1,001,2019_Feb_13_1434,body_behavioural,3.0.3,59.799281320272236,
4,The silence was punctuated only by the rapid rhythmic clacking of their suitcase wheels over the tile floor as they continued power-walking through the terminal. ,3,2,,,,0,4,4,4,,,,,0,19,19,19,,,,,,,,,,,,,,,,,,,,,,,,,,,,,,,9,5.4038100230000055,,,,,,,,,,,,,,,,,,,,,,,,,,,,021519_p1,001,2019_Feb_13_1434,body_behavioural,3.0.3,59.799281320272236,
4,"“Well?” Jessie said, and Calvin finally turned to her.",3,2,,,,0,4,4,4,,,,,0,20,20,20,,,,,,,,,,,,,,,,,,,,,,,,,,,,,,,1,1.0833673970000746,,,,,,,,,,,,,,,,,,,,,,,,,,,,021519_p1,001,2019_Feb_13_1434,body_behavioural,3.0.3,59.799281320272236,
4,"“Well, Jessie, this makes perfect sense. ",3,3,,,,0,4,4,4,,,,,0,21,21,21,,,,,,,,,,,,,,,,,,,,,,,,,,,,,,,1,1.1836229109999294,,,,,,,,,,,,,,,,,,,,,,,,,,,,021519_p1,001,2019_Feb_13_1434,body_behavioural,3.0.3,59.799281320272236,
4,"If you feel this way, then I don’t want to keep boring you, and I agree, let’s part ways once we make it back.",3,3,,,,0,4,4,4,,,,,0,22,22,22,,,,,,,,,,,,,,,,,,,,,,,,,,,,,,,1,3.3019890109999324,,,,,,,,,,,,,,,,,,,,,,,,,,,,021519_p1,001,2019_Feb_13_1434,body_behavioural,3.0.3,59.799281320272236,
4,You should’ve spoken up about my apparent intolerability before you decided to plan this vacation.”,3,3,,,,0,4,4,4,,,,,0,23,23,23,,,,,,,,,,,,,,,,,,,,,,,,,,,,,,,1,1.5859675900001093,,,,,,,,,,,,,,,,,,,,,,,,,,,,021519_p1,001,2019_Feb_13_1434,body_behavioural,3.0.3,59.799281320272236,
4,"He was clearly hurt, but thought it was pointless to argue. ",3,3,,,,0,4,4,4,,,,,0,24,24,24,,,,,,,,,,,,,,,,,,,,,,,,,,,,,,,1,1.4037869320000027,,,,,,,,,,,,,,,,,,,,,,,,,,,,021519_p1,001,2019_Feb_13_1434,body_behavioural,3.0.3,59.799281320272236,
4,"They finally made it to the gate, just as they heard the final call for passengers boarding their flight.",3,3,,,,0,4,4,4,,,,,0,25,25,25,,,,,,,,,,,,,,,,,,,,,,,,,,,,,,,1,4.5360456070000055,,,,,,,,,,,,,,,,,,,,,,,,,,,,021519_p1,001,2019_Feb_13_1434,body_behavioural,3.0.3,59.799281320272236,
4,"They scanned their tickets, and the annoyed flight attendant shooed them onto the jet bridge and then closed the door behind them.",4,3,,,,0,4,4,4,,,,,0,26,26,26,,,,,,,,,,,,,,,,,,,,,,,,,,,,,,,1,4.034915516999945,,,,,,,,,,,,,,,,,,,,,,,,,,,,021519_p1,001,2019_Feb_13_1434,body_behavioural,3.0.3,59.799281320272236,
4,"Luckily, they had forgotten to arrange seats next to each other on the flight back.",4,3,,,,0,4,4,4,,,,,0,27,27,27,,,,,,,,,,,,,,,,,,,,,,,,,,,,,,,1,6.038118446999988,,,,,,,,,,,,,,,,,,,,,,,,,,,,021519_p1,001,2019_Feb_13_1434,body_behavioural,3.0.3,59.799281320272236,
4,"They both had first-class tickets, but Jessie was headed for seat 1B while Calvin's seat was 4F. ",4,3,,,,0,4,4,4,,,,,0,28,28,28,,,,,,,,,,,,,,,,,,,,,,,,,,,,,,,1,1.9202709520000099,,,,,,,,,,,,,,,,,,,,,,,,,,,,021519_p1,001,2019_Feb_13_1434,body_behavioural,3.0.3,59.799281320272236,
4,"Before Jessie sat down, she took a deep breath and then awkwardly shook Calvin’s hand, mumbling, “Well, have a nice flight.” ",4,4,,,,0,4,4,4,,,,,0,29,29,29,,,,,,,,,,,,,,,,,,,,,,,,,,,,,,,1,5.387414921000072,,,,,,,,,,,,,,,,,,,,,,,,,,,,021519_p1,001,2019_Feb_13_1434,body_behavioural,3.0.3,59.799281320272236,
4,He laughed in disbelief and walked to his window seat three rows back to get ready for takeoff.,4,4,,,,0,4,4,4,,,,,0,30,30,30,,,,,,,,,,,,,,,,,,,,,,,,,,,,,,,1,1.5532080159998713,,,,,,,,,,,,,,,,,,,,,,,,,,,,021519_p1,001,2019_Feb_13_1434,body_behavioural,3.0.3,59.799281320272236,
4,Both were upset but glad that they would have this flight to mull things over and recenter. ,4,4,,,,0,4,4,4,,,,,0,31,31,31,,,,,,,,,,,,,,,,,,,,,,,,,,,,,,,1,2.08540217399991,,,,,,,,,,,,,,,,,,,,,,,,,,,,021519_p1,001,2019_Feb_13_1434,body_behavioural,3.0.3,59.799281320272236,
4,,,,,,,0,4,4,4,,,,,,,,,,,,,,,,,,,,,,,,,,,,,,,,,,,,,,,,,,,,,,,,,,,,,,,,,,,,,,,,,,,,021519_p1,001,2019_Feb_13_1434,body_behavioural,3.0.3,59.799281320272236,
5,,,,,,,0,5,5,5,0,0,0,0,,,,,,,,,,,,,,,,,,,,,,,,,,,,,space,1.252401915000064,space,0.5841447749999134,space,0.6875404170000365,,,,,,,,,,,,,,,,,,,,,,,,,,,,,,021519_p1,001,2019_Feb_13_1434,body_behavioural,3.0.3,59.799281320272236,
5,"Lana walked into lecture holding hands with her boyfriend, Aaron, who was trying to contain his excitement and anticipation for proposing to Lana in this class. ",1,1,,,,0,5,5,5,,,,,0,0,0,0,,,,,,,,,,,,,,,,,,,,,,,,,,,,,,,1,12.919389574000206,,,,,,,,,,,,,,,,,,,,,,,,,,,,021519_p1,001,2019_Feb_13_1434,body_behavioural,3.0.3,59.799281320272236,
5,"Lana was lost in thought, still puzzling over a calculus problem on her problem set due that night.",1,1,,,,0,5,5,5,,,,,0,1,1,1,,,,,,,,,,,,,,,,,,,,,,,,,,,,,,,1,3.5197825430000194,,,,,,,,,,,,,,,,,,,,,,,,,,,,021519_p1,001,2019_Feb_13_1434,body_behavioural,3.0.3,59.799281320272236,
5,"The lecture hall was the fanciest one at Princeton, with chandeliers, high ceilings, wood floors and double-decker chalkboards.",1,1,,,,0,5,5,5,,,,,0,2,2,2,,,,,,,,,,,,,,,,,,,,,,,,,,,,,,,1,2.820705860999851,,,,,,,,,,,,,,,,,,,,,,,,,,,,021519_p1,001,2019_Feb_13_1434,body_behavioural,3.0.3,59.799281320272236,
5,"This is where Aaron and Lana had met two years ago during an economics class, and now they were back together in the same lecture hall for their Chemistry class. ",1,1,,,,0,5,5,5,,,,,0,3,3,3,,,,,,,,,,,,,,,,,,,,,,,,,,,,,,,9,6.817699024999911,,,,,,,,,,,,,,,,,,,,,,,,,,,,021519_p1,001,2019_Feb_13_1434,body_behavioural,3.0.3,59.799281320272236,
5,The professor caught Aaron's eye as he walked up to the front of the classroom and gave him a wink before the lecture began. ,1,1,,,,0,5,5,5,,,,,0,4,4,4,,,,,,,,,,,,,,,,,,,,,,,,,,,,,,,1,7.253615539999828,,,,,,,,,,,,,,,,,,,,,,,,,,,,021519_p1,001,2019_Feb_13_1434,body_behavioural,3.0.3,59.799281320272236,
5,Aaron responded with a huge grin. ,1,1,,,,0,5,5,5,,,,,0,5,5,5,,,,,,,,,,,,,,,,,,,,,,,,,,,,,,,1,1.5002223850001428,,,,,,,,,,,,,,,,,,,,,,,,,,,,021519_p1,001,2019_Feb_13_1434,body_behavioural,3.0.3,59.799281320272236,
5,"The professor cleared his throat and said,“Alright, good afternoon, everyone!",2,1,,,,0,5,5,5,,,,,0,6,6,6,,,,,,,,,,,,,,,,,,,,,,,,,,,,,,,1,1.3008425479999914,,,,,,,,,,,,,,,,,,,,,,,,,,,,021519_p1,001,2019_Feb_13_1434,body_behavioural,3.0.3,59.799281320272236,
5,"Last week we talked about the structure of the periodic table, and this week the topic is ions.",2,1,,,,0,5,5,5,,,,,0,7,7,7,,,,,,,,,,,,,,,,,,,,,,,,,,,,,,,1,1.3673833430000286,,,,,,,,,,,,,,,,,,,,,,,,,,,,021519_p1,001,2019_Feb_13_1434,body_behavioural,3.0.3,59.799281320272236,
5,These are atoms or molecules in which the number of electrons does not equal the number of protons.,2,1,,,,0,5,5,5,,,,,0,8,8,8,,,,,,,,,,,,,,,,,,,,,,,,,,,,,,,1,1.401142205000042,,,,,,,,,,,,,,,,,,,,,,,,,,,,021519_p1,001,2019_Feb_13_1434,body_behavioural,3.0.3,59.799281320272236,
5,"Now, let me get my computer set up, one moment, class.”",2,1,,,,0,5,5,5,,,,,0,9,9,9,,,,,,,,,,,,,,,,,,,,,,,,,,,,,,,1,2.1025353749998885,,,,,,,,,,,,,,,,,,,,,,,,,,,,021519_p1,001,2019_Feb_13_1434,body_behavioural,3.0.3,59.799281320272236,
5,Lana pulled out her Calculus problem set and puzzled over it.,2,1,,,,0,5,5,5,,,,,0,10,10,10,,,,,,,,,,,,,,,,,,,,,,,,,,,,,,,1,4.102926877000073,,,,,,,,,,,,,,,,,,,,,,,,,,,,021519_p1,001,2019_Feb_13_1434,body_behavioural,3.0.3,59.799281320272236,
5,"While she was distracted, Aaron unzipped the small pocket in his backpack and pulled out the ring box.",2,2,,,,0,5,5,5,,,,,0,11,11,11,,,,,,,,,,,,,,,,,,,,,,,,,,,,,,,1,2.3525044929999694,,,,,,,,,,,,,,,,,,,,,,,,,,,,021519_p1,001,2019_Feb_13_1434,body_behavioural,3.0.3,59.799281320272236,
5,He opened it up and looked at the ring.,2,2,,,,0,5,5,5,,,,,0,12,12,12,,,,,,,,,,,,,,,,,,,,,,,,,,,,,,,1,0.7694503430000168,,,,,,,,,,,,,,,,,,,,,,,,,,,,021519_p1,001,2019_Feb_13_1434,body_behavioural,3.0.3,59.799281320272236,
5,"Instead of one large diamond, there were 5 diamonds embedded in a thick band. ",2,2,,,,0,5,5,5,,,,,0,13,13,13,,,,,,,,,,,,,,,,,,,,,,,,,,,,,,,1,2.86916909699994,,,,,,,,,,,,,,,,,,,,,,,,,,,,021519_p1,001,2019_Feb_13_1434,body_behavioural,3.0.3,59.799281320272236,
5,He knew Lana would like this because her style was not flashy but more about simple elegance.,2,2,,,,0,5,5,5,,,,,0,14,14,14,,,,,,,,,,,,,,,,,,,,,,,,,,,,,,,1,2.5530121650001547,,,,,,,,,,,,,,,,,,,,,,,,,,,,021519_p1,001,2019_Feb_13_1434,body_behavioural,3.0.3,59.799281320272236,
5,Aaron put the ring back into the bag as the professor began the lecture. ,3,2,,,,0,5,5,5,,,,,0,15,15,15,,,,,,,,,,,,,,,,,,,,,,,,,,,,,,,1,4.936824504000015,,,,,,,,,,,,,,,,,,,,,,,,,,,,021519_p1,001,2019_Feb_13_1434,body_behavioural,3.0.3,59.799281320272236,
5,“Recall from previous lectures that the number of protons determines the identity of the element. ,3,2,,,,0,5,5,5,,,,,0,16,16,16,,,,,,,,,,,,,,,,,,,,,,,,,,,,,,,9,1.0850461659999837,,,,,,,,,,,,,,,,,,,,,,,,,,,,021519_p1,001,2019_Feb_13_1434,body_behavioural,3.0.3,59.799281320272236,
5,"So for example, all atoms of sodium have 11 protons in the nucleus. ",3,2,,,,0,5,5,5,,,,,0,17,17,17,,,,,,,,,,,,,,,,,,,,,,,,,,,,,,,1,1.152671016999875,,,,,,,,,,,,,,,,,,,,,,,,,,,,021519_p1,001,2019_Feb_13_1434,body_behavioural,3.0.3,59.799281320272236,
5,"And if you look on the periodic table, the atomic number for sodium, the symbol is Na, is eleven.”",3,2,,,,0,5,5,5,,,,,0,18,18,18,,,,,,,,,,,,,,,,,,,,,,,,,,,,,,,1,1.56966552699987,,,,,,,,,,,,,,,,,,,,,,,,,,,,021519_p1,001,2019_Feb_13_1434,body_behavioural,3.0.3,59.799281320272236,
5,Lana was taking notes while Aaron was texting all of his friends in the class to get ready for the proposal. ,3,2,,,,0,5,5,5,,,,,0,19,19,19,,,,,,,,,,,,,,,,,,,,,,,,,,,,,,,1,4.819615741000007,,,,,,,,,,,,,,,,,,,,,,,,,,,,021519_p1,001,2019_Feb_13_1434,body_behavioural,3.0.3,59.799281320272236,
5,"Right after talking about how two ions bond into one stable molecule by covalent bonds, the professor stopped the lecture and asked Lana to come to the front of the class to do a demonstration. ",3,2,,,,0,5,5,5,,,,,0,20,20,20,,,,,,,,,,,,,,,,,,,,,,,,,,,,,,,1,5.801837508000062,,,,,,,,,,,,,,,,,,,,,,,,,,,,021519_p1,001,2019_Feb_13_1434,body_behavioural,3.0.3,59.799281320272236,
5,"She walked to the front of the class confused, and the professor asked her to stand in the middle of the stage.",3,2,,,,0,5,5,5,,,,,0,21,21,21,,,,,,,,,,,,,,,,,,,,,,,,,,,,,,,1,4.484480814000108,,,,,,,,,,,,,,,,,,,,,,,,,,,,021519_p1,001,2019_Feb_13_1434,body_behavioural,3.0.3,59.799281320272236,
5,"Then Aaron walked up and, taking Lana’s hand, got down on one knee. ",3,3,,,,0,5,5,5,,,,,0,22,22,22,,,,,,,,,,,,,,,,,,,,,,,,,,,,,,,1,1.8350863529999515,,,,,,,,,,,,,,,,,,,,,,,,,,,,021519_p1,001,2019_Feb_13_1434,body_behavioural,3.0.3,59.799281320272236,
5,"“It's time for us to make a bond of our own, Lana.",3,3,,,,0,5,5,5,,,,,0,23,23,23,,,,,,,,,,,,,,,,,,,,,,,,,,,,,,,1,1.9025404999999864,,,,,,,,,,,,,,,,,,,,,,,,,,,,021519_p1,001,2019_Feb_13_1434,body_behavioural,3.0.3,59.799281320272236,
5,Will you marry me?” ,3,3,,,,0,5,5,5,,,,,0,24,24,24,,,,,,,,,,,,,,,,,,,,,,,,,,,,,,,1,1.102521232000072,,,,,,,,,,,,,,,,,,,,,,,,,,,,021519_p1,001,2019_Feb_13_1434,body_behavioural,3.0.3,59.799281320272236,
5,Lana gasped and put her other hand to her mouth and started looking around the room as if trying to convince herself that this was really happening.,3,3,,,,0,5,5,5,,,,,0,25,25,25,,,,,,,,,,,,,,,,,,,,,,,,,,,,,,,9,8.669927912000048,,,,,,,,,,,,,,,,,,,,,,,,,,,,021519_p1,001,2019_Feb_13_1434,body_behavioural,3.0.3,59.799281320272236,
5,For a few moments everyone was in suspense waiting for the Lana’s shock to wear off and for her to answer. ,3,3,,,,0,5,5,5,,,,,0,26,26,26,,,,,,,,,,,,,,,,,,,,,,,,,,,,,,,1,1.4368072039999333,,,,,,,,,,,,,,,,,,,,,,,,,,,,021519_p1,001,2019_Feb_13_1434,body_behavioural,3.0.3,59.799281320272236,
5,"Finally, she said, “Yes!”",3,4,,,,0,5,5,5,,,,,0,27,27,27,,,,,,,,,,,,,,,,,,,,,,,,,,,,,,,1,0.8028177030000734,,,,,,,,,,,,,,,,,,,,,,,,,,,,021519_p1,001,2019_Feb_13_1434,body_behavioural,3.0.3,59.799281320272236,
5,"Aaron put the ring on her finger, and they hugged while the whole class clapped. ",3,4,,,,0,5,5,5,,,,,0,28,28,28,,,,,,,,,,,,,,,,,,,,,,,,,,,,,,,1,1.4850004099998841,,,,,,,,,,,,,,,,,,,,,,,,,,,,021519_p1,001,2019_Feb_13_1434,body_behavioural,3.0.3,59.799281320272236,
5,"Their friends came up and hugged both of them, and the professor gave Aaron a celebratory handshake.",3,4,,,,0,5,5,5,,,,,0,29,29,29,,,,,,,,,,,,,,,,,,,,,,,,,,,,,,,1,1.3504542050000055,,,,,,,,,,,,,,,,,,,,,,,,,,,,021519_p1,001,2019_Feb_13_1434,body_behavioural,3.0.3,59.799281320272236,
5,"They made their way back to their seats, Lana and Aaron hand-in-hand and beaming. ",3,4,,,,0,5,5,5,,,,,0,30,30,30,,,,,,,,,,,,,,,,,,,,,,,,,,,,,,,1,4.536575444999926,,,,,,,,,,,,,,,,,,,,,,,,,,,,021519_p1,001,2019_Feb_13_1434,body_behavioural,3.0.3,59.799281320272236,
5,"The professor then dismissed the class, saying, “That was enough excitement for today!",4,4,,,,0,5,5,5,,,,,0,31,31,31,,,,,,,,,,,,,,,,,,,,,,,,,,,,,,,1,3.0836907249999967,,,,,,,,,,,,,,,,,,,,,,,,,,,,021519_p1,001,2019_Feb_13_1434,body_behavioural,3.0.3,59.799281320272236,
5,Don’t forget there’s an exam next week on the first two chapters of the textbook.”,4,4,,,,0,5,5,5,,,,,0,32,32,32,,,,,,,,,,,,,,,,,,,,,,,,,,,,,,,1,2.069296744999974,,,,,,,,,,,,,,,,,,,,,,,,,,,,021519_p1,001,2019_Feb_13_1434,body_behavioural,3.0.3,59.799281320272236,
5,"As everyone was packing up their notebooks and leaving, Lana was already on her phone calling her family members to tell them the exciting news.",4,4,,,,0,5,5,5,,,,,0,33,33,33,,,,,,,,,,,,,,,,,,,,,,,,,,,,,,,9,1.0169521219997932,,,,,,,,,,,,,,,,,,,,,,,,,,,,021519_p1,001,2019_Feb_13_1434,body_behavioural,3.0.3,59.799281320272236,
5,,,,,,,0,5,5,5,,,,,,,,,,,,,,,,,,,,,,,,,,,,,,,,,,,,,,,,,,,,,,,,,,,,,,,,,,,,,,,,,,,,021519_p1,001,2019_Feb_13_1434,body_behavioural,3.0.3,59.799281320272236,
6,,,,,,,0,6,6,6,0,0,0,0,,,,,,,,,,,,,,,,,,,,,,,,,,,,,space,2.6858726600000864,space,2.0863238510000883,space,0.6365218729999924,,,,,,,,,,,,,,,,,,,,,,,,,,,,,,021519_p1,001,2019_Feb_13_1434,body_behavioural,3.0.3,59.799281320272236,
6,"Alex was a distracted, sweaty mess as he walked into the grocery store with Chloe; he was hoping that she wouldn't suspect that he was about to propose.",1,1,,,,0,6,6,6,,,,,0,0,0,0,,,,,,,,,,,,,,,,,,,,,,,,,,,,,,,1,10.78650602699986,,,,,,,,,,,,,,,,,,,,,,,,,,,,021519_p1,001,2019_Feb_13_1434,body_behavioural,3.0.3,59.799281320272236,
6,"The grocery store was brightly lit; this was one of the nicest grocery stores in Atlanta, and sunlight poured in through the glass walls.",1,1,,,,0,6,6,6,,,,,0,1,1,1,,,,,,,,,,,,,,,,,,,,,,,,,,,,,,,1,1.5864562719998503,,,,,,,,,,,,,,,,,,,,,,,,,,,,021519_p1,001,2019_Feb_13_1434,body_behavioural,3.0.3,59.799281320272236,
6,"The atmosphere was also bright because tomorrow was Thanksgiving, and most shoppers had carts piled high with turkey, stuffing, and pies.",1,1,,,,0,6,6,6,,,,,0,2,2,2,,,,,,,,,,,,,,,,,,,,,,,,,,,,,,,1,1.0363868599999932,,,,,,,,,,,,,,,,,,,,,,,,,,,,021519_p1,001,2019_Feb_13_1434,body_behavioural,3.0.3,59.799281320272236,
6,Alex wanted to propose to Chloe here because he knew she would not suspect it at all. ,1,1,,,,0,6,6,6,,,,,0,3,3,3,,,,,,,,,,,,,,,,,,,,,,,,,,,,,,,1,2.5180162439999094,,,,,,,,,,,,,,,,,,,,,,,,,,,,021519_p1,001,2019_Feb_13_1434,body_behavioural,3.0.3,59.799281320272236,
6,"Chloe loved surprises, and Alex loved the look on Chloe’s face when she was surprised. ",1,1,,,,0,6,6,6,,,,,0,4,4,4,,,,,,,,,,,,,,,,,,,,,,,,,,,,,,,1,8.867826194999907,,,,,,,,,,,,,,,,,,,,,,,,,,,,021519_p1,001,2019_Feb_13_1434,body_behavioural,3.0.3,59.799281320272236,
6,"“Alex, we need to get some cranberry sauce, so let’s go there first.” ",2,1,,,,0,6,6,6,,,,,0,5,5,5,,,,,,,,,,,,,,,,,,,,,,,,,,,,,,,1,1.7862924800001565,,,,,,,,,,,,,,,,,,,,,,,,,,,,021519_p1,001,2019_Feb_13_1434,body_behavioural,3.0.3,59.799281320272236,
6,She led the way to the section of the store that held the canned foods. ,2,1,,,,0,6,6,6,,,,,0,6,6,6,,,,,,,,,,,,,,,,,,,,,,,,,,,,,,,1,1.3523609319997831,,,,,,,,,,,,,,,,,,,,,,,,,,,,021519_p1,001,2019_Feb_13_1434,body_behavioural,3.0.3,59.799281320272236,
6,Alex looked like he was going to throw up. ,2,1,,,,0,6,6,6,,,,,0,7,7,7,,,,,,,,,,,,,,,,,,,,,,,,,,,,,,,1,2.0196482409999135,,,,,,,,,,,,,,,,,,,,,,,,,,,,021519_p1,001,2019_Feb_13_1434,body_behavioural,3.0.3,59.799281320272236,
6,"As they were walking there, Chloe asked him, “Is everything okay, dear?”",2,1,,,,0,6,6,6,,,,,0,8,8,8,,,,,,,,,,,,,,,,,,,,,,,,,,,,,,,9,3.985364681999954,,,,,,,,,,,,,,,,,,,,,,,,,,,,021519_p1,001,2019_Feb_13_1434,body_behavioural,3.0.3,59.799281320272236,
6,"“Oh yeah, for sure,” he said, unconvincingly. ",2,1,,,,0,6,6,6,,,,,0,9,9,9,,,,,,,,,,,,,,,,,,,,,,,,,,,,,,,1,0.7522669720001431,,,,,,,,,,,,,,,,,,,,,,,,,,,,021519_p1,001,2019_Feb_13_1434,body_behavioural,3.0.3,59.799281320272236,
6,"She chuckled, “Alright, whatever you say.” ",2,1,,,,0,6,6,6,,,,,0,10,10,10,,,,,,,,,,,,,,,,,,,,,,,,,,,,,,,1,0.8508330099998602,,,,,,,,,,,,,,,,,,,,,,,,,,,,021519_p1,001,2019_Feb_13_1434,body_behavioural,3.0.3,59.799281320272236,
6,"She was mulling over the different cans of cranberry sauce, and Alex knew she would be a while.",2,1,,,,0,6,6,6,,,,,0,11,11,11,,,,,,,,,,,,,,,,,,,,,,,,,,,,,,,1,2.2198519989999568,,,,,,,,,,,,,,,,,,,,,,,,,,,,021519_p1,001,2019_Feb_13_1434,body_behavioural,3.0.3,59.799281320272236,
6,He turned his back to her and pulled out the ring.,2,2,,,,0,6,6,6,,,,,0,12,12,12,,,,,,,,,,,,,,,,,,,,,,,,,,,,,,,1,2.436821266999914,,,,,,,,,,,,,,,,,,,,,,,,,,,,021519_p1,001,2019_Feb_13_1434,body_behavioural,3.0.3,59.799281320272236,
6,He had been saving up for this for a while. ,2,2,,,,0,6,6,6,,,,,0,13,13,13,,,,,,,,,,,,,,,,,,,,,,,,,,,,,,,1,1.1169454850000875,,,,,,,,,,,,,,,,,,,,,,,,,,,,021519_p1,001,2019_Feb_13_1434,body_behavioural,3.0.3,59.799281320272236,
6,The ring had three large diamonds with smaller ones encircling each one: all of them sparkled in the light streaming in from the windows. ,2,2,,,,0,6,6,6,,,,,0,14,14,14,,,,,,,,,,,,,,,,,,,,,,,,,,,,,,,1,1.4847946990000764,,,,,,,,,,,,,,,,,,,,,,,,,,,,021519_p1,001,2019_Feb_13_1434,body_behavioural,3.0.3,59.799281320272236,
6,"“Alex?”, Chloe said suspiciously. ",2,2,,,,0,6,6,6,,,,,0,15,15,15,,,,,,,,,,,,,,,,,,,,,,,,,,,,,,,1,1.8037539660001585,,,,,,,,,,,,,,,,,,,,,,,,,,,,021519_p1,001,2019_Feb_13_1434,body_behavioural,3.0.3,59.799281320272236,
6,He closed the box and whipped around. “Yes?”,2,2,,,,0,6,6,6,,,,,0,16,16,16,,,,,,,,,,,,,,,,,,,,,,,,,,,,,,,1,3.1029066539999803,,,,,,,,,,,,,,,,,,,,,,,,,,,,021519_p1,001,2019_Feb_13_1434,body_behavioural,3.0.3,59.799281320272236,
6,“Do we need anything else?”,2,2,,,,0,6,6,6,,,,,0,17,17,17,,,,,,,,,,,,,,,,,,,,,,,,,,,,,,,1,2.918880878000209,,,,,,,,,,,,,,,,,,,,,,,,,,,,021519_p1,001,2019_Feb_13_1434,body_behavioural,3.0.3,59.799281320272236,
6,"“Yeah I don’t know, honey.” ",2,2,,,,0,6,6,6,,,,,0,18,18,18,,,,,,,,,,,,,,,,,,,,,,,,,,,,,,,1,1.2027186850000362,,,,,,,,,,,,,,,,,,,,,,,,,,,,021519_p1,001,2019_Feb_13_1434,body_behavioural,3.0.3,59.799281320272236,
6,They went to the checkout and waited in a long line.,3,2,,,,0,6,6,6,,,,,0,19,19,19,,,,,,,,,,,,,,,,,,,,,,,,,,,,,,,9,3.33750324000016,,,,,,,,,,,,,,,,,,,,,,,,,,,,021519_p1,001,2019_Feb_13_1434,body_behavioural,3.0.3,59.799281320272236,
6,Alex was staring intensely off into the distance. ,3,2,,,,0,6,6,6,,,,,0,20,20,20,,,,,,,,,,,,,,,,,,,,,,,,,,,,,,,1,1.9366133099999843,,,,,,,,,,,,,,,,,,,,,,,,,,,,021519_p1,001,2019_Feb_13_1434,body_behavioural,3.0.3,59.799281320272236,
6,Chloe was watching him trying to decide whether he looked scared or confused. ,3,2,,,,0,6,6,6,,,,,0,21,21,21,,,,,,,,,,,,,,,,,,,,,,,,,,,,,,,1,5.188577824000049,,,,,,,,,,,,,,,,,,,,,,,,,,,,021519_p1,001,2019_Feb_13_1434,body_behavioural,3.0.3,59.799281320272236,
6,Alex looked over at their friends who were waiting by the entrance of the grocery store.,3,2,,,,0,6,6,6,,,,,0,22,22,22,,,,,,,,,,,,,,,,,,,,,,,,,,,,,,,1,5.554105747999984,,,,,,,,,,,,,,,,,,,,,,,,,,,,021519_p1,001,2019_Feb_13_1434,body_behavioural,3.0.3,59.799281320272236,
6,They got the message and walked over slowly. ,3,2,,,,0,6,6,6,,,,,0,23,23,23,,,,,,,,,,,,,,,,,,,,,,,,,,,,,,,1,1.937068613999827,,,,,,,,,,,,,,,,,,,,,,,,,,,,021519_p1,001,2019_Feb_13_1434,body_behavioural,3.0.3,59.799281320272236,
6,"“Honey,” he said to get her attention, “Look, Chloe, I love you so much and I want to be with you forever, I can’t imagine a day without you.”",3,2,,,,0,6,6,6,,,,,0,24,24,24,,,,,,,,,,,,,,,,,,,,,,,,,,,,,,,9,3.9522542249999333,,,,,,,,,,,,,,,,,,,,,,,,,,,,021519_p1,001,2019_Feb_13_1434,body_behavioural,3.0.3,59.799281320272236,
6,"“Awww, Alex, me too.”",3,2,,,,0,6,6,6,,,,,0,25,25,25,,,,,,,,,,,,,,,,,,,,,,,,,,,,,,,1,1.1671625630001472,,,,,,,,,,,,,,,,,,,,,,,,,,,,021519_p1,001,2019_Feb_13_1434,body_behavioural,3.0.3,59.799281320272236,
6,"Alex got down on one knee, and Chloe gasped. ",3,3,,,,0,6,6,6,,,,,0,26,26,26,,,,,,,,,,,,,,,,,,,,,,,,,,,,,,,1,1.0662317430001167,,,,,,,,,,,,,,,,,,,,,,,,,,,,021519_p1,001,2019_Feb_13_1434,body_behavioural,3.0.3,59.799281320272236,
6,"“I am serious, Chloe. Will you marry me?”",3,3,,,,0,6,6,6,,,,,0,27,27,27,,,,,,,,,,,,,,,,,,,,,,,,,,,,,,,1,1.6871212550001928,,,,,,,,,,,,,,,,,,,,,,,,,,,,021519_p1,001,2019_Feb_13_1434,body_behavioural,3.0.3,59.799281320272236,
6,"The people in line around them realized what was happening, stepped back, and started taking pictures.",3,3,,,,0,6,6,6,,,,,0,28,28,28,,,,,,,,,,,,,,,,,,,,,,,,,,,,,,,1,3.237583855000139,,,,,,,,,,,,,,,,,,,,,,,,,,,,021519_p1,001,2019_Feb_13_1434,body_behavioural,3.0.3,59.799281320272236,
6,Their friends were no longer trying to hide and were videotaping and taking pictures too. ,3,3,,,,0,6,6,6,,,,,0,29,29,29,,,,,,,,,,,,,,,,,,,,,,,,,,,,,,,1,1.0521835279998868,,,,,,,,,,,,,,,,,,,,,,,,,,,,021519_p1,001,2019_Feb_13_1434,body_behavioural,3.0.3,59.799281320272236,
6,Chloe looked around and laughed. ,3,3,,,,0,6,6,6,,,,,0,30,30,30,,,,,,,,,,,,,,,,,,,,,,,,,,,,,,,1,0.8007228740000301,,,,,,,,,,,,,,,,,,,,,,,,,,,,021519_p1,001,2019_Feb_13_1434,body_behavioural,3.0.3,59.799281320272236,
6,"“Yes!” she shouted, and jumped to embrace Alex in a hug. ",3,4,,,,0,6,6,6,,,,,0,31,31,31,,,,,,,,,,,,,,,,,,,,,,,,,,,,,,,1,0.7877238710000256,,,,,,,,,,,,,,,,,,,,,,,,,,,,021519_p1,001,2019_Feb_13_1434,body_behavioural,3.0.3,59.799281320272236,
6,Everyone in line clapped and cheered. ,3,4,,,,0,6,6,6,,,,,0,32,32,32,,,,,,,,,,,,,,,,,,,,,,,,,,,,,,,1,1.6357202920000873,,,,,,,,,,,,,,,,,,,,,,,,,,,,021519_p1,001,2019_Feb_13_1434,body_behavioural,3.0.3,59.799281320272236,
6,"Alex put the ring on Chloe’s finger, who was nearly spinning in excitement.",3,4,,,,0,6,6,6,,,,,0,33,33,33,,,,,,,,,,,,,,,,,,,,,,,,,,,,,,,1,2.353499759999977,,,,,,,,,,,,,,,,,,,,,,,,,,,,021519_p1,001,2019_Feb_13_1434,body_behavioural,3.0.3,59.799281320272236,
6,"“I love it, oh my gosh, it’s so glittery!",3,4,,,,0,6,6,6,,,,,0,34,34,34,,,,,,,,,,,,,,,,,,,,,,,,,,,,,,,1,1.2167147010000008,,,,,,,,,,,,,,,,,,,,,,,,,,,,021519_p1,001,2019_Feb_13_1434,body_behavioural,3.0.3,59.799281320272236,
6,Look at this!” she said as she shoved her hand in a stranger’s face.,3,4,,,,0,6,6,6,,,,,0,35,35,35,,,,,,,,,,,,,,,,,,,,,,,,,,,,,,,9,4.285853078000173,,,,,,,,,,,,,,,,,,,,,,,,,,,,021519_p1,001,2019_Feb_13_1434,body_behavioural,3.0.3,59.799281320272236,
6,Her friends came over and hugged them.,3,4,,,,0,6,6,6,,,,,0,36,36,36,,,,,,,,,,,,,,,,,,,,,,,,,,,,,,,1,1.1875569259998429,,,,,,,,,,,,,,,,,,,,,,,,,,,,021519_p1,001,2019_Feb_13_1434,body_behavioural,3.0.3,59.799281320272236,
6,The other people let them move up to the front of the checkout line. ,3,4,,,,0,6,6,6,,,,,0,37,37,37,,,,,,,,,,,,,,,,,,,,,,,,,,,,,,,1,2.2705309000000398,,,,,,,,,,,,,,,,,,,,,,,,,,,,021519_p1,001,2019_Feb_13_1434,body_behavioural,3.0.3,59.799281320272236,
6,The cashier congratulated them and scanned their cranberry sauce. ,4,4,,,,0,6,6,6,,,,,0,38,38,38,,,,,,,,,,,,,,,,,,,,,,,,,,,,,,,1,1.4689628149999407,,,,,,,,,,,,,,,,,,,,,,,,,,,,021519_p1,001,2019_Feb_13_1434,body_behavioural,3.0.3,59.799281320272236,
6,The total came to $4 and Chloe paid in cash while getting distracted and staring at the ring as she pulled out the bills.,4,4,,,,0,6,6,6,,,,,0,39,39,39,,,,,,,,,,,,,,,,,,,,,,,,,,,,,,,1,13.236451149999994,,,,,,,,,,,,,,,,,,,,,,,,,,,,021519_p1,001,2019_Feb_13_1434,body_behavioural,3.0.3,59.799281320272236,
6,"Alex grabbed the cans, and they walked out with their friends bunched around them. ",4,4,,,,0,6,6,6,,,,,0,40,40,40,,,,,,,,,,,,,,,,,,,,,,,,,,,,,,,1,4.00285785799997,,,,,,,,,,,,,,,,,,,,,,,,,,,,021519_p1,001,2019_Feb_13_1434,body_behavioural,3.0.3,59.799281320272236,
6,,,,,,,0,6,6,6,,,,,,,,,,,,,,,,,,,,,,,,,,,,,,,,,,,,,,,,,,,,,,,,,,,,,,,,,,,,,,,,,,,,021519_p1,001,2019_Feb_13_1434,body_behavioural,3.0.3,59.799281320272236,
7,,,,,,,0,7,7,7,0,0,0,0,,,,,,,,,,,,,,,,,,,,,,,,,,,,,space,0.768667841000024,space,0.6178039379999518,space,0.9879948320001404,,,,,,,,,,,,,,,,,,,,,,,,,,,,,,021519_p1,001,2019_Feb_13_1434,body_behavioural,3.0.3,59.799281320272236,
7,"Jeff, hoping that today would be a pivotal day for his new business, had only been waiting inside the doors of the airport for a few minutes when he saw William and eagerly waved him over. ",1,1,,,,0,7,7,7,,,,,0,0,0,0,,,,,,,,,,,,,,,,,,,,,,,,,,,,,,,1,13.60354743999983,,,,,,,,,,,,,,,,,,,,,,,,,,,,021519_p1,001,2019_Feb_13_1434,body_behavioural,3.0.3,59.799281320272236,
7,"Jeff, checking his watch, was pleased to see that the two of them had two hours to discuss business before their flights left Boston.",1,1,,,,0,7,7,7,,,,,0,1,1,1,,,,,,,,,,,,,,,,,,,,,,,,,,,,,,,1,5.10207939299994,,,,,,,,,,,,,,,,,,,,,,,,,,,,021519_p1,001,2019_Feb_13_1434,body_behavioural,3.0.3,59.799281320272236,
7,The two had met the night before in line for the bathroom at a local bar. ,1,1,,,,0,7,7,7,,,,,0,2,2,2,,,,,,,,,,,,,,,,,,,,,,,,,,,,,,,9,3.019439465000005,,,,,,,,,,,,,,,,,,,,,,,,,,,,021519_p1,001,2019_Feb_13_1434,body_behavioural,3.0.3,59.799281320272236,
7,"Jeff had delivered some surprisingly-detailed complaints to William about the wine selection, and they quickly learned that Jeff was a representative for wine vineyards in the Northeast and William was a wine buyer for corporate events.",1,1,,,,0,7,7,7,,,,,0,3,3,3,,,,,,,,,,,,,,,,,,,,,,,,,,,,,,,1,3.934467752000046,,,,,,,,,,,,,,,,,,,,,,,,,,,,021519_p1,001,2019_Feb_13_1434,body_behavioural,3.0.3,59.799281320272236,
7,"Since they both had flights out of Boston at the same time, they had agreed to meet at the airport and talk about potentially doing business. ",1,1,,,,0,7,7,7,,,,,0,4,4,4,,,,,,,,,,,,,,,,,,,,,,,,,,,,,,,1,3.8839461510001456,,,,,,,,,,,,,,,,,,,,,,,,,,,,021519_p1,001,2019_Feb_13_1434,body_behavioural,3.0.3,59.799281320272236,
7,"They headed to security together, pleased to find that the line was not so long, and they chatted a little as they were waiting. ",2,1,,,,0,7,7,7,,,,,0,5,5,5,,,,,,,,,,,,,,,,,,,,,,,,,,,,,,,1,5.084874935000016,,,,,,,,,,,,,,,,,,,,,,,,,,,,021519_p1,001,2019_Feb_13_1434,body_behavioural,3.0.3,59.799281320272236,
7,"“It’s crazy that we met last night,” William said, “I am flying out right now to meet my boss, and was worried that I was going to show up empty handed without any local retailer prepared.” ",2,1,,,,0,7,7,7,,,,,0,6,6,6,,,,,,,,,,,,,,,,,,,,,,,,,,,,,,,9,1.86840112699997,,,,,,,,,,,,,,,,,,,,,,,,,,,,021519_p1,001,2019_Feb_13_1434,body_behavioural,3.0.3,59.799281320272236,
7,"“I know, what are the chances, right?” Jeff said.",2,1,,,,0,7,7,7,,,,,0,7,7,7,,,,,,,,,,,,,,,,,,,,,,,,,,,,,,,1,1.0201490599999943,,,,,,,,,,,,,,,,,,,,,,,,,,,,021519_p1,001,2019_Feb_13_1434,body_behavioural,3.0.3,59.799281320272236,
7,"William laughed and said, “I’m glad our shared complaining can come in handy.",2,1,,,,0,7,7,7,,,,,0,8,8,8,,,,,,,,,,,,,,,,,,,,,,,,,,,,,,,1,0.9031370180000522,,,,,,,,,,,,,,,,,,,,,,,,,,,,021519_p1,001,2019_Feb_13_1434,body_behavioural,3.0.3,59.799281320272236,
7,"I know this is fast, but I'd like to get right down to specifics.",2,2,,,,0,7,7,7,,,,,0,9,9,9,,,,,,,,,,,,,,,,,,,,,,,,,,,,,,,1,0.9002837699999873,,,,,,,,,,,,,,,,,,,,,,,,,,,,021519_p1,001,2019_Feb_13_1434,body_behavioural,3.0.3,59.799281320272236,
7,I'd like to order a couple of sample shipments from you and present them to our corporate buyers.,2,2,,,,0,7,7,7,,,,,0,10,10,10,,,,,,,,,,,,,,,,,,,,,,,,,,,,,,,1,2.887662223999996,,,,,,,,,,,,,,,,,,,,,,,,,,,,021519_p1,001,2019_Feb_13_1434,body_behavioural,3.0.3,59.799281320272236,
7,"Typically we expect to get these kinds of samples at a deep discount, at least half-off the label price.",2,2,,,,0,7,7,7,,,,,0,11,11,11,,,,,,,,,,,,,,,,,,,,,,,,,,,,,,,1,5.0714886690000185,,,,,,,,,,,,,,,,,,,,,,,,,,,,021519_p1,001,2019_Feb_13_1434,body_behavioural,3.0.3,59.799281320272236,
7,"This is nothing, okay, compared to what you will be making if one of these buyers makes a contract.",2,2,,,,0,7,7,7,,,,,0,12,12,12,,,,,,,,,,,,,,,,,,,,,,,,,,,,,,,1,2.5369287779999468,,,,,,,,,,,,,,,,,,,,,,,,,,,,021519_p1,001,2019_Feb_13_1434,body_behavioural,3.0.3,59.799281320272236,
7,So I propose that you send us $600 worth of wine shipments for a price of $300.”,2,2,,,,0,7,7,7,,,,,0,13,13,13,,,,,,,,,,,,,,,,,,,,,,,,,,,,,,,1,2.7369112569999743,,,,,,,,,,,,,,,,,,,,,,,,,,,,021519_p1,001,2019_Feb_13_1434,body_behavioural,3.0.3,59.799281320272236,
7,"When it was their turn to go through the metal detector, they took off their shoes and pulled out their laptops.",2,2,,,,0,7,7,7,,,,,0,14,14,14,,,,,,,,,,,,,,,,,,,,,,,,,,,,,,,9,4.3036542380000355,,,,,,,,,,,,,,,,,,,,,,,,,,,,021519_p1,001,2019_Feb_13_1434,body_behavioural,3.0.3,59.799281320272236,
7,"Jeff mulled over the offer, nodding noncommittally to William's pitch as they proceeded through the metal detector and retrieved their belongings.",2,2,,,,0,7,7,7,,,,,0,15,15,15,,,,,,,,,,,,,,,,,,,,,,,,,,,,,,,1,1.1198620600000595,,,,,,,,,,,,,,,,,,,,,,,,,,,,021519_p1,001,2019_Feb_13_1434,body_behavioural,3.0.3,59.799281320272236,
7,"They began to walk through the concourse, and William handed some printed spreadsheets to Jeff as they navigated toward their gates at the end of the terminal.",3,2,,,,0,7,7,7,,,,,0,16,16,16,,,,,,,,,,,,,,,,,,,,,,,,,,,,,,,1,3.1702367550001327,,,,,,,,,,,,,,,,,,,,,,,,,,,,021519_p1,001,2019_Feb_13_1434,body_behavioural,3.0.3,59.799281320272236,
7,"Jeff, weaving through the crowds of travelers, squinted at William's rosy projections of the number of bottles he could be able to purchase in the future.",3,2,,,,0,7,7,7,,,,,0,17,17,17,,,,,,,,,,,,,,,,,,,,,,,,,,,,,,,1,4.369585661999963,,,,,,,,,,,,,,,,,,,,,,,,,,,,021519_p1,001,2019_Feb_13_1434,body_behavioural,3.0.3,59.799281320272236,
7,"Finally Jeff said, “I don’t know, we’re not coming from corporate vineyards, so gambling with sample shipments is the kind of risk we can’t necessarily make. ",3,3,,,,0,7,7,7,,,,,0,18,18,18,,,,,,,,,,,,,,,,,,,,,,,,,,,,,,,1,7.919592315000045,,,,,,,,,,,,,,,,,,,,,,,,,,,,021519_p1,001,2019_Feb_13_1434,body_behavioural,3.0.3,59.799281320272236,
7,"These corporate purchases would have to be huge and practically guaranteed, to offset the loss from selling sample shipments at this price.”",3,3,,,,0,7,7,7,,,,,0,19,19,19,,,,,,,,,,,,,,,,,,,,,,,,,,,,,,,1,4.853548403999866,,,,,,,,,,,,,,,,,,,,,,,,,,,,021519_p1,001,2019_Feb_13_1434,body_behavioural,3.0.3,59.799281320272236,
7,"They walked to the gates very slowly, barely registering the hubbub of the airport since they were so caught up in figuring out this deal before their flights left.",3,3,,,,0,7,7,7,,,,,0,20,20,20,,,,,,,,,,,,,,,,,,,,,,,,,,,,,,,9,1.3525605750000977,,,,,,,,,,,,,,,,,,,,,,,,,,,,021519_p1,001,2019_Feb_13_1434,body_behavioural,3.0.3,59.799281320272236,
7,"At the end of their long walk, they got to Jeff’s gate first, which had begun boarding passengers.",3,3,,,,0,7,7,7,,,,,0,21,21,21,,,,,,,,,,,,,,,,,,,,,,,,,,,,,,,1,0.8678853910000726,,,,,,,,,,,,,,,,,,,,,,,,,,,,021519_p1,001,2019_Feb_13_1434,body_behavioural,3.0.3,59.799281320272236,
7,"In these last minutes, William and Jeff agreed on a compromise rate on the sample shipment, paying $400 for a $600 shipment, and they finalized the deal with a handshake. ",3,4,,,,0,7,7,7,,,,,0,22,22,22,,,,,,,,,,,,,,,,,,,,,,,,,,,,,,,1,1.0035988020001696,,,,,,,,,,,,,,,,,,,,,,,,,,,,021519_p1,001,2019_Feb_13_1434,body_behavioural,3.0.3,59.799281320272236,
7,"“Well, what a tremendous pleasure to do business with you and to have all this work out,” William said.",3,4,,,,0,7,7,7,,,,,0,23,23,23,,,,,,,,,,,,,,,,,,,,,,,,,,,,,,,1,3.301685862999875,,,,,,,,,,,,,,,,,,,,,,,,,,,,021519_p1,001,2019_Feb_13_1434,body_behavioural,3.0.3,59.799281320272236,
7,"Jeff nodded enthusiastically, and responded, “Likewise, this has been great.  ",3,4,,,,0,7,7,7,,,,,0,24,24,24,,,,,,,,,,,,,,,,,,,,,,,,,,,,,,,1,2.887144251999871,,,,,,,,,,,,,,,,,,,,,,,,,,,,021519_p1,001,2019_Feb_13_1434,body_behavioural,3.0.3,59.799281320272236,
7,I'll let you get to your gate.,3,4,,,,0,7,7,7,,,,,0,25,25,25,,,,,,,,,,,,,,,,,,,,,,,,,,,,,,,1,2.503712956999834,,,,,,,,,,,,,,,,,,,,,,,,,,,,021519_p1,001,2019_Feb_13_1434,body_behavioural,3.0.3,59.799281320272236,
7,"Once we’re both back on the ground, we can get all the shipments in the books.”",3,4,,,,0,7,7,7,,,,,0,26,26,26,,,,,,,,,,,,,,,,,,,,,,,,,,,,,,,1,3.8534499080001297,,,,,,,,,,,,,,,,,,,,,,,,,,,,021519_p1,001,2019_Feb_13_1434,body_behavioural,3.0.3,59.799281320272236,
7,They parted with a wave as Jeff scanned his boarding pass at the gate. ,3,4,,,,0,7,7,7,,,,,0,27,27,27,,,,,,,,,,,,,,,,,,,,,,,,,,,,,,,9,1.4029892480000399,,,,,,,,,,,,,,,,,,,,,,,,,,,,021519_p1,001,2019_Feb_13_1434,body_behavioural,3.0.3,59.799281320272236,
7,He walked onto the plane and sat down in his aisle seat in the business class section.,4,4,,,,0,7,7,7,,,,,0,28,28,28,,,,,,,,,,,,,,,,,,,,,,,,,,,,,,,1,1.0020368880000206,,,,,,,,,,,,,,,,,,,,,,,,,,,,021519_p1,001,2019_Feb_13_1434,body_behavioural,3.0.3,59.799281320272236,
7,He typed out a quick email on his phone letting the rest of his team know the good news. ,4,4,,,,0,7,7,7,,,,,0,29,29,29,,,,,,,,,,,,,,,,,,,,,,,,,,,,,,,1,1.003072647999943,,,,,,,,,,,,,,,,,,,,,,,,,,,,021519_p1,001,2019_Feb_13_1434,body_behavioural,3.0.3,59.799281320272236,
7,"When the flight attendant came by, he ordered a glass of champagne to celebrate.",4,4,,,,0,7,7,7,,,,,0,30,30,30,,,,,,,,,,,,,,,,,,,,,,,,,,,,,,,1,2.951322594999965,,,,,,,,,,,,,,,,,,,,,,,,,,,,021519_p1,001,2019_Feb_13_1434,body_behavioural,3.0.3,59.799281320272236,
7,,,,,,,0,7,7,7,,,,,,,,,,,,,,,,,,,,,,,,,,,,,,,,,,,,,,,,,,,,,,,,,,,,,,,,,,,,,,,,,,,,021519_p1,001,2019_Feb_13_1434,body_behavioural,3.0.3,59.799281320272236,
,,,,,,,,,,,,,,,,,,,,,,,,,,,,,,,,,,,,,,,,,,,,,,,,,,,1351.189763765,space,2.6034152980000727,,,,,,,,,,,,,,,,,,,,,,,,,021519_p1,001,2019_Feb_13_1434,body_behavioural,3.0.3,59.799281320272236,
,,,,,,The next task in the experiment is to recall each story to the best of your ability.,,,,,,,,,,,,,0,0,0,0,,,,,,,,,,,,,,,,,,,,,,,,,,,,,,,,space,6.186665464999805,,,,,,,,,,,,,,,,,,,,,,,021519_p1,001,2019_Feb_13_1434,body_behavioural,3.0.3,59.799281320272236,
,,,,,,"You will be presented with the story title, names, the images, and a blank text box for each story.",,,,,,,,,,,,,0,1,1,1,,,,,,,,,,,,,,,,,,,,,,,,,,,,,,,,space,4.253593599999931,,,,,,,,,,,,,,,,,,,,,,,021519_p1,001,2019_Feb_13_1434,body_behavioural,3.0.3,59.799281320272236,
,,,,,,Describe the story with as many details as you can remember in the space provided. ,,,,,,,,,,,,,0,2,2,2,,,,,,,,,,,,,,,,,,,,,,,,,,,,,,,,space,5.536686516999907,,,,,,,,,,,,,,,,,,,,,,,021519_p1,001,2019_Feb_13_1434,body_behavioural,3.0.3,59.799281320272236,
,,,,,,"When you are finished recalling one story, to move onto the next one hit ‘return’. ",,,,,,,,,,,,,0,3,3,3,,,,,,,,,,,,,,,,,,,,,,,,,,,,,,,,space,4.533937138000056,,,,,,,,,,,,,,,,,,,,,,,021519_p1,001,2019_Feb_13_1434,body_behavioural,3.0.3,59.799281320272236,
,,,,,,There is no time limit for your responses. ,,,,,,,,,,,,,0,4,4,4,,,,,,,,,,,,,,,,,,,,,,,,,,,,,,,,space,34.989021128000104,,,,,,,,,,,,,,,,,,,,,,,021519_p1,001,2019_Feb_13_1434,body_behavioural,3.0.3,59.799281320272236,
0,,,,,,,,,,,,,,,,,,,,,,,0,0,0,0,,,,,,,,,,,,,,,,,,,,,,,,,,,,,,space,0.920097541999894,Thomas and sadie met for dinner. thomas was nervous and had a few things on his mind. thomas announce he was not happy with his job and was leaving it. he told sadie he needed more time to focus. sadie became offended and left the restaurant.,,,,,,,,,,,,,,,,,,,,021519_p1,001,2019_Feb_13_1434,body_behavioural,3.0.3,59.799281320272236,
1,,,,,,,,,,,,,,,,,,,,,,,0,1,1,1,,,,,,,,,,,,,,,,,,,,,,,,,,,,,,space,1.0194320610000887,Leon and ariana met at school. leon introduces himself to her. he writes a note and asks her out. she says doublequoteyesdoublequote,,,,,,,,,,,,,,,,,,,,021519_p1,001,2019_Feb_13_1434,body_behavioural,3.0.3,59.799281320272236,
2,,,,,,,,,,,,,,,,,,,,,,,0,2,2,2,,,,,,,,,,,,,,,,,,,,,,,,,,,,,,space,1.4037512219999826,Simon and carina arrive at the aiport. they fight over something that becomes the catalyst for a break up. they get through security and when on the plane luckily do not have to sit next to each other since they did not coordinate their ticketed seats beforehand.,,,,,,,,,,,,,,,,,,,,021519_p1,001,2019_Feb_13_1434,body_behavioural,3.0.3,59.799281320272236,
3,,,,,,,,,,,,,,,,,,,,,,,0,3,3,3,,,,,,,,,,,,,,,,,,,,,,,,,,,,,,space,0.9191627350000999,Mr. shelton and mr. gordon met the day before. one offers a business proposal to the other. ,,,,,,,,,,,,,,,,,,,,021519_p1,001,2019_Feb_13_1434,body_behavioural,3.0.3,59.799281320272236,
4,,,,,,,,,,,,,,,,,,,,,,,0,4,4,4,,,,,,,,,,,,,,,,,,,,,,,,,,,,,,space,0.9868563279999307,I dont remember.,,,,,,,,,,,,,,,,,,,,021519_p1,001,2019_Feb_13_1434,body_behavioural,3.0.3,59.799281320272236,
5,,,,,,,,,,,,,,,,,,,,,,,0,5,5,5,,,,,,,,,,,,,,,,,,,,,,,,,,,,,,space,0.8852037189999464,The setting is at princeton university. aaron has coordinated with his professor to propose to lana during class. professor pretends to get his computer started and requests that lana stand up in the center of the room to assist him in a demonstration. aaron then proposes to her and she says yes.,,,,,,,,,,,,,,,,,,,,021519_p1,001,2019_Feb_13_1434,body_behavioural,3.0.3,59.799281320272236,
6,,,,,,,,,,,,,,,,,,,,,,,0,6,6,6,,,,,,,,,,,,,,,,,,,,,,,,,,,,,,space,1.1204082099998232,Alex proposes to chloe at the grocery store. friends are there too. chloe says yes. upon check out everyone is distracted by the ring.,,,,,,,,,,,,,,,,,,,,021519_p1,001,2019_Feb_13_1434,body_behavioural,3.0.3,59.799281320272236,
7,,,,,,,,,,,,,,,,,,,,,,,0,7,7,7,,,,,,,,,,,,,,,,,,,,,,,,,,,,,,space,1.203322253999886,I dont recall this story.,,,,,,,,,,,,,,,,,,,,021519_p1,001,2019_Feb_13_1434,body_behavioural,3.0.3,59.799281320272236,
,,,,,,,,,,,,,,,,,,,,,,,,,,,,,,,,,,,,,,,,,,,,,,,,,,,,,,,,,,,1967.730167864,space,1.4530446799999481,,,,,,,,,,,,,,,,,021519_p1,001,2019_Feb_13_1434,body_behavioural,3.0.3,59.799281320272236,
,,,,,,The next part of the task is to answer 8 questions about each story.,,,,,,,,,,,,,,,,,,,,,0,0,0,0,,,,,,,,,,,,,,,,,,,,,,,,,,,,,,,,space,3.7015293029999157,,,,,,,,,,,,,,,021519_p1,001,2019_Feb_13_1434,body_behavioural,3.0.3,59.799281320272236,
,,,,,,Some of the questions are not related to the perspective you were asked to assume.,,,,,,,,,,,,,,,,,,,,,0,1,1,1,,,,,,,,,,,,,,,,,,,,,,,,,,,,,,,,space,3.669205432000126,,,,,,,,,,,,,,,021519_p1,001,2019_Feb_13_1434,body_behavioural,3.0.3,59.799281320272236,
,,,,,,"We realize that we did not tell you to think of these questions during the story, but do your best to answer them.",,,,,,,,,,,,,,,,,,,,,0,2,2,2,,,,,,,,,,,,,,,,,,,,,,,,,,,,,,,,space,4.18542546100025,,,,,,,,,,,,,,,021519_p1,001,2019_Feb_13_1434,body_behavioural,3.0.3,59.799281320272236,
,,,,,,"When you have finished typing your answer, hit ‘return’ to submit your answer and move onto the next question. ",,,,,,,,,,,,,,,,,,,,,0,3,3,3,,,,,,,,,,,,,,,,,,,,,,,,,,,,,,,,space,0.9202011419997689,,,,,,,,,,,,,,,021519_p1,001,2019_Feb_13_1434,body_behavioural,3.0.3,59.799281320272236,
0,,,,,,,,,,,,,,,,,,,,,,,,,,,,,,,0,0,0,0,,,,,,,,,,,,,,,,,,,,,,,,No,,,,,,space,0.7027405449998696,"Tables are in the back. white tables, linen cloths.classic restaurant",primed first,Traditional menus,I do not recall clients,I do not recall clients in this story,Sad,He needs time to focus,Hurt and angry she leaves the restaurant,No,,,,021519_p1,001,2019_Feb_13_1434,body_behavioural,3.0.3,59.799281320272236,
1,,,,,,,,,,,,,,,,,,,,,,,,,,,,,,,0,1,1,1,,,,,,,,,,,,,,,,,,,,,,,,They both leave because class ends,,,,,,space,0.7703260630000841,I dont recall,non-primed first,I dont recall,I dont recall,Next session,Leon notices ariana and says she looks familiar,He sends over a note,Leon proposes first. study session i think,They both leave because class ends,,,,021519_p1,001,2019_Feb_13_1434,body_behavioural,3.0.3,59.799281320272236,
2,,,,,,,,,,,,,,,,,,,,,,,,,,,,,,,0,2,2,2,,,,,,,,,,,,,,,,,,,,,,,,They both leave because they have a flight to catch,,,,,,space,0.8341071029999512,"I dont know, i thought they were at an airportquestion",primed first,I dont recall,I dont recall,I dont recall. but maybe cash,Irrelevant question,They argue over something,Irrelevant,They both leave because they have a flight to catch,,,,021519_p1,001,2019_Feb_13_1434,body_behavioural,3.0.3,59.799281320272236,
3,,,,,,,,,,,,,,,,,,,,,,,,,,,,,,,0,3,3,3,,,,,,,,,,,,,,,,,,,,,,,,I dont recall,,,,,,space,0.8701276450001387,Theyre at an airport restaurant,non-primed first,I dont reacll,I dont recall,I think they ordered drinks maybe,Finance maybe,I dont recall but it was a trade,I dont recall,I dont recall,,,,021519_p1,001,2019_Feb_13_1434,body_behavioural,3.0.3,59.799281320272236,
4,,,,,,,,,,,,,,,,,,,,,,,,,,,,,,,0,4,4,4,,,,,,,,,,,,,,,,,,,,,,,,Separately since they never coordinated their tickets,,,,,,space,0.7708343409999543,Angry and aggitated,primed first,I dont remember but it was over a menial argument ,She spitefully agrees to it,No,Not much time,I dont recall,Angry,Separately since they never coordinated their tickets,,,,021519_p1,001,2019_Feb_13_1434,body_behavioural,3.0.3,59.799281320272236,
5,,,,,,,,,,,,,,,,,,,,,,,,,,,,,,,0,5,5,5,,,,,,,,,,,,,,,,,,,,,,,,The entire classroom,,,,,,space,0.8040034720002041,"Beautiful, takes place at princeton u",primed first,I dont recall,I dont recall,I dont recall,Nervous and excited,I dont recall,The professor,The entire classroom,,,,021519_p1,001,2019_Feb_13_1434,body_behavioural,3.0.3,59.799281320272236,
6,,,,,,,,,,,,,,,,,,,,,,,,,,,,,,,0,6,6,6,,,,,,,,,,,,,,,,,,,,,,,,"Customers, workers, and friends",,,,,,space,0.7342640700003358,Busy,non-primed first,Meatloaf haha i dont know,Busy,Wait. it was busy however they were able to cut the entire line. i think chloe pays $4 in cash,Nervous,Gold,Their friends who are also at the grocery story,"Customers, workers, and friends",,,,021519_p1,001,2019_Feb_13_1434,body_behavioural,3.0.3,59.799281320272236,
7,,,,,,,,,,,,,,,,,,,,,,,,,,,,,,,0,7,7,7,,,,,,,,,,,,,,,,,,,,,,,,Nothing,,,,,,space,1.6527588829999331, i dont recall,primed first,I dont recall,I dont recall,I dont think they were on the same flight,Finance,I dont recall,They dont agree to it,Nothing,,,,021519_p1,001,2019_Feb_13_1434,body_behavioural,3.0.3,59.799281320272236,
,,,,,,,,,,,,,,,,,,,,,,,,,,,,,,,,,,,,,,,,,,,,,,,,,,,,,,,,,,,,,,,,,,,,,,,,,,,2688.631144234,space,1.0531899249999697,021519_p1,001,2019_Feb_13_1434,body_behavioural,3.0.3,59.799281320272236,
,,,,,,,,,,,,,,,,,,,,,,,,,,,,,,,,,,,0,0,0,0,,,,,,,,,,,,,,,,,,,,,,,,,,,,,,,,,,,,,,,,021519_p1,001,2019_Feb_13_1434,body_behavioural,3.0.3,59.799281320272236,
,,,,,,,,,,,,,,,,,,,,,,,,,,,,,,,,,,,1,0,1,0,,,,,,,,,,,,,,,,,,,,,,,,,,,,,,,,,,,,,,,,021519_p1,001,2019_Feb_13_1434,body_behavioural,3.0.3,59.799281320272236,
,,,,,,,,,,,,,,,,,,,,,,,,,,,,,,,,,,,2,0,2,0,,,,,,,,,,,,,,,,,,,,,,,,,,,,,,,,,,,,,,,,021519_p1,001,2019_Feb_13_1434,body_behavioural,3.0.3,59.799281320272236,
,,,,,,,,,,,,,,,,,,,,,,,,,,,,,,,,,,,3,0,3,0,,,,,,,,,,,,,,,,,,,,,,,,,,,,,,,,,,,,,,,,021519_p1,001,2019_Feb_13_1434,body_behavioural,3.0.3,59.799281320272236,
,,,,,,,,,,,,,,,,,,,,,,,,,,,,,,,,,,,4,0,4,0,,,,,,,,,,,,,,,,,,,,,,,,,,,,,,,,,,,,,,,,021519_p1,001,2019_Feb_13_1434,body_behavioural,3.0.3,59.799281320272236,
