count,storyText,locationEvent,socialEvent,locationEventSize,socialEventSize,instructText,trials.thisRepN,trials.thisTrialN,trials.thisN,trials.thisIndex,trials_7.thisRepN,trials_7.thisTrialN,trials_7.thisN,trials_7.thisIndex,trials_2.thisRepN,trials_2.thisTrialN,trials_2.thisN,trials_2.thisIndex,trials_3.thisRepN,trials_3.thisTrialN,trials_3.thisN,trials_3.thisIndex,trials_4.thisRepN,trials_4.thisTrialN,trials_4.thisN,trials_4.thisIndex,trials_5.thisRepN,trials_5.thisTrialN,trials_5.thisN,trials_5.thisIndex,trials_6.thisRepN,trials_6.thisTrialN,trials_6.thisN,trials_6.thisIndex,trials_8.thisRepN,trials_8.thisTrialN,trials_8.thisN,trials_8.thisIndex,order of stories,order of perspectives,participant 2 order - stories,participant 2 order  - schemas types,key_resp_8.keys,key_resp_8.rt,key_resp_5.keys,key_resp_5.rt,key_resp_7.keys,key_resp_7.rt,story_presses.keys,story_presses.rt,story time,key_resp_6.keys,key_resp_6.rt,key_resp_2.keys,key_resp_2.rt,key_resp_10.keys,key_resp_10.rt,recall,recall time,key_resp_12.keys,key_resp_12.rt,key_resp_3.keys,key_resp_3.rt,key_resp_11.keys,key_resp_11.rt,question1_answer,order of question,question2_answer,question3_answer,question4_answer,question5_answer,question6_answer,question7_answer,question8_answer,questions time,key_resp_13.keys,key_resp_13.rt,participant,session,date,expName,psychopyVersion,frameRate,
0,,,,,,,0,0,0,0,0,0,0,0,,,,,,,,,,,,,,,,,,,,,,,,,[31 22 11 43 42 23 14 34 33 13 21 41 12 44 32 24],"['Social' 'Location' 'Location' 'Location' 'Social' 'Social' 'Social'
 'Location' 'Social' 'Location' 'Social' 'Location' 'Social' 'Social'
 'Location' 'Location']",[33 13 21 41 12 44 32 24],"['Social' 'Location' 'Social' 'Location' 'Social' 'Social' 'Location'
 'Location']",space,8.734747414993763,space,1.2029898619948654,space,2.136306542000966,,,,,,,,,,,,,,,,,,,,,,,,,,,,,,022519_p1,001,2019_Feb_25_1013,body_behavioural,3.0.4,60.02230188668464,
0,Mr. Shelton and Mr. Gordon shook hands inside the foyer of the restaurant: lunch today was about big business. ,1,1,,,,0,0,0,0,,,,,0,0,0,0,,,,,,,,,,,,,,,,,,,,,,,,,,,,,,,1,16.13537744199857,,,,,,,,,,,,,,,,,,,,,,,,,,,,022519_p1,001,2019_Feb_25_1013,body_behavioural,3.0.4,60.02230188668464,
0,Mr. Shelton and Mr. Gordon both were CEOs of airplane manufacturing companies.,1,1,,,,0,0,0,0,,,,,0,1,1,1,,,,,,,,,,,,,,,,,,,,,,,,,,,,,,,1,3.8175606799995876,,,,,,,,,,,,,,,,,,,,,,,,,,,,022519_p1,001,2019_Feb_25_1013,body_behavioural,3.0.4,60.02230188668464,
0,"Mr. Shelton was in charge of a larger, well-established company and had been in the aviation business for decades, whereas Mr. Gordon led a smaller but technologically-advanced company that was projected to disrupt the airplane manufacturing market. ",1,1,,,,0,0,0,0,,,,,0,2,2,2,,,,,,,,,,,,,,,,,,,,,,,,,,,,,,,1,6.070049262998509,,,,,,,,,,,,,,,,,,,,,,,,,,,,022519_p1,001,2019_Feb_25_1013,body_behavioural,3.0.4,60.02230188668464,
0,"The restaurant they chose to meet at was old and fancy with high ceilings, dark wood paneling, and crystal chandeliers.",1,1,,,,0,0,0,0,,,,,0,3,3,3,,,,,,,,,,,,,,,,,,,,,,,,,,,,,,,1,3.5694204050014378,,,,,,,,,,,,,,,,,,,,,,,,,,,,022519_p1,001,2019_Feb_25_1013,body_behavioural,3.0.4,60.02230188668464,
0,"The waitress led them to their table in the back, and they settled into a private table in the corner by the fireplace. ",2,1,,,,0,0,0,0,,,,,0,4,4,4,,,,,,,,,,,,,,,,,,,,,,,,,,,,,,,1,2.1030391649983358,,,,,,,,,,,,,,,,,,,,,,,,,,,,022519_p1,001,2019_Feb_25_1013,body_behavioural,3.0.4,60.02230188668464,
0,The waitress brought out the menus and they broke the ice with some small talk.,2,1,,,,0,0,0,0,,,,,0,5,5,5,,,,,,,,,,,,,,,,,,,,,,,,,,,,,,,1,2.286526595002215,,,,,,,,,,,,,,,,,,,,,,,,,,,,022519_p1,001,2019_Feb_25_1013,body_behavioural,3.0.4,60.02230188668464,
0,"Mr. Gordon took out a picture of his daughter and talked about her recent engagement, and Mr. Gordon boasted about his purchase of a Tesla. ",2,1,,,,0,0,0,0,,,,,0,6,6,6,,,,,,,,,,,,,,,,,,,,,,,,,,,,,,,1,2.5197354830015684,,,,,,,,,,,,,,,,,,,,,,,,,,,,022519_p1,001,2019_Feb_25_1013,body_behavioural,3.0.4,60.02230188668464,
0,"They looked at the menus as well, which were full of Italian classics like Carbonara and Tiramisu, and in the back section of the menu was a lengthy drink selection.",2,1,,,,0,0,0,0,,,,,0,7,7,7,,,,,,,,,,,,,,,,,,,,,,,,,,,,,,,1,3.119927646999713,,,,,,,,,,,,,,,,,,,,,,,,,,,,022519_p1,001,2019_Feb_25_1013,body_behavioural,3.0.4,60.02230188668464,
0,"After awhile, Mr. Shelton brought the conversation around to business.",2,2,,,,0,0,0,0,,,,,0,8,8,8,,,,,,,,,,,,,,,,,,,,,,,,,,,,,,,1,2.436579447996337,,,,,,,,,,,,,,,,,,,,,,,,,,,,022519_p1,001,2019_Feb_25_1013,body_behavioural,3.0.4,60.02230188668464,
0,"“Mr. Gordon, we really admire what you’re doing at your company.",2,2,,,,0,0,0,0,,,,,0,9,9,9,,,,,,,,,,,,,,,,,,,,,,,,,,,,,,,9,9.950655234002625,,,,,,,,,,,,,,,,,,,,,,,,,,,,022519_p1,001,2019_Feb_25_1013,body_behavioural,3.0.4,60.02230188668464,
0,We think it’s genius; we want to support your vision and make this tiny company of yours internationally known.,2,2,,,,0,0,0,0,,,,,0,10,10,10,,,,,,,,,,,,,,,,,,,,,,,,,,,,,,,9,2.153133567000623,,,,,,,,,,,,,,,,,,,,,,,,,,,,022519_p1,001,2019_Feb_25_1013,body_behavioural,3.0.4,60.02230188668464,
0,"But honestly, your company doesn’t have the resources to reach international markets right now, maybe in a few years you could, but by that time, other companies may have already filled your niche.",2,2,,,,0,0,0,0,,,,,0,11,11,11,,,,,,,,,,,,,,,,,,,,,,,,,,,,,,,9,5.286717233000672,,,,,,,,,,,,,,,,,,,,,,,,,,,,022519_p1,001,2019_Feb_25_1013,body_behavioural,3.0.4,60.02230188668464,
0,I think we should join forces.”,2,2,,,,0,0,0,0,,,,,0,12,12,12,,,,,,,,,,,,,,,,,,,,,,,,,,,,,,,9,2.3697166069978266,,,,,,,,,,,,,,,,,,,,,,,,,,,,022519_p1,001,2019_Feb_25_1013,body_behavioural,3.0.4,60.02230188668464,
0,The waitress came up to them and asked if they were ready to order.,3,2,,,,0,0,0,0,,,,,0,13,13,13,,,,,,,,,,,,,,,,,,,,,,,,,,,,,,,1,4.5369979919996695,,,,,,,,,,,,,,,,,,,,,,,,,,,,022519_p1,001,2019_Feb_25_1013,body_behavioural,3.0.4,60.02230188668464,
0,"Mr. Gordon ordered a medium-rare steak and martini, and Mr. Shelton ordered veal and a manhattan. ",3,2,,,,0,0,0,0,,,,,0,14,14,14,,,,,,,,,,,,,,,,,,,,,,,,,,,,,,,1,1.9674134699962451,,,,,,,,,,,,,,,,,,,,,,,,,,,,022519_p1,001,2019_Feb_25_1013,body_behavioural,3.0.4,60.02230188668464,
0,"Then Mr. Shelton continued, “Look, I’ve talked to other members of the board, and we are prepared to offer $600 million to buy your company. ",3,2,,,,0,0,0,0,,,,,0,15,15,15,,,,,,,,,,,,,,,,,,,,,,,,,,,,,,,9,8.170363627999905,,,,,,,,,,,,,,,,,,,,,,,,,,,,022519_p1,001,2019_Feb_25_1013,body_behavioural,3.0.4,60.02230188668464,
0,"We'd keep on all of your current employees, and you would join as the director of your company branch.” ",3,2,,,,0,0,0,0,,,,,0,16,16,16,,,,,,,,,,,,,,,,,,,,,,,,,,,,,,,9,2.4698161749984138,,,,,,,,,,,,,,,,,,,,,,,,,,,,022519_p1,001,2019_Feb_25_1013,body_behavioural,3.0.4,60.02230188668464,
0,Mr. Gordon sat looking at Mr. Shelton for a few moments considering his response. ,3,2,,,,0,0,0,0,,,,,0,17,17,17,,,,,,,,,,,,,,,,,,,,,,,,,,,,,,,9,2.186381302999507,,,,,,,,,,,,,,,,,,,,,,,,,,,,022519_p1,001,2019_Feb_25_1013,body_behavioural,3.0.4,60.02230188668464,
0,He looked at Mr. Shelton skeptically.,3,2,,,,0,0,0,0,,,,,0,18,18,18,,,,,,,,,,,,,,,,,,,,,,,,,,,,,,,9,1.2860373119983706,,,,,,,,,,,,,,,,,,,,,,,,,,,,022519_p1,001,2019_Feb_25_1013,body_behavioural,3.0.4,60.02230188668464,
0,"He said, “Mr. Shelton, I think that you make a compelling offer, but there are definitely some disadvantages to attaching our small, streamlined productions to a large company like yours.",3,3,,,,0,0,0,0,,,,,0,19,19,19,,,,,,,,,,,,,,,,,,,,,,,,,,,,,,,1,9.937608015003207,,,,,,,,,,,,,,,,,,,,,,,,,,,,022519_p1,001,2019_Feb_25_1013,body_behavioural,3.0.4,60.02230188668464,
0,"We operate in a very different way than a large company, and the kind of administrative complexity that makes the scale of your productions possible would suffocate our business.",3,3,,,,0,0,0,0,,,,,0,20,20,20,,,,,,,,,,,,,,,,,,,,,,,,,,,,,,,1,4.286452802996791,,,,,,,,,,,,,,,,,,,,,,,,,,,,022519_p1,001,2019_Feb_25_1013,body_behavioural,3.0.4,60.02230188668464,
0,"With our product, scaling-up doesn’t necessarily make sense.” ",3,3,,,,0,0,0,0,,,,,0,21,21,21,,,,,,,,,,,,,,,,,,,,,,,,,,,,,,,1,1.2005759699968621,,,,,,,,,,,,,,,,,,,,,,,,,,,,022519_p1,001,2019_Feb_25_1013,body_behavioural,3.0.4,60.02230188668464,
0,Mr. Shelton had expected this response and had come prepared.,3,3,,,,0,0,0,0,,,,,0,22,22,22,,,,,,,,,,,,,,,,,,,,,,,,,,,,,,,9,4.086177369994402,,,,,,,,,,,,,,,,,,,,,,,,,,,,022519_p1,001,2019_Feb_25_1013,body_behavioural,3.0.4,60.02230188668464,
0,He began laying out the details of how he had handled similar acquisitions successfully in the past.,3,3,,,,0,0,0,0,,,,,0,23,23,23,,,,,,,,,,,,,,,,,,,,,,,,,,,,,,,9,2.886837590005598,,,,,,,,,,,,,,,,,,,,,,,,,,,,022519_p1,001,2019_Feb_25_1013,body_behavioural,3.0.4,60.02230188668464,
0,"Mr. Gordon was impressed, and they went back and forth hashing out what the company configuration would look like post-merger. ",3,3,,,,0,0,0,0,,,,,0,24,24,24,,,,,,,,,,,,,,,,,,,,,,,,,,,,,,,1,6.6869414530010545,,,,,,,,,,,,,,,,,,,,,,,,,,,,022519_p1,001,2019_Feb_25_1013,body_behavioural,3.0.4,60.02230188668464,
0,"The waitress brought the food out, interrupting their animated conversation.",4,3,,,,0,0,0,0,,,,,0,25,25,25,,,,,,,,,,,,,,,,,,,,,,,,,,,,,,,1,1.8033623000010266,,,,,,,,,,,,,,,,,,,,,,,,,,,,022519_p1,001,2019_Feb_25_1013,body_behavioural,3.0.4,60.02230188668464,
0,“Oh this looks so good!” Mr. Gordon said. ,4,3,,,,0,0,0,0,,,,,0,26,26,26,,,,,,,,,,,,,,,,,,,,,,,,,,,,,,,1,1.1364740549979615,,,,,,,,,,,,,,,,,,,,,,,,,,,,022519_p1,001,2019_Feb_25_1013,body_behavioural,3.0.4,60.02230188668464,
0, “Can I get you anything else?” the waitress asked.,4,3,,,,0,0,0,0,,,,,0,27,27,27,,,,,,,,,,,,,,,,,,,,,,,,,,,,,,,1,1.002791420003632,,,,,,,,,,,,,,,,,,,,,,,,,,,,022519_p1,001,2019_Feb_25_1013,body_behavioural,3.0.4,60.02230188668464,
0,They declined and continued to talk.,4,3,,,,0,0,0,0,,,,,0,28,28,28,,,,,,,,,,,,,,,,,,,,,,,,,,,,,,,1,1.1198068220037385,,,,,,,,,,,,,,,,,,,,,,,,,,,,022519_p1,001,2019_Feb_25_1013,body_behavioural,3.0.4,60.02230188668464,
0,"The meal lived up to the reputation of the restaurant, which was known for having the best cuts of meat in the area.",4,3,,,,0,0,0,0,,,,,0,29,29,29,,,,,,,,,,,,,,,,,,,,,,,,,,,,,,,9,2.519731554995815,,,,,,,,,,,,,,,,,,,,,,,,,,,,022519_p1,001,2019_Feb_25_1013,body_behavioural,3.0.4,60.02230188668464,
0,"Mr. Gordon, after taking a contemplative bite of his food, said, “Mr. Shelton, I think we have a deal. ",4,4,,,,0,0,0,0,,,,,0,30,30,30,,,,,,,,,,,,,,,,,,,,,,,,,,,,,,,9,5.669968296999286,,,,,,,,,,,,,,,,,,,,,,,,,,,,022519_p1,001,2019_Feb_25_1013,body_behavioural,3.0.4,60.02230188668464,
0,"If you can guarantee that I can still have the final say in the all the work done by my team, I think this could be beneficial for both of us.",4,4,,,,0,0,0,0,,,,,0,31,31,31,,,,,,,,,,,,,,,,,,,,,,,,,,,,,,,1,1.5007552000024589,,,,,,,,,,,,,,,,,,,,,,,,,,,,022519_p1,001,2019_Feb_25_1013,body_behavioural,3.0.4,60.02230188668464,
0,I propose a toast to the merging of our companies.”,4,4,,,,0,0,0,0,,,,,0,32,32,32,,,,,,,,,,,,,,,,,,,,,,,,,,,,,,,1,1.1863269419991411,,,,,,,,,,,,,,,,,,,,,,,,,,,,022519_p1,001,2019_Feb_25_1013,body_behavioural,3.0.4,60.02230188668464,
0,Mr. Shelton grinned and lifted his martini to clink glasses.,4,4,,,,0,0,0,0,,,,,0,33,33,33,,,,,,,,,,,,,,,,,,,,,,,,,,,,,,,1,2.719820124999387,,,,,,,,,,,,,,,,,,,,,,,,,,,,022519_p1,001,2019_Feb_25_1013,body_behavioural,3.0.4,60.02230188668464,
0,"He said, “Cheers to a lifelong partnership and to the growth of your company.” ",4,4,,,,0,0,0,0,,,,,0,34,34,34,,,,,,,,,,,,,,,,,,,,,,,,,,,,,,,1,1.653046693005308,,,,,,,,,,,,,,,,,,,,,,,,,,,,022519_p1,001,2019_Feb_25_1013,body_behavioural,3.0.4,60.02230188668464,
0,,,,,,,0,0,0,0,,,,,,,,,,,,,,,,,,,,,,,,,,,,,,,,,,,,,,,,,,,,,,,,,,,,,,,,,,,,,,,,,,,,022519_p1,001,2019_Feb_25_1013,body_behavioural,3.0.4,60.02230188668464,
1,,,,,,,0,1,1,1,0,0,0,0,,,,,,,,,,,,,,,,,,,,,,,,,,,,,space,1.850990387996717,space,1.2529456800039043,space,2.48647399499896,,,,,,,,,,,,,,,,,,,,,,,,,,,,,,022519_p1,001,2019_Feb_25_1013,body_behavioural,3.0.4,60.02230188668464,
1,"Sven and Isabel walked hurriedly from the cab into the Barcelona Airport after an incredible weekend with Isabel’s family, which had wiped away any doubts Sven had had about his decision to propose. ",1,1,,,,0,1,1,1,,,,,0,0,0,0,,,,,,,,,,,,,,,,,,,,,,,,,,,,,,,9,27.30475448499783,,,,,,,,,,,,,,,,,,,,,,,,,,,,022519_p1,001,2019_Feb_25_1013,body_behavioural,3.0.4,60.02230188668464,
1,"They were a little pressed for time, with only a little over an hour until their flight would take off to go back to the US, but they already had their online boarding passes and no checked luggage. ",1,1,,,,0,1,1,1,,,,,0,1,1,1,,,,,,,,,,,,,,,,,,,,,,,,,,,,,,,1,3.7528109650011174,,,,,,,,,,,,,,,,,,,,,,,,,,,,022519_p1,001,2019_Feb_25_1013,body_behavioural,3.0.4,60.02230188668464,
1,"When Isabel stopped to rummage through her purse looking for her phone, Sven turned his back to her and took the velvet box out of his backpack, opening it to look at the ring he bought her.",1,2,,,,0,1,1,1,,,,,0,2,2,2,,,,,,,,,,,,,,,,,,,,,,,,,,,,,,,1,4.569621515001927,,,,,,,,,,,,,,,,,,,,,,,,,,,,022519_p1,001,2019_Feb_25_1013,body_behavioural,3.0.4,60.02230188668464,
1,"He had received her parents’ blessing during the trip, and he was almost giddy with excitement. ",1,2,,,,0,1,1,1,,,,,0,3,3,3,,,,,,,,,,,,,,,,,,,,,,,,,,,,,,,1,2.3195622569983243,,,,,,,,,,,,,,,,,,,,,,,,,,,,022519_p1,001,2019_Feb_25_1013,body_behavioural,3.0.4,60.02230188668464,
1,"He tilted the ring backward and forward, despite having already studied it daily since he had purchased it a few weeks ago. ",1,2,,,,0,1,1,1,,,,,0,4,4,4,,,,,,,,,,,,,,,,,,,,,,,,,,,,,,,1,2.5700763249988086,,,,,,,,,,,,,,,,,,,,,,,,,,,,022519_p1,001,2019_Feb_25_1013,body_behavioural,3.0.4,60.02230188668464,
1,"It was a simple design, with a clear, white diamond on a thin silver band.",1,2,,,,0,1,1,1,,,,,0,5,5,5,,,,,,,,,,,,,,,,,,,,,,,,,,,,,,,1,2.6031560249975882,,,,,,,,,,,,,,,,,,,,,,,,,,,,022519_p1,001,2019_Feb_25_1013,body_behavioural,3.0.4,60.02230188668464,
1,"“Sven, let’s go! ” Isabel said. ",1,2,,,,0,1,1,1,,,,,0,6,6,6,,,,,,,,,,,,,,,,,,,,,,,,,,,,,,,1,4.11995682700217,,,,,,,,,,,,,,,,,,,,,,,,,,,,022519_p1,001,2019_Feb_25_1013,body_behavioural,3.0.4,60.02230188668464,
1,Sven discretely closed the box and put it in his pocket.,1,2,,,,0,1,1,1,,,,,0,7,7,7,,,,,,,,,,,,,,,,,,,,,,,,,,,,,,,1,1.136924035003176,,,,,,,,,,,,,,,,,,,,,,,,,,,,022519_p1,001,2019_Feb_25_1013,body_behavioural,3.0.4,60.02230188668464,
1," They entered the security line, weaving through the roped walkways to the front. ",2,2,,,,0,1,1,1,,,,,0,8,8,8,,,,,,,,,,,,,,,,,,,,,,,,,,,,,,,9,2.902944995003054,,,,,,,,,,,,,,,,,,,,,,,,,,,,022519_p1,001,2019_Feb_25_1013,body_behavioural,3.0.4,60.02230188668464,
1,"When they were up, Isabel realized her laptop was buried somewhere in her duffle bag. ",2,2,,,,0,1,1,1,,,,,0,9,9,9,,,,,,,,,,,,,,,,,,,,,,,,,,,,,,,1,1.5027063899979112,,,,,,,,,,,,,,,,,,,,,,,,,,,,022519_p1,001,2019_Feb_25_1013,body_behavioural,3.0.4,60.02230188668464,
1,Sven had to hold the growing mound of objects she pulled from her bag until she unearthed the laptop.,2,2,,,,0,1,1,1,,,,,0,10,10,10,,,,,,,,,,,,,,,,,,,,,,,,,,,,,,,1,2.1865037769966875,,,,,,,,,,,,,,,,,,,,,,,,,,,,022519_p1,001,2019_Feb_25_1013,body_behavioural,3.0.4,60.02230188668464,
1,She set it into a bin and then had to unstrap her leather boots and put everything else into the bins.,2,2,,,,0,1,1,1,,,,,0,11,11,11,,,,,,,,,,,,,,,,,,,,,,,,,,,,,,,1,2.5361744800029555,,,,,,,,,,,,,,,,,,,,,,,,,,,,022519_p1,001,2019_Feb_25_1013,body_behavioural,3.0.4,60.02230188668464,
1,"Finally, she relieved Sven of his holding duties, and he hurriedly deposited his own backpack on the belt as the people behind them glared without shame. ",2,2,,,,0,1,1,1,,,,,0,12,12,12,,,,,,,,,,,,,,,,,,,,,,,,,,,,,,,1,3.7373458729998674,,,,,,,,,,,,,,,,,,,,,,,,,,,,022519_p1,001,2019_Feb_25_1013,body_behavioural,3.0.4,60.02230188668464,
1,"Sven went into the millimeter wave scanner after Isabel, put his hands up, and the metal bars whirled around him.",2,2,,,,0,1,1,1,,,,,0,13,13,13,,,,,,,,,,,,,,,,,,,,,,,,,,,,,,,1,3.9868980550018023,,,,,,,,,,,,,,,,,,,,,,,,,,,,022519_p1,001,2019_Feb_25_1013,body_behavioural,3.0.4,60.02230188668464,
1,"“Sir, please step to the side.",2,2,,,,0,1,1,1,,,,,0,14,14,14,,,,,,,,,,,,,,,,,,,,,,,,,,,,,,,9,8.387217215000419,,,,,,,,,,,,,,,,,,,,,,,,,,,,022519_p1,001,2019_Feb_25_1013,body_behavioural,3.0.4,60.02230188668464,
1,"You need to empty your pockets,” the security guard said.",2,2,,,,0,1,1,1,,,,,0,15,15,15,,,,,,,,,,,,,,,,,,,,,,,,,,,,,,,1,1.3360471820051316,,,,,,,,,,,,,,,,,,,,,,,,,,,,022519_p1,001,2019_Feb_25_1013,body_behavioural,3.0.4,60.02230188668464,
1,"With a sinking feeling Sven realized the mistake he had made forgetting to put the ring back in his bag, as Isabel and the guard both looked at him expectantly.",2,2,,,,0,1,1,1,,,,,0,16,16,16,,,,,,,,,,,,,,,,,,,,,,,,,,,,,,,1,3.7529174119990785,,,,,,,,,,,,,,,,,,,,,,,,,,,,022519_p1,001,2019_Feb_25_1013,body_behavioural,3.0.4,60.02230188668464,
1,"Sven,  deciding he would make the best of the situation, grabbed Isabel's hand as he reached into his pocket.",2,2,,,,0,1,1,1,,,,,0,17,17,17,,,,,,,,,,,,,,,,,,,,,,,,,,,,,,,1,2.8032352369991713,,,,,,,,,,,,,,,,,,,,,,,,,,,,022519_p1,001,2019_Feb_25_1013,body_behavioural,3.0.4,60.02230188668464,
1,"He got down on one knee and, giggling slightly at her confused look, said, “Isabel, this isn't quite how I'd planned this, but - will you marry me?”",2,3,,,,0,1,1,1,,,,,0,18,18,18,,,,,,,,,,,,,,,,,,,,,,,,,,,,,,,1,5.236717864994716,,,,,,,,,,,,,,,,,,,,,,,,,,,,022519_p1,001,2019_Feb_25_1013,body_behavioural,3.0.4,60.02230188668464,
1,The security guard gasped.,2,3,,,,0,1,1,1,,,,,0,19,19,19,,,,,,,,,,,,,,,,,,,,,,,,,,,,,,,1,1.836298545000318,,,,,,,,,,,,,,,,,,,,,,,,,,,,022519_p1,001,2019_Feb_25_1013,body_behavioural,3.0.4,60.02230188668464,
1,All the people who were putting their shoes back on and gathering their belongings stopped what they were doing and walked closer to the couple.,2,3,,,,0,1,1,1,,,,,0,20,20,20,,,,,,,,,,,,,,,,,,,,,,,,,,,,,,,1,2.553211962003843,,,,,,,,,,,,,,,,,,,,,,,,,,,,022519_p1,001,2019_Feb_25_1013,body_behavioural,3.0.4,60.02230188668464,
1,"Isabel was astonished, and far too shy to respond in front of the backup of passengers waiting behind them.",2,3,,,,0,1,1,1,,,,,0,21,21,21,,,,,,,,,,,,,,,,,,,,,,,,,,,,,,,1,2.286532897996949,,,,,,,,,,,,,,,,,,,,,,,,,,,,022519_p1,001,2019_Feb_25_1013,body_behavioural,3.0.4,60.02230188668464,
1,"She attempted to stammer a response as she frantically grabbed her and Sven’s shoes, leaving Sven to retrieve their bags.",2,3,,,,0,1,1,1,,,,,0,22,22,22,,,,,,,,,,,,,,,,,,,,,,,,,,,,,,,1,8.320435920002637,,,,,,,,,,,,,,,,,,,,,,,,,,,,022519_p1,001,2019_Feb_25_1013,body_behavioural,3.0.4,60.02230188668464,
1,"Both of them slipping in their socked feet, she fled onto the concourse with Sven trying to catch up behind her.",3,3,,,,0,1,1,1,,,,,0,23,23,23,,,,,,,,,,,,,,,,,,,,,,,,,,,,,,,1,3.754261882000719,,,,,,,,,,,,,,,,,,,,,,,,,,,,022519_p1,001,2019_Feb_25_1013,body_behavioural,3.0.4,60.02230188668464,
1,"Everyone in the terminal was looking at them with confusion as Sven, holding the bags in one hand and the open ring box in the other, finally caught up to her.",3,3,,,,0,1,1,1,,,,,0,24,24,24,,,,,,,,,,,,,,,,,,,,,,,,,,,,,,,9,1.4364626579990727,,,,,,,,,,,,,,,,,,,,,,,,,,,,022519_p1,001,2019_Feb_25_1013,body_behavioural,3.0.4,60.02230188668464,
1,“Isabel?”,3,3,,,,0,1,1,1,,,,,0,25,25,25,,,,,,,,,,,,,,,,,,,,,,,,,,,,,,,1,1.6533924550021766,,,,,,,,,,,,,,,,,,,,,,,,,,,,022519_p1,001,2019_Feb_25_1013,body_behavioural,3.0.4,60.02230188668464,
1,"He watched her face as she turned, trying to read her expression.",3,3,,,,0,1,1,1,,,,,0,26,26,26,,,,,,,,,,,,,,,,,,,,,,,,,,,,,,,1,2.7033684400012135,,,,,,,,,,,,,,,,,,,,,,,,,,,,022519_p1,001,2019_Feb_25_1013,body_behavioural,3.0.4,60.02230188668464,
1,"Her eyes were wide, but she was smiling as she hyperventilated, “Of course yes, Sven, yes!” ",3,4,,,,0,1,1,1,,,,,0,27,27,27,,,,,,,,,,,,,,,,,,,,,,,,,,,,,,,1,2.4532011570045142,,,,,,,,,,,,,,,,,,,,,,,,,,,,022519_p1,001,2019_Feb_25_1013,body_behavioural,3.0.4,60.02230188668464,
1,"They dropped their belongings and hugged, and Sven slipped the ring onto Isabel’s finger. ",3,4,,,,0,1,1,1,,,,,0,28,28,28,,,,,,,,,,,,,,,,,,,,,,,,,,,,,,,1,10.136375647001842,,,,,,,,,,,,,,,,,,,,,,,,,,,,022519_p1,001,2019_Feb_25_1013,body_behavioural,3.0.4,60.02230188668464,
1,"After getting their shoes back on, they practically skipped to the gate, filled with joy.",3,4,,,,0,1,1,1,,,,,0,29,29,29,,,,,,,,,,,,,,,,,,,,,,,,,,,,,,,1,3.220629156996438,,,,,,,,,,,,,,,,,,,,,,,,,,,,022519_p1,001,2019_Feb_25_1013,body_behavioural,3.0.4,60.02230188668464,
1,Sven high-fived a confused shoe-shine attendant as they passed.,3,4,,,,0,1,1,1,,,,,0,30,30,30,,,,,,,,,,,,,,,,,,,,,,,,,,,,,,,1,1.45337229299912,,,,,,,,,,,,,,,,,,,,,,,,,,,,022519_p1,001,2019_Feb_25_1013,body_behavioural,3.0.4,60.02230188668464,
1,"They sat down outside their gate, having actually made good time, until the attendant called for passengers.",3,4,,,,0,1,1,1,,,,,0,31,31,31,,,,,,,,,,,,,,,,,,,,,,,,,,,,,,,1,1.0375855629972648,,,,,,,,,,,,,,,,,,,,,,,,,,,,022519_p1,001,2019_Feb_25_1013,body_behavioural,3.0.4,60.02230188668464,
1,"They boarded, sitting together in first class, and had a glass of champagne to celebrate the departure into their new life together.",4,4,,,,0,1,1,1,,,,,0,32,32,32,,,,,,,,,,,,,,,,,,,,,,,,,,,,,,,1,2.036452400003327,,,,,,,,,,,,,,,,,,,,,,,,,,,,022519_p1,001,2019_Feb_25_1013,body_behavioural,3.0.4,60.02230188668464,
1,"Some of their neighboring passengers who had witnessed the proposal congratulated them, and a woman next to them showed them that she had been live-tweeting the whole event and that it was already going viral online.",4,4,,,,0,1,1,1,,,,,0,33,33,33,,,,,,,,,,,,,,,,,,,,,,,,,,,,,,,1,4.135250600003928,,,,,,,,,,,,,,,,,,,,,,,,,,,,022519_p1,001,2019_Feb_25_1013,body_behavioural,3.0.4,60.02230188668464,
1,"Isabel slid down in her seat with her hands over her face, both embarrassed and overjoyed at the same time.
",4,4,,,,0,1,1,1,,,,,0,34,34,34,,,,,,,,,,,,,,,,,,,,,,,,,,,,,,,1,3.6527581799964537,,,,,,,,,,,,,,,,,,,,,,,,,,,,022519_p1,001,2019_Feb_25_1013,body_behavioural,3.0.4,60.02230188668464,
1,,,,,,,0,1,1,1,,,,,,,,,,,,,,,,,,,,,,,,,,,,,,,,,,,,,,,,,,,,,,,,,,,,,,,,,,,,,,,,,,,,022519_p1,001,2019_Feb_25_1013,body_behavioural,3.0.4,60.02230188668464,
2,,,,,,,0,2,2,2,0,0,0,0,,,,,,,,,,,,,,,,,,,,,,,,,,,,,space,1.9029763999933493,space,1.0035307910002302,space,2.0036934329982614,,,,,,,,,,,,,,,,,,,,,,,,,,,,,,022519_p1,001,2019_Feb_25_1013,body_behavioural,3.0.4,60.02230188668464,
2,"Thomas, dreading the conversation he was about to have, got to Annika’s Finer Diner early.",1,1,None,None,,0,2,2,2,,,,,0,0,0,0,,,,,,,,,,,,,,,,,,,,,,,,,,,,,,,9,5.369822927001223,,,,,,,,,,,,,,,,,,,,,,,,,,,,022519_p1,001,2019_Feb_25_1013,body_behavioural,3.0.4,60.02230188668464,
2,The restaurant had a kitschy charm and was reminiscent of a diner from the 70’s. ,1,1,None,None,,0,2,2,2,,,,,0,1,1,1,,,,,,,,,,,,,,,,,,,,,,,,,,,,,,,1,2.0027103669999633,,,,,,,,,,,,,,,,,,,,,,,,,,,,022519_p1,001,2019_Feb_25_1013,body_behavioural,3.0.4,60.02230188668464,
2,A bell chimed as the door swung open and Sadie entered to find Thomas deep in thought on a bench by the door.,1,1,None,None,,0,2,2,2,,,,,0,2,2,2,,,,,,,,,,,,,,,,,,,,,,,,,,,,,,,1,4.669699220001348,,,,,,,,,,,,,,,,,,,,,,,,,,,,022519_p1,001,2019_Feb_25_1013,body_behavioural,3.0.4,60.02230188668464,
2,He jumped up and gave her a side hug. ,1,1,None,None,,0,2,2,2,,,,,0,3,3,3,,,,,,,,,,,,,,,,,,,,,,,,,,,,,,,1,3.1197631870018085,,,,,,,,,,,,,,,,,,,,,,,,,,,,022519_p1,001,2019_Feb_25_1013,body_behavioural,3.0.4,60.02230188668464,
2,"“How was your day?”, he asked.",1,1,None,None,,0,2,2,2,,,,,0,4,4,4,,,,,,,,,,,,,,,,,,,,,,,,,,,,,,,1,3.1506035669954144,,,,,,,,,,,,,,,,,,,,,,,,,,,,022519_p1,001,2019_Feb_25_1013,body_behavioural,3.0.4,60.02230188668464,
2,"She clung onto him, “It was okay.",1,1,None,None,,0,2,2,2,,,,,0,5,5,5,,,,,,,,,,,,,,,,,,,,,,,,,,,,,,,1,1.286406037004781,,,,,,,,,,,,,,,,,,,,,,,,,,,,022519_p1,001,2019_Feb_25_1013,body_behavioural,3.0.4,60.02230188668464,
2,I missed you today.”,1,1,None,None,,0,2,2,2,,,,,0,6,6,6,,,,,,,,,,,,,,,,,,,,,,,,,,,,,,,1,0.8697186700010207,,,,,,,,,,,,,,,,,,,,,,,,,,,,022519_p1,001,2019_Feb_25_1013,body_behavioural,3.0.4,60.02230188668464,
2,He looked at the hostess coming towards them.,1,1,None,None,,0,2,2,2,,,,,0,7,7,7,,,,,,,,,,,,,,,,,,,,,,,,,,,,,,,1,2.2197699200041825,,,,,,,,,,,,,,,,,,,,,,,,,,,,022519_p1,001,2019_Feb_25_1013,body_behavioural,3.0.4,60.02230188668464,
2,"“Can we have a table in the back?”, Thomas asked.",1,1,None,None,,0,2,2,2,,,,,0,8,8,8,,,,,,,,,,,,,,,,,,,,,,,,,,,,,,,1,1.669499914998596,,,,,,,,,,,,,,,,,,,,,,,,,,,,022519_p1,001,2019_Feb_25_1013,body_behavioural,3.0.4,60.02230188668464,
2,"She shrugged and, as she loudly popped her bubblegum, replied, “Sure, honey, this way.”",1,1,9.0,None,,0,2,2,2,,,,,0,9,9,9,,,,,,,,,,,,,,,,,,,,,,,,,,,,,,,1,1.986164939997252,,,,,,,,,,,,,,,,,,,,,,,,,,,,022519_p1,001,2019_Feb_25_1013,body_behavioural,3.0.4,60.02230188668464,
2,She led them to the back of the restaurant where there were dimly lit tables. ,2,1,None,None,,0,2,2,2,,,,,0,10,10,10,,,,,,,,,,,,,,,,,,,,,,,,,,,,,,,1,1.2865088050020859,,,,,,,,,,,,,,,,,,,,,,,,,,,,022519_p1,001,2019_Feb_25_1013,body_behavioural,3.0.4,60.02230188668464,
2,"“Is this alright?”, the hostess asked.",2,1,None,None,,0,2,2,2,,,,,0,11,11,11,,,,,,,,,,,,,,,,,,,,,,,,,,,,,,,1,0.8865030300003127,,,,,,,,,,,,,,,,,,,,,,,,,,,,022519_p1,001,2019_Feb_25_1013,body_behavioural,3.0.4,60.02230188668464,
2,Thomas cleared his throat and tried not to grimace at the stained fabric that lined the booth.,2,1,None,None,,0,2,2,2,,,,,0,12,12,12,,,,,,,,,,,,,,,,,,,,,,,,,,,,,,,1,3.6195350120033254,,,,,,,,,,,,,,,,,,,,,,,,,,,,022519_p1,001,2019_Feb_25_1013,body_behavioural,3.0.4,60.02230188668464,
2,“This is great.,2,1,None,None,,0,2,2,2,,,,,0,13,13,13,,,,,,,,,,,,,,,,,,,,,,,,,,,,,,,1,0.8839983050056617,,,,,,,,,,,,,,,,,,,,,,,,,,,,022519_p1,001,2019_Feb_25_1013,body_behavioural,3.0.4,60.02230188668464,
2,"Thank you,” Thomas said.",2,1,None,None,,0,2,2,2,,,,,0,14,14,14,,,,,,,,,,,,,,,,,,,,,,,,,,,,,,,1,0.6340028019985766,,,,,,,,,,,,,,,,,,,,,,,,,,,,022519_p1,001,2019_Feb_25_1013,body_behavioural,3.0.4,60.02230188668464,
2,Sadie slipped into the cushioned seat and grabbed Thomas’ hand.,2,1,None,None,,0,2,2,2,,,,,0,15,15,15,,,,,,,,,,,,,,,,,,,,,,,,,,,,,,,9,1.7197975649978616,,,,,,,,,,,,,,,,,,,,,,,,,,,,022519_p1,001,2019_Feb_25_1013,body_behavioural,3.0.4,60.02230188668464,
2,"“Tell me about your day!”, Sadie sang as Thomas sat down.",2,1,None,None,,0,2,2,2,,,,,0,16,16,16,,,,,,,,,,,,,,,,,,,,,,,,,,,,,,,1,1.1364256569941062,,,,,,,,,,,,,,,,,,,,,,,,,,,,022519_p1,001,2019_Feb_25_1013,body_behavioural,3.0.4,60.02230188668464,
2,He looked at her silently and pulled his hand slowly from hers.,2,1,None,None,,0,2,2,2,,,,,0,17,17,17,,,,,,,,,,,,,,,,,,,,,,,,,,,,,,,1,1.086346666997997,,,,,,,,,,,,,,,,,,,,,,,,,,,,022519_p1,001,2019_Feb_25_1013,body_behavioural,3.0.4,60.02230188668464,
2,Sadie gave him a puzzled look.,2,1,None,None,,0,2,2,2,,,,,0,18,18,18,,,,,,,,,,,,,,,,,,,,,,,,,,,,,,,1,0.9530196150008123,,,,,,,,,,,,,,,,,,,,,,,,,,,,022519_p1,001,2019_Feb_25_1013,body_behavioural,3.0.4,60.02230188668464,
2,Thomas looked away and took a deep breath. ,2,1,None,None,,0,2,2,2,,,,,0,19,19,19,,,,,,,,,,,,,,,,,,,,,,,,,,,,,,,1,0.6362890649979818,,,,,,,,,,,,,,,,,,,,,,,,,,,,022519_p1,001,2019_Feb_25_1013,body_behavioural,3.0.4,60.02230188668464,
2,"Sadie asked, “What’s wrong?” ",2,1,None,None,,0,2,2,2,,,,,0,20,20,20,,,,,,,,,,,,,,,,,,,,,,,,,,,,,,,1,0.8697284800000489,,,,,,,,,,,,,,,,,,,,,,,,,,,,022519_p1,001,2019_Feb_25_1013,body_behavioural,3.0.4,60.02230188668464,
2,Thomas picked at his fingernails.,2,1,None,22.0,,0,2,2,2,,,,,0,21,21,21,,,,,,,,,,,,,,,,,,,,,,,,,,,,,,,1,1.6008134050061926,,,,,,,,,,,,,,,,,,,,,,,,,,,,022519_p1,001,2019_Feb_25_1013,body_behavioural,3.0.4,60.02230188668464,
2,"“Sadie, I’ve been thinking, and I need to figure out some stuff… on my own.”",2,2,None,None,,0,2,2,2,,,,,0,22,22,22,,,,,,,,,,,,,,,,,,,,,,,,,,,,,,,1,4.303202908005915,,,,,,,,,,,,,,,,,,,,,,,,,,,,022519_p1,001,2019_Feb_25_1013,body_behavioural,3.0.4,60.02230188668464,
2,Sadie’s mouth popped open for a moment.,2,2,None,None,,0,2,2,2,,,,,0,23,23,23,,,,,,,,,,,,,,,,,,,,,,,,,,,,,,,1,0.9365523149972432,,,,,,,,,,,,,,,,,,,,,,,,,,,,022519_p1,001,2019_Feb_25_1013,body_behavioural,3.0.4,60.02230188668464,
2,Then she swallowed and shifted back in her seat.,2,2,None,None,,0,2,2,2,,,,,0,24,24,24,,,,,,,,,,,,,,,,,,,,,,,,,,,,,,,1,0.919593194994377,,,,,,,,,,,,,,,,,,,,,,,,,,,,022519_p1,001,2019_Feb_25_1013,body_behavioural,3.0.4,60.02230188668464,
2,“Things have been really picking up at work.,2,2,None,None,,0,2,2,2,,,,,0,25,25,25,,,,,,,,,,,,,,,,,,,,,,,,,,,,,,,1,1.1863952400017297,,,,,,,,,,,,,,,,,,,,,,,,,,,,022519_p1,001,2019_Feb_25_1013,body_behavioural,3.0.4,60.02230188668464,
2,And I’m not sure that this is the job I want to do anymore.,2,2,None,None,,0,2,2,2,,,,,0,26,26,26,,,,,,,,,,,,,,,,,,,,,,,,,,,,,,,1,1.5197927819972392,,,,,,,,,,,,,,,,,,,,,,,,,,,,022519_p1,001,2019_Feb_25_1013,body_behavioural,3.0.4,60.02230188668464,
2,It’s been really overwhelming between working and figuring out if I should change careers.” ,2,2,17.0,None,,0,2,2,2,,,,,0,27,27,27,,,,,,,,,,,,,,,,,,,,,,,,,,,,,,,1,1.6030895320000127,,,,,,,,,,,,,,,,,,,,,,,,,,,,022519_p1,001,2019_Feb_25_1013,body_behavioural,3.0.4,60.02230188668464,
2,The waiter appeared and interrupted the speech Thomas had been practicing.,3,2,None,None,,0,2,2,2,,,,,0,28,28,28,,,,,,,,,,,,,,,,,,,,,,,,,,,,,,,1,9.070179948001169,,,,,,,,,,,,,,,,,,,,,,,,,,,,022519_p1,001,2019_Feb_25_1013,body_behavioural,3.0.4,60.02230188668464,
2,"“Hello you two!”, the waiter said.",3,2,None,None,,0,2,2,2,,,,,0,29,29,29,,,,,,,,,,,,,,,,,,,,,,,,,,,,,,,9,2.2198425569949904,,,,,,,,,,,,,,,,,,,,,,,,,,,,022519_p1,001,2019_Feb_25_1013,body_behavioural,3.0.4,60.02230188668464,
2,“Have you decided what you would like?”,3,2,None,None,,0,2,2,2,,,,,0,30,30,30,,,,,,,,,,,,,,,,,,,,,,,,,,,,,,,1,0.8506807599987951,,,,,,,,,,,,,,,,,,,,,,,,,,,,022519_p1,001,2019_Feb_25_1013,body_behavioural,3.0.4,60.02230188668464,
2,"Thomas and Sadie realized there were menus on the table, and they glanced at the lengthy list quickly.",3,2,None,None,,0,2,2,2,,,,,0,31,31,31,,,,,,,,,,,,,,,,,,,,,,,,,,,,,,,1,1.7364165999970282,,,,,,,,,,,,,,,,,,,,,,,,,,,,022519_p1,001,2019_Feb_25_1013,body_behavioural,3.0.4,60.02230188668464,
2,"There were so many strange dishes they had never heard of before, so they settled on familiar orders.",3,2,None,None,,0,2,2,2,,,,,0,32,32,32,,,,,,,,,,,,,,,,,,,,,,,,,,,,,,,1,1.9031203719932819,,,,,,,,,,,,,,,,,,,,,,,,,,,,022519_p1,001,2019_Feb_25_1013,body_behavioural,3.0.4,60.02230188668464,
2,"“I’ll have a burger, no tomatoes,” Thomas said.",3,2,None,None,,0,2,2,2,,,,,0,33,33,33,,,,,,,,,,,,,,,,,,,,,,,,,,,,,,,1,1.2508706620064913,,,,,,,,,,,,,,,,,,,,,,,,,,,,022519_p1,001,2019_Feb_25_1013,body_behavioural,3.0.4,60.02230188668464,
2,"Sadie asked about the reuben, and the waiter told her it was excellent.",3,2,None,None,,0,2,2,2,,,,,0,34,34,34,,,,,,,,,,,,,,,,,,,,,,,,,,,,,,,1,1.436634182005946,,,,,,,,,,,,,,,,,,,,,,,,,,,,022519_p1,001,2019_Feb_25_1013,body_behavioural,3.0.4,60.02230188668464,
2,"Once she agreed to get that, he walked away. ",3,2,None,None,,0,2,2,2,,,,,0,35,35,35,,,,,,,,,,,,,,,,,,,,,,,,,,,,,,,1,1.119875989999855,,,,,,,,,,,,,,,,,,,,,,,,,,,,022519_p1,001,2019_Feb_25_1013,body_behavioural,3.0.4,60.02230188668464,
2,Sadie and Thomas looked at each other. ,3,2,None,None,,0,2,2,2,,,,,0,36,36,36,,,,,,,,,,,,,,,,,,,,,,,,,,,,,,,1,1.6033729900009348,,,,,,,,,,,,,,,,,,,,,,,,,,,,022519_p1,001,2019_Feb_25_1013,body_behavioural,3.0.4,60.02230188668464,
2,"“So what are you saying?”, Sadie asked. ",3,2,None,None,,0,2,2,2,,,,,0,37,37,37,,,,,,,,,,,,,,,,,,,,,,,,,,,,,,,9,0.8200624799937941,,,,,,,,,,,,,,,,,,,,,,,,,,,,022519_p1,001,2019_Feb_25_1013,body_behavioural,3.0.4,60.02230188668464,
2,"Thomas replied, “I want to take a break for awhile.",3,2,None,None,,0,2,2,2,,,,,0,38,38,38,,,,,,,,,,,,,,,,,,,,,,,,,,,,,,,1,1.202869410000858,,,,,,,,,,,,,,,,,,,,,,,,,,,,022519_p1,001,2019_Feb_25_1013,body_behavioural,3.0.4,60.02230188668464,
2,"You know, have space to figure out what I’m supposed to be doing.”",3,2,None,17.0,,0,2,2,2,,,,,0,39,39,39,,,,,,,,,,,,,,,,,,,,,,,,,,,,,,,1,1.703172364999773,,,,,,,,,,,,,,,,,,,,,,,,,,,,022519_p1,001,2019_Feb_25_1013,body_behavioural,3.0.4,60.02230188668464,
2,Sadie quietly burst into tears. ,3,3,None,None,,0,2,2,2,,,,,0,40,40,40,,,,,,,,,,,,,,,,,,,,,,,,,,,,,,,1,1.0862021200009622,,,,,,,,,,,,,,,,,,,,,,,,,,,,022519_p1,001,2019_Feb_25_1013,body_behavioural,3.0.4,60.02230188668464,
2,"Nevertheless, people sitting at the adjacent table looked over and quickly averted their gaze as they realized what was happening. ",3,3,None,None,,0,2,2,2,,,,,0,41,41,41,,,,,,,,,,,,,,,,,,,,,,,,,,,,,,,1,3.053106895000383,,,,,,,,,,,,,,,,,,,,,,,,,,,,022519_p1,001,2019_Feb_25_1013,body_behavioural,3.0.4,60.02230188668464,
2,“Is this really what you want?,3,3,None,None,,0,2,2,2,,,,,0,42,42,42,,,,,,,,,,,,,,,,,,,,,,,,,,,,,,,1,1.169444815001043,,,,,,,,,,,,,,,,,,,,,,,,,,,,022519_p1,001,2019_Feb_25_1013,body_behavioural,3.0.4,60.02230188668464,
2,I don’t understand.,3,3,None,None,,0,2,2,2,,,,,0,43,43,43,,,,,,,,,,,,,,,,,,,,,,,,,,,,,,,1,0.7693589049958973,,,,,,,,,,,,,,,,,,,,,,,,,,,,022519_p1,001,2019_Feb_25_1013,body_behavioural,3.0.4,60.02230188668464,
2,I don’t understand.,3,3,None,None,,0,2,2,2,,,,,0,44,44,44,,,,,,,,,,,,,,,,,,,,,,,,,,,,,,,1,1.1529922479967354,,,,,,,,,,,,,,,,,,,,,,,,,,,,022519_p1,001,2019_Feb_25_1013,body_behavioural,3.0.4,60.02230188668464,
2,Things were fine. ,3,3,None,None,,0,2,2,2,,,,,0,45,45,45,,,,,,,,,,,,,,,,,,,,,,,,,,,,,,,1,0.7026546099950792,,,,,,,,,,,,,,,,,,,,,,,,,,,,022519_p1,001,2019_Feb_25_1013,body_behavioural,3.0.4,60.02230188668464,
2,"We don’t have to hang out all the time, or as much as we do now.”",3,3,None,None,,0,2,2,2,,,,,0,46,46,46,,,,,,,,,,,,,,,,,,,,,,,,,,,,,,,1,1.986602960001619,,,,,,,,,,,,,,,,,,,,,,,,,,,,022519_p1,001,2019_Feb_25_1013,body_behavioural,3.0.4,60.02230188668464,
2,Thomas chewed on his bottom lip and picked at his now bleeding hangnail. ,3,3,20.0,None,,0,2,2,2,,,,,0,47,47,47,,,,,,,,,,,,,,,,,,,,,,,,,,,,,,,1,5.920060872005706,,,,,,,,,,,,,,,,,,,,,,,,,,,,022519_p1,001,2019_Feb_25_1013,body_behavioural,3.0.4,60.02230188668464,
2,"At that moment, the waiter arrived with the burger and reuben and set them on the table.",4,3,None,None,,0,2,2,2,,,,,0,48,48,48,,,,,,,,,,,,,,,,,,,,,,,,,,,,,,,1,2.4367554069976904,,,,,,,,,,,,,,,,,,,,,,,,,,,,022519_p1,001,2019_Feb_25_1013,body_behavioural,3.0.4,60.02230188668464,
2,“Is there anything else I can get for you two?,4,3,None,None,,0,2,2,2,,,,,0,49,49,49,,,,,,,,,,,,,,,,,,,,,,,,,,,,,,,1,1.3862034379999386,,,,,,,,,,,,,,,,,,,,,,,,,,,,022519_p1,001,2019_Feb_25_1013,body_behavioural,3.0.4,60.02230188668464,
2,"Will you be getting dessert tonight?”, he asked.",4,3,None,None,,0,2,2,2,,,,,0,50,50,50,,,,,,,,,,,,,,,,,,,,,,,,,,,,,,,1,1.6030420400056755,,,,,,,,,,,,,,,,,,,,,,,,,,,,022519_p1,001,2019_Feb_25_1013,body_behavioural,3.0.4,60.02230188668464,
2,"“Oh no, we’re good, thanks,” Thomas said.",4,3,None,None,,0,2,2,2,,,,,0,51,51,51,,,,,,,,,,,,,,,,,,,,,,,,,,,,,,,1,1.1363349320017733,,,,,,,,,,,,,,,,,,,,,,,,,,,,022519_p1,001,2019_Feb_25_1013,body_behavioural,3.0.4,60.02230188668464,
2,"Once the waiter had walked away still oblivious to the situation, Thomas sighed and said, “Sadie, I’m sorry.",4,3,None,None,,0,2,2,2,,,,,0,52,52,52,,,,,,,,,,,,,,,,,,,,,,,,,,,,,,,1,2.0850161670023226,,,,,,,,,,,,,,,,,,,,,,,,,,,,022519_p1,001,2019_Feb_25_1013,body_behavioural,3.0.4,60.02230188668464,
2,"You are so great, and I love hanging out with you.",4,3,None,None,,0,2,2,2,,,,,0,53,53,53,,,,,,,,,,,,,,,,,,,,,,,,,,,,,,,1,1.3204623659985373,,,,,,,,,,,,,,,,,,,,,,,,,,,,022519_p1,001,2019_Feb_25_1013,body_behavioural,3.0.4,60.02230188668464,
2,But I need some time.,4,3,None,None,,0,2,2,2,,,,,0,54,54,54,,,,,,,,,,,,,,,,,,,,,,,,,,,,,,,1,1.1530809219984803,,,,,,,,,,,,,,,,,,,,,,,,,,,,022519_p1,001,2019_Feb_25_1013,body_behavioural,3.0.4,60.02230188668464,
2,I’m so sorry.”,4,3,None,None,,0,2,2,2,,,,,0,55,55,55,,,,,,,,,,,,,,,,,,,,,,,,,,,,,,,1,1.6196420250053052,,,,,,,,,,,,,,,,,,,,,,,,,,,,022519_p1,001,2019_Feb_25_1013,body_behavioural,3.0.4,60.02230188668464,
2,"He grabbed her hand, and she pulled it out of his.",4,3,None,None,,0,2,2,2,,,,,0,56,56,56,,,,,,,,,,,,,,,,,,,,,,,,,,,,,,,9,1.4365920199998072,,,,,,,,,,,,,,,,,,,,,,,,,,,,022519_p1,001,2019_Feb_25_1013,body_behavioural,3.0.4,60.02230188668464,
2,"“Sadie,” he said.",4,3,None,17.0,,0,2,2,2,,,,,0,57,57,57,,,,,,,,,,,,,,,,,,,,,,,,,,,,,,,1,0.9196920020040125,,,,,,,,,,,,,,,,,,,,,,,,,,,,022519_p1,001,2019_Feb_25_1013,body_behavioural,3.0.4,60.02230188668464,
2," She stood up, grabbed half of the reuben and shook it at him as she growled, “Don’t follow me, and don’t talk to me anymore!”",4,4,None,None,,0,2,2,2,,,,,0,58,58,58,,,,,,,,,,,,,,,,,,,,,,,,,,,,,,,1,3.0364174799979082,,,,,,,,,,,,,,,,,,,,,,,,,,,,022519_p1,001,2019_Feb_25_1013,body_behavioural,3.0.4,60.02230188668464,
2,"Sadie's heels clacked loudly against the black and white linoleum, and the bell above the door jingled cheerfully as the door closed behind her.",4,4,None,None,,0,2,2,2,,,,,0,59,59,59,,,,,,,,,,,,,,,,,,,,,,,,,,,,,,,1,3.719810716997017,,,,,,,,,,,,,,,,,,,,,,,,,,,,022519_p1,001,2019_Feb_25_1013,body_behavioural,3.0.4,60.02230188668464,
2,Thomas sat there for awhile in shock at how quickly everything transpired. ,4,4,None,None,,0,2,2,2,,,,,0,60,60,60,,,,,,,,,,,,,,,,,,,,,,,,,,,,,,,1,1.96949708199827,,,,,,,,,,,,,,,,,,,,,,,,,,,,022519_p1,001,2019_Feb_25_1013,body_behavioural,3.0.4,60.02230188668464,
2,"He grabbed his burger and took a bite of it, creating a dry and fishy taste in his mouth.",4,4,None,None,,0,2,2,2,,,,,0,61,61,61,,,,,,,,,,,,,,,,,,,,,,,,,,,,,,,1,3.5835162740040687,,,,,,,,,,,,,,,,,,,,,,,,,,,,022519_p1,001,2019_Feb_25_1013,body_behavioural,3.0.4,60.02230188668464,
2,He dropped it back on his plate and wondered if the restaurant was responsible for the foul taste. ,4,4,13.0,5.0,,0,2,2,2,,,,,0,62,62,62,,,,,,,,,,,,,,,,,,,,,,,,,,,,,,,1,3.6704299069970148,,,,,,,,,,,,,,,,,,,,,,,,,,,,022519_p1,001,2019_Feb_25_1013,body_behavioural,3.0.4,60.02230188668464,
2,,,,,,,0,2,2,2,,,,,,,,,,,,,,,,,,,,,,,,,,,,,,,,,,,,,,,,,,,,,,,,,,,,,,,,,,,,,,,,,,,,022519_p1,001,2019_Feb_25_1013,body_behavioural,3.0.4,60.02230188668464,
3,,,,,,,0,3,3,3,0,0,0,0,,,,,,,,,,,,,,,,,,,,,,,,,,,,,space,1.1195894920019782,space,1.2173325999974622,space,1.6197368950015516,,,,,,,,,,,,,,,,,,,,,,,,,,,,,,022519_p1,001,2019_Feb_25_1013,body_behavioural,3.0.4,60.02230188668464,
3,"Simon and Carina noticed each other as they walked into the grocery store at the same time, their carts nearly colliding as they squeezed into the entrance.",1,1,,,,0,3,3,3,,,,,0,0,0,0,,,,,,,,,,,,,,,,,,,,,,,,,,,,,,,9,5.752868918993045,,,,,,,,,,,,,,,,,,,,,,,,,,,,022519_p1,001,2019_Feb_25_1013,body_behavioural,3.0.4,60.02230188668464,
3,"They were both new to the Boston area, and this was their first time in this store. ",1,1,,,,0,3,3,3,,,,,0,1,1,1,,,,,,,,,,,,,,,,,,,,,,,,,,,,,,,1,1.0510835599998245,,,,,,,,,,,,,,,,,,,,,,,,,,,,022519_p1,001,2019_Feb_25_1013,body_behavioural,3.0.4,60.02230188668464,
3,"It kind of looked like a large warehouse, with high unfurnished ceilings, industrial lights, and large packages of food. ",1,1,,,,0,3,3,3,,,,,0,2,2,2,,,,,,,,,,,,,,,,,,,,,,,,,,,,,,,1,4.787930580001557,,,,,,,,,,,,,,,,,,,,,,,,,,,,022519_p1,001,2019_Feb_25_1013,body_behavioural,3.0.4,60.02230188668464,
3,"They went off along separate routes, but soon ended up back together in the meat section. ",2,1,,,,0,3,3,3,,,,,0,3,3,3,,,,,,,,,,,,,,,,,,,,,,,,,,,,,,,1,2.603242807002971,,,,,,,,,,,,,,,,,,,,,,,,,,,,022519_p1,001,2019_Feb_25_1013,body_behavioural,3.0.4,60.02230188668464,
3,"They were both preparing for barbecues, so they were looking over the same cuts of meat. ",2,1,,,,0,3,3,3,,,,,0,4,4,4,,,,,,,,,,,,,,,,,,,,,,,,,,,,,,,1,3.233337035002478,,,,,,,,,,,,,,,,,,,,,,,,,,,,022519_p1,001,2019_Feb_25_1013,body_behavioural,3.0.4,60.02230188668464,
3,"Simon really wanted to talk to Carina, and Carina really wanted to say something to Simon, but they felt embarrassed striking up a conversation with a stranger.",2,1,,,,0,3,3,3,,,,,0,5,5,5,,,,,,,,,,,,,,,,,,,,,,,,,,,,,,,1,3.3862857069980237,,,,,,,,,,,,,,,,,,,,,,,,,,,,022519_p1,001,2019_Feb_25_1013,body_behavioural,3.0.4,60.02230188668464,
3,"Carina suddenly turned to Simon and, pointing at a Cornish hen, asked, “Isn’t this meat cute?”",2,2,,,,0,3,3,3,,,,,0,6,6,6,,,,,,,,,,,,,,,,,,,,,,,,,,,,,,,9,0.7025735930001247,,,,,,,,,,,,,,,,,,,,,,,,,,,,022519_p1,001,2019_Feb_25_1013,body_behavioural,3.0.4,60.02230188668464,
3,"He laughed, and said, “It is very cute.",2,2,,,,0,3,3,3,,,,,0,7,7,7,,,,,,,,,,,,,,,,,,,,,,,,,,,,,,,1,1.7707964879955398,,,,,,,,,,,,,,,,,,,,,,,,,,,,022519_p1,001,2019_Feb_25_1013,body_behavioural,3.0.4,60.02230188668464,
3,"Probably the younger brother of this guy,” and he picked up a regular-sized chicken.",2,2,,,,0,3,3,3,,,,,0,8,8,8,,,,,,,,,,,,,,,,,,,,,,,,,,,,,,,1,2.900684917003673,,,,,,,,,,,,,,,,,,,,,,,,,,,,022519_p1,001,2019_Feb_25_1013,body_behavioural,3.0.4,60.02230188668464,
3,"“Unlucky family,” she responded. ",2,2,,,,0,3,3,3,,,,,0,9,9,9,,,,,,,,,,,,,,,,,,,,,,,,,,,,,,,1,1.8197956399963005,,,,,,,,,,,,,,,,,,,,,,,,,,,,022519_p1,001,2019_Feb_25_1013,body_behavioural,3.0.4,60.02230188668464,
3,They continued to chat as they picked out their groceries.,2,2,,,,0,3,3,3,,,,,0,10,10,10,,,,,,,,,,,,,,,,,,,,,,,,,,,,,,,1,6.386706940000295,,,,,,,,,,,,,,,,,,,,,,,,,,,,022519_p1,001,2019_Feb_25_1013,body_behavioural,3.0.4,60.02230188668464,
3,"Simon helped Carina pick out the best ribs and his personal favorite barbeque sauce, and she helped him gather the  peppers, onions, and spices for a vegetable kabob she recommended.",2,2,,,,0,3,3,3,,,,,0,11,11,11,,,,,,,,,,,,,,,,,,,,,,,,,,,,,,,1,3.7861312070017448,,,,,,,,,,,,,,,,,,,,,,,,,,,,022519_p1,001,2019_Feb_25_1013,body_behavioural,3.0.4,60.02230188668464,
3,"When they were both finished shopping, they went to the checkout area.",3,2,,,,0,3,3,3,,,,,0,12,12,12,,,,,,,,,,,,,,,,,,,,,,,,,,,,,,,1,1.503119285000139,,,,,,,,,,,,,,,,,,,,,,,,,,,,022519_p1,001,2019_Feb_25_1013,body_behavioural,3.0.4,60.02230188668464,
3,"Simon was disappointed to see that the lines were short, since he had been hoping for an excuse to spend more time with Carina.",3,2,,,,0,3,3,3,,,,,0,13,13,13,,,,,,,,,,,,,,,,,,,,,,,,,,,,,,,1,8.486885610000172,,,,,,,,,,,,,,,,,,,,,,,,,,,,022519_p1,001,2019_Feb_25_1013,body_behavioural,3.0.4,60.02230188668464,
3,"They had real chemistry, and both of them could definitely see a future together despite having just met.",3,2,,,,0,3,3,3,,,,,0,14,14,14,,,,,,,,,,,,,,,,,,,,,,,,,,,,,,,1,1.6532914279960096,,,,,,,,,,,,,,,,,,,,,,,,,,,,022519_p1,001,2019_Feb_25_1013,body_behavioural,3.0.4,60.02230188668464,
3,"“So you haven’t been around the city much?”, Simon asked. ",3,2,,,,0,3,3,3,,,,,0,15,15,15,,,,,,,,,,,,,,,,,,,,,,,,,,,,,,,9,1.336318260000553,,,,,,,,,,,,,,,,,,,,,,,,,,,,022519_p1,001,2019_Feb_25_1013,body_behavioural,3.0.4,60.02230188668464,
3,"“No, not really.",3,2,,,,0,3,3,3,,,,,0,16,16,16,,,,,,,,,,,,,,,,,,,,,,,,,,,,,,,1,0.867320388002554,,,,,,,,,,,,,,,,,,,,,,,,,,,,022519_p1,001,2019_Feb_25_1013,body_behavioural,3.0.4,60.02230188668464,
3,I’ve mainly been working and setting up my apartment.”,3,2,,,,0,3,3,3,,,,,0,17,17,17,,,,,,,,,,,,,,,,,,,,,,,,,,,,,,,1,1.1531113250021008,,,,,,,,,,,,,,,,,,,,,,,,,,,,022519_p1,001,2019_Feb_25_1013,body_behavioural,3.0.4,60.02230188668464,
3,"Simon asked her, “Ok well, if you’d like I could pick you up next weekend, and we could go around Harvard Square and get dinner.",3,3,,,,0,3,3,3,,,,,0,18,18,18,,,,,,,,,,,,,,,,,,,,,,,,,,,,,,,1,3.2866046970011666,,,,,,,,,,,,,,,,,,,,,,,,,,,,022519_p1,001,2019_Feb_25_1013,body_behavioural,3.0.4,60.02230188668464,
3,"There are a lot of great places around there, and it’s really nice during the summer.",3,3,,,,0,3,3,3,,,,,0,19,19,19,,,,,,,,,,,,,,,,,,,,,,,,,,,,,,,1,2.0871565810011816,,,,,,,,,,,,,,,,,,,,,,,,,,,,022519_p1,001,2019_Feb_25_1013,body_behavioural,3.0.4,60.02230188668464,
3,The Harvard campus is also beautiful.” ,3,3,,,,0,3,3,3,,,,,0,20,20,20,,,,,,,,,,,,,,,,,,,,,,,,,,,,,,,1,1.1193421479983954,,,,,,,,,,,,,,,,,,,,,,,,,,,,022519_p1,001,2019_Feb_25_1013,body_behavioural,3.0.4,60.02230188668464,
3,"Carina smiled, “I’d love to: that sounds great!”",3,3,,,,0,3,3,3,,,,,0,21,21,21,,,,,,,,,,,,,,,,,,,,,,,,,,,,,,,1,1.0696055100052035,,,,,,,,,,,,,,,,,,,,,,,,,,,,022519_p1,001,2019_Feb_25_1013,body_behavioural,3.0.4,60.02230188668464,
3,"She quickly entered her number in his phone, since they only had to wait a couple minutes in line.",3,3,,,,0,3,3,3,,,,,0,22,22,22,,,,,,,,,,,,,,,,,,,,,,,,,,,,,,,1,1.9861733869984164,,,,,,,,,,,,,,,,,,,,,,,,,,,,022519_p1,001,2019_Feb_25_1013,body_behavioural,3.0.4,60.02230188668464,
3,Then it was her turn to check out with the cashier. ,4,3,,,,0,3,3,3,,,,,0,23,23,23,,,,,,,,,,,,,,,,,,,,,,,,,,,,,,,1,0.934071634997963,,,,,,,,,,,,,,,,,,,,,,,,,,,,022519_p1,001,2019_Feb_25_1013,body_behavioural,3.0.4,60.02230188668464,
3,"Simon, wanting to make a gesture of his affection, lifted up the divider on the conveyor belt and said to the cashier, “Actually these are together.",4,3,,,,0,3,3,3,,,,,0,24,24,24,,,,,,,,,,,,,,,,,,,,,,,,,,,,,,,9,2.902809671999421,,,,,,,,,,,,,,,,,,,,,,,,,,,,022519_p1,001,2019_Feb_25_1013,body_behavioural,3.0.4,60.02230188668464,
3,"Carina, I’ve got it.",4,3,,,,0,3,3,3,,,,,0,25,25,25,,,,,,,,,,,,,,,,,,,,,,,,,,,,,,,1,1.1839067350010737,,,,,,,,,,,,,,,,,,,,,,,,,,,,022519_p1,001,2019_Feb_25_1013,body_behavioural,3.0.4,60.02230188668464,
3,This was kind-of a date today.”,4,3,,,,0,3,3,3,,,,,0,26,26,26,,,,,,,,,,,,,,,,,,,,,,,,,,,,,,,1,1.753103906994511,,,,,,,,,,,,,,,,,,,,,,,,,,,,022519_p1,001,2019_Feb_25_1013,body_behavioural,3.0.4,60.02230188668464,
3,Carina blushed and laughed; she thought this was ridiculous but also very sweet. ,4,3,,,,0,3,3,3,,,,,0,27,27,27,,,,,,,,,,,,,,,,,,,,,,,,,,,,,,,1,2.303277610000805,,,,,,,,,,,,,,,,,,,,,,,,,,,,022519_p1,001,2019_Feb_25_1013,body_behavioural,3.0.4,60.02230188668464,
3,"The cashier rolled her eyes when they weren’t looking, and she scanned the rest of his items. ",4,3,,,,0,3,3,3,,,,,0,28,28,28,,,,,,,,,,,,,,,,,,,,,,,,,,,,,,,1,1.9864926320005907,,,,,,,,,,,,,,,,,,,,,,,,,,,,022519_p1,001,2019_Feb_25_1013,body_behavioural,3.0.4,60.02230188668464,
3,"The total came to $120, and he paid with his credit card.",4,3,,,,0,3,3,3,,,,,0,29,29,29,,,,,,,,,,,,,,,,,,,,,,,,,,,,,,,1,1.3363802450039657,,,,,,,,,,,,,,,,,,,,,,,,,,,,022519_p1,001,2019_Feb_25_1013,body_behavioural,3.0.4,60.02230188668464,
3,"Carina thanked him, and they took the groceries and walked out.",4,3,,,,0,3,3,3,,,,,0,30,30,30,,,,,,,,,,,,,,,,,,,,,,,,,,,,,,,1,3.386956182999711,,,,,,,,,,,,,,,,,,,,,,,,,,,,022519_p1,001,2019_Feb_25_1013,body_behavioural,3.0.4,60.02230188668464,
3,"As they were walking towards the exit, Carina reluctantly said goodbye since she was running late for the barbeque she was hosting that afternoon.",4,4,,,,0,3,3,3,,,,,0,31,31,31,,,,,,,,,,,,,,,,,,,,,,,,,,,,,,,9,2.9534601229970576,,,,,,,,,,,,,,,,,,,,,,,,,,,,022519_p1,001,2019_Feb_25_1013,body_behavioural,3.0.4,60.02230188668464,
3,"They hugged and parted ways, stealing glances at each other as they both walked back to their cars.",4,4,,,,0,3,3,3,,,,,0,32,32,32,,,,,,,,,,,,,,,,,,,,,,,,,,,,,,,1,1.7697496199980378,,,,,,,,,,,,,,,,,,,,,,,,,,,,022519_p1,001,2019_Feb_25_1013,body_behavioural,3.0.4,60.02230188668464,
3,,,,,,,0,3,3,3,,,,,,,,,,,,,,,,,,,,,,,,,,,,,,,,,,,,,,,,,,,,,,,,,,,,,,,,,,,,,,,,,,,,022519_p1,001,2019_Feb_25_1013,body_behavioural,3.0.4,60.02230188668464,
4,,,,,,,0,4,4,4,0,0,0,0,,,,,,,,,,,,,,,,,,,,,,,,,,,,,space,1.0675411750053172,space,0.9527454569979454,space,2.919475884998974,,,,,,,,,,,,,,,,,,,,,,,,,,,,,,022519_p1,001,2019_Feb_25_1013,body_behavioural,3.0.4,60.02230188668464,
4,David saw Anna for the first time when she burst into the airport with her bag skidding behind her half-zipped. ,1,1,,,,0,4,4,4,,,,,0,0,0,0,,,,,,,,,,,,,,,,,,,,,,,,,,,,,,,9,5.336859967006603,,,,,,,,,,,,,,,,,,,,,,,,,,,,022519_p1,001,2019_Feb_25_1013,body_behavioural,3.0.4,60.02230188668464,
4,"He had three hours until his flight, but she clearly had less than one.",1,1,,,,0,4,4,4,,,,,0,1,1,1,,,,,,,,,,,,,,,,,,,,,,,,,,,,,,,1,1.8863783569977386,,,,,,,,,,,,,,,,,,,,,,,,,,,,022519_p1,001,2019_Feb_25_1013,body_behavioural,3.0.4,60.02230188668464,
4,"Anna’s yoga class had ran over, and afterwards, she, forgetting the time, had lingered to talk with friends. ",1,1,,,,0,4,4,4,,,,,0,2,2,2,,,,,,,,,,,,,,,,,,,,,,,,,,,,,,,1,5.619407540005341,,,,,,,,,,,,,,,,,,,,,,,,,,,,022519_p1,001,2019_Feb_25_1013,body_behavioural,3.0.4,60.02230188668464,
4,"Despite Anna's frazzled state, David was instantly intrigued by her.",1,1,,,,0,4,4,4,,,,,0,3,3,3,,,,,,,,,,,,,,,,,,,,,,,,,,,,,,,1,1.703239169997687,,,,,,,,,,,,,,,,,,,,,,,,,,,,022519_p1,001,2019_Feb_25_1013,body_behavioural,3.0.4,60.02230188668464,
4,"He thought she was beautiful, and she reminded him of one of his favorite paintings.",1,1,,,,0,4,4,4,,,,,0,4,4,4,,,,,,,,,,,,,,,,,,,,,,,,,,,,,,,1,4.0532536870014155,,,,,,,,,,,,,,,,,,,,,,,,,,,,022519_p1,001,2019_Feb_25_1013,body_behavioural,3.0.4,60.02230188668464,
4,"Anna, a few strides into the airport, suddenly realized her shoes were untied, so she hunched over to tie them.",1,1,,,,0,4,4,4,,,,,0,5,5,5,,,,,,,,,,,,,,,,,,,,,,,,,,,,,,,1,4.1027260449991445,,,,,,,,,,,,,,,,,,,,,,,,,,,,022519_p1,001,2019_Feb_25_1013,body_behavioural,3.0.4,60.02230188668464,
4,David observed that someone with a tall cart of luggage was heading straight for where Anna was kneeling. ,1,1,,,,0,4,4,4,,,,,0,6,6,6,,,,,,,,,,,,,,,,,,,,,,,,,,,,,,,9,7.320572200005699,,,,,,,,,,,,,,,,,,,,,,,,,,,,022519_p1,001,2019_Feb_25_1013,body_behavioural,3.0.4,60.02230188668464,
4,Both Anna and the person driving the cart were oblivious to the impending collision. ,1,1,,,,0,4,4,4,,,,,0,7,7,7,,,,,,,,,,,,,,,,,,,,,,,,,,,,,,,1,1.4530483499984257,,,,,,,,,,,,,,,,,,,,,,,,,,,,022519_p1,001,2019_Feb_25_1013,body_behavioural,3.0.4,60.02230188668464,
4,"David had to intervene, and he ran in front of the cart pushing her out of the way just in the nick of time, and they tumbled on the airport floor. ",1,2,,,,0,4,4,4,,,,,0,8,8,8,,,,,,,,,,,,,,,,,,,,,,,,,,,,,,,1,3.136016340002243,,,,,,,,,,,,,,,,,,,,,,,,,,,,022519_p1,001,2019_Feb_25_1013,body_behavioural,3.0.4,60.02230188668464,
4,"Anna, bewildered, looked up and saw the cart pass by and then looked over at David. ",1,2,,,,0,4,4,4,,,,,0,9,9,9,,,,,,,,,,,,,,,,,,,,,,,,,,,,,,,1,1.9840890200066497,,,,,,,,,,,,,,,,,,,,,,,,,,,,022519_p1,001,2019_Feb_25_1013,body_behavioural,3.0.4,60.02230188668464,
4,He gave a smile back.,1,2,,,,0,4,4,4,,,,,0,10,10,10,,,,,,,,,,,,,,,,,,,,,,,,,,,,,,,1,0.8028376950023812,,,,,,,,,,,,,,,,,,,,,,,,,,,,022519_p1,001,2019_Feb_25_1013,body_behavioural,3.0.4,60.02230188668464,
4,"“You alright?”, he said.",1,2,,,,0,4,4,4,,,,,0,11,11,11,,,,,,,,,,,,,,,,,,,,,,,,,,,,,,,1,1.2864388620000682,,,,,,,,,,,,,,,,,,,,,,,,,,,,022519_p1,001,2019_Feb_25_1013,body_behavioural,3.0.4,60.02230188668464,
4,"She whispered, “Uh yeah.",1,2,,,,0,4,4,4,,,,,0,12,12,12,,,,,,,,,,,,,,,,,,,,,,,,,,,,,,,1,0.7671099299986963,,,,,,,,,,,,,,,,,,,,,,,,,,,,022519_p1,001,2019_Feb_25_1013,body_behavioural,3.0.4,60.02230188668464,
4,I almost got smooshed by that cart.”,1,2,,,,0,4,4,4,,,,,0,13,13,13,,,,,,,,,,,,,,,,,,,,,,,,,,,,,,,1,0.7505792000010842,,,,,,,,,,,,,,,,,,,,,,,,,,,,022519_p1,001,2019_Feb_25_1013,body_behavioural,3.0.4,60.02230188668464,
4,Her head was still spinning as she stared at the handsome stranger who had saved her. ,1,2,,,,0,4,4,4,,,,,0,14,14,14,,,,,,,,,,,,,,,,,,,,,,,,,,,,,,,1,3.019516754997312,,,,,,,,,,,,,,,,,,,,,,,,,,,,022519_p1,001,2019_Feb_25_1013,body_behavioural,3.0.4,60.02230188668464,
4,David helped her up and had to keep holding on to her arms to steady her even once they were standing.,1,2,,,,0,4,4,4,,,,,0,15,15,15,,,,,,,,,,,,,,,,,,,,,,,,,,,,,,,9,4.83658803000435,,,,,,,,,,,,,,,,,,,,,,,,,,,,022519_p1,001,2019_Feb_25_1013,body_behavioural,3.0.4,60.02230188668464,
4,"“I’m really late for my flight,” she said. ",1,2,,,,0,4,4,4,,,,,0,16,16,16,,,,,,,,,,,,,,,,,,,,,,,,,,,,,,,1,0.9001138750027167,,,,,,,,,,,,,,,,,,,,,,,,,,,,022519_p1,001,2019_Feb_25_1013,body_behavioural,3.0.4,60.02230188668464,
4,"“Don't worry,” said David, "let me help you get to your gate." ",1,2,,,,0,4,4,4,,,,,0,17,17,17,,,,,,,,,,,,,,,,,,,,,,,,,,,,,,,1,1.0864590970013523,,,,,,,,,,,,,,,,,,,,,,,,,,,,022519_p1,001,2019_Feb_25_1013,body_behavioural,3.0.4,60.02230188668464,
4,He waved off her half-hearted protests. ,1,2,,,,0,4,4,4,,,,,0,18,18,18,,,,,,,,,,,,,,,,,,,,,,,,,,,,,,,1,1.500391555004171,,,,,,,,,,,,,,,,,,,,,,,,,,,,022519_p1,001,2019_Feb_25_1013,body_behavioural,3.0.4,60.02230188668464,
4,"“Really , I have plenty of time and nothing better to do.”",1,2,,,,0,4,4,4,,,,,0,19,19,19,,,,,,,,,,,,,,,,,,,,,,,,,,,,,,,1,1.2703541119990405,,,,,,,,,,,,,,,,,,,,,,,,,,,,022519_p1,001,2019_Feb_25_1013,body_behavioural,3.0.4,60.02230188668464,
4,They headed to the security line. ,2,2,,,,0,4,4,4,,,,,0,20,20,20,,,,,,,,,,,,,,,,,,,,,,,,,,,,,,,1,0.9515434600034496,,,,,,,,,,,,,,,,,,,,,,,,,,,,022519_p1,001,2019_Feb_25_1013,body_behavioural,3.0.4,60.02230188668464,
4,"The line was not long, and they spent the time chatting and getting to know each other.",2,2,,,,0,4,4,4,,,,,0,21,21,21,,,,,,,,,,,,,,,,,,,,,,,,,,,,,,,1,6.353640660003293,,,,,,,,,,,,,,,,,,,,,,,,,,,,022519_p1,001,2019_Feb_25_1013,body_behavioural,3.0.4,60.02230188668464,
4,It turned out that Anna and David went to the same high school but Anna had been 3 years older.,2,2,,,,0,4,4,4,,,,,0,22,22,22,,,,,,,,,,,,,,,,,,,,,,,,,,,,,,,1,13.953815061999194,,,,,,,,,,,,,,,,,,,,,,,,,,,,022519_p1,001,2019_Feb_25_1013,body_behavioural,3.0.4,60.02230188668464,
4,When they got to the front of the line they took off their shoes and pulled off their coats.,2,3,,,,0,4,4,4,,,,,0,23,23,23,,,,,,,,,,,,,,,,,,,,,,,,,,,,,,,1,3.4200307599967346,,,,,,,,,,,,,,,,,,,,,,,,,,,,022519_p1,001,2019_Feb_25_1013,body_behavioural,3.0.4,60.02230188668464,
4,Both of them went through the metal detector without any problems. ,2,3,,,,0,4,4,4,,,,,0,24,24,24,,,,,,,,,,,,,,,,,,,,,,,,,,,,,,,1,1.6030297350007459,,,,,,,,,,,,,,,,,,,,,,,,,,,,022519_p1,001,2019_Feb_25_1013,body_behavioural,3.0.4,60.02230188668464,
4,"Anna’s flight was in 20 minutes, and as she was rushing to put her shoes and coat back on, David asked her, “So when are you coming back?”",2,3,,,,0,4,4,4,,,,,0,25,25,25,,,,,,,,,,,,,,,,,,,,,,,,,,,,,,,9,2.403147027005616,,,,,,,,,,,,,,,,,,,,,,,,,,,,022519_p1,001,2019_Feb_25_1013,body_behavioural,3.0.4,60.02230188668464,
4,"“In a week, it’s a short trip,” Anna replied. ",2,3,,,,0,4,4,4,,,,,0,26,26,26,,,,,,,,,,,,,,,,,,,,,,,,,,,,,,,1,1.1365443019967643,,,,,,,,,,,,,,,,,,,,,,,,,,,,022519_p1,001,2019_Feb_25_1013,body_behavioural,3.0.4,60.02230188668464,
4,"“Me too,” David said.",2,3,,,,0,4,4,4,,,,,0,27,27,27,,,,,,,,,,,,,,,,,,,,,,,,,,,,,,,1,0.8197462919997633,,,,,,,,,,,,,,,,,,,,,,,,,,,,022519_p1,001,2019_Feb_25_1013,body_behavioural,3.0.4,60.02230188668464,
4,"He continued, “When we're back in town, is there any chance you'd want to get dinner?",2,3,,,,0,4,4,4,,,,,0,28,28,28,,,,,,,,,,,,,,,,,,,,,,,,,,,,,,,1,1.3864282700014883,,,,,,,,,,,,,,,,,,,,,,,,,,,,022519_p1,001,2019_Feb_25_1013,body_behavioural,3.0.4,60.02230188668464,
4,"I know we just met, but when life throws a luggage cart at you it seems like we should listen. “",2,3,,,,0,4,4,4,,,,,0,29,29,29,,,,,,,,,,,,,,,,,,,,,,,,,,,,,,,1,2.169992404997174,,,,,,,,,,,,,,,,,,,,,,,,,,,,022519_p1,001,2019_Feb_25_1013,body_behavioural,3.0.4,60.02230188668464,
4,"She stopped packing, and said with a smile, “Yes I would love that.”",2,3,,,,0,4,4,4,,,,,0,30,30,30,,,,,,,,,,,,,,,,,,,,,,,,,,,,,,,1,1.2519649649984785,,,,,,,,,,,,,,,,,,,,,,,,,,,,022519_p1,001,2019_Feb_25_1013,body_behavioural,3.0.4,60.02230188668464,
4,Then they ran off to Anna’s gate which was at the end of the terminal. ,3,3,,,,0,4,4,4,,,,,0,31,31,31,,,,,,,,,,,,,,,,,,,,,,,,,,,,,,,1,1.8030463620016235,,,,,,,,,,,,,,,,,,,,,,,,,,,,022519_p1,001,2019_Feb_25_1013,body_behavioural,3.0.4,60.02230188668464,
4,"David took put on her backpack, grabbed her hand, and navigated quickly through the crowds of people.",3,3,,,,0,4,4,4,,,,,0,32,32,32,,,,,,,,,,,,,,,,,,,,,,,,,,,,,,,1,2.1699427729981835,,,,,,,,,,,,,,,,,,,,,,,,,,,,022519_p1,001,2019_Feb_25_1013,body_behavioural,3.0.4,60.02230188668464,
4,Anna was amazed at everything that was happening; she had arrived at the airport doubtful that she would make it and was now confident that she would due to this handsome and kind man she just met.,3,3,,,,0,4,4,4,,,,,0,33,33,33,,,,,,,,,,,,,,,,,,,,,,,,,,,,,,,1,4.8534510449972,,,,,,,,,,,,,,,,,,,,,,,,,,,,022519_p1,001,2019_Feb_25_1013,body_behavioural,3.0.4,60.02230188668464,
4,"As they approached her gate, Anna fished out a crumbled business card from her pocket and handed it to David, who handed her the backpack, and he promised to call her next week.",3,4,,,,0,4,4,4,,,,,0,34,34,34,,,,,,,,,,,,,,,,,,,,,,,,,,,,,,,1,2.903217080005561,,,,,,,,,,,,,,,,,,,,,,,,,,,,022519_p1,001,2019_Feb_25_1013,body_behavioural,3.0.4,60.02230188668464,
4,She gave him one last embarrassed smile and approached the flight attendant who scanned her ticket. ,3,4,,,,0,4,4,4,,,,,0,35,35,35,,,,,,,,,,,,,,,,,,,,,,,,,,,,,,,1,1.6031686269998318,,,,,,,,,,,,,,,,,,,,,,,,,,,,022519_p1,001,2019_Feb_25_1013,body_behavioural,3.0.4,60.02230188668464,
4,"Finally, she boarded the plane, sliding into her window seat located all the way in the back of the plane.",4,4,,,,0,4,4,4,,,,,0,36,36,36,,,,,,,,,,,,,,,,,,,,,,,,,,,,,,,1,1.7854459890004364,,,,,,,,,,,,,,,,,,,,,,,,,,,,022519_p1,001,2019_Feb_25_1013,body_behavioural,3.0.4,60.02230188668464,
4,"Barely containing her glee, she ignored the grumbles of complaint as she squeezed past the other passengers in her row and settled back in her seat. ",4,4,,,,0,4,4,4,,,,,0,37,37,37,,,,,,,,,,,,,,,,,,,,,,,,,,,,,,,9,3.1675355900006252,,,,,,,,,,,,,,,,,,,,,,,,,,,,022519_p1,001,2019_Feb_25_1013,body_behavioural,3.0.4,60.02230188668464,
4,"She was thankful that she had not only made it onto the plane in time, but also that she had been clumsy enough to forget to tie her shoes.",4,4,,,,0,4,4,4,,,,,0,38,38,38,,,,,,,,,,,,,,,,,,,,,,,,,,,,,,,1,2.8536267970048357,,,,,,,,,,,,,,,,,,,,,,,,,,,,022519_p1,001,2019_Feb_25_1013,body_behavioural,3.0.4,60.02230188668464,
4,,,,,,,0,4,4,4,,,,,,,,,,,,,,,,,,,,,,,,,,,,,,,,,,,,,,,,,,,,,,,,,,,,,,,,,,,,,,,,,,,,022519_p1,001,2019_Feb_25_1013,body_behavioural,3.0.4,60.02230188668464,
5,,,,,,,0,5,5,5,0,0,0,0,,,,,,,,,,,,,,,,,,,,,,,,,,,,,space,1.6196614319997025,space,0.9509505070018349,space,1.3028161550028017,,,,,,,,,,,,,,,,,,,,,,,,,,,,,,022519_p1,001,2019_Feb_25_1013,body_behavioural,3.0.4,60.02230188668464,
5,"Alex was a distracted, sweaty mess as he walked into the grocery store with Chloe; he was hoping that she wouldn't suspect that he was about to propose.",1,1,,,,0,5,5,5,,,,,0,0,0,0,,,,,,,,,,,,,,,,,,,,,,,,,,,,,,,9,5.886964224999247,,,,,,,,,,,,,,,,,,,,,,,,,,,,022519_p1,001,2019_Feb_25_1013,body_behavioural,3.0.4,60.02230188668464,
5,"The grocery store was brightly lit; this was one of the nicest grocery stores in Atlanta, and sunlight poured in through the glass walls.",1,1,,,,0,5,5,5,,,,,0,1,1,1,,,,,,,,,,,,,,,,,,,,,,,,,,,,,,,1,3.3360720819982816,,,,,,,,,,,,,,,,,,,,,,,,,,,,022519_p1,001,2019_Feb_25_1013,body_behavioural,3.0.4,60.02230188668464,
5,"The atmosphere was also bright because tomorrow was Thanksgiving, and most shoppers had carts piled high with turkey, stuffing, and pies.",1,1,,,,0,5,5,5,,,,,0,2,2,2,,,,,,,,,,,,,,,,,,,,,,,,,,,,,,,1,2.586490383000637,,,,,,,,,,,,,,,,,,,,,,,,,,,,022519_p1,001,2019_Feb_25_1013,body_behavioural,3.0.4,60.02230188668464,
5,Alex wanted to propose to Chloe here because he knew she would not suspect it at all. ,1,1,,,,0,5,5,5,,,,,0,3,3,3,,,,,,,,,,,,,,,,,,,,,,,,,,,,,,,1,2.269716758004506,,,,,,,,,,,,,,,,,,,,,,,,,,,,022519_p1,001,2019_Feb_25_1013,body_behavioural,3.0.4,60.02230188668464,
5,"Chloe loved surprises, and Alex loved the look on Chloe’s face when she was surprised. ",1,1,,,,0,5,5,5,,,,,0,4,4,4,,,,,,,,,,,,,,,,,,,,,,,,,,,,,,,1,2.6864772500048275,,,,,,,,,,,,,,,,,,,,,,,,,,,,022519_p1,001,2019_Feb_25_1013,body_behavioural,3.0.4,60.02230188668464,
5,"“Alex, we need to get some cranberry sauce, so let’s go there first.” ",2,1,,,,0,5,5,5,,,,,0,5,5,5,,,,,,,,,,,,,,,,,,,,,,,,,,,,,,,1,1.7865192129975185,,,,,,,,,,,,,,,,,,,,,,,,,,,,022519_p1,001,2019_Feb_25_1013,body_behavioural,3.0.4,60.02230188668464,
5,She led the way to the section of the store that held the canned foods. ,2,1,,,,0,5,5,5,,,,,0,6,6,6,,,,,,,,,,,,,,,,,,,,,,,,,,,,,,,1,1.703016995001235,,,,,,,,,,,,,,,,,,,,,,,,,,,,022519_p1,001,2019_Feb_25_1013,body_behavioural,3.0.4,60.02230188668464,
5,Alex looked like he was going to throw up. ,2,1,,,,0,5,5,5,,,,,0,7,7,7,,,,,,,,,,,,,,,,,,,,,,,,,,,,,,,1,1.8035044270000071,,,,,,,,,,,,,,,,,,,,,,,,,,,,022519_p1,001,2019_Feb_25_1013,body_behavioural,3.0.4,60.02230188668464,
5,"As they were walking there, Chloe asked him, “Is everything okay, dear?”",2,1,,,,0,5,5,5,,,,,0,8,8,8,,,,,,,,,,,,,,,,,,,,,,,,,,,,,,,9,1.3864622219989542,,,,,,,,,,,,,,,,,,,,,,,,,,,,022519_p1,001,2019_Feb_25_1013,body_behavioural,3.0.4,60.02230188668464,
5,"“Oh yeah, for sure,” he said, unconvincingly. ",2,1,,,,0,5,5,5,,,,,0,9,9,9,,,,,,,,,,,,,,,,,,,,,,,,,,,,,,,1,1.0530177000036929,,,,,,,,,,,,,,,,,,,,,,,,,,,,022519_p1,001,2019_Feb_25_1013,body_behavioural,3.0.4,60.02230188668464,
5,"She chuckled, “Alright, whatever you say.” ",2,1,,,,0,5,5,5,,,,,0,10,10,10,,,,,,,,,,,,,,,,,,,,,,,,,,,,,,,1,1.269747290003579,,,,,,,,,,,,,,,,,,,,,,,,,,,,022519_p1,001,2019_Feb_25_1013,body_behavioural,3.0.4,60.02230188668464,
5,"She was mulling over the different cans of cranberry sauce, and Alex knew she would be a while.",2,1,,,,0,5,5,5,,,,,0,11,11,11,,,,,,,,,,,,,,,,,,,,,,,,,,,,,,,1,2.569858907001617,,,,,,,,,,,,,,,,,,,,,,,,,,,,022519_p1,001,2019_Feb_25_1013,body_behavioural,3.0.4,60.02230188668464,
5,He turned his back to her and pulled out the ring.,2,2,,,,0,5,5,5,,,,,0,12,12,12,,,,,,,,,,,,,,,,,,,,,,,,,,,,,,,1,1.01992526200047,,,,,,,,,,,,,,,,,,,,,,,,,,,,022519_p1,001,2019_Feb_25_1013,body_behavioural,3.0.4,60.02230188668464,
5,He had been saving up for this for a while. ,2,2,,,,0,5,5,5,,,,,0,13,13,13,,,,,,,,,,,,,,,,,,,,,,,,,,,,,,,1,1.4033113179975771,,,,,,,,,,,,,,,,,,,,,,,,,,,,022519_p1,001,2019_Feb_25_1013,body_behavioural,3.0.4,60.02230188668464,
5,The ring had three large diamonds with smaller ones encircling each one: all of them sparkled in the light streaming in from the windows. ,2,2,,,,0,5,5,5,,,,,0,14,14,14,,,,,,,,,,,,,,,,,,,,,,,,,,,,,,,1,3.269740495001315,,,,,,,,,,,,,,,,,,,,,,,,,,,,022519_p1,001,2019_Feb_25_1013,body_behavioural,3.0.4,60.02230188668464,
5,"“Alex?”, Chloe said suspiciously. ",2,2,,,,0,5,5,5,,,,,0,15,15,15,,,,,,,,,,,,,,,,,,,,,,,,,,,,,,,9,0.6031574969965732,,,,,,,,,,,,,,,,,,,,,,,,,,,,022519_p1,001,2019_Feb_25_1013,body_behavioural,3.0.4,60.02230188668464,
5,He closed the box and whipped around. “Yes?”,2,2,,,,0,5,5,5,,,,,0,16,16,16,,,,,,,,,,,,,,,,,,,,,,,,,,,,,,,1,1.1860152470035246,,,,,,,,,,,,,,,,,,,,,,,,,,,,022519_p1,001,2019_Feb_25_1013,body_behavioural,3.0.4,60.02230188668464,
5,“Do we need anything else?”,2,2,,,,0,5,5,5,,,,,0,17,17,17,,,,,,,,,,,,,,,,,,,,,,,,,,,,,,,1,1.4030060000004596,,,,,,,,,,,,,,,,,,,,,,,,,,,,022519_p1,001,2019_Feb_25_1013,body_behavioural,3.0.4,60.02230188668464,
5,"“Yeah I don’t know, honey.” ",2,2,,,,0,5,5,5,,,,,0,18,18,18,,,,,,,,,,,,,,,,,,,,,,,,,,,,,,,1,1.5197837320010876,,,,,,,,,,,,,,,,,,,,,,,,,,,,022519_p1,001,2019_Feb_25_1013,body_behavioural,3.0.4,60.02230188668464,
5,They went to the checkout and waited in a long line.,3,2,,,,0,5,5,5,,,,,0,19,19,19,,,,,,,,,,,,,,,,,,,,,,,,,,,,,,,1,2.069611081999028,,,,,,,,,,,,,,,,,,,,,,,,,,,,022519_p1,001,2019_Feb_25_1013,body_behavioural,3.0.4,60.02230188668464,
5,Alex was staring intensely off into the distance. ,3,2,,,,0,5,5,5,,,,,0,20,20,20,,,,,,,,,,,,,,,,,,,,,,,,,,,,,,,1,1.0864113999996334,,,,,,,,,,,,,,,,,,,,,,,,,,,,022519_p1,001,2019_Feb_25_1013,body_behavioural,3.0.4,60.02230188668464,
5,Chloe was watching him trying to decide whether he looked scared or confused. ,3,2,,,,0,5,5,5,,,,,0,21,21,21,,,,,,,,,,,,,,,,,,,,,,,,,,,,,,,1,1.3864313270023558,,,,,,,,,,,,,,,,,,,,,,,,,,,,022519_p1,001,2019_Feb_25_1013,body_behavioural,3.0.4,60.02230188668464,
5,Alex looked over at their friends who were waiting by the entrance of the grocery store.,3,2,,,,0,5,5,5,,,,,0,22,22,22,,,,,,,,,,,,,,,,,,,,,,,,,,,,,,,1,3.2194062170019606,,,,,,,,,,,,,,,,,,,,,,,,,,,,022519_p1,001,2019_Feb_25_1013,body_behavioural,3.0.4,60.02230188668464,
5,They got the message and walked over slowly. ,3,2,,,,0,5,5,5,,,,,0,23,23,23,,,,,,,,,,,,,,,,,,,,,,,,,,,,,,,1,1.4033241269935388,,,,,,,,,,,,,,,,,,,,,,,,,,,,022519_p1,001,2019_Feb_25_1013,body_behavioural,3.0.4,60.02230188668464,
5,"“Honey,” he said to get her attention, “Look, Chloe, I love you so much and I want to be with you forever, I can’t imagine a day without you.”",3,2,,,,0,5,5,5,,,,,0,24,24,24,,,,,,,,,,,,,,,,,,,,,,,,,,,,,,,1,4.06886096499511,,,,,,,,,,,,,,,,,,,,,,,,,,,,022519_p1,001,2019_Feb_25_1013,body_behavioural,3.0.4,60.02230188668464,
5,"“Awww, Alex, me too.”",3,2,,,,0,5,5,5,,,,,0,25,25,25,,,,,,,,,,,,,,,,,,,,,,,,,,,,,,,1,1.036324966000393,,,,,,,,,,,,,,,,,,,,,,,,,,,,022519_p1,001,2019_Feb_25_1013,body_behavioural,3.0.4,60.02230188668464,
5,"Alex got down on one knee, and Chloe gasped. ",3,3,,,,0,5,5,5,,,,,0,26,26,26,,,,,,,,,,,,,,,,,,,,,,,,,,,,,,,1,1.0696626680000918,,,,,,,,,,,,,,,,,,,,,,,,,,,,022519_p1,001,2019_Feb_25_1013,body_behavioural,3.0.4,60.02230188668464,
5,"“I am serious, Chloe. Will you marry me?”",3,3,,,,0,5,5,5,,,,,0,27,27,27,,,,,,,,,,,,,,,,,,,,,,,,,,,,,,,1,1.003749733994482,,,,,,,,,,,,,,,,,,,,,,,,,,,,022519_p1,001,2019_Feb_25_1013,body_behavioural,3.0.4,60.02230188668464,
5,"The people in line around them realized what was happening, stepped back, and started taking pictures.",3,3,,,,0,5,5,5,,,,,0,28,28,28,,,,,,,,,,,,,,,,,,,,,,,,,,,,,,,1,1.7697063079976942,,,,,,,,,,,,,,,,,,,,,,,,,,,,022519_p1,001,2019_Feb_25_1013,body_behavioural,3.0.4,60.02230188668464,
5,Their friends were no longer trying to hide and were videotaping and taking pictures too. ,3,3,,,,0,5,5,5,,,,,0,29,29,29,,,,,,,,,,,,,,,,,,,,,,,,,,,,,,,1,2.0363410050049424,,,,,,,,,,,,,,,,,,,,,,,,,,,,022519_p1,001,2019_Feb_25_1013,body_behavioural,3.0.4,60.02230188668464,
5,Chloe looked around and laughed. ,3,3,,,,0,5,5,5,,,,,0,30,30,30,,,,,,,,,,,,,,,,,,,,,,,,,,,,,,,1,1.2026843519997783,,,,,,,,,,,,,,,,,,,,,,,,,,,,022519_p1,001,2019_Feb_25_1013,body_behavioural,3.0.4,60.02230188668464,
5,"“Yes!” she shouted, and jumped to embrace Alex in a hug. ",3,4,,,,0,5,5,5,,,,,0,31,31,31,,,,,,,,,,,,,,,,,,,,,,,,,,,,,,,1,1.8007400469941786,,,,,,,,,,,,,,,,,,,,,,,,,,,,022519_p1,001,2019_Feb_25_1013,body_behavioural,3.0.4,60.02230188668464,
5,Everyone in line clapped and cheered. ,3,4,,,,0,5,5,5,,,,,0,32,32,32,,,,,,,,,,,,,,,,,,,,,,,,,,,,,,,1,0.8863544869964244,,,,,,,,,,,,,,,,,,,,,,,,,,,,022519_p1,001,2019_Feb_25_1013,body_behavioural,3.0.4,60.02230188668464,
5,"Alex put the ring on Chloe’s finger, who was nearly spinning in excitement.",3,4,,,,0,5,5,5,,,,,0,33,33,33,,,,,,,,,,,,,,,,,,,,,,,,,,,,,,,1,2.886460182002338,,,,,,,,,,,,,,,,,,,,,,,,,,,,022519_p1,001,2019_Feb_25_1013,body_behavioural,3.0.4,60.02230188668464,
5,"“I love it, oh my gosh, it’s so glittery!",3,4,,,,0,5,5,5,,,,,0,34,34,34,,,,,,,,,,,,,,,,,,,,,,,,,,,,,,,1,2.5031597849956597,,,,,,,,,,,,,,,,,,,,,,,,,,,,022519_p1,001,2019_Feb_25_1013,body_behavioural,3.0.4,60.02230188668464,
5,Look at this!” she said as she shoved her hand in a stranger’s face.,3,4,,,,0,5,5,5,,,,,0,35,35,35,,,,,,,,,,,,,,,,,,,,,,,,,,,,,,,1,1.6173895300016738,,,,,,,,,,,,,,,,,,,,,,,,,,,,022519_p1,001,2019_Feb_25_1013,body_behavioural,3.0.4,60.02230188668464,
5,Her friends came over and hugged them.,3,4,,,,0,5,5,5,,,,,0,36,36,36,,,,,,,,,,,,,,,,,,,,,,,,,,,,,,,1,1.4030378219977138,,,,,,,,,,,,,,,,,,,,,,,,,,,,022519_p1,001,2019_Feb_25_1013,body_behavioural,3.0.4,60.02230188668464,
5,The other people let them move up to the front of the checkout line. ,3,4,,,,0,5,5,5,,,,,0,37,37,37,,,,,,,,,,,,,,,,,,,,,,,,,,,,,,,1,1.0675843250064645,,,,,,,,,,,,,,,,,,,,,,,,,,,,022519_p1,001,2019_Feb_25_1013,body_behavioural,3.0.4,60.02230188668464,
5,The cashier congratulated them and scanned their cranberry sauce. ,4,4,,,,0,5,5,5,,,,,0,38,38,38,,,,,,,,,,,,,,,,,,,,,,,,,,,,,,,1,1.5031240270036506,,,,,,,,,,,,,,,,,,,,,,,,,,,,022519_p1,001,2019_Feb_25_1013,body_behavioural,3.0.4,60.02230188668464,
5,The total came to $4 and Chloe paid in cash while getting distracted and staring at the ring as she pulled out the bills.,4,4,,,,0,5,5,5,,,,,0,39,39,39,,,,,,,,,,,,,,,,,,,,,,,,,,,,,,,1,5.151053729998239,,,,,,,,,,,,,,,,,,,,,,,,,,,,022519_p1,001,2019_Feb_25_1013,body_behavioural,3.0.4,60.02230188668464,
5,"Alex grabbed the cans, and they walked out with their friends bunched around them. ",4,4,,,,0,5,5,5,,,,,0,40,40,40,,,,,,,,,,,,,,,,,,,,,,,,,,,,,,,1,1.3030777770036366,,,,,,,,,,,,,,,,,,,,,,,,,,,,022519_p1,001,2019_Feb_25_1013,body_behavioural,3.0.4,60.02230188668464,
5,,,,,,,0,5,5,5,,,,,,,,,,,,,,,,,,,,,,,,,,,,,,,,,,,,,,,,,,,,,,,,,,,,,,,,,,,,,,,,,,,,022519_p1,001,2019_Feb_25_1013,body_behavioural,3.0.4,60.02230188668464,
6,,,,,,,0,6,6,6,0,0,0,0,,,,,,,,,,,,,,,,,,,,,,,,,,,,,space,1.0027967569985776,space,0.802874740002153,space,2.052895239998179,,,,,,,,,,,,,,,,,,,,,,,,,,,,,,022519_p1,001,2019_Feb_25_1013,body_behavioural,3.0.4,60.02230188668464,
6,"Maria walked into lecture beside Henry, and she was mentally rehearsing what she should say to break up with him.",1,1,,,,0,6,6,6,,,,,0,0,0,0,,,,,,,,,,,,,,,,,,,,,,,,,,,,,,,9,3.7866656449987204,,,,,,,,,,,,,,,,,,,,,,,,,,,,022519_p1,001,2019_Feb_25_1013,body_behavioural,3.0.4,60.02230188668464,
6,"She had been putting it off with a growing sense of dread, and now this lecture was the last chance before she had to leave campus. ",1,1,,,,0,6,6,6,,,,,0,1,1,1,,,,,,,,,,,,,,,,,,,,,,,,,,,,,,,1,4.833434175001457,,,,,,,,,,,,,,,,,,,,,,,,,,,,022519_p1,001,2019_Feb_25_1013,body_behavioural,3.0.4,60.02230188668464,
6,"The lecture hall was large, with a stage for the lecturer in the front of the room, and tiered seats that stretched up in 15 stacked rows. ",1,1,,,,0,6,6,6,,,,,0,2,2,2,,,,,,,,,,,,,,,,,,,,,,,,,,,,,,,1,1.5685982990034972,,,,,,,,,,,,,,,,,,,,,,,,,,,,022519_p1,001,2019_Feb_25_1013,body_behavioural,3.0.4,60.02230188668464,
6,"The clock struck 3 pm, and Maria and Henry slid into neighboring seats near the back of the room.",1,1,,,,0,6,6,6,,,,,0,3,3,3,,,,,,,,,,,,,,,,,,,,,,,,,,,,,,,1,2.0038230549980653,,,,,,,,,,,,,,,,,,,,,,,,,,,,022519_p1,001,2019_Feb_25_1013,body_behavioural,3.0.4,60.02230188668464,
6,"“Good afternoon, everybody,” said the professor, fiddling to connect his laptop with the projector.",2,1,,,,0,6,6,6,,,,,0,4,4,4,,,,,,,,,,,,,,,,,,,,,,,,,,,,,,,1,5.936814993001462,,,,,,,,,,,,,,,,,,,,,,,,,,,,022519_p1,001,2019_Feb_25_1013,body_behavioural,3.0.4,60.02230188668464,
6,“Welcome to week 4 of Intro to Ancient Philosophy. ,2,1,,,,0,6,6,6,,,,,0,5,5,5,,,,,,,,,,,,,,,,,,,,,,,,,,,,,,,1,0.8197332869967795,,,,,,,,,,,,,,,,,,,,,,,,,,,,022519_p1,001,2019_Feb_25_1013,body_behavioural,3.0.4,60.02230188668464,
6,Today we are going to continue our lecture on Aristotelian Philosophy.”,2,1,,,,0,6,6,6,,,,,0,6,6,6,,,,,,,,,,,,,,,,,,,,,,,,,,,,,,,1,1.8197943420018419,,,,,,,,,,,,,,,,,,,,,,,,,,,,022519_p1,001,2019_Feb_25_1013,body_behavioural,3.0.4,60.02230188668464,
6,Everyone in class pulled out their notebooks and settled in their seats as the slides appeared on the large front screens.,2,1,,,,0,6,6,6,,,,,0,7,7,7,,,,,,,,,,,,,,,,,,,,,,,,,,,,,,,1,1.8865874670009362,,,,,,,,,,,,,,,,,,,,,,,,,,,,022519_p1,001,2019_Feb_25_1013,body_behavioural,3.0.4,60.02230188668464,
6,"“Henry,” Maria whispered.",2,1,,,,0,6,6,6,,,,,0,8,8,8,,,,,,,,,,,,,,,,,,,,,,,,,,,,,,,9,0.8173890399993979,,,,,,,,,,,,,,,,,,,,,,,,,,,,022519_p1,001,2019_Feb_25_1013,body_behavioural,3.0.4,60.02230188668464,
6,"“Hmm?” he replied, distracted.",2,1,,,,0,6,6,6,,,,,0,9,9,9,,,,,,,,,,,,,,,,,,,,,,,,,,,,,,,1,1.25339797000197,,,,,,,,,,,,,,,,,,,,,,,,,,,,022519_p1,001,2019_Feb_25_1013,body_behavioural,3.0.4,60.02230188668464,
6,"“Henry, I need to tell you something really important, and I don’t know when else I’ll have a chance to do it,” she said.",2,1,,,,0,6,6,6,,,,,0,10,10,10,,,,,,,,,,,,,,,,,,,,,,,,,,,,,,,1,2.086175935000938,,,,,,,,,,,,,,,,,,,,,,,,,,,,022519_p1,001,2019_Feb_25_1013,body_behavioural,3.0.4,60.02230188668464,
6,"“Okay, what's up?”, he said, tilting his head close to her. ",2,1,,,,0,6,6,6,,,,,0,11,11,11,,,,,,,,,,,,,,,,,,,,,,,,,,,,,,,1,1.2198392749996856,,,,,,,,,,,,,,,,,,,,,,,,,,,,022519_p1,001,2019_Feb_25_1013,body_behavioural,3.0.4,60.02230188668464,
6," “Henry, I don’t think I can do long distance.",2,2,,,,0,6,6,6,,,,,0,12,12,12,,,,,,,,,,,,,,,,,,,,,,,,,,,,,,,1,0.936554014995636,,,,,,,,,,,,,,,,,,,,,,,,,,,,022519_p1,001,2019_Feb_25_1013,body_behavioural,3.0.4,60.02230188668464,
6,"I think what we have here is great, but I think it will be really hard when we are so far apart for such an extended period.",2,2,,,,0,6,6,6,,,,,0,13,13,13,,,,,,,,,,,,,,,,,,,,,,,,,,,,,,,1,2.4362093320014537,,,,,,,,,,,,,,,,,,,,,,,,,,,,022519_p1,001,2019_Feb_25_1013,body_behavioural,3.0.4,60.02230188668464,
6,"I’m sorry I’m telling you now in lecture, but I'm out of time, and it’s taken me awhile to come to this decision.",2,2,,,,0,6,6,6,,,,,0,14,14,14,,,,,,,,,,,,,,,,,,,,,,,,,,,,,,,1,2.619999552000081,,,,,,,,,,,,,,,,,,,,,,,,,,,,022519_p1,001,2019_Feb_25_1013,body_behavioural,3.0.4,60.02230188668464,
6,"I really think this is best, and who knows what will happen when I get back from my study abroad.” ",2,2,,,,0,6,6,6,,,,,0,15,15,15,,,,,,,,,,,,,,,,,,,,,,,,,,,,,,,1,5.037393193000753,,,,,,,,,,,,,,,,,,,,,,,,,,,,022519_p1,001,2019_Feb_25_1013,body_behavioural,3.0.4,60.02230188668464,
6,"While Henry tried to think of what to say, he and Maria stared unlistening at the professor as he started the lecture, “First we will talk about Aristotle’s work, The Categories, which is about the kinds, or categories, of things that there are.",3,2,,,,0,6,6,6,,,,,0,16,16,16,,,,,,,,,,,,,,,,,,,,,,,,,,,,,,,9,6.2529981570041855,,,,,,,,,,,,,,,,,,,,,,,,,,,,022519_p1,001,2019_Feb_25_1013,body_behavioural,3.0.4,60.02230188668464,
6,"In fact, our term category comes from this Aristotelian context.” ",3,2,,,,0,6,6,6,,,,,0,17,17,17,,,,,,,,,,,,,,,,,,,,,,,,,,,,,,,1,0.9696730049981852,,,,,,,,,,,,,,,,,,,,,,,,,,,,022519_p1,001,2019_Feb_25_1013,body_behavioural,3.0.4,60.02230188668464,
6,"Henry felt horrible, like the wind had just been knocked out of him.",3,2,,,,0,6,6,6,,,,,0,18,18,18,,,,,,,,,,,,,,,,,,,,,,,,,,,,,,,1,1.3364413419985794,,,,,,,,,,,,,,,,,,,,,,,,,,,,022519_p1,001,2019_Feb_25_1013,body_behavioural,3.0.4,60.02230188668464,
6,"A few tears started to fall down his cheeks as he whispered back, “Maria, I think we can make it work.",3,3,,,,0,6,6,6,,,,,0,19,19,19,,,,,,,,,,,,,,,,,,,,,,,,,,,,,,,1,2.3367113880012766,,,,,,,,,,,,,,,,,,,,,,,,,,,,022519_p1,001,2019_Feb_25_1013,body_behavioural,3.0.4,60.02230188668464,
6,I’ll come visit you.,3,3,,,,0,6,6,6,,,,,0,20,20,20,,,,,,,,,,,,,,,,,,,,,,,,,,,,,,,1,0.8359962300019106,,,,,,,,,,,,,,,,,,,,,,,,,,,,022519_p1,001,2019_Feb_25_1013,body_behavioural,3.0.4,60.02230188668464,
6,It will be fine.,3,3,,,,0,6,6,6,,,,,0,21,21,21,,,,,,,,,,,,,,,,,,,,,,,,,,,,,,,1,1.6516378779997467,,,,,,,,,,,,,,,,,,,,,,,,,,,,022519_p1,001,2019_Feb_25_1013,body_behavioural,3.0.4,60.02230188668464,
6,I don’t want to break up.”,3,3,,,,0,6,6,6,,,,,0,22,22,22,,,,,,,,,,,,,,,,,,,,,,,,,,,,,,,1,0.5371180310030468,,,,,,,,,,,,,,,,,,,,,,,,,,,,022519_p1,001,2019_Feb_25_1013,body_behavioural,3.0.4,60.02230188668464,
6,"Maria felt so guilty that she nearly gave in, but forced herself to hold her ground, knowing that this would make things much easier for both of them in the future.",3,3,,,,0,6,6,6,,,,,0,23,23,23,,,,,,,,,,,,,,,,,,,,,,,,,,,,,,,9,3.520337540001492,,,,,,,,,,,,,,,,,,,,,,,,,,,,022519_p1,001,2019_Feb_25_1013,body_behavioural,3.0.4,60.02230188668464,
6,"She gave his hand a squeeze but shook her head sadly, before turning back to her laptop and half-heartedly taking notes on the lecture which they sat through in painful silence.",3,3,,,,0,6,6,6,,,,,0,24,24,24,,,,,,,,,,,,,,,,,,,,,,,,,,,,,,,1,3.7698726699964027,,,,,,,,,,,,,,,,,,,,,,,,,,,,022519_p1,001,2019_Feb_25_1013,body_behavioural,3.0.4,60.02230188668464,
6,"Finally, the professor was wrapping up, “This is what Aristotle means when he says that an animal’s or plant’s form rather than its matter is its nature. ",4,3,,,,0,6,6,6,,,,,0,25,25,25,,,,,,,,,,,,,,,,,,,,,,,,,,,,,,,1,2.570079036995594,,,,,,,,,,,,,,,,,,,,,,,,,,,,022519_p1,001,2019_Feb_25_1013,body_behavioural,3.0.4,60.02230188668464,
6,"Alright class, that’s all for today. ",4,3,,,,0,6,6,6,,,,,0,26,26,26,,,,,,,,,,,,,,,,,,,,,,,,,,,,,,,1,0.5522458310006186,,,,,,,,,,,,,,,,,,,,,,,,,,,,022519_p1,001,2019_Feb_25_1013,body_behavioural,3.0.4,60.02230188668464,
6,"Remember the final exam is coming up next week on Tuesday on the Pre-Socratics, Plato, and Aristotle, so feel free to come by office hours to discuss if you have the inspiration.",4,3,,,,0,6,6,6,,,,,0,27,27,27,,,,,,,,,,,,,,,,,,,,,,,,,,,,,,,1,1.6702819190031732,,,,,,,,,,,,,,,,,,,,,,,,,,,,022519_p1,001,2019_Feb_25_1013,body_behavioural,3.0.4,60.02230188668464,
6,"And if anyone is doing the 20 page paper in lieu of the final, that’s due next Tuesday as well.",4,3,,,,0,6,6,6,,,,,0,28,28,28,,,,,,,,,,,,,,,,,,,,,,,,,,,,,,,1,2.350595481999335,,,,,,,,,,,,,,,,,,,,,,,,,,,,022519_p1,001,2019_Feb_25_1013,body_behavioural,3.0.4,60.02230188668464,
6,"Have a good day, folks.” ",4,3,,,,0,6,6,6,,,,,0,29,29,29,,,,,,,,,,,,,,,,,,,,,,,,,,,,,,,1,0.9673225570004433,,,,,,,,,,,,,,,,,,,,,,,,,,,,022519_p1,001,2019_Feb_25_1013,body_behavioural,3.0.4,60.02230188668464,
6,"Maria and Henry packed up hurriedly, and slipped quickly out of the class before the rest of the crowd. ",4,3,,,,0,6,6,6,,,,,0,30,30,30,,,,,,,,,,,,,,,,,,,,,,,,,,,,,,,1,2.069850644998951,,,,,,,,,,,,,,,,,,,,,,,,,,,,022519_p1,001,2019_Feb_25_1013,body_behavioural,3.0.4,60.02230188668464,
6,"They hugged outside, and both of them were crying. ",4,4,,,,0,6,6,6,,,,,0,31,31,31,,,,,,,,,,,,,,,,,,,,,,,,,,,,,,,1,1.353325224998116,,,,,,,,,,,,,,,,,,,,,,,,,,,,022519_p1,001,2019_Feb_25_1013,body_behavioural,3.0.4,60.02230188668464,
6,"“Maria, I don’t want you to leave.",4,4,,,,0,6,6,6,,,,,0,32,32,32,,,,,,,,,,,,,,,,,,,,,,,,,,,,,,,9,7.386845148001157,,,,,,,,,,,,,,,,,,,,,,,,,,,,022519_p1,001,2019_Feb_25_1013,body_behavioural,3.0.4,60.02230188668464,
6,I don’t want this to end. ,4,4,,,,0,6,6,6,,,,,0,33,33,33,,,,,,,,,,,,,,,,,,,,,,,,,,,,,,,1,0.6368332150013885,,,,,,,,,,,,,,,,,,,,,,,,,,,,022519_p1,001,2019_Feb_25_1013,body_behavioural,3.0.4,60.02230188668464,
6,"But if this is what you think is best, I can’t make it otherwise.” ",4,4,,,,0,6,6,6,,,,,0,34,34,34,,,,,,,,,,,,,,,,,,,,,,,,,,,,,,,1,0.7029615499995998,,,,,,,,,,,,,,,,,,,,,,,,,,,,022519_p1,001,2019_Feb_25_1013,body_behavioural,3.0.4,60.02230188668464,
6,"They hugged one last time, and Maria ran off to get her things from her dorm.",4,4,,,,0,6,6,6,,,,,0,35,35,35,,,,,,,,,,,,,,,,,,,,,,,,,,,,,,,1,1.016653460006637,,,,,,,,,,,,,,,,,,,,,,,,,,,,022519_p1,001,2019_Feb_25_1013,body_behavioural,3.0.4,60.02230188668464,
6,Henry sadly watched her go. ,4,4,,,,0,6,6,6,,,,,0,36,36,36,,,,,,,,,,,,,,,,,,,,,,,,,,,,,,,1,0.5869951699933154,,,,,,,,,,,,,,,,,,,,,,,,,,,,022519_p1,001,2019_Feb_25_1013,body_behavioural,3.0.4,60.02230188668464,
6,,,,,,,0,6,6,6,,,,,,,,,,,,,,,,,,,,,,,,,,,,,,,,,,,,,,,,,,,,,,,,,,,,,,,,,,,,,,,,,,,,022519_p1,001,2019_Feb_25_1013,body_behavioural,3.0.4,60.02230188668464,
7,,,,,,,0,7,7,7,0,0,0,0,,,,,,,,,,,,,,,,,,,,,,,,,,,,,space,0.8698726449947571,space,1.0865158599990536,space,1.0697010799995041,,,,,,,,,,,,,,,,,,,,,,,,,,,,,,022519_p1,001,2019_Feb_25_1013,body_behavioural,3.0.4,60.02230188668464,
7,Charlie saw Alma as they walked into class and he motioned for her to come sit in the back next to him: they had business to discuss.,1,1,,,,0,7,7,7,,,,,0,0,0,0,,,,,,,,,,,,,,,,,,,,,,,,,,,,,,,9,4.067557849994046,,,,,,,,,,,,,,,,,,,,,,,,,,,,022519_p1,001,2019_Feb_25_1013,body_behavioural,3.0.4,60.02230188668464,
7,Charlie and Alma were both economics students with entrepreneurial bents.,1,1,,,,0,7,7,7,,,,,0,1,1,1,,,,,,,,,,,,,,,,,,,,,,,,,,,,,,,1,2.9865193869991344,,,,,,,,,,,,,,,,,,,,,,,,,,,,022519_p1,001,2019_Feb_25_1013,body_behavioural,3.0.4,60.02230188668464,
7,They were also both very busy and in the same class.,1,1,,,,0,7,7,7,,,,,0,2,2,2,,,,,,,,,,,,,,,,,,,,,,,,,,,,,,,1,1.0695549119991483,,,,,,,,,,,,,,,,,,,,,,,,,,,,022519_p1,001,2019_Feb_25_1013,body_behavioural,3.0.4,60.02230188668464,
7,"After talking at a party, Charlie had discovered that Alma was looking for financing for her web development company.",1,1,,,,0,7,7,7,,,,,0,3,3,3,,,,,,,,,,,,,,,,,,,,,,,,,,,,,,,1,2.553105865001271,,,,,,,,,,,,,,,,,,,,,,,,,,,,022519_p1,001,2019_Feb_25_1013,body_behavioural,3.0.4,60.02230188668464,
7,It was serendipitous because he had been talking with other members of his venture capital group about making an investment. ,1,1,,,,0,7,7,7,,,,,0,4,4,4,,,,,,,,,,,,,,,,,,,,,,,,,,,,,,,1,3.000843622001412,,,,,,,,,,,,,,,,,,,,,,,,,,,,022519_p1,001,2019_Feb_25_1013,body_behavioural,3.0.4,60.02230188668464,
7,"His financial group had come to a decision that morning about Alma’s idea, and he didn't want to wait until after class to discuss the proposal with her. ",1,1,,,,0,7,7,7,,,,,0,5,5,5,,,,,,,,,,,,,,,,,,,,,,,,,,,,,,,1,2.919982761995925,,,,,,,,,,,,,,,,,,,,,,,,,,,,022519_p1,001,2019_Feb_25_1013,body_behavioural,3.0.4,60.02230188668464,
7,"The class was in a large auditorium with small, foldable desks on the side of each cushioned chair. ",1,1,,,,0,7,7,7,,,,,0,6,6,6,,,,,,,,,,,,,,,,,,,,,,,,,,,,,,,1,7.070809595003084,,,,,,,,,,,,,,,,,,,,,,,,,,,,022519_p1,001,2019_Feb_25_1013,body_behavioural,3.0.4,60.02230188668464,
7,"There were large windows on both sides of the hall, and they could see the first flurries of a winter storm starting outside. ",1,1,,,,0,7,7,7,,,,,0,7,7,7,,,,,,,,,,,,,,,,,,,,,,,,,,,,,,,1,3.703282049995323,,,,,,,,,,,,,,,,,,,,,,,,,,,,022519_p1,001,2019_Feb_25_1013,body_behavioural,3.0.4,60.02230188668464,
7,"“Here we are at Lecture Seven already in History of the Eternal City,” said the professor. ",2,1,,,,0,7,7,7,,,,,0,8,8,8,,,,,,,,,,,,,,,,,,,,,,,,,,,,,,,1,1.6197093170048902,,,,,,,,,,,,,,,,,,,,,,,,,,,,022519_p1,001,2019_Feb_25_1013,body_behavioural,3.0.4,60.02230188668464,
7,“We're going to talk today about the age of the first Roman emperor: Augustus.” ,2,1,,,,0,7,7,7,,,,,0,9,9,9,,,,,,,,,,,,,,,,,,,,,,,,,,,,,,,1,0.6357377550011734,,,,,,,,,,,,,,,,,,,,,,,,,,,,022519_p1,001,2019_Feb_25_1013,body_behavioural,3.0.4,60.02230188668464,
7,"She went into some recap of the last lecture, and Charlie took this as an opportunity to start talking to Alma.",2,1,,,,0,7,7,7,,,,,0,10,10,10,,,,,,,,,,,,,,,,,,,,,,,,,,,,,,,9,2.553131407003093,,,,,,,,,,,,,,,,,,,,,,,,,,,,022519_p1,001,2019_Feb_25_1013,body_behavioural,3.0.4,60.02230188668464,
7,"“Okay so I’ve been thinking about your startup idea, and I have talked about it with my fellow investors.",2,2,,,,0,7,7,7,,,,,0,11,11,11,,,,,,,,,,,,,,,,,,,,,,,,,,,,,,,1,1.9697895369972684,,,,,,,,,,,,,,,,,,,,,,,,,,,,022519_p1,001,2019_Feb_25_1013,body_behavioural,3.0.4,60.02230188668464,
7,We’d like to invest half of what you originally suggested.,2,2,,,,0,7,7,7,,,,,0,12,12,12,,,,,,,,,,,,,,,,,,,,,,,,,,,,,,,1,0.8030789119948167,,,,,,,,,,,,,,,,,,,,,,,,,,,,022519_p1,001,2019_Feb_25_1013,body_behavioural,3.0.4,60.02230188668464,
7,"Rather than $30,000, we start with $15,000.",2,2,,,,0,7,7,7,,,,,0,13,13,13,,,,,,,,,,,,,,,,,,,,,,,,,,,,,,,1,1.8363787650014274,,,,,,,,,,,,,,,,,,,,,,,,,,,,022519_p1,001,2019_Feb_25_1013,body_behavioural,3.0.4,60.02230188668464,
7,We would see how the company does and then invest the other half later.” ,2,2,,,,0,7,7,7,,,,,0,14,14,14,,,,,,,,,,,,,,,,,,,,,,,,,,,,,,,1,2.003140508000797,,,,,,,,,,,,,,,,,,,,,,,,,,,,022519_p1,001,2019_Feb_25_1013,body_behavioural,3.0.4,60.02230188668464,
7,"Alma, tapping her pen on her notebook, narrowed her eyes and pursed her lips.",2,2,,,,0,7,7,7,,,,,0,15,15,15,,,,,,,,,,,,,,,,,,,,,,,,,,,,,,,1,2.4197068700013915,,,,,,,,,,,,,,,,,,,,,,,,,,,,022519_p1,001,2019_Feb_25_1013,body_behavioural,3.0.4,60.02230188668464,
7,She turned back to the lecture as she considered this.,2,2,,,,0,7,7,7,,,,,0,16,16,16,,,,,,,,,,,,,,,,,,,,,,,,,,,,,,,1,1.352990569997928,,,,,,,,,,,,,,,,,,,,,,,,,,,,022519_p1,001,2019_Feb_25_1013,body_behavioural,3.0.4,60.02230188668464,
7,"The professor was going on: “The senate had conferred upon him the title of Augustus the sacred and revered one, the restorer of traditional values, the city’s new religious leader, the restorer of temples. ",3,2,,,,0,7,7,7,,,,,0,17,17,17,,,,,,,,,,,,,,,,,,,,,,,,,,,,,,,1,3.236673441999301,,,,,,,,,,,,,,,,,,,,,,,,,,,,022519_p1,001,2019_Feb_25_1013,body_behavioural,3.0.4,60.02230188668464,
7,"Augustus also sought to beautify Rome, make it into a new Athens, and dispel the criticisms of Rome as disorganized and ugly.”",3,2,,,,0,7,7,7,,,,,0,18,18,18,,,,,,,,,,,,,,,,,,,,,,,,,,,,,,,1,2.6531084520029253,,,,,,,,,,,,,,,,,,,,,,,,,,,,022519_p1,001,2019_Feb_25_1013,body_behavioural,3.0.4,60.02230188668464,
7,"Alma turned back to Charlie and offered her rebuttal, “I don’t know about that: it’s not going to be possible to implement our ideas effectively unless the project is fully funded. ",3,3,,,,0,7,7,7,,,,,0,19,19,19,,,,,,,,,,,,,,,,,,,,,,,,,,,,,,,9,3.5175385999973514,,,,,,,,,,,,,,,,,,,,,,,,,,,,022519_p1,001,2019_Feb_25_1013,body_behavioural,3.0.4,60.02230188668464,
7,We would have to find other investors and that would set us back in our timeline. ,3,3,,,,0,7,7,7,,,,,0,20,20,20,,,,,,,,,,,,,,,,,,,,,,,,,,,,,,,1,1.5530663250028738,,,,,,,,,,,,,,,,,,,,,,,,,,,,022519_p1,001,2019_Feb_25_1013,body_behavioural,3.0.4,60.02230188668464,
7,"Our profit projections assumed we'd be starting relatively soon, not months down the line.” ",3,3,,,,0,7,7,7,,,,,0,21,21,21,,,,,,,,,,,,,,,,,,,,,,,,,,,,,,,1,2.8198179920000257,,,,,,,,,,,,,,,,,,,,,,,,,,,,022519_p1,001,2019_Feb_25_1013,body_behavioural,3.0.4,60.02230188668464,
7,They whispered back and forth during the whole class in order to work out a compromise. ,3,3,,,,0,7,7,7,,,,,0,22,22,22,,,,,,,,,,,,,,,,,,,,,,,,,,,,,,,1,1.8338689399970463,,,,,,,,,,,,,,,,,,,,,,,,,,,,022519_p1,001,2019_Feb_25_1013,body_behavioural,3.0.4,60.02230188668464,
7,"Finally, the class ended, and the professor dismissed the students with a reminder that the midterm paper was due on Thursday and that they should email their papers to the TA.",4,3,,,,0,7,7,7,,,,,0,23,23,23,,,,,,,,,,,,,,,,,,,,,,,,,,,,,,,9,6.251032469997881,,,,,,,,,,,,,,,,,,,,,,,,,,,,022519_p1,001,2019_Feb_25_1013,body_behavioural,3.0.4,60.02230188668464,
7,"Everyone, except Charlie and Alma, packed up their things and headed out of the lecture hall to get to their next class. ",4,3,,,,0,7,7,7,,,,,0,24,24,24,,,,,,,,,,,,,,,,,,,,,,,,,,,,,,,1,1.8197535420040367,,,,,,,,,,,,,,,,,,,,,,,,,,,,022519_p1,001,2019_Feb_25_1013,body_behavioural,3.0.4,60.02230188668464,
7,"“Alright, so we’ll have the $30,000 wired to you by tomorrow,” Charlie said. ",4,4,,,,0,7,7,7,,,,,0,25,25,25,,,,,,,,,,,,,,,,,,,,,,,,,,,,,,,1,0.8863521669991314,,,,,,,,,,,,,,,,,,,,,,,,,,,,022519_p1,001,2019_Feb_25_1013,body_behavioural,3.0.4,60.02230188668464,
7,"This wasn't ideal for Charlie, but Alma had refused to budge, and his investment group had told him they were willing to pay the full amount if necessary. ",4,4,,,,0,7,7,7,,,,,0,26,26,26,,,,,,,,,,,,,,,,,,,,,,,,,,,,,,,1,3.4529544149991125,,,,,,,,,,,,,,,,,,,,,,,,,,,,022519_p1,001,2019_Feb_25_1013,body_behavioural,3.0.4,60.02230188668464,
7,"They shook hands, walked out of the now-empty lecture hall, and made plans to sign the official paperwork the next day.",4,4,,,,0,7,7,7,,,,,0,27,27,27,,,,,,,,,,,,,,,,,,,,,,,,,,,,,,,1,2.017300557999988,,,,,,,,,,,,,,,,,,,,,,,,,,,,022519_p1,001,2019_Feb_25_1013,body_behavioural,3.0.4,60.02230188668464,
7,,,,,,,0,7,7,7,,,,,,,,,,,,,,,,,,,,,,,,,,,,,,,,,,,,,,,,,,,,,,,,,,,,,,,,,,,,,,,,,,,,022519_p1,001,2019_Feb_25_1013,body_behavioural,3.0.4,60.02230188668464,
,,,,,,,,,,,,,,,,,,,,,,,,,,,,,,,,,,,,,,,,,,,,,,,,,,,1050.7652306630043,space,1.3364491070024087,,,,,,,,,,,,,,,,,,,,,,,,,022519_p1,001,2019_Feb_25_1013,body_behavioural,3.0.4,60.02230188668464,
,,,,,,The next task in the experiment is to recall each story to the best of your ability.,,,,,,,,,,,,,0,0,0,0,,,,,,,,,,,,,,,,,,,,,,,,,,,,,,,,space,2.586503302001802,,,,,,,,,,,,,,,,,,,,,,,022519_p1,001,2019_Feb_25_1013,body_behavioural,3.0.4,60.02230188668464,
,,,,,,"You will be presented with the story title, names, the images, and a blank text box for each story.",,,,,,,,,,,,,0,1,1,1,,,,,,,,,,,,,,,,,,,,,,,,,,,,,,,,space,1.7861562199977925,,,,,,,,,,,,,,,,,,,,,,,022519_p1,001,2019_Feb_25_1013,body_behavioural,3.0.4,60.02230188668464,
,,,,,,Describe the story with as many details as you can remember in the space provided. ,,,,,,,,,,,,,0,2,2,2,,,,,,,,,,,,,,,,,,,,,,,,,,,,,,,,space,1.6033866569996462,,,,,,,,,,,,,,,,,,,,,,,022519_p1,001,2019_Feb_25_1013,body_behavioural,3.0.4,60.02230188668464,
,,,,,,"When you are finished recalling one story, to move onto the next one hit ‘return’. ",,,,,,,,,,,,,0,3,3,3,,,,,,,,,,,,,,,,,,,,,,,,,,,,,,,,space,3.0531613069979358,,,,,,,,,,,,,,,,,,,,,,,022519_p1,001,2019_Feb_25_1013,body_behavioural,3.0.4,60.02230188668464,
,,,,,,There is a 5 minute time limit to make your response. ,,,,,,,,,,,,,0,4,4,4,,,,,,,,,,,,,,,,,,,,,,,,,,,,,,,,space,1.486464604997309,,,,,,,,,,,,,,,,,,,,,,,022519_p1,001,2019_Feb_25_1013,body_behavioural,3.0.4,60.02230188668464,
0,,,,,,,,,,,,,,,,,,,,,,,0,0,0,0,,,,,,,,,,,,,,,,,,,,,,,,,,,,,,space,0.8861488819966326,"The two businessmen arrived at a very nice restaurant, and they sat down to discuss a merger. one of them suggested the merger because he felt the other's business wouldn't be able to survive unless the merger happened. the other businessman said he needed to think about it. after talking for a while they decided to go through with it and they clinked their glasses parenleft one of them was drinking a martiniparenright",,,,,,,,,,,,,,,,,,,,022519_p1,001,2019_Feb_25_1013,body_behavioural,3.0.4,60.02230188668464,
1,,,,,,,,,,,,,,,,,,,,,,,0,1,1,1,,,,,,,,,,,,,,,,,,,,,,,,,,,,,,space,2.1198398650012678,"Sven and isabel had just gone on a trip to meet isabel's family and sven had received the family's blessing to propose to her. he also had so much fun there and was even more confident than before about his decision to propose. the two of them are at the airport security line when he starts to reflect on his choice excitedly--so excitedly that he takes the ring out and looks at it while she isn't looking at him parenleftshe's flustered because she keeps having to look through her bag for various items such as her laptopparenright. he goes through the security scanner first and immediately realizes his mistake when the security guard pulls him aside--he had left the ring in his pocket. he takes the opportunity, because everyone including isabel is looking at him, to just propose to her. he tells her he knows it's not what he planned but asks anyway. isabel is completely shocked, as is everyone else who is witnessing this, and she runs away. he chases her down and she says yes. they're so excited that they are doublequotepractically skippingdoublequote to the gate. on the plane the people next to them congratulate them and tell them they were live tweeting everything and that it's already gone viral. isabel is embarassed and happy at the same time.",,,,,,,,,,,,,,,,,,,,022519_p1,001,2019_Feb_25_1013,body_behavioural,3.0.4,60.02230188668464,
2,,,,,,,,,,,,,,,,,,,,,,,0,2,2,2,,,,,,,,,,,,,,,,,,,,,,,,,,,,,,space,1.7530705300014233,"Thomas is really nervous the whole time. he asks sadie to come to a diner and once she arrives, the waitress leads them to a fairly dingy table. he's sick with worry and just overall very tense about what he's planned to do. he's being kindof cold to sadie and gave her a half-hearted hug when she came in. they sit down and she asks him about his day. she clearly is happy to see him and said earlier that she'd missed him that day. he doesn't even let the conversation happen and starts to rehearse his breakup speech, starting with doublequotei have to figure out some stuff...on my owndoublequote. she immediately senses what's happening and becomes silent and withdrawn. the waitress interrupts his speech and asks them what they want to order--neither of them had looked at the menus and so thomas orders a hamburger with no tomatoes while sadie asks the waitress if the ruben is any good and orders that for herself. they get back to talking and thomas assures her that this is in fact what he wants, that she's great and he loves spending time with her but that he wants a break. she gets up and shakes her reuben at him and tells him to never call her again. her shoes make noise on the black and white linoleum floor as she walks out, and the bell on the door clinks doublequotecheerfullydoublequote as she leaves. he is shocked at how fast the conversation transpired, and takes a bite of his burger, which tastes dry and fishy, and he wonders if it's the restaurant or what just happened to him that's contributing to that taste.",,,,,,,,,,,,,,,,,,,,022519_p1,001,2019_Feb_25_1013,body_behavioural,3.0.4,60.02230188668464,
3,,,,,,,,,,,,,,,,,,,,,,,0,3,3,3,,,,,,,,,,,,,,,,,,,,,,,,,,,,,,space,0.9361522020044504,"Simon and carina noticed each other when they walked into the supermarket, which was an industrial-style design with exposed cielings and large packages of food. they were both newparenleftquestionparenright to boston parenleftaquestionparenright and they took an immediate interest in each other, but they went their separate ways. they eventually ended up in the butcher aisle because they were both actually preparing food for a barbequeue. they started flirting a little, making jokes about the chickens. they got along pretty well, he recommended his favorite sauce and helped her pick out a cut of meat while she helped him pick out onions and other vegetables for a kebab she recommended he make. they walked to the checkout together as they continued to get to know each other. he was disappointed that the checkout line was short because he really wanted to keep talking with her. he took the chance to ask her out, saying that they could have dinner in harvard square which is really nice in the summer, and also harvard's campus is beautiful too. she was into it and gave him her number hastily. then it was her turn to check out--he took the opportunity to perform a gesture. he moved the divider and told the cashier that they were actually paying together. he said this was kindof a date anyway. she thought it was ridiculous but also very sweet. as they went back to their cars they stole backwards glances in the parking lot. ",,,,,,,,,,,,,,,,,,,,022519_p1,001,2019_Feb_25_1013,body_behavioural,3.0.4,60.02230188668464,
4,,,,,,,,,,,,,,,,,,,,,,,0,4,4,4,,,,,,,,,,,,,,,,,,,,,,,,,,,,,,space,0.8527742299993406,"David noticed anna the moment she walked parenleftor ranparenright into the airport. he thought she was beautiful and observed her very closely. she was late for her flight because her yoga class had run a little late and she had taken some time afterwards to chat with friends. she was completely frazzled, but he nevertheless thought she was attractive, and she actually reminded him of one of his favorite paintings. as he was watching her, she realized her shoe was untied and knelt down to tie it. at that very moment he noticed a traveler with a tall cart of luggage coming toward her. neither her nor the traveler noticed each other or anticipated what was about to happen, but david did. he lunged infront of the traveler and they rolled away on the floor. he smiled at her and asked her if she was ok. she whispered that she was, and that she'd almost gotten doublequotesmoosheddoublequote by the cart. he helped her up and offered to take her to her gate. she half-heartedly resisted but he insisted he had nothing better to do. they talked the whole way and he even took her hand as they ran through the airport. while they were waiting in line for her plane, they found out that they had actually gone to the same highschool but that she was three years older than him. he asked her how long her trip was going to be and she replied a week. he said same, and asked if she'd want to maybe get dinner when they both got back . she was into it and gave him a crumpled business card. he promised to call her. on the plane, she felt excited and relieved that she had needed to tie her shoe and that she'd been able to meet such a handsome man. ",,,,,,,,,,,,,,,,,,,,022519_p1,001,2019_Feb_25_1013,body_behavioural,3.0.4,60.02230188668464,
5,,,,,,,,,,,,,,,,,,,,,,,0,5,5,5,,,,,,,,,,,,,,,,,,,,,,,,,,,,,,space,0.8198484329986968,"Alex and chloe were going to the supermarket together and alex was sweating a lot. he was very nervous because he knew he was going to propose to her in that supermarket. he wanted to propose there because he knew she wouldn't expect it at all, so it would be a surprise. he loved surprising her because he loved the look on her face when she was surprised. parenleftalso this supermarket was in atlantaparenright. it was the day before thanksgiving and they needed to buy cranberry sauce. they walked over to the aisle and as they were walking she asked him if he was ok. he unconvincingly said yes and she playfully believed him. as she was pondering the cranberry sauce options, he turned away from her to admire the ring. it was surrounded by three diamonds and he'd saved for a while to buy it for her. she asked him what was up and he said he was fine. they went to the checkout line and he saw his friends waiting near the entrance. he gave them a look and they knew he was ready, so they started walking over. he said to her, doublequote i love you so much and i can't imagine a day without you.doublequote and she was like aww same. and then he was like no im serious, and got down on one knee and asked her to marry him. she was so shocked and people started filming it and she saw all his friends. she enthusiastically said yes. she was so excited and overjoyed. she couldnt stop looking at the ring as she paid the $4 for her cranberry sauce. ",,,,,,,,,,,,,,,,,,,,022519_p1,001,2019_Feb_25_1013,body_behavioural,3.0.4,60.02230188668464,
