count,storyText,locationEvent,socialEvent,locationEventSize,socialEventSize,instructText,trials.thisRepN,trials.thisTrialN,trials.thisN,trials.thisIndex,trials_7.thisRepN,trials_7.thisTrialN,trials_7.thisN,trials_7.thisIndex,trials_2.thisRepN,trials_2.thisTrialN,trials_2.thisN,trials_2.thisIndex,trials_3.thisRepN,trials_3.thisTrialN,trials_3.thisN,trials_3.thisIndex,trials_4.thisRepN,trials_4.thisTrialN,trials_4.thisN,trials_4.thisIndex,trials_5.thisRepN,trials_5.thisTrialN,trials_5.thisN,trials_5.thisIndex,trials_6.thisRepN,trials_6.thisTrialN,trials_6.thisN,trials_6.thisIndex,order of stories,order of perspectives,participant 2 order - stories,participant 2 order  - schemas types,key_resp_8.keys,key_resp_8.rt,key_resp_5.keys,key_resp_5.rt,key_resp_7.keys,key_resp_7.rt,story_presses.keys,story_presses.rt,story time,key_resp_6.keys,key_resp_6.rt,key_resp_2.keys,key_resp_2.rt,key_resp_10.keys,key_resp_10.rt,recall,recall time,key_resp_12.keys,key_resp_12.rt,key_resp_3.keys,key_resp_3.rt,participant,session,date,expName,psychopyVersion,frameRate,
0,,,,,,,0,0,0,0,0,0,0,0,,,,,,,,,,,,,,,,,,,,,[34 14 11 42 43 23 22 31 33 41 24 12 13 32 44 21],"['Social' 'Location' 'Social' 'Social' 'Location' 'Social' 'Location'
 'Location' 'Social' 'Social' 'Social' 'Social' 'Location' 'Location'
 'Location' 'Location']",[33 41 24 12 13 32 44 21],"['Social' 'Social' 'Social' 'Social' 'Location' 'Location' 'Location'
 'Location']",space,9.838181809999696,space,0.8862652930001786,space,1.7113326050002797,,,,,,,,,,,,,,,,022619_p1_v2,001,2019_Feb_26_1037,body_behavioural,3.0.4,59.85482630848273,
0,,,,,,,0,0,0,0,1,0,1,0,,,,,,,,,,,,,,,,,,,,,,,,,,,,,space,0.6691803020003135,,,,,,,,,,,,,,,,022619_p1_v2,001,2019_Feb_26_1037,body_behavioural,3.0.4,59.85482630848273,
0,,,,,,,0,0,0,0,2,0,2,0,,,,,,,,,,,,,,,,,,,,,,,,,,,,,space,0.536321587999737,,,,,,,,,,,,,,,,022619_p1_v2,001,2019_Feb_26_1037,body_behavioural,3.0.4,59.85482630848273,
0,,,,,,,0,0,0,0,3,0,3,0,,,,,,,,,,,,,,,,,,,,,,,,,,,,,space,0.5863238780002575,,,,,,,,,,,,,,,,022619_p1_v2,001,2019_Feb_26_1037,body_behavioural,3.0.4,59.85482630848273,
0,Charlie saw Alma as they walked into class and he motioned for her to come sit in the back next to him: they had business to discuss.,1,1,,,,0,0,0,0,,,,,0,0,0,0,,,,,,,,,,,,,,,,,,,,,,,,,,,9,11.90348471499965,,,,,,,,,,,,,,022619_p1_v2,001,2019_Feb_26_1037,body_behavioural,3.0.4,59.85482630848273,
0,Charlie and Alma were both economics students with entrepreneurial bents.,1,1,,,,0,0,0,0,,,,,0,1,1,1,,,,,,,,,,,,,,,,,,,,,,,,,,,1,1.569724514999507,,,,,,,,,,,,,,022619_p1_v2,001,2019_Feb_26_1037,body_behavioural,3.0.4,59.85482630848273,
0,They were also both very busy and in the same class.,1,1,,,,0,0,0,0,,,,,0,2,2,2,,,,,,,,,,,,,,,,,,,,,,,,,,,1,2.0697506679998696,,,,,,,,,,,,,,022619_p1_v2,001,2019_Feb_26_1037,body_behavioural,3.0.4,59.85482630848273,
0,"After talking at a party, Charlie had discovered that Alma was looking for financing for her web development company.",1,1,,,,0,0,0,0,,,,,0,3,3,3,,,,,,,,,,,,,,,,,,,,,,,,,,,1,4.466618493000169,,,,,,,,,,,,,,022619_p1_v2,001,2019_Feb_26_1037,body_behavioural,3.0.4,59.85482630848273,
0,It was serendipitous because he had been talking with other members of his venture capital group about making an investment. ,1,1,,,,0,0,0,0,,,,,0,4,4,4,,,,,,,,,,,,,,,,,,,,,,,,,,,1,8.154254592000143,,,,,,,,,,,,,,022619_p1_v2,001,2019_Feb_26_1037,body_behavioural,3.0.4,59.85482630848273,
0,"His financial group had come to a decision that morning about Alma’s idea, and he didn't want to wait until after class to discuss the proposal with her. ",1,1,,,,0,0,0,0,,,,,0,5,5,5,,,,,,,,,,,,,,,,,,,,,,,,,,,1,6.936498490000304,,,,,,,,,,,,,,022619_p1_v2,001,2019_Feb_26_1037,body_behavioural,3.0.4,59.85482630848273,
0,"The class was in a large auditorium with small, foldable desks on the side of each cushioned chair. ",1,1,,,,0,0,0,0,,,,,0,6,6,6,,,,,,,,,,,,,,,,,,,,,,,,,,,1,1.2526370229998065,,,,,,,,,,,,,,022619_p1_v2,001,2019_Feb_26_1037,body_behavioural,3.0.4,59.85482630848273,
0,"There were large windows on both sides of the hall, and they could see the first flurries of a winter storm starting outside. ",1,1,,,,0,0,0,0,,,,,0,7,7,7,,,,,,,,,,,,,,,,,,,,,,,,,,,1,3.4198739430003116,,,,,,,,,,,,,,022619_p1_v2,001,2019_Feb_26_1037,body_behavioural,3.0.4,59.85482630848273,
0,"“Here we are at Lecture Seven already in History of the Eternal City,” said the professor. ",2,1,,,,0,0,0,0,,,,,0,8,8,8,,,,,,,,,,,,,,,,,,,,,,,,,,,9,1.7864987349994408,,,,,,,,,,,,,,022619_p1_v2,001,2019_Feb_26_1037,body_behavioural,3.0.4,59.85482630848273,
0,“We're going to talk today about the age of the first Roman emperor: Augustus.” ,2,1,,,,0,0,0,0,,,,,0,9,9,9,,,,,,,,,,,,,,,,,,,,,,,,,,,1,1.0863793200005603,,,,,,,,,,,,,,022619_p1_v2,001,2019_Feb_26_1037,body_behavioural,3.0.4,59.85482630848273,
0,"She went into some recap of the last lecture, and Charlie took this as an opportunity to start talking to Alma.",2,1,,,,0,0,0,0,,,,,0,10,10,10,,,,,,,,,,,,,,,,,,,,,,,,,,,1,4.453000274999795,,,,,,,,,,,,,,022619_p1_v2,001,2019_Feb_26_1037,body_behavioural,3.0.4,59.85482630848273,
0,"“Okay so I’ve been thinking about your startup idea, and I have talked about it with my fellow investors.",2,2,,,,0,0,0,0,,,,,0,11,11,11,,,,,,,,,,,,,,,,,,,,,,,,,,,1,3.7864280200001303,,,,,,,,,,,,,,022619_p1_v2,001,2019_Feb_26_1037,body_behavioural,3.0.4,59.85482630848273,
0,We’d like to invest half of what you originally suggested.,2,2,,,,0,0,0,0,,,,,0,12,12,12,,,,,,,,,,,,,,,,,,,,,,,,,,,1,2.8197803329994713,,,,,,,,,,,,,,022619_p1_v2,001,2019_Feb_26_1037,body_behavioural,3.0.4,59.85482630848273,
0,"Rather than $30,000, we start with $15,000.",2,2,,,,0,0,0,0,,,,,0,13,13,13,,,,,,,,,,,,,,,,,,,,,,,,,,,1,4.086512262999349,,,,,,,,,,,,,,022619_p1_v2,001,2019_Feb_26_1037,body_behavioural,3.0.4,59.85482630848273,
0,We would see how the company does and then invest the other half later.” ,2,2,,,,0,0,0,0,,,,,0,14,14,14,,,,,,,,,,,,,,,,,,,,,,,,,,,1,3.0365525949991934,,,,,,,,,,,,,,022619_p1_v2,001,2019_Feb_26_1037,body_behavioural,3.0.4,59.85482630848273,
0,"Alma, tapping her pen on her notebook, narrowed her eyes and pursed her lips.",2,2,,,,0,0,0,0,,,,,0,15,15,15,,,,,,,,,,,,,,,,,,,,,,,,,,,1,4.2864605779996054,,,,,,,,,,,,,,022619_p1_v2,001,2019_Feb_26_1037,body_behavioural,3.0.4,59.85482630848273,
0,She turned back to the lecture as she considered this.,2,2,,,,0,0,0,0,,,,,0,16,16,16,,,,,,,,,,,,,,,,,,,,,,,,,,,1,1.2698131099996317,,,,,,,,,,,,,,022619_p1_v2,001,2019_Feb_26_1037,body_behavioural,3.0.4,59.85482630848273,
0,"The professor was going on: “The senate had conferred upon him the title of Augustus the sacred and revered one, the restorer of traditional values, the city’s new religious leader, the restorer of temples. ",3,2,,,,0,0,0,0,,,,,0,17,17,17,,,,,,,,,,,,,,,,,,,,,,,,,,,9,1.1863028679999843,,,,,,,,,,,,,,022619_p1_v2,001,2019_Feb_26_1037,body_behavioural,3.0.4,59.85482630848273,
0,"Augustus also sought to beautify Rome, make it into a new Athens, and dispel the criticisms of Rome as disorganized and ugly.”",3,2,,,,0,0,0,0,,,,,0,18,18,18,,,,,,,,,,,,,,,,,,,,,,,,,,,1,2.6700243830000545,,,,,,,,,,,,,,022619_p1_v2,001,2019_Feb_26_1037,body_behavioural,3.0.4,59.85482630848273,
0,"Alma turned back to Charlie and offered her rebuttal, “I don’t know about that: it’s not going to be possible to implement our ideas effectively unless the project is fully funded. ",3,3,,,,0,0,0,0,,,,,0,19,19,19,,,,,,,,,,,,,,,,,,,,,,,,,,,1,4.620074455000577,,,,,,,,,,,,,,022619_p1_v2,001,2019_Feb_26_1037,body_behavioural,3.0.4,59.85482630848273,
0,We would have to find other investors and that would set us back in our timeline. ,3,3,,,,0,0,0,0,,,,,0,20,20,20,,,,,,,,,,,,,,,,,,,,,,,,,,,1,2.136287043000266,,,,,,,,,,,,,,022619_p1_v2,001,2019_Feb_26_1037,body_behavioural,3.0.4,59.85482630848273,
0,"Our profit projections assumed we'd be starting relatively soon, not months down the line.” ",3,3,,,,0,0,0,0,,,,,0,21,21,21,,,,,,,,,,,,,,,,,,,,,,,,,,,1,3.0532255280004392,,,,,,,,,,,,,,022619_p1_v2,001,2019_Feb_26_1037,body_behavioural,3.0.4,59.85482630848273,
0,They whispered back and forth during the whole class in order to work out a compromise. ,3,3,,,,0,0,0,0,,,,,0,22,22,22,,,,,,,,,,,,,,,,,,,,,,,,,,,1,3.500896593000107,,,,,,,,,,,,,,022619_p1_v2,001,2019_Feb_26_1037,body_behavioural,3.0.4,59.85482630848273,
0,"Finally, the class ended, and the professor dismissed the students with a reminder that the midterm paper was due on Thursday and that they should email their papers to the TA.",4,3,,,,0,0,0,0,,,,,0,23,23,23,,,,,,,,,,,,,,,,,,,,,,,,,,,9,3.253340912000567,,,,,,,,,,,,,,022619_p1_v2,001,2019_Feb_26_1037,body_behavioural,3.0.4,59.85482630848273,
0,"Everyone, except Charlie and Alma, packed up their things and headed out of the lecture hall to get to their next class. ",4,3,,,,0,0,0,0,,,,,0,24,24,24,,,,,,,,,,,,,,,,,,,,,,,,,,,1,2.2865103679996537,,,,,,,,,,,,,,022619_p1_v2,001,2019_Feb_26_1037,body_behavioural,3.0.4,59.85482630848273,
0,"“Alright, so we’ll have the $30,000 wired to you by tomorrow,” Charlie said. ",4,4,,,,0,0,0,0,,,,,0,25,25,25,,,,,,,,,,,,,,,,,,,,,,,,,,,1,2.2841507920002186,,,,,,,,,,,,,,022619_p1_v2,001,2019_Feb_26_1037,body_behavioural,3.0.4,59.85482630848273,
0,"This wasn't ideal for Charlie, but Alma had refused to budge, and his investment group had told him they were willing to pay the full amount if necessary. ",4,4,,,,0,0,0,0,,,,,0,26,26,26,,,,,,,,,,,,,,,,,,,,,,,,,,,1,3.3864885269995284,,,,,,,,,,,,,,022619_p1_v2,001,2019_Feb_26_1037,body_behavioural,3.0.4,59.85482630848273,
0,"They shook hands, walked out of the now-empty lecture hall, and made plans to sign the official paperwork the next day.",4,4,,,,0,0,0,0,,,,,0,27,27,27,,,,,,,,,,,,,,,,,,,,,,,,,,,1,2.153046764999999,,,,,,,,,,,,,,022619_p1_v2,001,2019_Feb_26_1037,body_behavioural,3.0.4,59.85482630848273,
0,,,,,,,0,0,0,0,,,,,,,,,,,,,,,,,,,,,,,,,,,,,,,,,,,,,,,,,,,,,,,,,,022619_p1_v2,001,2019_Feb_26_1037,body_behavioural,3.0.4,59.85482630848273,
1,,,,,,,0,1,1,1,0,0,0,0,,,,,,,,,,,,,,,,,,,,,,,,,space,1.0026448500002516,space,0.8530829930004984,space,1.9841254469993146,,,,,,,,,,,,,,,,022619_p1_v2,001,2019_Feb_26_1037,body_behavioural,3.0.4,59.85482630848273,
1,"Maria walked into lecture beside Henry, and she was mentally rehearsing what she should say to break up with him.",1,1,,,,0,1,1,1,,,,,0,0,0,0,,,,,,,,,,,,,,,,,,,,,,,,,,,9,5.136648673000309,,,,,,,,,,,,,,022619_p1_v2,001,2019_Feb_26_1037,body_behavioural,3.0.4,59.85482630848273,
1,"She had been putting it off with a growing sense of dread, and now this lecture was the last chance before she had to leave campus. ",1,1,,,,0,1,1,1,,,,,0,1,1,1,,,,,,,,,,,,,,,,,,,,,,,,,,,1,2.2697352929999397,,,,,,,,,,,,,,022619_p1_v2,001,2019_Feb_26_1037,body_behavioural,3.0.4,59.85482630848273,
1,"The lecture hall was large, with a stage for the lecturer in the front of the room, and tiered seats that stretched up in 15 stacked rows. ",1,1,,,,0,1,1,1,,,,,0,2,2,2,,,,,,,,,,,,,,,,,,,,,,,,,,,1,0.769646714999908,,,,,,,,,,,,,,022619_p1_v2,001,2019_Feb_26_1037,body_behavioural,3.0.4,59.85482630848273,
1,"The clock struck 3 pm, and Maria and Henry slid into neighboring seats near the back of the room.",1,1,,,,0,1,1,1,,,,,0,3,3,3,,,,,,,,,,,,,,,,,,,,,,,,,,,1,1.019299829999909,,,,,,,,,,,,,,022619_p1_v2,001,2019_Feb_26_1037,body_behavioural,3.0.4,59.85482630848273,
1,"“Good afternoon, everybody,” said the professor, fiddling to connect his laptop with the projector.",2,1,,,,0,1,1,1,,,,,0,4,4,4,,,,,,,,,,,,,,,,,,,,,,,,,,,9,0.9007253500003571,,,,,,,,,,,,,,022619_p1_v2,001,2019_Feb_26_1037,body_behavioural,3.0.4,59.85482630848273,
1,“Welcome to week 4 of Intro to Ancient Philosophy. ,2,1,,,,0,1,1,1,,,,,0,5,5,5,,,,,,,,,,,,,,,,,,,,,,,,,,,1,4.886700001999998,,,,,,,,,,,,,,022619_p1_v2,001,2019_Feb_26_1037,body_behavioural,3.0.4,59.85482630848273,
1,Today we are going to continue our lecture on Aristotelian Philosophy.”,2,1,,,,0,1,1,1,,,,,0,6,6,6,,,,,,,,,,,,,,,,,,,,,,,,,,,1,1.6676439430002574,,,,,,,,,,,,,,022619_p1_v2,001,2019_Feb_26_1037,body_behavioural,3.0.4,59.85482630848273,
1,Everyone in class pulled out their notebooks and settled in their seats as the slides appeared on the large front screens.,2,1,,,,0,1,1,1,,,,,0,7,7,7,,,,,,,,,,,,,,,,,,,,,,,,,,,1,3.1865612500005227,,,,,,,,,,,,,,022619_p1_v2,001,2019_Feb_26_1037,body_behavioural,3.0.4,59.85482630848273,
1,"“Henry,” Maria whispered.",2,1,,,,0,1,1,1,,,,,0,8,8,8,,,,,,,,,,,,,,,,,,,,,,,,,,,9,1.2030212179997761,,,,,,,,,,,,,,022619_p1_v2,001,2019_Feb_26_1037,body_behavioural,3.0.4,59.85482630848273,
1,"“Hmm?” he replied, distracted.",2,1,,,,0,1,1,1,,,,,0,9,9,9,,,,,,,,,,,,,,,,,,,,,,,,,,,1,0.7863203950000752,,,,,,,,,,,,,,022619_p1_v2,001,2019_Feb_26_1037,body_behavioural,3.0.4,59.85482630848273,
1,"“Henry, I need to tell you something really important, and I don’t know when else I’ll have a chance to do it,” she said.",2,1,,,,0,1,1,1,,,,,0,10,10,10,,,,,,,,,,,,,,,,,,,,,,,,,,,1,1.269674488000419,,,,,,,,,,,,,,022619_p1_v2,001,2019_Feb_26_1037,body_behavioural,3.0.4,59.85482630848273,
1,"“Okay, what's up?”, he said, tilting his head close to her. ",2,1,,,,0,1,1,1,,,,,0,11,11,11,,,,,,,,,,,,,,,,,,,,,,,,,,,1,0.8028407450001396,,,,,,,,,,,,,,022619_p1_v2,001,2019_Feb_26_1037,body_behavioural,3.0.4,59.85482630848273,
1," “Henry, I don’t think I can do long distance.",2,2,,,,0,1,1,1,,,,,0,12,12,12,,,,,,,,,,,,,,,,,,,,,,,,,,,1,1.0361964249996163,,,,,,,,,,,,,,022619_p1_v2,001,2019_Feb_26_1037,body_behavioural,3.0.4,59.85482630848273,
1,"I think what we have here is great, but I think it will be really hard when we are so far apart for such an extended period.",2,2,,,,0,1,1,1,,,,,0,13,13,13,,,,,,,,,,,,,,,,,,,,,,,,,,,1,0.7862977080003475,,,,,,,,,,,,,,022619_p1_v2,001,2019_Feb_26_1037,body_behavioural,3.0.4,59.85482630848273,
1,"I’m sorry I’m telling you now in lecture, but I'm out of time, and it’s taken me awhile to come to this decision.",2,2,,,,0,1,1,1,,,,,0,14,14,14,,,,,,,,,,,,,,,,,,,,,,,,,,,1,1.5355199949999587,,,,,,,,,,,,,,022619_p1_v2,001,2019_Feb_26_1037,body_behavioural,3.0.4,59.85482630848273,
1,"I really think this is best, and who knows what will happen when I get back from my study abroad.” ",2,2,,,,0,1,1,1,,,,,0,15,15,15,,,,,,,,,,,,,,,,,,,,,,,,,,,1,1.1698074280002402,,,,,,,,,,,,,,022619_p1_v2,001,2019_Feb_26_1037,body_behavioural,3.0.4,59.85482630848273,
1,"While Henry tried to think of what to say, he and Maria stared unlistening at the professor as he started the lecture, “First we will talk about Aristotle’s work, The Categories, which is about the kinds, or categories, of things that there are.",3,2,,,,0,1,1,1,,,,,0,16,16,16,,,,,,,,,,,,,,,,,,,,,,,,,,,9,6.153333560000647,,,,,,,,,,,,,,022619_p1_v2,001,2019_Feb_26_1037,body_behavioural,3.0.4,59.85482630848273,
1,"In fact, our term category comes from this Aristotelian context.” ",3,2,,,,0,1,1,1,,,,,0,17,17,17,,,,,,,,,,,,,,,,,,,,,,,,,,,1,0.8862651899999037,,,,,,,,,,,,,,022619_p1_v2,001,2019_Feb_26_1037,body_behavioural,3.0.4,59.85482630848273,
1,"Henry felt horrible, like the wind had just been knocked out of him.",3,2,,,,0,1,1,1,,,,,0,18,18,18,,,,,,,,,,,,,,,,,,,,,,,,,,,1,1.4364180180000403,,,,,,,,,,,,,,022619_p1_v2,001,2019_Feb_26_1037,body_behavioural,3.0.4,59.85482630848273,
1,"A few tears started to fall down his cheeks as he whispered back, “Maria, I think we can make it work.",3,3,,,,0,1,1,1,,,,,0,19,19,19,,,,,,,,,,,,,,,,,,,,,,,,,,,1,1.1697381599997243,,,,,,,,,,,,,,022619_p1_v2,001,2019_Feb_26_1037,body_behavioural,3.0.4,59.85482630848273,
1,I’ll come visit you.,3,3,,,,0,1,1,1,,,,,0,20,20,20,,,,,,,,,,,,,,,,,,,,,,,,,,,1,0.9862807150002482,,,,,,,,,,,,,,022619_p1_v2,001,2019_Feb_26_1037,body_behavioural,3.0.4,59.85482630848273,
1,It will be fine.,3,3,,,,0,1,1,1,,,,,0,21,21,21,,,,,,,,,,,,,,,,,,,,,,,,,,,1,0.6529613150005389,,,,,,,,,,,,,,022619_p1_v2,001,2019_Feb_26_1037,body_behavioural,3.0.4,59.85482630848273,
1,I don’t want to break up.”,3,3,,,,0,1,1,1,,,,,0,22,22,22,,,,,,,,,,,,,,,,,,,,,,,,,,,1,0.6363132520000363,,,,,,,,,,,,,,022619_p1_v2,001,2019_Feb_26_1037,body_behavioural,3.0.4,59.85482630848273,
1,"Maria felt so guilty that she nearly gave in, but forced herself to hold her ground, knowing that this would make things much easier for both of them in the future.",3,3,,,,0,1,1,1,,,,,0,23,23,23,,,,,,,,,,,,,,,,,,,,,,,,,,,1,2.2008599450000474,,,,,,,,,,,,,,022619_p1_v2,001,2019_Feb_26_1037,body_behavioural,3.0.4,59.85482630848273,
1,"She gave his hand a squeeze but shook her head sadly, before turning back to her laptop and half-heartedly taking notes on the lecture which they sat through in painful silence.",3,3,,,,0,1,1,1,,,,,0,24,24,24,,,,,,,,,,,,,,,,,,,,,,,,,,,1,0.9527856300001076,,,,,,,,,,,,,,022619_p1_v2,001,2019_Feb_26_1037,body_behavioural,3.0.4,59.85482630848273,
1,"Finally, the professor was wrapping up, “This is what Aristotle means when he says that an animal’s or plant’s form rather than its matter is its nature. ",4,3,,,,0,1,1,1,,,,,0,25,25,25,,,,,,,,,,,,,,,,,,,,,,,,,,,9,1.503088552999543,,,,,,,,,,,,,,022619_p1_v2,001,2019_Feb_26_1037,body_behavioural,3.0.4,59.85482630848273,
1,"Alright class, that’s all for today. ",4,3,,,,0,1,1,1,,,,,0,26,26,26,,,,,,,,,,,,,,,,,,,,,,,,,,,1,0.8197239930004798,,,,,,,,,,,,,,022619_p1_v2,001,2019_Feb_26_1037,body_behavioural,3.0.4,59.85482630848273,
1,"Remember the final exam is coming up next week on Tuesday on the Pre-Socratics, Plato, and Aristotle, so feel free to come by office hours to discuss if you have the inspiration.",4,3,,,,0,1,1,1,,,,,0,27,27,27,,,,,,,,,,,,,,,,,,,,,,,,,,,1,7.203545692999796,,,,,,,,,,,,,,022619_p1_v2,001,2019_Feb_26_1037,body_behavioural,3.0.4,59.85482630848273,
1,"And if anyone is doing the 20 page paper in lieu of the final, that’s due next Tuesday as well.",4,3,,,,0,1,1,1,,,,,0,28,28,28,,,,,,,,,,,,,,,,,,,,,,,,,,,1,1.0174337099997501,,,,,,,,,,,,,,022619_p1_v2,001,2019_Feb_26_1037,body_behavioural,3.0.4,59.85482630848273,
1,"Have a good day, folks.” ",4,3,,,,0,1,1,1,,,,,0,29,29,29,,,,,,,,,,,,,,,,,,,,,,,,,,,1,0.80283191000035,,,,,,,,,,,,,,022619_p1_v2,001,2019_Feb_26_1037,body_behavioural,3.0.4,59.85482630848273,
1,"Maria and Henry packed up hurriedly, and slipped quickly out of the class before the rest of the crowd. ",4,3,,,,0,1,1,1,,,,,0,30,30,30,,,,,,,,,,,,,,,,,,,,,,,,,,,1,2.002615421999508,,,,,,,,,,,,,,022619_p1_v2,001,2019_Feb_26_1037,body_behavioural,3.0.4,59.85482630848273,
1,"They hugged outside, and both of them were crying. ",4,4,,,,0,1,1,1,,,,,0,31,31,31,,,,,,,,,,,,,,,,,,,,,,,,,,,1,1.3364230500001213,,,,,,,,,,,,,,022619_p1_v2,001,2019_Feb_26_1037,body_behavioural,3.0.4,59.85482630848273,
1,"“Maria, I don’t want you to leave.",4,4,,,,0,1,1,1,,,,,0,32,32,32,,,,,,,,,,,,,,,,,,,,,,,,,,,1,1.968686830000479,,,,,,,,,,,,,,022619_p1_v2,001,2019_Feb_26_1037,body_behavioural,3.0.4,59.85482630848273,
1,I don’t want this to end. ,4,4,,,,0,1,1,1,,,,,0,33,33,33,,,,,,,,,,,,,,,,,,,,,,,,,,,1,1.0363101259999894,,,,,,,,,,,,,,022619_p1_v2,001,2019_Feb_26_1037,body_behavioural,3.0.4,59.85482630848273,
1,"But if this is what you think is best, I can’t make it otherwise.” ",4,4,,,,0,1,1,1,,,,,0,34,34,34,,,,,,,,,,,,,,,,,,,,,,,,,,,1,0.7866520520001359,,,,,,,,,,,,,,022619_p1_v2,001,2019_Feb_26_1037,body_behavioural,3.0.4,59.85482630848273,
1,"They hugged one last time, and Maria ran off to get her things from her dorm.",4,4,,,,0,1,1,1,,,,,0,35,35,35,,,,,,,,,,,,,,,,,,,,,,,,,,,1,1.1196500530004414,,,,,,,,,,,,,,022619_p1_v2,001,2019_Feb_26_1037,body_behavioural,3.0.4,59.85482630848273,
1,Henry sadly watched her go. ,4,4,,,,0,1,1,1,,,,,0,36,36,36,,,,,,,,,,,,,,,,,,,,,,,,,,,1,1.2863162550002016,,,,,,,,,,,,,,022619_p1_v2,001,2019_Feb_26_1037,body_behavioural,3.0.4,59.85482630848273,
1,,,,,,,0,1,1,1,,,,,,,,,,,,,,,,,,,,,,,,,,,,,,,,,,,,,,,,,,,,,,,,,,022619_p1_v2,001,2019_Feb_26_1037,body_behavioural,3.0.4,59.85482630848273,
2,,,,,,,0,2,2,2,0,0,0,0,,,,,,,,,,,,,,,,,,,,,,,,,space,0.9530342170000949,space,3.219405435000226,space,0.7696407030007322,,,,,,,,,,,,,,,,022619_p1_v2,001,2019_Feb_26_1037,body_behavioural,3.0.4,59.85482630848273,
2,"Thomas, dreading the conversation he was about to have, got to Annika’s Finer Diner early.",1,1,None,None,,0,2,2,2,,,,,0,0,0,0,,,,,,,,,,,,,,,,,,,,,,,,,,,9,5.436503139999331,,,,,,,,,,,,,,022619_p1_v2,001,2019_Feb_26_1037,body_behavioural,3.0.4,59.85482630848273,
2,The restaurant had a kitschy charm and was reminiscent of a diner from the 70’s. ,1,1,None,None,,0,2,2,2,,,,,0,1,1,1,,,,,,,,,,,,,,,,,,,,,,,,,,,1,4.419912528000168,,,,,,,,,,,,,,022619_p1_v2,001,2019_Feb_26_1037,body_behavioural,3.0.4,59.85482630848273,
2,A bell chimed as the door swung open and Sadie entered to find Thomas deep in thought on a bench by the door.,1,1,None,None,,0,2,2,2,,,,,0,2,2,2,,,,,,,,,,,,,,,,,,,,,,,,,,,1,4.50265689600019,,,,,,,,,,,,,,022619_p1_v2,001,2019_Feb_26_1037,body_behavioural,3.0.4,59.85482630848273,
2,He jumped up and gave her a side hug. ,1,1,None,None,,0,2,2,2,,,,,0,3,3,3,,,,,,,,,,,,,,,,,,,,,,,,,,,1,1.419390132999979,,,,,,,,,,,,,,022619_p1_v2,001,2019_Feb_26_1037,body_behavioural,3.0.4,59.85482630848273,
2,"“How was your day?”, he asked.",1,1,None,None,,0,2,2,2,,,,,0,4,4,4,,,,,,,,,,,,,,,,,,,,,,,,,,,1,0.9173422379999465,,,,,,,,,,,,,,022619_p1_v2,001,2019_Feb_26_1037,body_behavioural,3.0.4,59.85482630848273,
2,"She clung onto him, “It was okay.",1,1,None,None,,0,2,2,2,,,,,0,5,5,5,,,,,,,,,,,,,,,,,,,,,,,,,,,1,1.1697001680004178,,,,,,,,,,,,,,022619_p1_v2,001,2019_Feb_26_1037,body_behavioural,3.0.4,59.85482630848273,
2,I missed you today.”,1,1,None,None,,0,2,2,2,,,,,0,6,6,6,,,,,,,,,,,,,,,,,,,,,,,,,,,1,1.5698654600000737,,,,,,,,,,,,,,022619_p1_v2,001,2019_Feb_26_1037,body_behavioural,3.0.4,59.85482630848273,
2,He looked at the hostess coming towards them.,1,1,None,None,,0,2,2,2,,,,,0,7,7,7,,,,,,,,,,,,,,,,,,,,,,,,,,,1,1.0200905820001935,,,,,,,,,,,,,,022619_p1_v2,001,2019_Feb_26_1037,body_behavioural,3.0.4,59.85482630848273,
2,"“Can we have a table in the back?”, Thomas asked.",1,1,None,None,,0,2,2,2,,,,,0,8,8,8,,,,,,,,,,,,,,,,,,,,,,,,,,,1,1.470269417000054,,,,,,,,,,,,,,022619_p1_v2,001,2019_Feb_26_1037,body_behavioural,3.0.4,59.85482630848273,
2,"She shrugged and, as she loudly popped her bubblegum, replied, “Sure, honey, this way.”",1,1,9.0,None,,0,2,2,2,,,,,0,9,9,9,,,,,,,,,,,,,,,,,,,,,,,,,,,1,1.2032177770006456,,,,,,,,,,,,,,022619_p1_v2,001,2019_Feb_26_1037,body_behavioural,3.0.4,59.85482630848273,
2,She led them to the back of the restaurant where there were dimly lit tables. ,2,1,None,None,,0,2,2,2,,,,,0,10,10,10,,,,,,,,,,,,,,,,,,,,,,,,,,,1,1.7364245870003288,,,,,,,,,,,,,,022619_p1_v2,001,2019_Feb_26_1037,body_behavioural,3.0.4,59.85482630848273,
2,"“Is this alright?”, the hostess asked.",2,1,None,None,,0,2,2,2,,,,,0,11,11,11,,,,,,,,,,,,,,,,,,,,,,,,,,,1,1.1363904130002993,,,,,,,,,,,,,,022619_p1_v2,001,2019_Feb_26_1037,body_behavioural,3.0.4,59.85482630848273,
2,Thomas cleared his throat and tried not to grimace at the stained fabric that lined the booth.,2,1,None,None,,0,2,2,2,,,,,0,12,12,12,,,,,,,,,,,,,,,,,,,,,,,,,,,1,2.103026581999984,,,,,,,,,,,,,,022619_p1_v2,001,2019_Feb_26_1037,body_behavioural,3.0.4,59.85482630848273,
2,“This is great.,2,1,None,None,,0,2,2,2,,,,,0,13,13,13,,,,,,,,,,,,,,,,,,,,,,,,,,,1,1.6696197549999852,,,,,,,,,,,,,,022619_p1_v2,001,2019_Feb_26_1037,body_behavioural,3.0.4,59.85482630848273,
2,"Thank you,” Thomas said.",2,1,None,None,,0,2,2,2,,,,,0,14,14,14,,,,,,,,,,,,,,,,,,,,,,,,,,,1,1.3007988480003405,,,,,,,,,,,,,,022619_p1_v2,001,2019_Feb_26_1037,body_behavioural,3.0.4,59.85482630848273,
2,Sadie slipped into the cushioned seat and grabbed Thomas’ hand.,2,1,None,None,,0,2,2,2,,,,,0,15,15,15,,,,,,,,,,,,,,,,,,,,,,,,,,,1,1.5838834599999245,,,,,,,,,,,,,,022619_p1_v2,001,2019_Feb_26_1037,body_behavioural,3.0.4,59.85482630848273,
2,"“Tell me about your day!”, Sadie sang as Thomas sat down.",2,1,None,None,,0,2,2,2,,,,,0,16,16,16,,,,,,,,,,,,,,,,,,,,,,,,,,,1,2.4529483599999367,,,,,,,,,,,,,,022619_p1_v2,001,2019_Feb_26_1037,body_behavioural,3.0.4,59.85482630848273,
2,He looked at her silently and pulled his hand slowly from hers.,2,1,None,None,,0,2,2,2,,,,,0,17,17,17,,,,,,,,,,,,,,,,,,,,,,,,,,,1,1.569784991999768,,,,,,,,,,,,,,022619_p1_v2,001,2019_Feb_26_1037,body_behavioural,3.0.4,59.85482630848273,
2,Sadie gave him a puzzled look.,2,1,None,None,,0,2,2,2,,,,,0,18,18,18,,,,,,,,,,,,,,,,,,,,,,,,,,,1,1.136461545000202,,,,,,,,,,,,,,022619_p1_v2,001,2019_Feb_26_1037,body_behavioural,3.0.4,59.85482630848273,
2,Thomas looked away and took a deep breath. ,2,1,None,None,,0,2,2,2,,,,,0,19,19,19,,,,,,,,,,,,,,,,,,,,,,,,,,,1,0.8862499530005152,,,,,,,,,,,,,,022619_p1_v2,001,2019_Feb_26_1037,body_behavioural,3.0.4,59.85482630848273,
2,"Sadie asked, “What’s wrong?” ",2,1,None,None,,0,2,2,2,,,,,0,20,20,20,,,,,,,,,,,,,,,,,,,,,,,,,,,1,1.4193887279998307,,,,,,,,,,,,,,022619_p1_v2,001,2019_Feb_26_1037,body_behavioural,3.0.4,59.85482630848273,
2,Thomas picked at his fingernails.,2,1,None,22.0,,0,2,2,2,,,,,0,21,21,21,,,,,,,,,,,,,,,,,,,,,,,,,,,1,1.9030625100003817,,,,,,,,,,,,,,022619_p1_v2,001,2019_Feb_26_1037,body_behavioural,3.0.4,59.85482630848273,
2,"“Sadie, I’ve been thinking, and I need to figure out some stuff… on my own.”",2,2,None,None,,0,2,2,2,,,,,0,22,22,22,,,,,,,,,,,,,,,,,,,,,,,,,,,1,1.953031923000708,,,,,,,,,,,,,,022619_p1_v2,001,2019_Feb_26_1037,body_behavioural,3.0.4,59.85482630848273,
2,Sadie’s mouth popped open for a moment.,2,2,None,None,,0,2,2,2,,,,,0,23,23,23,,,,,,,,,,,,,,,,,,,,,,,,,,,1,2.3695500999992873,,,,,,,,,,,,,,022619_p1_v2,001,2019_Feb_26_1037,body_behavioural,3.0.4,59.85482630848273,
2,Then she swallowed and shifted back in her seat.,2,2,None,None,,0,2,2,2,,,,,0,24,24,24,,,,,,,,,,,,,,,,,,,,,,,,,,,1,1.4364203549994272,,,,,,,,,,,,,,022619_p1_v2,001,2019_Feb_26_1037,body_behavioural,3.0.4,59.85482630848273,
2,“Things have been really picking up at work.,2,2,None,None,,0,2,2,2,,,,,0,25,25,25,,,,,,,,,,,,,,,,,,,,,,,,,,,1,1.2531471530001,,,,,,,,,,,,,,022619_p1_v2,001,2019_Feb_26_1037,body_behavioural,3.0.4,59.85482630848273,
2,And I’m not sure that this is the job I want to do anymore.,2,2,None,None,,0,2,2,2,,,,,0,26,26,26,,,,,,,,,,,,,,,,,,,,,,,,,,,1,0.986388158000409,,,,,,,,,,,,,,022619_p1_v2,001,2019_Feb_26_1037,body_behavioural,3.0.4,59.85482630848273,
2,It’s been really overwhelming between working and figuring out if I should change careers.” ,2,2,17.0,None,,0,2,2,2,,,,,0,27,27,27,,,,,,,,,,,,,,,,,,,,,,,,,,,1,1.4674063279999245,,,,,,,,,,,,,,022619_p1_v2,001,2019_Feb_26_1037,body_behavioural,3.0.4,59.85482630848273,
2,The waiter appeared and interrupted the speech Thomas had been practicing.,3,2,None,None,,0,2,2,2,,,,,0,28,28,28,,,,,,,,,,,,,,,,,,,,,,,,,,,9,2.084045579999838,,,,,,,,,,,,,,022619_p1_v2,001,2019_Feb_26_1037,body_behavioural,3.0.4,59.85482630848273,
2,"“Hello you two!”, the waiter said.",3,2,None,None,,0,2,2,2,,,,,0,29,29,29,,,,,,,,,,,,,,,,,,,,,,,,,,,1,1.46934402000079,,,,,,,,,,,,,,022619_p1_v2,001,2019_Feb_26_1037,body_behavioural,3.0.4,59.85482630848273,
2,“Have you decided what you would like?”,3,2,None,None,,0,2,2,2,,,,,0,30,30,30,,,,,,,,,,,,,,,,,,,,,,,,,,,1,1.8030884549998518,,,,,,,,,,,,,,022619_p1_v2,001,2019_Feb_26_1037,body_behavioural,3.0.4,59.85482630848273,
2,"Thomas and Sadie realized there were menus on the table, and they glanced at the lengthy list quickly.",3,2,None,None,,0,2,2,2,,,,,0,31,31,31,,,,,,,,,,,,,,,,,,,,,,,,,,,1,3.0009210729995175,,,,,,,,,,,,,,022619_p1_v2,001,2019_Feb_26_1037,body_behavioural,3.0.4,59.85482630848273,
2,"There were so many strange dishes they had never heard of before, so they settled on familiar orders.",3,2,None,None,,0,2,2,2,,,,,0,32,32,32,,,,,,,,,,,,,,,,,,,,,,,,,,,1,1.669621609999922,,,,,,,,,,,,,,022619_p1_v2,001,2019_Feb_26_1037,body_behavioural,3.0.4,59.85482630848273,
2,"“I’ll have a burger, no tomatoes,” Thomas said.",3,2,None,None,,0,2,2,2,,,,,0,33,33,33,,,,,,,,,,,,,,,,,,,,,,,,,,,1,1.0864521920002517,,,,,,,,,,,,,,022619_p1_v2,001,2019_Feb_26_1037,body_behavioural,3.0.4,59.85482630848273,
2,"Sadie asked about the reuben, and the waiter told her it was excellent.",3,2,None,None,,0,2,2,2,,,,,0,34,34,34,,,,,,,,,,,,,,,,,,,,,,,,,,,1,1.3340479969992884,,,,,,,,,,,,,,022619_p1_v2,001,2019_Feb_26_1037,body_behavioural,3.0.4,59.85482630848273,
2,"Once she agreed to get that, he walked away. ",3,2,None,None,,0,2,2,2,,,,,0,35,35,35,,,,,,,,,,,,,,,,,,,,,,,,,,,1,1.519335062999744,,,,,,,,,,,,,,022619_p1_v2,001,2019_Feb_26_1037,body_behavioural,3.0.4,59.85482630848273,
2,Sadie and Thomas looked at each other. ,3,2,None,None,,0,2,2,2,,,,,0,36,36,36,,,,,,,,,,,,,,,,,,,,,,,,,,,9,0.6697376149995762,,,,,,,,,,,,,,022619_p1_v2,001,2019_Feb_26_1037,body_behavioural,3.0.4,59.85482630848273,
2,"“So what are you saying?”, Sadie asked. ",3,2,None,None,,0,2,2,2,,,,,0,37,37,37,,,,,,,,,,,,,,,,,,,,,,,,,,,1,1.1034716000003755,,,,,,,,,,,,,,022619_p1_v2,001,2019_Feb_26_1037,body_behavioural,3.0.4,59.85482630848273,
2,"Thomas replied, “I want to take a break for awhile.",3,2,None,None,,0,2,2,2,,,,,0,38,38,38,,,,,,,,,,,,,,,,,,,,,,,,,,,1,1.2030966229995101,,,,,,,,,,,,,,022619_p1_v2,001,2019_Feb_26_1037,body_behavioural,3.0.4,59.85482630848273,
2,"You know, have space to figure out what I’m supposed to be doing.”",3,2,None,17.0,,0,2,2,2,,,,,0,39,39,39,,,,,,,,,,,,,,,,,,,,,,,,,,,1,1.119387738000114,,,,,,,,,,,,,,022619_p1_v2,001,2019_Feb_26_1037,body_behavioural,3.0.4,59.85482630848273,
2,Sadie quietly burst into tears. ,3,3,None,None,,0,2,2,2,,,,,0,40,40,40,,,,,,,,,,,,,,,,,,,,,,,,,,,1,0.7363683300000048,,,,,,,,,,,,,,022619_p1_v2,001,2019_Feb_26_1037,body_behavioural,3.0.4,59.85482630848273,
2,"Nevertheless, people sitting at the adjacent table looked over and quickly averted their gaze as they realized what was happening. ",3,3,None,None,,0,2,2,2,,,,,0,41,41,41,,,,,,,,,,,,,,,,,,,,,,,,,,,1,1.5864298079995933,,,,,,,,,,,,,,022619_p1_v2,001,2019_Feb_26_1037,body_behavioural,3.0.4,59.85482630848273,
2,“Is this really what you want?,3,3,None,None,,0,2,2,2,,,,,0,42,42,42,,,,,,,,,,,,,,,,,,,,,,,,,,,1,1.06990525800029,,,,,,,,,,,,,,022619_p1_v2,001,2019_Feb_26_1037,body_behavioural,3.0.4,59.85482630848273,
2,I don’t understand.,3,3,None,None,,0,2,2,2,,,,,0,43,43,43,,,,,,,,,,,,,,,,,,,,,,,,,,,1,0.8528437550003218,,,,,,,,,,,,,,022619_p1_v2,001,2019_Feb_26_1037,body_behavioural,3.0.4,59.85482630848273,
2,I don’t understand.,3,3,None,None,,0,2,2,2,,,,,0,44,44,44,,,,,,,,,,,,,,,,,,,,,,,,,,,1,0.5198311200001626,,,,,,,,,,,,,,022619_p1_v2,001,2019_Feb_26_1037,body_behavioural,3.0.4,59.85482630848273,
2,Things were fine. ,3,3,None,None,,0,2,2,2,,,,,0,45,45,45,,,,,,,,,,,,,,,,,,,,,,,,,,,1,0.9363978300007147,,,,,,,,,,,,,,022619_p1_v2,001,2019_Feb_26_1037,body_behavioural,3.0.4,59.85482630848273,
2,"We don’t have to hang out all the time, or as much as we do now.”",3,3,None,None,,0,2,2,2,,,,,0,46,46,46,,,,,,,,,,,,,,,,,,,,,,,,,,,1,1.0860851769994042,,,,,,,,,,,,,,022619_p1_v2,001,2019_Feb_26_1037,body_behavioural,3.0.4,59.85482630848273,
2,Thomas chewed on his bottom lip and picked at his now bleeding hangnail. ,3,3,20.0,None,,0,2,2,2,,,,,0,47,47,47,,,,,,,,,,,,,,,,,,,,,,,,,,,1,1.8840855700000247,,,,,,,,,,,,,,022619_p1_v2,001,2019_Feb_26_1037,body_behavioural,3.0.4,59.85482630848273,
2,"At that moment, the waiter arrived with the burger and reuben and set them on the table.",4,3,None,None,,0,2,2,2,,,,,0,48,48,48,,,,,,,,,,,,,,,,,,,,,,,,,,,1,1.936407655000039,,,,,,,,,,,,,,022619_p1_v2,001,2019_Feb_26_1037,body_behavioural,3.0.4,59.85482630848273,
2,“Is there anything else I can get for you two?,4,3,None,None,,0,2,2,2,,,,,0,49,49,49,,,,,,,,,,,,,,,,,,,,,,,,,,,1,1.3026640099997167,,,,,,,,,,,,,,022619_p1_v2,001,2019_Feb_26_1037,body_behavioural,3.0.4,59.85482630848273,
2,"Will you be getting dessert tonight?”, he asked.",4,3,None,None,,0,2,2,2,,,,,0,50,50,50,,,,,,,,,,,,,,,,,,,,,,,,,,,1,1.6028050049999365,,,,,,,,,,,,,,022619_p1_v2,001,2019_Feb_26_1037,body_behavioural,3.0.4,59.85482630848273,
2,"“Oh no, we’re good, thanks,” Thomas said.",4,3,None,None,,0,2,2,2,,,,,0,51,51,51,,,,,,,,,,,,,,,,,,,,,,,,,,,1,1.4509645069992985,,,,,,,,,,,,,,022619_p1_v2,001,2019_Feb_26_1037,body_behavioural,3.0.4,59.85482630848273,
2,"Once the waiter had walked away still oblivious to the situation, Thomas sighed and said, “Sadie, I’m sorry.",4,3,None,None,,0,2,2,2,,,,,0,52,52,52,,,,,,,,,,,,,,,,,,,,,,,,,,,1,3.10324334500001,,,,,,,,,,,,,,022619_p1_v2,001,2019_Feb_26_1037,body_behavioural,3.0.4,59.85482630848273,
2,"You are so great, and I love hanging out with you.",4,3,None,None,,0,2,2,2,,,,,0,53,53,53,,,,,,,,,,,,,,,,,,,,,,,,,,,1,1.5197672770000281,,,,,,,,,,,,,,022619_p1_v2,001,2019_Feb_26_1037,body_behavioural,3.0.4,59.85482630848273,
2,But I need some time.,4,3,None,None,,0,2,2,2,,,,,0,54,54,54,,,,,,,,,,,,,,,,,,,,,,,,,,,1,0.5674381950002498,,,,,,,,,,,,,,022619_p1_v2,001,2019_Feb_26_1037,body_behavioural,3.0.4,59.85482630848273,
2,I’m so sorry.”,4,3,None,None,,0,2,2,2,,,,,0,55,55,55,,,,,,,,,,,,,,,,,,,,,,,,,,,1,0.6360733550000077,,,,,,,,,,,,,,022619_p1_v2,001,2019_Feb_26_1037,body_behavioural,3.0.4,59.85482630848273,
2,"He grabbed her hand, and she pulled it out of his.",4,3,None,None,,0,2,2,2,,,,,0,56,56,56,,,,,,,,,,,,,,,,,,,,,,,,,,,1,1.1036116529994615,,,,,,,,,,,,,,022619_p1_v2,001,2019_Feb_26_1037,body_behavioural,3.0.4,59.85482630848273,
2,"“Sadie,” he said.",4,3,None,17.0,,0,2,2,2,,,,,0,57,57,57,,,,,,,,,,,,,,,,,,,,,,,,,,,1,1.969841537999855,,,,,,,,,,,,,,022619_p1_v2,001,2019_Feb_26_1037,body_behavioural,3.0.4,59.85482630848273,
2," She stood up, grabbed half of the reuben and shook it at him as she growled, “Don’t follow me, and don’t talk to me anymore!”",4,4,None,None,,0,2,2,2,,,,,0,58,58,58,,,,,,,,,,,,,,,,,,,,,,,,,,,1,1.8697319600005358,,,,,,,,,,,,,,022619_p1_v2,001,2019_Feb_26_1037,body_behavioural,3.0.4,59.85482630848273,
2,"Sadie's heels clacked loudly against the black and white linoleum, and the bell above the door jingled cheerfully as the door closed behind her.",4,4,None,None,,0,2,2,2,,,,,0,59,59,59,,,,,,,,,,,,,,,,,,,,,,,,,,,1,1.2531740929998705,,,,,,,,,,,,,,022619_p1_v2,001,2019_Feb_26_1037,body_behavioural,3.0.4,59.85482630848273,
2,Thomas sat there for awhile in shock at how quickly everything transpired. ,4,4,None,None,,0,2,2,2,,,,,0,60,60,60,,,,,,,,,,,,,,,,,,,,,,,,,,,1,1.0862820980000834,,,,,,,,,,,,,,022619_p1_v2,001,2019_Feb_26_1037,body_behavioural,3.0.4,59.85482630848273,
2,"He grabbed his burger and took a bite of it, creating a dry and fishy taste in his mouth.",4,4,None,None,,0,2,2,2,,,,,0,61,61,61,,,,,,,,,,,,,,,,,,,,,,,,,,,9,2.4201879680003913,,,,,,,,,,,,,,022619_p1_v2,001,2019_Feb_26_1037,body_behavioural,3.0.4,59.85482630848273,
2,He dropped it back on his plate and wondered if the restaurant was responsible for the foul taste. ,4,4,13.0,5.0,,0,2,2,2,,,,,0,62,62,62,,,,,,,,,,,,,,,,,,,,,,,,,,,1,1.3864164369997525,,,,,,,,,,,,,,022619_p1_v2,001,2019_Feb_26_1037,body_behavioural,3.0.4,59.85482630848273,
2,,,,,,,0,2,2,2,,,,,,,,,,,,,,,,,,,,,,,,,,,,,,,,,,,,,,,,,,,,,,,,,,022619_p1_v2,001,2019_Feb_26_1037,body_behavioural,3.0.4,59.85482630848273,
3,,,,,,,0,3,3,3,0,0,0,0,,,,,,,,,,,,,,,,,,,,,,,,,space,0.8697012700004052,space,1.469618831999469,space,0.5193746979994103,,,,,,,,,,,,,,,,022619_p1_v2,001,2019_Feb_26_1037,body_behavioural,3.0.4,59.85482630848273,
3,David saw Anna for the first time when she burst into the airport with her bag skidding behind her half-zipped. ,1,1,,,,0,3,3,3,,,,,0,0,0,0,,,,,,,,,,,,,,,,,,,,,,,,,,,9,11.73715729200012,,,,,,,,,,,,,,022619_p1_v2,001,2019_Feb_26_1037,body_behavioural,3.0.4,59.85482630848273,
3,"He had three hours until his flight, but she clearly had less than one.",1,1,,,,0,3,3,3,,,,,0,1,1,1,,,,,,,,,,,,,,,,,,,,,,,,,,,1,5.203249632999359,,,,,,,,,,,,,,022619_p1_v2,001,2019_Feb_26_1037,body_behavioural,3.0.4,59.85482630848273,
3,"Anna’s yoga class had ran over, and afterwards, she, forgetting the time, had lingered to talk with friends. ",1,1,,,,0,3,3,3,,,,,0,2,2,2,,,,,,,,,,,,,,,,,,,,,,,,,,,1,4.653131925000707,,,,,,,,,,,,,,022619_p1_v2,001,2019_Feb_26_1037,body_behavioural,3.0.4,59.85482630848273,
3,"Despite Anna's frazzled state, David was instantly intrigued by her.",1,1,,,,0,3,3,3,,,,,0,3,3,3,,,,,,,,,,,,,,,,,,,,,,,,,,,1,0.9530555799992726,,,,,,,,,,,,,,022619_p1_v2,001,2019_Feb_26_1037,body_behavioural,3.0.4,59.85482630848273,
3,"He thought she was beautiful, and she reminded him of one of his favorite paintings.",1,1,,,,0,3,3,3,,,,,0,4,4,4,,,,,,,,,,,,,,,,,,,,,,,,,,,9,4.769638812999801,,,,,,,,,,,,,,022619_p1_v2,001,2019_Feb_26_1037,body_behavioural,3.0.4,59.85482630848273,
3,"Anna, a few strides into the airport, suddenly realized her shoes were untied, so she hunched over to tie them.",1,1,,,,0,3,3,3,,,,,0,5,5,5,,,,,,,,,,,,,,,,,,,,,,,,,,,1,3.069803270000193,,,,,,,,,,,,,,022619_p1_v2,001,2019_Feb_26_1037,body_behavioural,3.0.4,59.85482630848273,
3,David observed that someone with a tall cart of luggage was heading straight for where Anna was kneeling. ,1,1,,,,0,3,3,3,,,,,0,6,6,6,,,,,,,,,,,,,,,,,,,,,,,,,,,1,1.7029262300002301,,,,,,,,,,,,,,022619_p1_v2,001,2019_Feb_26_1037,body_behavioural,3.0.4,59.85482630848273,
3,Both Anna and the person driving the cart were oblivious to the impending collision. ,1,1,,,,0,3,3,3,,,,,0,7,7,7,,,,,,,,,,,,,,,,,,,,,,,,,,,1,1.3032233200001428,,,,,,,,,,,,,,022619_p1_v2,001,2019_Feb_26_1037,body_behavioural,3.0.4,59.85482630848273,
3,"David had to intervene, and he ran in front of the cart pushing her out of the way just in the nick of time, and they tumbled on the airport floor. ",1,2,,,,0,3,3,3,,,,,0,8,8,8,,,,,,,,,,,,,,,,,,,,,,,,,,,1,2.3365986999997403,,,,,,,,,,,,,,022619_p1_v2,001,2019_Feb_26_1037,body_behavioural,3.0.4,59.85482630848273,
3,"Anna, bewildered, looked up and saw the cart pass by and then looked over at David. ",1,2,,,,0,3,3,3,,,,,0,9,9,9,,,,,,,,,,,,,,,,,,,,,,,,,,,1,1.9360551579993626,,,,,,,,,,,,,,022619_p1_v2,001,2019_Feb_26_1037,body_behavioural,3.0.4,59.85482630848273,
3,He gave a smile back.,1,2,,,,0,3,3,3,,,,,0,10,10,10,,,,,,,,,,,,,,,,,,,,,,,,,,,1,1.0366500580003049,,,,,,,,,,,,,,022619_p1_v2,001,2019_Feb_26_1037,body_behavioural,3.0.4,59.85482630848273,
3,"“You alright?”, he said.",1,2,,,,0,3,3,3,,,,,0,11,11,11,,,,,,,,,,,,,,,,,,,,,,,,,,,1,0.5364327299994329,,,,,,,,,,,,,,022619_p1_v2,001,2019_Feb_26_1037,body_behavioural,3.0.4,59.85482630848273,
3,"She whispered, “Uh yeah.",1,2,,,,0,3,3,3,,,,,0,12,12,12,,,,,,,,,,,,,,,,,,,,,,,,,,,1,0.9863503200003834,,,,,,,,,,,,,,022619_p1_v2,001,2019_Feb_26_1037,body_behavioural,3.0.4,59.85482630848273,
3,I almost got smooshed by that cart.”,1,2,,,,0,3,3,3,,,,,0,13,13,13,,,,,,,,,,,,,,,,,,,,,,,,,,,1,0.9194717250002213,,,,,,,,,,,,,,022619_p1_v2,001,2019_Feb_26_1037,body_behavioural,3.0.4,59.85482630848273,
3,Her head was still spinning as she stared at the handsome stranger who had saved her. ,1,2,,,,0,3,3,3,,,,,0,14,14,14,,,,,,,,,,,,,,,,,,,,,,,,,,,1,2.41980334299933,,,,,,,,,,,,,,022619_p1_v2,001,2019_Feb_26_1037,body_behavioural,3.0.4,59.85482630848273,
3,David helped her up and had to keep holding on to her arms to steady her even once they were standing.,1,2,,,,0,3,3,3,,,,,0,15,15,15,,,,,,,,,,,,,,,,,,,,,,,,,,,1,1.586348325000472,,,,,,,,,,,,,,022619_p1_v2,001,2019_Feb_26_1037,body_behavioural,3.0.4,59.85482630848273,
3,"“I’m really late for my flight,” she said. ",1,2,,,,0,3,3,3,,,,,0,16,16,16,,,,,,,,,,,,,,,,,,,,,,,,,,,1,0.9027103399994303,,,,,,,,,,,,,,022619_p1_v2,001,2019_Feb_26_1037,body_behavioural,3.0.4,59.85482630848273,
3,"“Don't worry,” said David, "let me help you get to your gate." ",1,2,,,,0,3,3,3,,,,,0,17,17,17,,,,,,,,,,,,,,,,,,,,,,,,,,,1,1.169759084999896,,,,,,,,,,,,,,022619_p1_v2,001,2019_Feb_26_1037,body_behavioural,3.0.4,59.85482630848273,
3,He waved off her half-hearted protests. ,1,2,,,,0,3,3,3,,,,,0,18,18,18,,,,,,,,,,,,,,,,,,,,,,,,,,,1,1.936603985000147,,,,,,,,,,,,,,022619_p1_v2,001,2019_Feb_26_1037,body_behavioural,3.0.4,59.85482630848273,
3,"“Really , I have plenty of time and nothing better to do.”",1,2,,,,0,3,3,3,,,,,0,19,19,19,,,,,,,,,,,,,,,,,,,,,,,,,,,1,0.8364098250003735,,,,,,,,,,,,,,022619_p1_v2,001,2019_Feb_26_1037,body_behavioural,3.0.4,59.85482630848273,
3,They headed to the security line. ,2,2,,,,0,3,3,3,,,,,0,20,20,20,,,,,,,,,,,,,,,,,,,,,,,,,,,1,1.50299395500042,,,,,,,,,,,,,,022619_p1_v2,001,2019_Feb_26_1037,body_behavioural,3.0.4,59.85482630848273,
3,"The line was not long, and they spent the time chatting and getting to know each other.",2,2,,,,0,3,3,3,,,,,0,21,21,21,,,,,,,,,,,,,,,,,,,,,,,,,,,9,2.21979723000004,,,,,,,,,,,,,,022619_p1_v2,001,2019_Feb_26_1037,body_behavioural,3.0.4,59.85482630848273,
3,It turned out that Anna and David went to the same high school but Anna had been 3 years older.,2,2,,,,0,3,3,3,,,,,0,22,22,22,,,,,,,,,,,,,,,,,,,,,,,,,,,1,2.3702759950001564,,,,,,,,,,,,,,022619_p1_v2,001,2019_Feb_26_1037,body_behavioural,3.0.4,59.85482630848273,
3,When they got to the front of the line they took off their shoes and pulled off their coats.,2,3,,,,0,3,3,3,,,,,0,23,23,23,,,,,,,,,,,,,,,,,,,,,,,,,,,1,3.3866256380006234,,,,,,,,,,,,,,022619_p1_v2,001,2019_Feb_26_1037,body_behavioural,3.0.4,59.85482630848273,
3,Both of them went through the metal detector without any problems. ,2,3,,,,0,3,3,3,,,,,0,24,24,24,,,,,,,,,,,,,,,,,,,,,,,,,,,1,1.8363626299997122,,,,,,,,,,,,,,022619_p1_v2,001,2019_Feb_26_1037,body_behavioural,3.0.4,59.85482630848273,
3,"Anna’s flight was in 20 minutes, and as she was rushing to put her shoes and coat back on, David asked her, “So when are you coming back?”",2,3,,,,0,3,3,3,,,,,0,25,25,25,,,,,,,,,,,,,,,,,,,,,,,,,,,9,4.436442990000614,,,,,,,,,,,,,,022619_p1_v2,001,2019_Feb_26_1037,body_behavioural,3.0.4,59.85482630848273,
3,"“In a week, it’s a short trip,” Anna replied. ",2,3,,,,0,3,3,3,,,,,0,26,26,26,,,,,,,,,,,,,,,,,,,,,,,,,,,1,1.2698069079997367,,,,,,,,,,,,,,022619_p1_v2,001,2019_Feb_26_1037,body_behavioural,3.0.4,59.85482630848273,
3,"“Me too,” David said.",2,3,,,,0,3,3,3,,,,,0,27,27,27,,,,,,,,,,,,,,,,,,,,,,,,,,,1,2.486076514999695,,,,,,,,,,,,,,022619_p1_v2,001,2019_Feb_26_1037,body_behavioural,3.0.4,59.85482630848273,
3,"He continued, “When we're back in town, is there any chance you'd want to get dinner?",2,3,,,,0,3,3,3,,,,,0,28,28,28,,,,,,,,,,,,,,,,,,,,,,,,,,,1,2.269735992999813,,,,,,,,,,,,,,022619_p1_v2,001,2019_Feb_26_1037,body_behavioural,3.0.4,59.85482630848273,
3,"I know we just met, but when life throws a luggage cart at you it seems like we should listen. “",2,3,,,,0,3,3,3,,,,,0,29,29,29,,,,,,,,,,,,,,,,,,,,,,,,,,,1,1.7197321929997997,,,,,,,,,,,,,,022619_p1_v2,001,2019_Feb_26_1037,body_behavioural,3.0.4,59.85482630848273,
3,"She stopped packing, and said with a smile, “Yes I would love that.”",2,3,,,,0,3,3,3,,,,,0,30,30,30,,,,,,,,,,,,,,,,,,,,,,,,,,,1,1.0364042000001064,,,,,,,,,,,,,,022619_p1_v2,001,2019_Feb_26_1037,body_behavioural,3.0.4,59.85482630848273,
3,Then they ran off to Anna’s gate which was at the end of the terminal. ,3,3,,,,0,3,3,3,,,,,0,31,31,31,,,,,,,,,,,,,,,,,,,,,,,,,,,1,2.2198208330000853,,,,,,,,,,,,,,022619_p1_v2,001,2019_Feb_26_1037,body_behavioural,3.0.4,59.85482630848273,
3,"David took put on her backpack, grabbed her hand, and navigated quickly through the crowds of people.",3,3,,,,0,3,3,3,,,,,0,32,32,32,,,,,,,,,,,,,,,,,,,,,,,,,,,9,1.3530851300001814,,,,,,,,,,,,,,022619_p1_v2,001,2019_Feb_26_1037,body_behavioural,3.0.4,59.85482630848273,
3,Anna was amazed at everything that was happening; she had arrived at the airport doubtful that she would make it and was now confident that she would due to this handsome and kind man she just met.,3,3,,,,0,3,3,3,,,,,0,33,33,33,,,,,,,,,,,,,,,,,,,,,,,,,,,1,2.434156610000173,,,,,,,,,,,,,,022619_p1_v2,001,2019_Feb_26_1037,body_behavioural,3.0.4,59.85482630848273,
3,"As they approached her gate, Anna fished out a crumbled business card from her pocket and handed it to David, who handed her the backpack, and he promised to call her next week.",3,4,,,,0,3,3,3,,,,,0,34,34,34,,,,,,,,,,,,,,,,,,,,,,,,,,,1,2.6694446699993932,,,,,,,,,,,,,,022619_p1_v2,001,2019_Feb_26_1037,body_behavioural,3.0.4,59.85482630848273,
3,She gave him one last embarrassed smile and approached the flight attendant who scanned her ticket. ,3,4,,,,0,3,3,3,,,,,0,35,35,35,,,,,,,,,,,,,,,,,,,,,,,,,,,1,1.2863989030001903,,,,,,,,,,,,,,022619_p1_v2,001,2019_Feb_26_1037,body_behavioural,3.0.4,59.85482630848273,
3,"Finally, she boarded the plane, sliding into her window seat located all the way in the back of the plane.",4,4,,,,0,3,3,3,,,,,0,36,36,36,,,,,,,,,,,,,,,,,,,,,,,,,,,9,1.2697322700005316,,,,,,,,,,,,,,022619_p1_v2,001,2019_Feb_26_1037,body_behavioural,3.0.4,59.85482630848273,
3,"Barely containing her glee, she ignored the grumbles of complaint as she squeezed past the other passengers in her row and settled back in her seat. ",4,4,,,,0,3,3,3,,,,,0,37,37,37,,,,,,,,,,,,,,,,,,,,,,,,,,,1,5.767815409999457,,,,,,,,,,,,,,022619_p1_v2,001,2019_Feb_26_1037,body_behavioural,3.0.4,59.85482630848273,
3,"She was thankful that she had not only made it onto the plane in time, but also that she had been clumsy enough to forget to tie her shoes.",4,4,,,,0,3,3,3,,,,,0,38,38,38,,,,,,,,,,,,,,,,,,,,,,,,,,,1,2.3198297099997944,,,,,,,,,,,,,,022619_p1_v2,001,2019_Feb_26_1037,body_behavioural,3.0.4,59.85482630848273,
3,,,,,,,0,3,3,3,,,,,,,,,,,,,,,,,,,,,,,,,,,,,,,,,,,,,,,,,,,,,,,,,,022619_p1_v2,001,2019_Feb_26_1037,body_behavioural,3.0.4,59.85482630848273,
4,,,,,,,0,4,4,4,0,0,0,0,,,,,,,,,,,,,,,,,,,,,,,,,space,1.2363518230004047,space,2.4364379449998523,space,1.0530188679995263,,,,,,,,,,,,,,,,022619_p1_v2,001,2019_Feb_26_1037,body_behavioural,3.0.4,59.85482630848273,
4,"Simon and Carina noticed each other as they walked into the grocery store at the same time, their carts nearly colliding as they squeezed into the entrance.",1,1,,,,0,4,4,4,,,,,0,0,0,0,,,,,,,,,,,,,,,,,,,,,,,,,,,9,8.253575425000236,,,,,,,,,,,,,,022619_p1_v2,001,2019_Feb_26_1037,body_behavioural,3.0.4,59.85482630848273,
4,"They were both new to the Boston area, and this was their first time in this store. ",1,1,,,,0,4,4,4,,,,,0,1,1,1,,,,,,,,,,,,,,,,,,,,,,,,,,,1,2.186460525000257,,,,,,,,,,,,,,022619_p1_v2,001,2019_Feb_26_1037,body_behavioural,3.0.4,59.85482630848273,
4,"It kind of looked like a large warehouse, with high unfurnished ceilings, industrial lights, and large packages of food. ",1,1,,,,0,4,4,4,,,,,0,2,2,2,,,,,,,,,,,,,,,,,,,,,,,,,,,1,1.7860574799997266,,,,,,,,,,,,,,022619_p1_v2,001,2019_Feb_26_1037,body_behavioural,3.0.4,59.85482630848273,
4,"They went off along separate routes, but soon ended up back together in the meat section. ",2,1,,,,0,4,4,4,,,,,0,3,3,3,,,,,,,,,,,,,,,,,,,,,,,,,,,1,2.7698385600006077,,,,,,,,,,,,,,022619_p1_v2,001,2019_Feb_26_1037,body_behavioural,3.0.4,59.85482630848273,
4,"They were both preparing for barbecues, so they were looking over the same cuts of meat. ",2,1,,,,0,4,4,4,,,,,0,4,4,4,,,,,,,,,,,,,,,,,,,,,,,,,,,1,1.669628599999669,,,,,,,,,,,,,,022619_p1_v2,001,2019_Feb_26_1037,body_behavioural,3.0.4,59.85482630848273,
4,"Simon really wanted to talk to Carina, and Carina really wanted to say something to Simon, but they felt embarrassed striking up a conversation with a stranger.",2,1,,,,0,4,4,4,,,,,0,5,5,5,,,,,,,,,,,,,,,,,,,,,,,,,,,9,3.186525733000053,,,,,,,,,,,,,,022619_p1_v2,001,2019_Feb_26_1037,body_behavioural,3.0.4,59.85482630848273,
4,"Carina suddenly turned to Simon and, pointing at a Cornish hen, asked, “Isn’t this meat cute?”",2,2,,,,0,4,4,4,,,,,0,6,6,6,,,,,,,,,,,,,,,,,,,,,,,,,,,1,1.3198337900003025,,,,,,,,,,,,,,022619_p1_v2,001,2019_Feb_26_1037,body_behavioural,3.0.4,59.85482630848273,
4,"He laughed, and said, “It is very cute.",2,2,,,,0,4,4,4,,,,,0,7,7,7,,,,,,,,,,,,,,,,,,,,,,,,,,,1,1.4530805950007561,,,,,,,,,,,,,,022619_p1_v2,001,2019_Feb_26_1037,body_behavioural,3.0.4,59.85482630848273,
4,"Probably the younger brother of this guy,” and he picked up a regular-sized chicken.",2,2,,,,0,4,4,4,,,,,0,8,8,8,,,,,,,,,,,,,,,,,,,,,,,,,,,1,2.0195994979994794,,,,,,,,,,,,,,022619_p1_v2,001,2019_Feb_26_1037,body_behavioural,3.0.4,59.85482630848273,
4,"“Unlucky family,” she responded. ",2,2,,,,0,4,4,4,,,,,0,9,9,9,,,,,,,,,,,,,,,,,,,,,,,,,,,1,0.9531106150006963,,,,,,,,,,,,,,022619_p1_v2,001,2019_Feb_26_1037,body_behavioural,3.0.4,59.85482630848273,
4,They continued to chat as they picked out their groceries.,2,2,,,,0,4,4,4,,,,,0,10,10,10,,,,,,,,,,,,,,,,,,,,,,,,,,,1,1.5841095750001841,,,,,,,,,,,,,,022619_p1_v2,001,2019_Feb_26_1037,body_behavioural,3.0.4,59.85482630848273,
4,"Simon helped Carina pick out the best ribs and his personal favorite barbeque sauce, and she helped him gather the  peppers, onions, and spices for a vegetable kabob she recommended.",2,2,,,,0,4,4,4,,,,,0,11,11,11,,,,,,,,,,,,,,,,,,,,,,,,,,,9,2.5030774530005147,,,,,,,,,,,,,,022619_p1_v2,001,2019_Feb_26_1037,body_behavioural,3.0.4,59.85482630848273,
4,"When they were both finished shopping, they went to the checkout area.",3,2,,,,0,4,4,4,,,,,0,12,12,12,,,,,,,,,,,,,,,,,,,,,,,,,,,1,1.3053121849998206,,,,,,,,,,,,,,022619_p1_v2,001,2019_Feb_26_1037,body_behavioural,3.0.4,59.85482630848273,
4,"Simon was disappointed to see that the lines were short, since he had been hoping for an excuse to spend more time with Carina.",3,2,,,,0,4,4,4,,,,,0,13,13,13,,,,,,,,,,,,,,,,,,,,,,,,,,,9,1.6882930679994388,,,,,,,,,,,,,,022619_p1_v2,001,2019_Feb_26_1037,body_behavioural,3.0.4,59.85482630848273,
4,"They had real chemistry, and both of them could definitely see a future together despite having just met.",3,2,,,,0,4,4,4,,,,,0,14,14,14,,,,,,,,,,,,,,,,,,,,,,,,,,,1,1.3172986829995352,,,,,,,,,,,,,,022619_p1_v2,001,2019_Feb_26_1037,body_behavioural,3.0.4,59.85482630848273,
4,"“So you haven’t been around the city much?”, Simon asked. ",3,2,,,,0,4,4,4,,,,,0,15,15,15,,,,,,,,,,,,,,,,,,,,,,,,,,,1,0.9549004629998308,,,,,,,,,,,,,,022619_p1_v2,001,2019_Feb_26_1037,body_behavioural,3.0.4,59.85482630848273,
4,"“No, not really.",3,2,,,,0,4,4,4,,,,,0,16,16,16,,,,,,,,,,,,,,,,,,,,,,,,,,,1,1.1214005219999308,,,,,,,,,,,,,,022619_p1_v2,001,2019_Feb_26_1037,body_behavioural,3.0.4,59.85482630848273,
4,I’ve mainly been working and setting up my apartment.”,3,2,,,,0,4,4,4,,,,,0,17,17,17,,,,,,,,,,,,,,,,,,,,,,,,,,,1,1.4879207329995552,,,,,,,,,,,,,,022619_p1_v2,001,2019_Feb_26_1037,body_behavioural,3.0.4,59.85482630848273,
4,"Simon asked her, “Ok well, if you’d like I could pick you up next weekend, and we could go around Harvard Square and get dinner.",3,3,,,,0,4,4,4,,,,,0,18,18,18,,,,,,,,,,,,,,,,,,,,,,,,,,,1,1.984105823000391,,,,,,,,,,,,,,022619_p1_v2,001,2019_Feb_26_1037,body_behavioural,3.0.4,59.85482630848273,
4,"There are a lot of great places around there, and it’s really nice during the summer.",3,3,,,,0,4,4,4,,,,,0,19,19,19,,,,,,,,,,,,,,,,,,,,,,,,,,,1,1.238129084999855,,,,,,,,,,,,,,022619_p1_v2,001,2019_Feb_26_1037,body_behavioural,3.0.4,59.85482630848273,
4,The Harvard campus is also beautiful.” ,3,3,,,,0,4,4,4,,,,,0,20,20,20,,,,,,,,,,,,,,,,,,,,,,,,,,,1,1.1214702650004256,,,,,,,,,,,,,,022619_p1_v2,001,2019_Feb_26_1037,body_behavioural,3.0.4,59.85482630848273,
4,"Carina smiled, “I’d love to: that sounds great!”",3,3,,,,0,4,4,4,,,,,0,21,21,21,,,,,,,,,,,,,,,,,,,,,,,,,,,1,1.204311030000099,,,,,,,,,,,,,,022619_p1_v2,001,2019_Feb_26_1037,body_behavioural,3.0.4,59.85482630848273,
4,"She quickly entered her number in his phone, since they only had to wait a couple minutes in line.",3,3,,,,0,4,4,4,,,,,0,22,22,22,,,,,,,,,,,,,,,,,,,,,,,,,,,1,1.588259995000044,,,,,,,,,,,,,,022619_p1_v2,001,2019_Feb_26_1037,body_behavioural,3.0.4,59.85482630848273,
4,Then it was her turn to check out with the cashier. ,4,3,,,,0,4,4,4,,,,,0,23,23,23,,,,,,,,,,,,,,,,,,,,,,,,,,,1,1.3378371529997821,,,,,,,,,,,,,,022619_p1_v2,001,2019_Feb_26_1037,body_behavioural,3.0.4,59.85482630848273,
4,"Simon, wanting to make a gesture of his affection, lifted up the divider on the conveyor belt and said to the cashier, “Actually these are together.",4,3,,,,0,4,4,4,,,,,0,24,24,24,,,,,,,,,,,,,,,,,,,,,,,,,,,9,2.371668050000153,,,,,,,,,,,,,,022619_p1_v2,001,2019_Feb_26_1037,body_behavioural,3.0.4,59.85482630848273,
4,"Carina, I’ve got it.",4,3,,,,0,4,4,4,,,,,0,25,25,25,,,,,,,,,,,,,,,,,,,,,,,,,,,1,1.8215555130000212,,,,,,,,,,,,,,022619_p1_v2,001,2019_Feb_26_1037,body_behavioural,3.0.4,59.85482630848273,
4,This was kind-of a date today.”,4,3,,,,0,4,4,4,,,,,0,26,26,26,,,,,,,,,,,,,,,,,,,,,,,,,,,1,1.6047239949994037,,,,,,,,,,,,,,022619_p1_v2,001,2019_Feb_26_1037,body_behavioural,3.0.4,59.85482630848273,
4,Carina blushed and laughed; she thought this was ridiculous but also very sweet. ,4,3,,,,0,4,4,4,,,,,0,27,27,27,,,,,,,,,,,,,,,,,,,,,,,,,,,1,1.6714107830002831,,,,,,,,,,,,,,022619_p1_v2,001,2019_Feb_26_1037,body_behavioural,3.0.4,59.85482630848273,
4,"The cashier rolled her eyes when they weren’t looking, and she scanned the rest of his items. ",4,3,,,,0,4,4,4,,,,,0,28,28,28,,,,,,,,,,,,,,,,,,,,,,,,,,,1,1.2714895230001275,,,,,,,,,,,,,,022619_p1_v2,001,2019_Feb_26_1037,body_behavioural,3.0.4,59.85482630848273,
4,"The total came to $120, and he paid with his credit card.",4,3,,,,0,4,4,4,,,,,0,29,29,29,,,,,,,,,,,,,,,,,,,,,,,,,,,1,1.2340413000001718,,,,,,,,,,,,,,022619_p1_v2,001,2019_Feb_26_1037,body_behavioural,3.0.4,59.85482630848273,
4,"Carina thanked him, and they took the groceries and walked out.",4,3,,,,0,4,4,4,,,,,0,30,30,30,,,,,,,,,,,,,,,,,,,,,,,,,,,1,3.067459566999787,,,,,,,,,,,,,,022619_p1_v2,001,2019_Feb_26_1037,body_behavioural,3.0.4,59.85482630848273,
4,"As they were walking towards the exit, Carina reluctantly said goodbye since she was running late for the barbeque she was hosting that afternoon.",4,4,,,,0,4,4,4,,,,,0,31,31,31,,,,,,,,,,,,,,,,,,,,,,,,,,,9,2.4547978700002204,,,,,,,,,,,,,,022619_p1_v2,001,2019_Feb_26_1037,body_behavioural,3.0.4,59.85482630848273,
4,"They hugged and parted ways, stealing glances at each other as they both walked back to their cars.",4,4,,,,0,4,4,4,,,,,0,32,32,32,,,,,,,,,,,,,,,,,,,,,,,,,,,1,2.321527787999912,,,,,,,,,,,,,,022619_p1_v2,001,2019_Feb_26_1037,body_behavioural,3.0.4,59.85482630848273,
4,,,,,,,0,4,4,4,,,,,,,,,,,,,,,,,,,,,,,,,,,,,,,,,,,,,,,,,,,,,,,,,,022619_p1_v2,001,2019_Feb_26_1037,body_behavioural,3.0.4,59.85482630848273,
5,,,,,,,0,5,5,5,0,0,0,0,,,,,,,,,,,,,,,,,,,,,,,,,space,0.8711352250002165,space,0.5380387229997723,space,0.7713227200001711,,,,,,,,,,,,,,,,022619_p1_v2,001,2019_Feb_26_1037,body_behavioural,3.0.4,59.85482630848273,
5,"Alex was a distracted, sweaty mess as he walked into the grocery store with Chloe; he was hoping that she wouldn't suspect that he was about to propose.",1,1,,,,0,5,5,5,,,,,0,0,0,0,,,,,,,,,,,,,,,,,,,,,,,,,,,1,8.055250620000152,,,,,,,,,,,,,,022619_p1_v2,001,2019_Feb_26_1037,body_behavioural,3.0.4,59.85482630848273,
5,"The grocery store was brightly lit; this was one of the nicest grocery stores in Atlanta, and sunlight poured in through the glass walls.",1,1,,,,0,5,5,5,,,,,0,1,1,1,,,,,,,,,,,,,,,,,,,,,,,,,,,1,3.1219200349996754,,,,,,,,,,,,,,022619_p1_v2,001,2019_Feb_26_1037,body_behavioural,3.0.4,59.85482630848273,
5,"The atmosphere was also bright because tomorrow was Thanksgiving, and most shoppers had carts piled high with turkey, stuffing, and pies.",1,1,,,,0,5,5,5,,,,,0,2,2,2,,,,,,,,,,,,,,,,,,,,,,,,,,,1,6.92172343799939,,,,,,,,,,,,,,022619_p1_v2,001,2019_Feb_26_1037,body_behavioural,3.0.4,59.85482630848273,
5,Alex wanted to propose to Chloe here because he knew she would not suspect it at all. ,1,1,,,,0,5,5,5,,,,,0,3,3,3,,,,,,,,,,,,,,,,,,,,,,,,,,,1,2.938106972999776,,,,,,,,,,,,,,022619_p1_v2,001,2019_Feb_26_1037,body_behavioural,3.0.4,59.85482630848273,
5,"Chloe loved surprises, and Alex loved the look on Chloe’s face when she was surprised. ",1,1,,,,0,5,5,5,,,,,0,4,4,4,,,,,,,,,,,,,,,,,,,,,,,,,,,1,1.9548303000001397,,,,,,,,,,,,,,022619_p1_v2,001,2019_Feb_26_1037,body_behavioural,3.0.4,59.85482630848273,
5,"“Alex, we need to get some cranberry sauce, so let’s go there first.” ",2,1,,,,0,5,5,5,,,,,0,5,5,5,,,,,,,,,,,,,,,,,,,,,,,,,,,9,2.1882939799997985,,,,,,,,,,,,,,022619_p1_v2,001,2019_Feb_26_1037,body_behavioural,3.0.4,59.85482630848273,
5,She led the way to the section of the store that held the canned foods. ,2,1,,,,0,5,5,5,,,,,0,6,6,6,,,,,,,,,,,,,,,,,,,,,,,,,,,1,3.7046425600001385,,,,,,,,,,,,,,022619_p1_v2,001,2019_Feb_26_1037,body_behavioural,3.0.4,59.85482630848273,
5,Alex looked like he was going to throw up. ,2,1,,,,0,5,5,5,,,,,0,7,7,7,,,,,,,,,,,,,,,,,,,,,,,,,,,1,1.4881071279996831,,,,,,,,,,,,,,022619_p1_v2,001,2019_Feb_26_1037,body_behavioural,3.0.4,59.85482630848273,
5,"As they were walking there, Chloe asked him, “Is everything okay, dear?”",2,1,,,,0,5,5,5,,,,,0,8,8,8,,,,,,,,,,,,,,,,,,,,,,,,,,,1,1.2389050530000532,,,,,,,,,,,,,,022619_p1_v2,001,2019_Feb_26_1037,body_behavioural,3.0.4,59.85482630848273,
5,"“Oh yeah, for sure,” he said, unconvincingly. ",2,1,,,,0,5,5,5,,,,,0,9,9,9,,,,,,,,,,,,,,,,,,,,,,,,,,,1,0.9048389199997473,,,,,,,,,,,,,,022619_p1_v2,001,2019_Feb_26_1037,body_behavioural,3.0.4,59.85482630848273,
5,"She chuckled, “Alright, whatever you say.” ",2,1,,,,0,5,5,5,,,,,0,10,10,10,,,,,,,,,,,,,,,,,,,,,,,,,,,1,0.871392487999401,,,,,,,,,,,,,,022619_p1_v2,001,2019_Feb_26_1037,body_behavioural,3.0.4,59.85482630848273,
5,"She was mulling over the different cans of cranberry sauce, and Alex knew she would be a while.",2,1,,,,0,5,5,5,,,,,0,11,11,11,,,,,,,,,,,,,,,,,,,,,,,,,,,1,1.5047475949995714,,,,,,,,,,,,,,022619_p1_v2,001,2019_Feb_26_1037,body_behavioural,3.0.4,59.85482630848273,
5,He turned his back to her and pulled out the ring.,2,2,,,,0,5,5,5,,,,,0,12,12,12,,,,,,,,,,,,,,,,,,,,,,,,,,,1,1.8381791229994633,,,,,,,,,,,,,,022619_p1_v2,001,2019_Feb_26_1037,body_behavioural,3.0.4,59.85482630848273,
5,He had been saving up for this for a while. ,2,2,,,,0,5,5,5,,,,,0,13,13,13,,,,,,,,,,,,,,,,,,,,,,,,,,,1,1.4548933849991954,,,,,,,,,,,,,,022619_p1_v2,001,2019_Feb_26_1037,body_behavioural,3.0.4,59.85482630848273,
5,The ring had three large diamonds with smaller ones encircling each one: all of them sparkled in the light streaming in from the windows. ,2,2,,,,0,5,5,5,,,,,0,14,14,14,,,,,,,,,,,,,,,,,,,,,,,,,,,9,3.78821528699973,,,,,,,,,,,,,,022619_p1_v2,001,2019_Feb_26_1037,body_behavioural,3.0.4,59.85482630848273,
5,"“Alex?”, Chloe said suspiciously. ",2,2,,,,0,5,5,5,,,,,0,15,15,15,,,,,,,,,,,,,,,,,,,,,,,,,,,1,1.8047909950000758,,,,,,,,,,,,,,022619_p1_v2,001,2019_Feb_26_1037,body_behavioural,3.0.4,59.85482630848273,
5,He closed the box and whipped around. “Yes?”,2,2,,,,0,5,5,5,,,,,0,16,16,16,,,,,,,,,,,,,,,,,,,,,,,,,,,1,0.9714468749998559,,,,,,,,,,,,,,022619_p1_v2,001,2019_Feb_26_1037,body_behavioural,3.0.4,59.85482630848273,
5,“Do we need anything else?”,2,2,,,,0,5,5,5,,,,,0,17,17,17,,,,,,,,,,,,,,,,,,,,,,,,,,,1,0.904739630000222,,,,,,,,,,,,,,022619_p1_v2,001,2019_Feb_26_1037,body_behavioural,3.0.4,59.85482630848273,
5,"“Yeah I don’t know, honey.” ",2,2,,,,0,5,5,5,,,,,0,18,18,18,,,,,,,,,,,,,,,,,,,,,,,,,,,1,0.8713535599999886,,,,,,,,,,,,,,022619_p1_v2,001,2019_Feb_26_1037,body_behavioural,3.0.4,59.85482630848273,
5,They went to the checkout and waited in a long line.,3,2,,,,0,5,5,5,,,,,0,19,19,19,,,,,,,,,,,,,,,,,,,,,,,,,,,1,1.1547607499996957,,,,,,,,,,,,,,022619_p1_v2,001,2019_Feb_26_1037,body_behavioural,3.0.4,59.85482630848273,
5,Alex was staring intensely off into the distance. ,3,2,,,,0,5,5,5,,,,,0,20,20,20,,,,,,,,,,,,,,,,,,,,,,,,,,,1,1.3713832130006267,,,,,,,,,,,,,,022619_p1_v2,001,2019_Feb_26_1037,body_behavioural,3.0.4,59.85482630848273,
5,Chloe was watching him trying to decide whether he looked scared or confused. ,3,2,,,,0,5,5,5,,,,,0,21,21,21,,,,,,,,,,,,,,,,,,,,,,,,,,,1,1.2713626880004085,,,,,,,,,,,,,,022619_p1_v2,001,2019_Feb_26_1037,body_behavioural,3.0.4,59.85482630848273,
5,Alex looked over at their friends who were waiting by the entrance of the grocery store.,3,2,,,,0,5,5,5,,,,,0,22,22,22,,,,,,,,,,,,,,,,,,,,,,,,,,,1,1.6711817699997482,,,,,,,,,,,,,,022619_p1_v2,001,2019_Feb_26_1037,body_behavioural,3.0.4,59.85482630848273,
5,They got the message and walked over slowly. ,3,2,,,,0,5,5,5,,,,,0,23,23,23,,,,,,,,,,,,,,,,,,,,,,,,,,,1,1.204661017000035,,,,,,,,,,,,,,022619_p1_v2,001,2019_Feb_26_1037,body_behavioural,3.0.4,59.85482630848273,
5,"“Honey,” he said to get her attention, “Look, Chloe, I love you so much and I want to be with you forever, I can’t imagine a day without you.”",3,2,,,,0,5,5,5,,,,,0,24,24,24,,,,,,,,,,,,,,,,,,,,,,,,,,,9,3.071521064999615,,,,,,,,,,,,,,022619_p1_v2,001,2019_Feb_26_1037,body_behavioural,3.0.4,59.85482630848273,
5,"“Awww, Alex, me too.”",3,2,,,,0,5,5,5,,,,,0,25,25,25,,,,,,,,,,,,,,,,,,,,,,,,,,,1,1.3710922850004863,,,,,,,,,,,,,,022619_p1_v2,001,2019_Feb_26_1037,body_behavioural,3.0.4,59.85482630848273,
5,"Alex got down on one knee, and Chloe gasped. ",3,3,,,,0,5,5,5,,,,,0,26,26,26,,,,,,,,,,,,,,,,,,,,,,,,,,,1,1.1340140249994874,,,,,,,,,,,,,,022619_p1_v2,001,2019_Feb_26_1037,body_behavioural,3.0.4,59.85482630848273,
5,"“I am serious, Chloe. Will you marry me?”",3,3,,,,0,5,5,5,,,,,0,27,27,27,,,,,,,,,,,,,,,,,,,,,,,,,,,1,1.1047624200000428,,,,,,,,,,,,,,022619_p1_v2,001,2019_Feb_26_1037,body_behavioural,3.0.4,59.85482630848273,
5,"The people in line around them realized what was happening, stepped back, and started taking pictures.",3,3,,,,0,5,5,5,,,,,0,28,28,28,,,,,,,,,,,,,,,,,,,,,,,,,,,9,2.2548589299995,,,,,,,,,,,,,,022619_p1_v2,001,2019_Feb_26_1037,body_behavioural,3.0.4,59.85482630848273,
5,Their friends were no longer trying to hide and were videotaping and taking pictures too. ,3,3,,,,0,5,5,5,,,,,0,29,29,29,,,,,,,,,,,,,,,,,,,,,,,,,,,1,2.03816230800021,,,,,,,,,,,,,,022619_p1_v2,001,2019_Feb_26_1037,body_behavioural,3.0.4,59.85482630848273,
5,Chloe looked around and laughed. ,3,3,,,,0,5,5,5,,,,,0,30,30,30,,,,,,,,,,,,,,,,,,,,,,,,,,,1,0.8868362390003313,,,,,,,,,,,,,,022619_p1_v2,001,2019_Feb_26_1037,body_behavioural,3.0.4,59.85482630848273,
5,"“Yes!” she shouted, and jumped to embrace Alex in a hug. ",3,4,,,,0,5,5,5,,,,,0,31,31,31,,,,,,,,,,,,,,,,,,,,,,,,,,,1,2.1709222950003095,,,,,,,,,,,,,,022619_p1_v2,001,2019_Feb_26_1037,body_behavioural,3.0.4,59.85482630848273,
5,Everyone in line clapped and cheered. ,3,4,,,,0,5,5,5,,,,,0,32,32,32,,,,,,,,,,,,,,,,,,,,,,,,,,,1,2.754819492999559,,,,,,,,,,,,,,022619_p1_v2,001,2019_Feb_26_1037,body_behavioural,3.0.4,59.85482630848273,
5,"Alex put the ring on Chloe’s finger, who was nearly spinning in excitement.",3,4,,,,0,5,5,5,,,,,0,33,33,33,,,,,,,,,,,,,,,,,,,,,,,,,,,1,1.5881852849997813,,,,,,,,,,,,,,022619_p1_v2,001,2019_Feb_26_1037,body_behavioural,3.0.4,59.85482630848273,
5,"“I love it, oh my gosh, it’s so glittery!",3,4,,,,0,5,5,5,,,,,0,34,34,34,,,,,,,,,,,,,,,,,,,,,,,,,,,1,2.2881871850004245,,,,,,,,,,,,,,022619_p1_v2,001,2019_Feb_26_1037,body_behavioural,3.0.4,59.85482630848273,
5,Look at this!” she said as she shoved her hand in a stranger’s face.,3,4,,,,0,5,5,5,,,,,0,35,35,35,,,,,,,,,,,,,,,,,,,,,,,,,,,1,4.638086445000226,,,,,,,,,,,,,,022619_p1_v2,001,2019_Feb_26_1037,body_behavioural,3.0.4,59.85482630848273,
5,Her friends came over and hugged them.,3,4,,,,0,5,5,5,,,,,0,36,36,36,,,,,,,,,,,,,,,,,,,,,,,,,,,1,1.3534637310003745,,,,,,,,,,,,,,022619_p1_v2,001,2019_Feb_26_1037,body_behavioural,3.0.4,59.85482630848273,
5,The other people let them move up to the front of the checkout line. ,3,4,,,,0,5,5,5,,,,,0,37,37,37,,,,,,,,,,,,,,,,,,,,,,,,,,,9,3.5383061850006925,,,,,,,,,,,,,,022619_p1_v2,001,2019_Feb_26_1037,body_behavioural,3.0.4,59.85482630848273,
5,The cashier congratulated them and scanned their cranberry sauce. ,4,4,,,,0,5,5,5,,,,,0,38,38,38,,,,,,,,,,,,,,,,,,,,,,,,,,,1,1.1696943199995076,,,,,,,,,,,,,,022619_p1_v2,001,2019_Feb_26_1037,body_behavioural,3.0.4,59.85482630848273,
5,The total came to $4 and Chloe paid in cash while getting distracted and staring at the ring as she pulled out the bills.,4,4,,,,0,5,5,5,,,,,0,39,39,39,,,,,,,,,,,,,,,,,,,,,,,,,,,1,1.8545049730000756,,,,,,,,,,,,,,022619_p1_v2,001,2019_Feb_26_1037,body_behavioural,3.0.4,59.85482630848273,
5,"Alex grabbed the cans, and they walked out with their friends bunched around them. ",4,4,,,,0,5,5,5,,,,,0,40,40,40,,,,,,,,,,,,,,,,,,,,,,,,,,,1,1.8715068680003242,,,,,,,,,,,,,,022619_p1_v2,001,2019_Feb_26_1037,body_behavioural,3.0.4,59.85482630848273,
5,,,,,,,0,5,5,5,,,,,,,,,,,,,,,,,,,,,,,,,,,,,,,,,,,,,,,,,,,,,,,,,,022619_p1_v2,001,2019_Feb_26_1037,body_behavioural,3.0.4,59.85482630848273,
6,,,,,,,0,6,6,6,0,0,0,0,,,,,,,,,,,,,,,,,,,,,,,,,space,0.8546918349993575,space,0.6713205500000186,space,0.7049001900004441,,,,,,,,,,,,,,,,022619_p1_v2,001,2019_Feb_26_1037,body_behavioural,3.0.4,59.85482630848273,
6,"Sven and Isabel walked hurriedly from the cab into the Barcelona Airport after an incredible weekend with Isabel’s family, which had wiped away any doubts Sven had had about his decision to propose. ",1,1,,,,0,6,6,6,,,,,0,0,0,0,,,,,,,,,,,,,,,,,,,,,,,,,,,9,19.01853915799984,,,,,,,,,,,,,,022619_p1_v2,001,2019_Feb_26_1037,body_behavioural,3.0.4,59.85482630848273,
6,"They were a little pressed for time, with only a little over an hour until their flight would take off to go back to the US, but they already had their online boarding passes and no checked luggage. ",1,1,,,,0,6,6,6,,,,,0,1,1,1,,,,,,,,,,,,,,,,,,,,,,,,,,,1,9.688241742999708,,,,,,,,,,,,,,022619_p1_v2,001,2019_Feb_26_1037,body_behavioural,3.0.4,59.85482630848273,
6,"When Isabel stopped to rummage through her purse looking for her phone, Sven turned his back to her and took the velvet box out of his backpack, opening it to look at the ring he bought her.",1,2,,,,0,6,6,6,,,,,0,2,2,2,,,,,,,,,,,,,,,,,,,,,,,,,,,1,3.0712177400000655,,,,,,,,,,,,,,022619_p1_v2,001,2019_Feb_26_1037,body_behavioural,3.0.4,59.85482630848273,
6,"He had received her parents’ blessing during the trip, and he was almost giddy with excitement. ",1,2,,,,0,6,6,6,,,,,0,3,3,3,,,,,,,,,,,,,,,,,,,,,,,,,,,1,1.8049591379995036,,,,,,,,,,,,,,022619_p1_v2,001,2019_Feb_26_1037,body_behavioural,3.0.4,59.85482630848273,
6,"He tilted the ring backward and forward, despite having already studied it daily since he had purchased it a few weeks ago. ",1,2,,,,0,6,6,6,,,,,0,4,4,4,,,,,,,,,,,,,,,,,,,,,,,,,,,1,1.5215667830007078,,,,,,,,,,,,,,022619_p1_v2,001,2019_Feb_26_1037,body_behavioural,3.0.4,59.85482630848273,
6,"It was a simple design, with a clear, white diamond on a thin silver band.",1,2,,,,0,6,6,6,,,,,0,5,5,5,,,,,,,,,,,,,,,,,,,,,,,,,,,1,2.271452149999277,,,,,,,,,,,,,,022619_p1_v2,001,2019_Feb_26_1037,body_behavioural,3.0.4,59.85482630848273,
6,"“Sven, let’s go! ” Isabel said. ",1,2,,,,0,6,6,6,,,,,0,6,6,6,,,,,,,,,,,,,,,,,,,,,,,,,,,1,0.9881542330003867,,,,,,,,,,,,,,022619_p1_v2,001,2019_Feb_26_1037,body_behavioural,3.0.4,59.85482630848273,
6,Sven discretely closed the box and put it in his pocket.,1,2,,,,0,6,6,6,,,,,0,7,7,7,,,,,,,,,,,,,,,,,,,,,,,,,,,1,0.9379893899995295,,,,,,,,,,,,,,022619_p1_v2,001,2019_Feb_26_1037,body_behavioural,3.0.4,59.85482630848273,
6," They entered the security line, weaving through the roped walkways to the front. ",2,2,,,,0,6,6,6,,,,,0,8,8,8,,,,,,,,,,,,,,,,,,,,,,,,,,,9,2.52113148799981,,,,,,,,,,,,,,022619_p1_v2,001,2019_Feb_26_1037,body_behavioural,3.0.4,59.85482630848273,
6,"When they were up, Isabel realized her laptop was buried somewhere in her duffle bag. ",2,2,,,,0,6,6,6,,,,,0,9,9,9,,,,,,,,,,,,,,,,,,,,,,,,,,,1,1.6548841780004295,,,,,,,,,,,,,,022619_p1_v2,001,2019_Feb_26_1037,body_behavioural,3.0.4,59.85482630848273,
6,Sven had to hold the growing mound of objects she pulled from her bag until she unearthed the laptop.,2,2,,,,0,6,6,6,,,,,0,10,10,10,,,,,,,,,,,,,,,,,,,,,,,,,,,1,2.221507190000011,,,,,,,,,,,,,,022619_p1_v2,001,2019_Feb_26_1037,body_behavioural,3.0.4,59.85482630848273,
6,She set it into a bin and then had to unstrap her leather boots and put everything else into the bins.,2,2,,,,0,6,6,6,,,,,0,11,11,11,,,,,,,,,,,,,,,,,,,,,,,,,,,1,1.7549200400007976,,,,,,,,,,,,,,022619_p1_v2,001,2019_Feb_26_1037,body_behavioural,3.0.4,59.85482630848273,
6,"Finally, she relieved Sven of his holding duties, and he hurriedly deposited his own backpack on the belt as the people behind them glared without shame. ",2,2,,,,0,6,6,6,,,,,0,12,12,12,,,,,,,,,,,,,,,,,,,,,,,,,,,9,4.1546598650002124,,,,,,,,,,,,,,022619_p1_v2,001,2019_Feb_26_1037,body_behavioural,3.0.4,59.85482630848273,
6,"Sven went into the millimeter wave scanner after Isabel, put his hands up, and the metal bars whirled around him.",2,2,,,,0,6,6,6,,,,,0,13,13,13,,,,,,,,,,,,,,,,,,,,,,,,,,,1,2.788212190000195,,,,,,,,,,,,,,022619_p1_v2,001,2019_Feb_26_1037,body_behavioural,3.0.4,59.85482630848273,
6,"“Sir, please step to the side.",2,2,,,,0,6,6,6,,,,,0,14,14,14,,,,,,,,,,,,,,,,,,,,,,,,,,,1,0.7840193769998223,,,,,,,,,,,,,,022619_p1_v2,001,2019_Feb_26_1037,body_behavioural,3.0.4,59.85482630848273,
6,"You need to empty your pockets,” the security guard said.",2,2,,,,0,6,6,6,,,,,0,15,15,15,,,,,,,,,,,,,,,,,,,,,,,,,,,1,0.9008311549996506,,,,,,,,,,,,,,022619_p1_v2,001,2019_Feb_26_1037,body_behavioural,3.0.4,59.85482630848273,
6,"With a sinking feeling Sven realized the mistake he had made forgetting to put the ring back in his bag, as Isabel and the guard both looked at him expectantly.",2,2,,,,0,6,6,6,,,,,0,16,16,16,,,,,,,,,,,,,,,,,,,,,,,,,,,1,5.105061629999909,,,,,,,,,,,,,,022619_p1_v2,001,2019_Feb_26_1037,body_behavioural,3.0.4,59.85482630848273,
6,"Sven,  deciding he would make the best of the situation, grabbed Isabel's hand as he reached into his pocket.",2,2,,,,0,6,6,6,,,,,0,17,17,17,,,,,,,,,,,,,,,,,,,,,,,,,,,1,2.3046051599994826,,,,,,,,,,,,,,022619_p1_v2,001,2019_Feb_26_1037,body_behavioural,3.0.4,59.85482630848273,
6,"He got down on one knee and, giggling slightly at her confused look, said, “Isabel, this isn't quite how I'd planned this, but - will you marry me?”",2,3,,,,0,6,6,6,,,,,0,18,18,18,,,,,,,,,,,,,,,,,,,,,,,,,,,1,2.7674798980006017,,,,,,,,,,,,,,022619_p1_v2,001,2019_Feb_26_1037,body_behavioural,3.0.4,59.85482630848273,
6,The security guard gasped.,2,3,,,,0,6,6,6,,,,,0,19,19,19,,,,,,,,,,,,,,,,,,,,,,,,,,,1,1.3715982149997217,,,,,,,,,,,,,,022619_p1_v2,001,2019_Feb_26_1037,body_behavioural,3.0.4,59.85482630848273,
6,All the people who were putting their shoes back on and gathering their belongings stopped what they were doing and walked closer to the couple.,2,3,,,,0,6,6,6,,,,,0,20,20,20,,,,,,,,,,,,,,,,,,,,,,,,,,,1,1.9562995699998282,,,,,,,,,,,,,,022619_p1_v2,001,2019_Feb_26_1037,body_behavioural,3.0.4,59.85482630848273,
6,"Isabel was astonished, and far too shy to respond in front of the backup of passengers waiting behind them.",2,3,,,,0,6,6,6,,,,,0,21,21,21,,,,,,,,,,,,,,,,,,,,,,,,,,,1,3.955075294999915,,,,,,,,,,,,,,022619_p1_v2,001,2019_Feb_26_1037,body_behavioural,3.0.4,59.85482630848273,
6,"She attempted to stammer a response as she frantically grabbed her and Sven’s shoes, leaving Sven to retrieve their bags.",2,3,,,,0,6,6,6,,,,,0,22,22,22,,,,,,,,,,,,,,,,,,,,,,,,,,,1,4.300930579999658,,,,,,,,,,,,,,022619_p1_v2,001,2019_Feb_26_1037,body_behavioural,3.0.4,59.85482630848273,
6,"Both of them slipping in their socked feet, she fled onto the concourse with Sven trying to catch up behind her.",3,3,,,,0,6,6,6,,,,,0,23,23,23,,,,,,,,,,,,,,,,,,,,,,,,,,,1,6.75516483499996,,,,,,,,,,,,,,022619_p1_v2,001,2019_Feb_26_1037,body_behavioural,3.0.4,59.85482630848273,
6,"Everyone in the terminal was looking at them with confusion as Sven, holding the bags in one hand and the open ring box in the other, finally caught up to her.",3,3,,,,0,6,6,6,,,,,0,24,24,24,,,,,,,,,,,,,,,,,,,,,,,,,,,9,1.754733478000162,,,,,,,,,,,,,,022619_p1_v2,001,2019_Feb_26_1037,body_behavioural,3.0.4,59.85482630848273,
6,“Isabel?”,3,3,,,,0,6,6,6,,,,,0,25,25,25,,,,,,,,,,,,,,,,,,,,,,,,,,,1,0.8714208700002928,,,,,,,,,,,,,,022619_p1_v2,001,2019_Feb_26_1037,body_behavioural,3.0.4,59.85482630848273,
6,"He watched her face as she turned, trying to read her expression.",3,3,,,,0,6,6,6,,,,,0,26,26,26,,,,,,,,,,,,,,,,,,,,,,,,,,,1,1.9049044929997763,,,,,,,,,,,,,,022619_p1_v2,001,2019_Feb_26_1037,body_behavioural,3.0.4,59.85482630848273,
6,"Her eyes were wide, but she was smiling as she hyperventilated, “Of course yes, Sven, yes!” ",3,4,,,,0,6,6,6,,,,,0,27,27,27,,,,,,,,,,,,,,,,,,,,,,,,,,,1,1.6877970099994855,,,,,,,,,,,,,,022619_p1_v2,001,2019_Feb_26_1037,body_behavioural,3.0.4,59.85482630848273,
6,"They dropped their belongings and hugged, and Sven slipped the ring onto Isabel’s finger. ",3,4,,,,0,6,6,6,,,,,0,28,28,28,,,,,,,,,,,,,,,,,,,,,,,,,,,1,1.2882286750000276,,,,,,,,,,,,,,022619_p1_v2,001,2019_Feb_26_1037,body_behavioural,3.0.4,59.85482630848273,
6,"After getting their shoes back on, they practically skipped to the gate, filled with joy.",3,4,,,,0,6,6,6,,,,,0,29,29,29,,,,,,,,,,,,,,,,,,,,,,,,,,,1,1.4880544399993596,,,,,,,,,,,,,,022619_p1_v2,001,2019_Feb_26_1037,body_behavioural,3.0.4,59.85482630848273,
6,Sven high-fived a confused shoe-shine attendant as they passed.,3,4,,,,0,6,6,6,,,,,0,30,30,30,,,,,,,,,,,,,,,,,,,,,,,,,,,1,4.021579455000392,,,,,,,,,,,,,,022619_p1_v2,001,2019_Feb_26_1037,body_behavioural,3.0.4,59.85482630848273,
6,"They sat down outside their gate, having actually made good time, until the attendant called for passengers.",3,4,,,,0,6,6,6,,,,,0,31,31,31,,,,,,,,,,,,,,,,,,,,,,,,,,,9,2.504865812999924,,,,,,,,,,,,,,022619_p1_v2,001,2019_Feb_26_1037,body_behavioural,3.0.4,59.85482630848273,
6,"They boarded, sitting together in first class, and had a glass of champagne to celebrate the departure into their new life together.",4,4,,,,0,6,6,6,,,,,0,32,32,32,,,,,,,,,,,,,,,,,,,,,,,,,,,1,3.52167134299998,,,,,,,,,,,,,,022619_p1_v2,001,2019_Feb_26_1037,body_behavioural,3.0.4,59.85482630848273,
6,"Some of their neighboring passengers who had witnessed the proposal congratulated them, and a woman next to them showed them that she had been live-tweeting the whole event and that it was already going viral online.",4,4,,,,0,6,6,6,,,,,0,33,33,33,,,,,,,,,,,,,,,,,,,,,,,,,,,1,4.354889117999846,,,,,,,,,,,,,,022619_p1_v2,001,2019_Feb_26_1037,body_behavioural,3.0.4,59.85482630848273,
6,"Isabel slid down in her seat with her hands over her face, both embarrassed and overjoyed at the same time.
",4,4,,,,0,6,6,6,,,,,0,34,34,34,,,,,,,,,,,,,,,,,,,,,,,,,,,1,1.8214074830002573,,,,,,,,,,,,,,022619_p1_v2,001,2019_Feb_26_1037,body_behavioural,3.0.4,59.85482630848273,
6,,,,,,,0,6,6,6,,,,,,,,,,,,,,,,,,,,,,,,,,,,,,,,,,,,,,,,,,,,,,,,,,022619_p1_v2,001,2019_Feb_26_1037,body_behavioural,3.0.4,59.85482630848273,
7,,,,,,,0,7,7,7,0,0,0,0,,,,,,,,,,,,,,,,,,,,,,,,,space,1.4214274249998198,space,0.7213624169999093,space,1.1878725030001078,,,,,,,,,,,,,,,,022619_p1_v2,001,2019_Feb_26_1037,body_behavioural,3.0.4,59.85482630848273,
7,Mr. Shelton and Mr. Gordon shook hands inside the foyer of the restaurant: lunch today was about big business. ,1,1,,,,0,7,7,7,,,,,0,0,0,0,,,,,,,,,,,,,,,,,,,,,,,,,,,9,16.55422535300022,,,,,,,,,,,,,,022619_p1_v2,001,2019_Feb_26_1037,body_behavioural,3.0.4,59.85482630848273,
7,Mr. Shelton and Mr. Gordon both were CEOs of airplane manufacturing companies.,1,1,,,,0,7,7,7,,,,,0,1,1,1,,,,,,,,,,,,,,,,,,,,,,,,,,,1,3.186497464999775,,,,,,,,,,,,,,022619_p1_v2,001,2019_Feb_26_1037,body_behavioural,3.0.4,59.85482630848273,
7,"Mr. Shelton was in charge of a larger, well-established company and had been in the aviation business for decades, whereas Mr. Gordon led a smaller but technologically-advanced company that was projected to disrupt the airplane manufacturing market. ",1,1,,,,0,7,7,7,,,,,0,2,2,2,,,,,,,,,,,,,,,,,,,,,,,,,,,1,3.5698394000000917,,,,,,,,,,,,,,022619_p1_v2,001,2019_Feb_26_1037,body_behavioural,3.0.4,59.85482630848273,
7,"The restaurant they chose to meet at was old and fancy with high ceilings, dark wood paneling, and crystal chandeliers.",1,1,,,,0,7,7,7,,,,,0,3,3,3,,,,,,,,,,,,,,,,,,,,,,,,,,,1,6.553436643000168,,,,,,,,,,,,,,022619_p1_v2,001,2019_Feb_26_1037,body_behavioural,3.0.4,59.85482630848273,
7,"The waitress led them to their table in the back, and they settled into a private table in the corner by the fireplace. ",2,1,,,,0,7,7,7,,,,,0,4,4,4,,,,,,,,,,,,,,,,,,,,,,,,,,,1,1.5030920499993954,,,,,,,,,,,,,,022619_p1_v2,001,2019_Feb_26_1037,body_behavioural,3.0.4,59.85482630848273,
7,The waitress brought out the menus and they broke the ice with some small talk.,2,1,,,,0,7,7,7,,,,,0,5,5,5,,,,,,,,,,,,,,,,,,,,,,,,,,,1,2.836063705000015,,,,,,,,,,,,,,022619_p1_v2,001,2019_Feb_26_1037,body_behavioural,3.0.4,59.85482630848273,
7,"Mr. Gordon took out a picture of his daughter and talked about her recent engagement, and Mr. Gordon boasted about his purchase of a Tesla. ",2,1,,,,0,7,7,7,,,,,0,6,6,6,,,,,,,,,,,,,,,,,,,,,,,,,,,9,6.386866705000102,,,,,,,,,,,,,,022619_p1_v2,001,2019_Feb_26_1037,body_behavioural,3.0.4,59.85482630848273,
7,"They looked at the menus as well, which were full of Italian classics like Carbonara and Tiramisu, and in the back section of the menu was a lengthy drink selection.",2,1,,,,0,7,7,7,,,,,0,7,7,7,,,,,,,,,,,,,,,,,,,,,,,,,,,1,5.069791285000065,,,,,,,,,,,,,,022619_p1_v2,001,2019_Feb_26_1037,body_behavioural,3.0.4,59.85482630848273,
7,"After awhile, Mr. Shelton brought the conversation around to business.",2,2,,,,0,7,7,7,,,,,0,8,8,8,,,,,,,,,,,,,,,,,,,,,,,,,,,1,2.386125070000162,,,,,,,,,,,,,,022619_p1_v2,001,2019_Feb_26_1037,body_behavioural,3.0.4,59.85482630848273,
7,"“Mr. Gordon, we really admire what you’re doing at your company.",2,2,,,,0,7,7,7,,,,,0,9,9,9,,,,,,,,,,,,,,,,,,,,,,,,,,,9,1.0692578550006147,,,,,,,,,,,,,,022619_p1_v2,001,2019_Feb_26_1037,body_behavioural,3.0.4,59.85482630848273,
7,We think it’s genius; we want to support your vision and make this tiny company of yours internationally known.,2,2,,,,0,7,7,7,,,,,0,10,10,10,,,,,,,,,,,,,,,,,,,,,,,,,,,1,1.936718844999632,,,,,,,,,,,,,,022619_p1_v2,001,2019_Feb_26_1037,body_behavioural,3.0.4,59.85482630848273,
7,"But honestly, your company doesn’t have the resources to reach international markets right now, maybe in a few years you could, but by that time, other companies may have already filled your niche.",2,2,,,,0,7,7,7,,,,,0,11,11,11,,,,,,,,,,,,,,,,,,,,,,,,,,,1,3.403227103000063,,,,,,,,,,,,,,022619_p1_v2,001,2019_Feb_26_1037,body_behavioural,3.0.4,59.85482630848273,
7,I think we should join forces.”,2,2,,,,0,7,7,7,,,,,0,12,12,12,,,,,,,,,,,,,,,,,,,,,,,,,,,1,1.8009292430006099,,,,,,,,,,,,,,022619_p1_v2,001,2019_Feb_26_1037,body_behavioural,3.0.4,59.85482630848273,
7,The waitress came up to them and asked if they were ready to order.,3,2,,,,0,7,7,7,,,,,0,13,13,13,,,,,,,,,,,,,,,,,,,,,,,,,,,9,1.552831519999927,,,,,,,,,,,,,,022619_p1_v2,001,2019_Feb_26_1037,body_behavioural,3.0.4,59.85482630848273,
7,"Mr. Gordon ordered a medium-rare steak and martini, and Mr. Shelton ordered veal and a manhattan. ",3,2,,,,0,7,7,7,,,,,0,14,14,14,,,,,,,,,,,,,,,,,,,,,,,,,,,1,4.786567069999364,,,,,,,,,,,,,,022619_p1_v2,001,2019_Feb_26_1037,body_behavioural,3.0.4,59.85482630848273,
7,"Then Mr. Shelton continued, “Look, I’ve talked to other members of the board, and we are prepared to offer $600 million to buy your company. ",3,2,,,,0,7,7,7,,,,,0,15,15,15,,,,,,,,,,,,,,,,,,,,,,,,,,,9,8.219777267999234,,,,,,,,,,,,,,022619_p1_v2,001,2019_Feb_26_1037,body_behavioural,3.0.4,59.85482630848273,
7,"We'd keep on all of your current employees, and you would join as the director of your company branch.” ",3,2,,,,0,7,7,7,,,,,0,16,16,16,,,,,,,,,,,,,,,,,,,,,,,,,,,1,0.9532773300006738,,,,,,,,,,,,,,022619_p1_v2,001,2019_Feb_26_1037,body_behavioural,3.0.4,59.85482630848273,
7,Mr. Gordon sat looking at Mr. Shelton for a few moments considering his response. ,3,2,,,,0,7,7,7,,,,,0,17,17,17,,,,,,,,,,,,,,,,,,,,,,,,,,,1,1.1196245479995923,,,,,,,,,,,,,,022619_p1_v2,001,2019_Feb_26_1037,body_behavioural,3.0.4,59.85482630848273,
7,He looked at Mr. Shelton skeptically.,3,2,,,,0,7,7,7,,,,,0,18,18,18,,,,,,,,,,,,,,,,,,,,,,,,,,,1,3.0033322899998893,,,,,,,,,,,,,,022619_p1_v2,001,2019_Feb_26_1037,body_behavioural,3.0.4,59.85482630848273,
7,"He said, “Mr. Shelton, I think that you make a compelling offer, but there are definitely some disadvantages to attaching our small, streamlined productions to a large company like yours.",3,3,,,,0,7,7,7,,,,,0,19,19,19,,,,,,,,,,,,,,,,,,,,,,,,,,,1,3.9010440900001413,,,,,,,,,,,,,,022619_p1_v2,001,2019_Feb_26_1037,body_behavioural,3.0.4,59.85482630848273,
7,"We operate in a very different way than a large company, and the kind of administrative complexity that makes the scale of your productions possible would suffocate our business.",3,3,,,,0,7,7,7,,,,,0,20,20,20,,,,,,,,,,,,,,,,,,,,,,,,,,,1,6.236948958000539,,,,,,,,,,,,,,022619_p1_v2,001,2019_Feb_26_1037,body_behavioural,3.0.4,59.85482630848273,
7,"With our product, scaling-up doesn’t necessarily make sense.” ",3,3,,,,0,7,7,7,,,,,0,21,21,21,,,,,,,,,,,,,,,,,,,,,,,,,,,1,1.536375680000674,,,,,,,,,,,,,,022619_p1_v2,001,2019_Feb_26_1037,body_behavioural,3.0.4,59.85482630848273,
7,Mr. Shelton had expected this response and had come prepared.,3,3,,,,0,7,7,7,,,,,0,22,22,22,,,,,,,,,,,,,,,,,,,,,,,,,,,1,2.0363704450001023,,,,,,,,,,,,,,022619_p1_v2,001,2019_Feb_26_1037,body_behavioural,3.0.4,59.85482630848273,
7,He began laying out the details of how he had handled similar acquisitions successfully in the past.,3,3,,,,0,7,7,7,,,,,0,23,23,23,,,,,,,,,,,,,,,,,,,,,,,,,,,1,1.4363851230000364,,,,,,,,,,,,,,022619_p1_v2,001,2019_Feb_26_1037,body_behavioural,3.0.4,59.85482630848273,
7,"Mr. Gordon was impressed, and they went back and forth hashing out what the company configuration would look like post-merger. ",3,3,,,,0,7,7,7,,,,,0,24,24,24,,,,,,,,,,,,,,,,,,,,,,,,,,,1,1.7865057349999915,,,,,,,,,,,,,,022619_p1_v2,001,2019_Feb_26_1037,body_behavioural,3.0.4,59.85482630848273,
7,"The waitress brought the food out, interrupting their animated conversation.",4,3,,,,0,7,7,7,,,,,0,25,25,25,,,,,,,,,,,,,,,,,,,,,,,,,,,1,4.31754833299965,,,,,,,,,,,,,,022619_p1_v2,001,2019_Feb_26_1037,body_behavioural,3.0.4,59.85482630848273,
7,“Oh this looks so good!” Mr. Gordon said. ,4,3,,,,0,7,7,7,,,,,0,26,26,26,,,,,,,,,,,,,,,,,,,,,,,,,,,9,5.036654510000517,,,,,,,,,,,,,,022619_p1_v2,001,2019_Feb_26_1037,body_behavioural,3.0.4,59.85482630848273,
7, “Can I get you anything else?” the waitress asked.,4,3,,,,0,7,7,7,,,,,0,27,27,27,,,,,,,,,,,,,,,,,,,,,,,,,,,1,1.2696774650003135,,,,,,,,,,,,,,022619_p1_v2,001,2019_Feb_26_1037,body_behavioural,3.0.4,59.85482630848273,
7,They declined and continued to talk.,4,3,,,,0,7,7,7,,,,,0,28,28,28,,,,,,,,,,,,,,,,,,,,,,,,,,,1,1.836446584999976,,,,,,,,,,,,,,022619_p1_v2,001,2019_Feb_26_1037,body_behavioural,3.0.4,59.85482630848273,
7,"The meal lived up to the reputation of the restaurant, which was known for having the best cuts of meat in the area.",4,3,,,,0,7,7,7,,,,,0,29,29,29,,,,,,,,,,,,,,,,,,,,,,,,,,,9,2.6697619980004674,,,,,,,,,,,,,,022619_p1_v2,001,2019_Feb_26_1037,body_behavioural,3.0.4,59.85482630848273,
7,"Mr. Gordon, after taking a contemplative bite of his food, said, “Mr. Shelton, I think we have a deal. ",4,4,,,,0,7,7,7,,,,,0,30,30,30,,,,,,,,,,,,,,,,,,,,,,,,,,,1,1.5864296299996568,,,,,,,,,,,,,,022619_p1_v2,001,2019_Feb_26_1037,body_behavioural,3.0.4,59.85482630848273,
7,"If you can guarantee that I can still have the final say in the all the work done by my team, I think this could be beneficial for both of us.",4,4,,,,0,7,7,7,,,,,0,31,31,31,,,,,,,,,,,,,,,,,,,,,,,,,,,1,2.953129670000635,,,,,,,,,,,,,,022619_p1_v2,001,2019_Feb_26_1037,body_behavioural,3.0.4,59.85482630848273,
7,I propose a toast to the merging of our companies.”,4,4,,,,0,7,7,7,,,,,0,32,32,32,,,,,,,,,,,,,,,,,,,,,,,,,,,1,1.1197244550003234,,,,,,,,,,,,,,022619_p1_v2,001,2019_Feb_26_1037,body_behavioural,3.0.4,59.85482630848273,
7,Mr. Shelton grinned and lifted his martini to clink glasses.,4,4,,,,0,7,7,7,,,,,0,33,33,33,,,,,,,,,,,,,,,,,,,,,,,,,,,1,1.8863542349999989,,,,,,,,,,,,,,022619_p1_v2,001,2019_Feb_26_1037,body_behavioural,3.0.4,59.85482630848273,
7,"He said, “Cheers to a lifelong partnership and to the growth of your company.” ",4,4,,,,0,7,7,7,,,,,0,34,34,34,,,,,,,,,,,,,,,,,,,,,,,,,,,9,1.6363088730004165,,,,,,,,,,,,,,022619_p1_v2,001,2019_Feb_26_1037,body_behavioural,3.0.4,59.85482630848273,
7,,,,,,,0,7,7,7,,,,,,,,,,,,,,,,,,,,,,,,,,,,,,,,,,,,,,,,,,,,,,,,,,022619_p1_v2,001,2019_Feb_26_1037,body_behavioural,3.0.4,59.85482630848273,
8,,,,,,,0,8,8,8,0,0,0,0,,,,,,,,,,,,,,,,,,,,,,,,,space,2.619713899999624,space,0.8530310300002384,space,1.1029205830000137,,,,,,,,,,,,,,,,022619_p1_v2,001,2019_Feb_26_1037,body_behavioural,3.0.4,59.85482630848273,
8,"Ms. Bianchi and Ms. Morrison walked into the grocery store at the same time, and, after a moment of mutual recognition, greeted each other and shook hands.",1,1,,,,0,8,8,8,,,,,0,0,0,0,,,,,,,,,,,,,,,,,,,,,,,,,,,9,10.05371585499961,,,,,,,,,,,,,,022619_p1_v2,001,2019_Feb_26_1037,body_behavioural,3.0.4,59.85482630848273,
8,"“Thank you again for inviting me here to discuss my business proposal,” said Ms. Bianchi, “And it’s a pleasure to be out of the office.” ",1,1,,,,0,8,8,8,,,,,0,1,1,1,,,,,,,,,,,,,,,,,,,,,,,,,,,1,9.037038880000182,,,,,,,,,,,,,,022619_p1_v2,001,2019_Feb_26_1037,body_behavioural,3.0.4,59.85482630848273,
8,"As a salesperson for an Italian cheese company that was trying to expand its outreach to more mainstream grocery stores, this meeting could be a big break for her.",1,1,,,,0,8,8,8,,,,,0,2,2,2,,,,,,,,,,,,,,,,,,,,,,,,,,,1,2.6866111449999153,,,,,,,,,,,,,,022619_p1_v2,001,2019_Feb_26_1037,body_behavioural,3.0.4,59.85482630848273,
8,"Her sales target, Ms. Morrison,  who had a reputation for being a bit quirky, was a corporate buyer for a large chain grocery store. ",1,1,,,,0,8,8,8,,,,,0,3,3,3,,,,,,,,,,,,,,,,,,,,,,,,,,,1,2.1512930179997056,,,,,,,,,,,,,,022619_p1_v2,001,2019_Feb_26_1037,body_behavioural,3.0.4,59.85482630848273,
8,"She was known for doing things unconventionally: for example, she said that she liked to make deals with suppliers in the place where the products were sold- “to keep their minds focused on what’s important.” ",1,1,,,,0,8,8,8,,,,,0,4,4,4,,,,,,,,,,,,,,,,,,,,,,,,,,,1,3.469532070000241,,,,,,,,,,,,,,022619_p1_v2,001,2019_Feb_26_1037,body_behavioural,3.0.4,59.85482630848273,
8,"They chatted a little in the front of the grocery store, which was surrounded by pumpkins and halloween decorations set up in special displays for the holiday season.",1,1,,,,0,8,8,8,,,,,0,5,5,5,,,,,,,,,,,,,,,,,,,,,,,,,,,1,1.936419914999533,,,,,,,,,,,,,,022619_p1_v2,001,2019_Feb_26_1037,body_behavioural,3.0.4,59.85482630848273,
8,"Ms. Bianchi and Ms. Morrison walked to the cheese section, and Ms. Morrison picked up a block of parmesan.",2,1,,,,0,8,8,8,,,,,0,6,6,6,,,,,,,,,,,,,,,,,,,,,,,,,,,9,1.5030070829998294,,,,,,,,,,,,,,022619_p1_v2,001,2019_Feb_26_1037,body_behavioural,3.0.4,59.85482630848273,
8,“We have quite a selection here.,2,1,,,,0,8,8,8,,,,,0,7,7,7,,,,,,,,,,,,,,,,,,,,,,,,,,,1,1.1030028330005734,,,,,,,,,,,,,,022619_p1_v2,001,2019_Feb_26_1037,body_behavioural,3.0.4,59.85482630848273,
8,I don’t know that it needs an additional section for more gourmet cheeses.” ,2,1,,,,0,8,8,8,,,,,0,8,8,8,,,,,,,,,,,,,,,,,,,,,,,,,,,1,1.7364955180000834,,,,,,,,,,,,,,022619_p1_v2,001,2019_Feb_26_1037,body_behavioural,3.0.4,59.85482630848273,
8,"Ms. Bianchi's confidence faltered for a minute at this remark, but then she launched into her prepared pitch.",2,1,,,,0,8,8,8,,,,,0,9,9,9,,,,,,,,,,,,,,,,,,,,,,,,,,,1,2.5861824400008118,,,,,,,,,,,,,,022619_p1_v2,001,2019_Feb_26_1037,body_behavioural,3.0.4,59.85482630848273,
8," “Ms. Morrison, I think you would agree that selling food is more than just providing variety, but also about providing the highest quality.",2,2,,,,0,8,8,8,,,,,0,10,10,10,,,,,,,,,,,,,,,,,,,,,,,,,,,1,1.8860260100000232,,,,,,,,,,,,,,022619_p1_v2,001,2019_Feb_26_1037,body_behavioural,3.0.4,59.85482630848273,
8,"You don’t have cheeses made in America that are like ours, it is true.",2,2,,,,0,8,8,8,,,,,0,11,11,11,,,,,,,,,,,,,,,,,,,,,,,,,,,1,0.952953255000466,,,,,,,,,,,,,,022619_p1_v2,001,2019_Feb_26_1037,body_behavioural,3.0.4,59.85482630848273,
8,Your store could be providing American consumers with a dimension in taste that they've never known before with our product.,2,2,,,,0,8,8,8,,,,,0,12,12,12,,,,,,,,,,,,,,,,,,,,,,,,,,,1,0.9174375130005501,,,,,,,,,,,,,,022619_p1_v2,001,2019_Feb_26_1037,body_behavioural,3.0.4,59.85482630848273,
8,"I propose that you give it a shot, buy $1000 worth of cheese products for a few stores, and see how the sales increase not only in our cheeses but also in products related to cheeses: crackers, jams, olives. ",2,2,,,,0,8,8,8,,,,,0,13,13,13,,,,,,,,,,,,,,,,,,,,,,,,,,,1,1.3174205449995497,,,,,,,,,,,,,,022619_p1_v2,001,2019_Feb_26_1037,body_behavioural,3.0.4,59.85482630848273,
8,"The availability of a finer product leads to the appreciation of the product, and your consumers will start to consume in a new, more profitable way.”",2,2,,,,0,8,8,8,,,,,0,14,14,14,,,,,,,,,,,,,,,,,,,,,,,,,,,1,1.5032720729996072,,,,,,,,,,,,,,022619_p1_v2,001,2019_Feb_26_1037,body_behavioural,3.0.4,59.85482630848273,
8,"Ms. Bianchi picked up a box of crackers by the cheese section, and said, “Here, I will buy these, and we can try some of our cheeses that I've brought with me.”",2,2,,,,0,8,8,8,,,,,0,15,15,15,,,,,,,,,,,,,,,,,,,,,,,,,,,1,1.5030169649999152,,,,,,,,,,,,,,022619_p1_v2,001,2019_Feb_26_1037,body_behavioural,3.0.4,59.85482630848273,
8,"Ms. Morrison, who was thinking, nodded in agreement and said, “That sounds like a great idea.",2,2,,,,0,8,8,8,,,,,0,16,16,16,,,,,,,,,,,,,,,,,,,,,,,,,,,1,1.0697778949997883,,,,,,,,,,,,,,022619_p1_v2,001,2019_Feb_26_1037,body_behavioural,3.0.4,59.85482630848273,
8,"Let’s head to check out, and those crackers are on me.” ",2,2,,,,0,8,8,8,,,,,0,17,17,17,,,,,,,,,,,,,,,,,,,,,,,,,,,1,1.7197303350003494,,,,,,,,,,,,,,022619_p1_v2,001,2019_Feb_26_1037,body_behavioural,3.0.4,59.85482630848273,
8,They walked over to the checkout area.,3,2,,,,0,8,8,8,,,,,0,18,18,18,,,,,,,,,,,,,,,,,,,,,,,,,,,9,0.7532655180002621,,,,,,,,,,,,,,022619_p1_v2,001,2019_Feb_26_1037,body_behavioural,3.0.4,59.85482630848273,
8,"There was a very long line, and it was very busy in the checkout area as people were stocking up for Halloween parties and trick-or-treating. ",3,2,,,,0,8,8,8,,,,,0,19,19,19,,,,,,,,,,,,,,,,,,,,,,,,,,,1,1.3363784350003698,,,,,,,,,,,,,,022619_p1_v2,001,2019_Feb_26_1037,body_behavioural,3.0.4,59.85482630848273,
8,"Since they had almost a 10 minute wait in line, Ms. Bianchi handed a sheet with printed graphs to Ms. Morrison the increase in profits that several other stores had seen after starting to carry their products.",3,2,,,,0,8,8,8,,,,,0,20,20,20,,,,,,,,,,,,,,,,,,,,,,,,,,,1,4.5676744829997915,,,,,,,,,,,,,,022619_p1_v2,001,2019_Feb_26_1037,body_behavioural,3.0.4,59.85482630848273,
8,"Eventually, Ms. Morrison replied, “You know what, I think you've convinced me that this could work. ",3,3,,,,0,8,8,8,,,,,0,21,21,21,,,,,,,,,,,,,,,,,,,,,,,,,,,1,1.5363847700000406,,,,,,,,,,,,,,022619_p1_v2,001,2019_Feb_26_1037,body_behavioural,3.0.4,59.85482630848273,
8,We've been trying to find a way to add a little European cachet to our stores.,3,3,,,,0,8,8,8,,,,,0,22,22,22,,,,,,,,,,,,,,,,,,,,,,,,,,,1,1.2030534929999703,,,,,,,,,,,,,,022619_p1_v2,001,2019_Feb_26_1037,body_behavioural,3.0.4,59.85482630848273,
8,There's still a problem though - I'm worried we'll be paying out the nose for the import taxes.,3,3,,,,0,8,8,8,,,,,0,23,23,23,,,,,,,,,,,,,,,,,,,,,,,,,,,1,2.384720037000079,,,,,,,,,,,,,,022619_p1_v2,001,2019_Feb_26_1037,body_behavioural,3.0.4,59.85482630848273,
8,Is that the case?",3,3,,,,0,8,8,8,,,,,0,24,24,24,,,,,,,,,,,,,,,,,,,,,,,,,,,1,0.8192866030003643,,,,,,,,,,,,,,022619_p1_v2,001,2019_Feb_26_1037,body_behavioural,3.0.4,59.85482630848273,
8,"It was Ms. Morrison’s turn to checkout, and the two businesswomen continued to talk back and forth as she did so. ",4,3,,,,0,8,8,8,,,,,0,25,25,25,,,,,,,,,,,,,,,,,,,,,,,,,,,1,1.653113559999838,,,,,,,,,,,,,,022619_p1_v2,001,2019_Feb_26_1037,body_behavioural,3.0.4,59.85482630848273,
8,"The cashier scanned the crackers, and Ms. Bianchi watched in amusement as Ms. Morrison paid the $6 price entirely in quarters from a wallet bulging with change.",4,3,,,,0,8,8,8,,,,,0,26,26,26,,,,,,,,,,,,,,,,,,,,,,,,,,,1,1.2033383070001946,,,,,,,,,,,,,,022619_p1_v2,001,2019_Feb_26_1037,body_behavioural,3.0.4,59.85482630848273,
8,"They shortly came to an agreement and would have enough cheese shipments, $5000 worth, to different stores to qualify for a subsidized import tax. ",4,4,,,,0,8,8,8,,,,,0,27,27,27,,,,,,,,,,,,,,,,,,,,,,,,,,,1,1.3698323499993421,,,,,,,,,,,,,,022619_p1_v2,001,2019_Feb_26_1037,body_behavioural,3.0.4,59.85482630848273,
8,"Ms. Bianchi retrieved some of her samples from her car, and they toasted their new deal with crackers topped with fresh mozzarella. ",4,4,,,,0,8,8,8,,,,,0,28,28,28,,,,,,,,,,,,,,,,,,,,,,,,,,,9,1.5030791919998592,,,,,,,,,,,,,,022619_p1_v2,001,2019_Feb_26_1037,body_behavioural,3.0.4,59.85482630848273,
8,,,,,,,0,8,8,8,,,,,,,,,,,,,,,,,,,,,,,,,,,,,,,,,,,,,,,,,,,,,,,,,,022619_p1_v2,001,2019_Feb_26_1037,body_behavioural,3.0.4,59.85482630848273,
9,,,,,,,0,9,9,9,0,0,0,0,,,,,,,,,,,,,,,,,,,,,,,,,space,3.603209875000175,space,0.8863410700005261,space,1.536357543000122,,,,,,,,,,,,,,,,022619_p1_v2,001,2019_Feb_26_1037,body_behavioural,3.0.4,59.85482630848273,
9,"James noticed Teresa immediately as she walked into the restaurant - or, more accurately as she attempted to walk into the restaurant. ",1,1,,,,0,9,9,9,,,,,0,0,0,0,,,,,,,,,,,,,,,,,,,,,,,,,,,9,6.036511422999865,,,,,,,,,,,,,,022619_p1_v2,001,2019_Feb_26_1037,body_behavioural,3.0.4,59.85482630848273,
9,"She was typing intently on her phone and ran straight into the diner's clear, glass door with an echoing thud. ",1,1,,,,0,9,9,9,,,,,0,1,1,1,,,,,,,,,,,,,,,,,,,,,,,,,,,1,0.6029004430001805,,,,,,,,,,,,,,022619_p1_v2,001,2019_Feb_26_1037,body_behavioural,3.0.4,59.85482630848273,
9,Everyone waiting around the cash register turned to see if she was okay.,1,1,,,,0,9,9,9,,,,,0,2,2,2,,,,,,,,,,,,,,,,,,,,,,,,,,,1,1.4530561230003514,,,,,,,,,,,,,,022619_p1_v2,001,2019_Feb_26_1037,body_behavioural,3.0.4,59.85482630848273,
9,Teresa rubbed her head.,1,1,,,,0,9,9,9,,,,,0,3,3,3,,,,,,,,,,,,,,,,,,,,,,,,,,,1,1.1530172299999322,,,,,,,,,,,,,,022619_p1_v2,001,2019_Feb_26_1037,body_behavioural,3.0.4,59.85482630848273,
9,"While being both confused and unembarrassed, she looked mostly indignant that the door had been in her way. ",1,1,,,,0,9,9,9,,,,,0,4,4,4,,,,,,,,,,,,,,,,,,,,,,,,,,,1,1.9863967230003254,,,,,,,,,,,,,,022619_p1_v2,001,2019_Feb_26_1037,body_behavioural,3.0.4,59.85482630848273,
9,James found this quite charming and stole a couple glances at her until she noticed and wrinkled her eyebrows at him in suspicion. ,1,1,,,,0,9,9,9,,,,,0,5,5,5,,,,,,,,,,,,,,,,,,,,,,,,,,,1,2.984349488000589,,,,,,,,,,,,,,022619_p1_v2,001,2019_Feb_26_1037,body_behavioural,3.0.4,59.85482630848273,
9,"The restaurant they were in was a cabin-themed diner with wooden booths and bar, walls covered in plaid blankets, and antler decorations. ",1,1,,,,0,9,9,9,,,,,0,6,6,6,,,,,,,,,,,,,,,,,,,,,,,,,,,1,2.836652375000085,,,,,,,,,,,,,,022619_p1_v2,001,2019_Feb_26_1037,body_behavioural,3.0.4,59.85482630848273,
9,The waiter saw that James and Teresa were both alone and motioned to both of them. ,1,1,,,,0,9,9,9,,,,,0,7,7,7,,,,,,,,,,,,,,,,,,,,,,,,,,,1,1.4363259149995429,,,,,,,,,,,,,,022619_p1_v2,001,2019_Feb_26_1037,body_behavioural,3.0.4,59.85482630848273,
9,“Right this way.,2,1,,,,0,9,9,9,,,,,0,8,8,8,,,,,,,,,,,,,,,,,,,,,,,,,,,1,1.1340404329994271,,,,,,,,,,,,,,022619_p1_v2,001,2019_Feb_26_1037,body_behavioural,3.0.4,59.85482630848273,
9,You two don't mind sitting at the counter?” ,2,1,,,,0,9,9,9,,,,,0,9,9,9,,,,,,,,,,,,,,,,,,,,,,,,,,,1,1.786513845000627,,,,,,,,,,,,,,022619_p1_v2,001,2019_Feb_26_1037,body_behavioural,3.0.4,59.85482630848273,
9,They sat a seat apart from each other on the split tree trunk that served as a bench.,2,1,,,,0,9,9,9,,,,,0,10,10,10,,,,,,,,,,,,,,,,,,,,,,,,,,,9,2.1363149700000577,,,,,,,,,,,,,,022619_p1_v2,001,2019_Feb_26_1037,body_behavioural,3.0.4,59.85482630848273,
9, The waitress behind the counter gave them bright neon menus that were filled with breakfast items.,2,1,,,,0,9,9,9,,,,,0,11,11,11,,,,,,,,,,,,,,,,,,,,,,,,,,,1,1.703107264999744,,,,,,,,,,,,,,022619_p1_v2,001,2019_Feb_26_1037,body_behavioural,3.0.4,59.85482630848273,
9,"Teresa quickly glanced through it, then pulled out a book and started reading it while James played with the salt and pepper shakers as he tried to think of an excuse to talk to Teresa.",2,1,,,,0,9,9,9,,,,,0,12,12,12,,,,,,,,,,,,,,,,,,,,,,,,,,,1,4.003223882999919,,,,,,,,,,,,,,022619_p1_v2,001,2019_Feb_26_1037,body_behavioural,3.0.4,59.85482630848273,
9,"James eventually turned to her and asked, “Your forehead alright?”",2,2,,,,0,9,9,9,,,,,0,13,13,13,,,,,,,,,,,,,,,,,,,,,,,,,,,1,1.9691099179999583,,,,,,,,,,,,,,022619_p1_v2,001,2019_Feb_26_1037,body_behavioural,3.0.4,59.85482630848273,
9,She put down her book and gave him a smirk.,2,2,,,,0,9,9,9,,,,,0,14,14,14,,,,,,,,,,,,,,,,,,,,,,,,,,,1,2.0195693979994758,,,,,,,,,,,,,,022619_p1_v2,001,2019_Feb_26_1037,body_behavioural,3.0.4,59.85482630848273,
9,"“Have you ever been stung by a scorpion?”, she asked him, tilting her head.",2,2,,,,0,9,9,9,,,,,0,15,15,15,,,,,,,,,,,,,,,,,,,,,,,,,,,1,1.603067103000285,,,,,,,,,,,,,,022619_p1_v2,001,2019_Feb_26_1037,body_behavioural,3.0.4,59.85482630848273,
9,"“What?”, he asked confusedly.",2,2,,,,0,9,9,9,,,,,0,16,16,16,,,,,,,,,,,,,,,,,,,,,,,,,,,1,0.9029963850007334,,,,,,,,,,,,,,022619_p1_v2,001,2019_Feb_26_1037,body_behavioural,3.0.4,59.85482630848273,
9, “A scorpion.”,2,2,,,,0,9,9,9,,,,,0,17,17,17,,,,,,,,,,,,,,,,,,,,,,,,,,,1,0.5864122149996547,,,,,,,,,,,,,,022619_p1_v2,001,2019_Feb_26_1037,body_behavioural,3.0.4,59.85482630848273,
9,James began to worry that Teresa had possibly suffered a concussion in the door crash.,2,2,,,,0,9,9,9,,,,,0,18,18,18,,,,,,,,,,,,,,,,,,,,,,,,,,,1,1.719756094999866,,,,,,,,,,,,,,022619_p1_v2,001,2019_Feb_26_1037,body_behavioural,3.0.4,59.85482630848273,
9,"“Uh no, why?” ",2,2,,,,0,9,9,9,,,,,0,19,19,19,,,,,,,,,,,,,,,,,,,,,,,,,,,1,1.3341649049998523,,,,,,,,,,,,,,022619_p1_v2,001,2019_Feb_26_1037,body_behavioural,3.0.4,59.85482630848273,
9,"“Because I’ve been stung by one, and since then, things like bumping into doors seem like pretty small potatoes.” ",2,2,,,,0,9,9,9,,,,,0,20,20,20,,,,,,,,,,,,,,,,,,,,,,,,,,,1,2.619700919999559,,,,,,,,,,,,,,022619_p1_v2,001,2019_Feb_26_1037,body_behavioural,3.0.4,59.85482630848273,
9,"They carried on talking, and Teresa told him all about her encounter with a Deathstalker scorpion while she was studying abroad in Egypt.",2,2,,,,0,9,9,9,,,,,0,21,21,21,,,,,,,,,,,,,,,,,,,,,,,,,,,1,2.819385505000355,,,,,,,,,,,,,,022619_p1_v2,001,2019_Feb_26_1037,body_behavioural,3.0.4,59.85482630848273,
9,"After a few minutes, the waitress behind the counter came up to them, “Alrighty, can I take you order?” ",3,3,,,,0,9,9,9,,,,,0,22,22,22,,,,,,,,,,,,,,,,,,,,,,,,,,,1,1.3364039520001825,,,,,,,,,,,,,,022619_p1_v2,001,2019_Feb_26_1037,body_behavioural,3.0.4,59.85482630848273,
9,"She first looked at Teresa who answered, “I’ll have a Western Omelette and a glass of milk.”",3,3,,,,0,9,9,9,,,,,0,23,23,23,,,,,,,,,,,,,,,,,,,,,,,,,,,9,2.8699126850005996,,,,,,,,,,,,,,022619_p1_v2,001,2019_Feb_26_1037,body_behavioural,3.0.4,59.85482630848273,
9,Then the waitress turned to James.,3,3,,,,0,9,9,9,,,,,0,24,24,24,,,,,,,,,,,,,,,,,,,,,,,,,,,1,0.9672893220003971,,,,,,,,,,,,,,022619_p1_v2,001,2019_Feb_26_1037,body_behavioural,3.0.4,59.85482630848273,
9,"James said, “I’ll have the chocolate chip pancakes and a coffee.” ",3,3,,,,0,9,9,9,,,,,0,25,25,25,,,,,,,,,,,,,,,,,,,,,,,,,,,1,0.8173942149996947,,,,,,,,,,,,,,022619_p1_v2,001,2019_Feb_26_1037,body_behavioural,3.0.4,59.85482630848273,
9,"“Alrighty, comin’ right up!”",3,3,,,,0,9,9,9,,,,,0,26,26,26,,,,,,,,,,,,,,,,,,,,,,,,,,,1,2.403145393000159,,,,,,,,,,,,,,022619_p1_v2,001,2019_Feb_26_1037,body_behavioural,3.0.4,59.85482630848273,
9,"They picked up their conversation, and James ended up telling Teresa about a concert he was going to later. ",3,3,,,,0,9,9,9,,,,,0,27,27,27,,,,,,,,,,,,,,,,,,,,,,,,,,,9,2.303105985000002,,,,,,,,,,,,,,022619_p1_v2,001,2019_Feb_26_1037,body_behavioural,3.0.4,59.85482630848273,
