count,storyText,locationEvent,socialEvent,locationEventSize,socialEventSize,instructText,trials.thisRepN,trials.thisTrialN,trials.thisN,trials.thisIndex,trials_7.thisRepN,trials_7.thisTrialN,trials_7.thisN,trials_7.thisIndex,trials_2.thisRepN,trials_2.thisTrialN,trials_2.thisN,trials_2.thisIndex,trials_3.thisRepN,trials_3.thisTrialN,trials_3.thisN,trials_3.thisIndex,trials_4.thisRepN,trials_4.thisTrialN,trials_4.thisN,trials_4.thisIndex,trials_5.thisRepN,trials_5.thisTrialN,trials_5.thisN,trials_5.thisIndex,trials_6.thisRepN,trials_6.thisTrialN,trials_6.thisN,trials_6.thisIndex,order of stories,order of perspectives,participant 2 order - stories,participant 2 order  - schemas types,key_resp_8.keys,key_resp_8.rt,key_resp_5.keys,key_resp_5.rt,key_resp_7.keys,key_resp_7.rt,story_presses.keys,story_presses.rt,story time,key_resp_6.keys,key_resp_6.rt,key_resp_2.keys,key_resp_2.rt,key_resp_10.keys,key_resp_10.rt,recall,recall time,key_resp_12.keys,key_resp_12.rt,key_resp_3.keys,key_resp_3.rt,key_resp_11.keys,key_resp_11.rt,question1_answer,order of question,question2_answer,question3_answer,question4_answer,question5_answer,question6_answer,question7_answer,question8_answer,participant,session,date,expName,psychopyVersion,frameRate,
0,,,,,,,0,0,0,0,0,0,0,0,,,,,,,,,,,,,,,,,,,,,[41 43 34 12 32 23 14 21 11 22 24 33 31 13 44 42],"['Location' 'Social' 'Location' 'Location' 'Social' 'Location' 'Social'
 'Social' 'Social' 'Location' 'Social' 'Social' 'Location' 'Location'
 'Location' 'Social']",[11 22 24 33 31 13 44 42],"['Social' 'Location' 'Social' 'Social' 'Location' 'Location' 'Location'
 'Social']",space,4.839189277001424,space,1.903089547999116,space,1.4532411250002042,,,,,,,,,,,,,,,,,,,,,,,,,,,022819_p3,001,2019_Feb_28_1619,body_behavioural,3.0.4,60.159468793980714,
0,"James noticed Teresa immediately as she walked into the restaurant - or, more accurately as she attempted to walk into the restaurant. ",1,1,,,,0,0,0,0,,,,,0,0,0,0,,,,,,,,,,,,,,,,,,,,,,,,,,,1,24.85439473799852,,,,,,,,,,,,,,,,,,,,,,,,,022819_p3,001,2019_Feb_28_1619,body_behavioural,3.0.4,60.159468793980714,
0,"She was typing intently on her phone and ran straight into the diner's clear, glass door with an echoing thud. ",1,1,,,,0,0,0,0,,,,,0,1,1,1,,,,,,,,,,,,,,,,,,,,,,,,,,,1,8.07019508999656,,,,,,,,,,,,,,,,,,,,,,,,,022819_p3,001,2019_Feb_28_1619,body_behavioural,3.0.4,60.159468793980714,
0,Everyone waiting around the cash register turned to see if she was okay.,1,1,,,,0,0,0,0,,,,,0,2,2,2,,,,,,,,,,,,,,,,,,,,,,,,,,,1,6.553300922001654,,,,,,,,,,,,,,,,,,,,,,,,,022819_p3,001,2019_Feb_28_1619,body_behavioural,3.0.4,60.159468793980714,
0,Teresa rubbed her head.,1,1,,,,0,0,0,0,,,,,0,3,3,3,,,,,,,,,,,,,,,,,,,,,,,,,,,1,2.269610459999967,,,,,,,,,,,,,,,,,,,,,,,,,022819_p3,001,2019_Feb_28_1619,body_behavioural,3.0.4,60.159468793980714,
0,"While being both confused and unembarrassed, she looked mostly indignant that the door had been in her way. ",1,1,,,,0,0,0,0,,,,,0,4,4,4,,,,,,,,,,,,,,,,,,,,,,,,,,,1,7.169387788002496,,,,,,,,,,,,,,,,,,,,,,,,,022819_p3,001,2019_Feb_28_1619,body_behavioural,3.0.4,60.159468793980714,
0,James found this quite charming and stole a couple glances at her until she noticed and wrinkled her eyebrows at him in suspicion. ,1,1,,,,0,0,0,0,,,,,0,5,5,5,,,,,,,,,,,,,,,,,,,,,,,,,,,9,7.0877464469995175,,,,,,,,,,,,,,,,,,,,,,,,,022819_p3,001,2019_Feb_28_1619,body_behavioural,3.0.4,60.159468793980714,
0,"The restaurant they were in was a cabin-themed diner with wooden booths and bar, walls covered in plaid blankets, and antler decorations. ",1,1,,,,0,0,0,0,,,,,0,6,6,6,,,,,,,,,,,,,,,,,,,,,,,,,,,1,11.170589342000312,,,,,,,,,,,,,,,,,,,,,,,,,022819_p3,001,2019_Feb_28_1619,body_behavioural,3.0.4,60.159468793980714,
0,The waiter saw that James and Teresa were both alone and motioned to both of them. ,1,1,,,,0,0,0,0,,,,,0,7,7,7,,,,,,,,,,,,,,,,,,,,,,,,,,,9,11.553579343002639,,,,,,,,,,,,,,,,,,,,,,,,,022819_p3,001,2019_Feb_28_1619,body_behavioural,3.0.4,60.159468793980714,
0,“Right this way.,2,1,,,,0,0,0,0,,,,,0,8,8,8,,,,,,,,,,,,,,,,,,,,,,,,,,,1,1.2531040950016177,,,,,,,,,,,,,,,,,,,,,,,,,022819_p3,001,2019_Feb_28_1619,body_behavioural,3.0.4,60.159468793980714,
0,You two don't mind sitting at the counter?” ,2,1,,,,0,0,0,0,,,,,0,9,9,9,,,,,,,,,,,,,,,,,,,,,,,,,,,1,2.669897294999828,,,,,,,,,,,,,,,,,,,,,,,,,022819_p3,001,2019_Feb_28_1619,body_behavioural,3.0.4,60.159468793980714,
0,They sat a seat apart from each other on the split tree trunk that served as a bench.,2,1,,,,0,0,0,0,,,,,0,10,10,10,,,,,,,,,,,,,,,,,,,,,,,,,,,9,7.737729399999807,,,,,,,,,,,,,,,,,,,,,,,,,022819_p3,001,2019_Feb_28_1619,body_behavioural,3.0.4,60.159468793980714,
0, The waitress behind the counter gave them bright neon menus that were filled with breakfast items.,2,1,,,,0,0,0,0,,,,,0,11,11,11,,,,,,,,,,,,,,,,,,,,,,,,,,,1,9.617559539998183,,,,,,,,,,,,,,,,,,,,,,,,,022819_p3,001,2019_Feb_28_1619,body_behavioural,3.0.4,60.159468793980714,
0,"Teresa quickly glanced through it, then pulled out a book and started reading it while James played with the salt and pepper shakers as he tried to think of an excuse to talk to Teresa.",2,1,,,,0,0,0,0,,,,,0,12,12,12,,,,,,,,,,,,,,,,,,,,,,,,,,,9,8.617683058000694,,,,,,,,,,,,,,,,,,,,,,,,,022819_p3,001,2019_Feb_28_1619,body_behavioural,3.0.4,60.159468793980714,
0,"James eventually turned to her and asked, “Your forehead alright?”",2,2,,,,0,0,0,0,,,,,0,13,13,13,,,,,,,,,,,,,,,,,,,,,,,,,,,1,2.4697251550023793,,,,,,,,,,,,,,,,,,,,,,,,,022819_p3,001,2019_Feb_28_1619,body_behavioural,3.0.4,60.159468793980714,
0,She put down her book and gave him a smirk.,2,2,,,,0,0,0,0,,,,,0,14,14,14,,,,,,,,,,,,,,,,,,,,,,,,,,,1,2.300795074999769,,,,,,,,,,,,,,,,,,,,,,,,,022819_p3,001,2019_Feb_28_1619,body_behavioural,3.0.4,60.159468793980714,
0,"“Have you ever been stung by a scorpion?”, she asked him, tilting her head.",2,2,,,,0,0,0,0,,,,,0,15,15,15,,,,,,,,,,,,,,,,,,,,,,,,,,,1,4.086625152998749,,,,,,,,,,,,,,,,,,,,,,,,,022819_p3,001,2019_Feb_28_1619,body_behavioural,3.0.4,60.159468793980714,
0,"“What?”, he asked confusedly.",2,2,,,,0,0,0,0,,,,,0,16,16,16,,,,,,,,,,,,,,,,,,,,,,,,,,,1,1.4530715600012627,,,,,,,,,,,,,,,,,,,,,,,,,022819_p3,001,2019_Feb_28_1619,body_behavioural,3.0.4,60.159468793980714,
0, “A scorpion.”,2,2,,,,0,0,0,0,,,,,0,17,17,17,,,,,,,,,,,,,,,,,,,,,,,,,,,1,1.0196931270002096,,,,,,,,,,,,,,,,,,,,,,,,,022819_p3,001,2019_Feb_28_1619,body_behavioural,3.0.4,60.159468793980714,
0,James began to worry that Teresa had possibly suffered a concussion in the door crash.,2,2,,,,0,0,0,0,,,,,0,18,18,18,,,,,,,,,,,,,,,,,,,,,,,,,,,1,3.2365006799991534,,,,,,,,,,,,,,,,,,,,,,,,,022819_p3,001,2019_Feb_28_1619,body_behavioural,3.0.4,60.159468793980714,
0,"“Uh no, why?” ",2,2,,,,0,0,0,0,,,,,0,19,19,19,,,,,,,,,,,,,,,,,,,,,,,,,,,1,1.5030907000000298,,,,,,,,,,,,,,,,,,,,,,,,,022819_p3,001,2019_Feb_28_1619,body_behavioural,3.0.4,60.159468793980714,
0,"“Because I’ve been stung by one, and since then, things like bumping into doors seem like pretty small potatoes.” ",2,2,,,,0,0,0,0,,,,,0,20,20,20,,,,,,,,,,,,,,,,,,,,,,,,,,,1,7.034487765002268,,,,,,,,,,,,,,,,,,,,,,,,,022819_p3,001,2019_Feb_28_1619,body_behavioural,3.0.4,60.159468793980714,
0,"They carried on talking, and Teresa told him all about her encounter with a Deathstalker scorpion while she was studying abroad in Egypt.",2,2,,,,0,0,0,0,,,,,0,21,21,21,,,,,,,,,,,,,,,,,,,,,,,,,,,9,5.753308570001536,,,,,,,,,,,,,,,,,,,,,,,,,022819_p3,001,2019_Feb_28_1619,body_behavioural,3.0.4,60.159468793980714,
0,"After a few minutes, the waitress behind the counter came up to them, “Alrighty, can I take you order?” ",3,3,,,,0,0,0,0,,,,,0,22,22,22,,,,,,,,,,,,,,,,,,,,,,,,,,,9,5.636802585002442,,,,,,,,,,,,,,,,,,,,,,,,,022819_p3,001,2019_Feb_28_1619,body_behavioural,3.0.4,60.159468793980714,
0,"She first looked at Teresa who answered, “I’ll have a Western Omelette and a glass of milk.”",3,3,,,,0,0,0,0,,,,,0,23,23,23,,,,,,,,,,,,,,,,,,,,,,,,,,,1,4.319589246999385,,,,,,,,,,,,,,,,,,,,,,,,,022819_p3,001,2019_Feb_28_1619,body_behavioural,3.0.4,60.159468793980714,
0,Then the waitress turned to James.,3,3,,,,0,0,0,0,,,,,0,24,24,24,,,,,,,,,,,,,,,,,,,,,,,,,,,1,1.9195838920022652,,,,,,,,,,,,,,,,,,,,,,,,,022819_p3,001,2019_Feb_28_1619,body_behavioural,3.0.4,60.159468793980714,
0,"James said, “I’ll have the chocolate chip pancakes and a coffee.” ",3,3,,,,0,0,0,0,,,,,0,25,25,25,,,,,,,,,,,,,,,,,,,,,,,,,,,1,2.2027624449983705,,,,,,,,,,,,,,,,,,,,,,,,,022819_p3,001,2019_Feb_28_1619,body_behavioural,3.0.4,60.159468793980714,
0,"“Alrighty, comin’ right up!”",3,3,,,,0,0,0,0,,,,,0,26,26,26,,,,,,,,,,,,,,,,,,,,,,,,,,,1,4.13625778200003,,,,,,,,,,,,,,,,,,,,,,,,,022819_p3,001,2019_Feb_28_1619,body_behavioural,3.0.4,60.159468793980714,
0,"They picked up their conversation, and James ended up telling Teresa about a concert he was going to later. ",3,3,,,,0,0,0,0,,,,,0,27,27,27,,,,,,,,,,,,,,,,,,,,,,,,,,,9,4.953548321998824,,,,,,,,,,,,,,,,,,,,,,,,,022819_p3,001,2019_Feb_28_1619,body_behavioural,3.0.4,60.159468793980714,
0,"He invited her to come along, promising her that the concert would be indoors and absolutely free of venomous insects.",3,3,,,,0,0,0,0,,,,,0,28,28,28,,,,,,,,,,,,,,,,,,,,,,,,,,,1,3.9009479100022872,,,,,,,,,,,,,,,,,,,,,,,,,022819_p3,001,2019_Feb_28_1619,body_behavioural,3.0.4,60.159468793980714,
0,"Teresa agreed, gave him her number, and they worked out that James would pick her up before the concert and drive them there.",3,3,,,,0,0,0,0,,,,,0,29,29,29,,,,,,,,,,,,,,,,,,,,,,,,,,,1,5.203071110001474,,,,,,,,,,,,,,,,,,,,,,,,,022819_p3,001,2019_Feb_28_1619,body_behavioural,3.0.4,60.159468793980714,
0,"This was not what they had expected from their solitary lunch plans and were both excited, even though Teresa was doing a much better job of hiding it than James. ",3,3,,,,0,0,0,0,,,,,0,30,30,30,,,,,,,,,,,,,,,,,,,,,,,,,,,1,6.9862900099979015,,,,,,,,,,,,,,,,,,,,,,,,,022819_p3,001,2019_Feb_28_1619,body_behavioural,3.0.4,60.159468793980714,
0," After awhile,  the waitress brought out their food, and James took this opportunity to scoot closer to her on the log bench. ",4,4,,,,0,0,0,0,,,,,0,31,31,31,,,,,,,,,,,,,,,,,,,,,,,,,,,9,4.053009039998869,,,,,,,,,,,,,,,,,,,,,,,,,022819_p3,001,2019_Feb_28_1619,body_behavioural,3.0.4,60.159468793980714,
0,"Teresa was happy to share the meal with James, despite their food tasting pretty bad. ",4,4,,,,0,0,0,0,,,,,0,32,32,32,,,,,,,,,,,,,,,,,,,,,,,,,,,1,8.236699043001863,,,,,,,,,,,,,,,,,,,,,,,,,022819_p3,001,2019_Feb_28_1619,body_behavioural,3.0.4,60.159468793980714,
0,"Judging by how salty the pancakes tasted, they suspected that the chef had confused the salt and sugar.",4,4,,,,0,0,0,0,,,,,0,33,33,33,,,,,,,,,,,,,,,,,,,,,,,,,,,1,5.120218716998352,,,,,,,,,,,,,,,,,,,,,,,,,022819_p3,001,2019_Feb_28_1619,body_behavioural,3.0.4,60.159468793980714,
0,"When the meal was over, they got up, hugged, and parted ways. ",4,4,,,,0,0,0,0,,,,,0,34,34,34,,,,,,,,,,,,,,,,,,,,,,,,,,,9,5.987156426999718,,,,,,,,,,,,,,,,,,,,,,,,,022819_p3,001,2019_Feb_28_1619,body_behavioural,3.0.4,60.159468793980714,
0,"James said,“I have to run, got to get to work.",4,4,,,,0,0,0,0,,,,,0,35,35,35,,,,,,,,,,,,,,,,,,,,,,,,,,,1,2.4029906549985753,,,,,,,,,,,,,,,,,,,,,,,,,022819_p3,001,2019_Feb_28_1619,body_behavioural,3.0.4,60.159468793980714,
0,See you tonight!”,4,4,,,,0,0,0,0,,,,,0,36,36,36,,,,,,,,,,,,,,,,,,,,,,,,,,,1,1.036390544999449,,,,,,,,,,,,,,,,,,,,,,,,,022819_p3,001,2019_Feb_28_1619,body_behavioural,3.0.4,60.159468793980714,
0,"Teresa smiled and walked towards the door without looking, and almost ran into the door again. ",4,4,,,,0,0,0,0,,,,,0,37,37,37,,,,,,,,,,,,,,,,,,,,,,,,,,,1,3.5365002719991026,,,,,,,,,,,,,,,,,,,,,,,,,022819_p3,001,2019_Feb_28_1619,body_behavioural,3.0.4,60.159468793980714,
0,They both laughed and smiled once more goodbye. ,4,4,,,,0,0,0,0,,,,,0,38,38,38,,,,,,,,,,,,,,,,,,,,,,,,,,,1,2.385526164998737,,,,,,,,,,,,,,,,,,,,,,,,,022819_p3,001,2019_Feb_28_1619,body_behavioural,3.0.4,60.159468793980714,
0,,,,,,,0,0,0,0,,,,,,,,,,,,,,,,,,,,,,,,,,,,,,,,,,,,,,,,,,,,,,,,,,,,,,,,,,,,,022819_p3,001,2019_Feb_28_1619,body_behavioural,3.0.4,60.159468793980714,
1,,,,,,,0,1,1,1,0,0,0,0,,,,,,,,,,,,,,,,,,,,,,,,,space,1.8035151879994373,space,4.136763965001592,space,3.5532075820010505,,,,,,,,,,,,,,,,,,,,,,,,,,,022819_p3,001,2019_Feb_28_1619,body_behavioural,3.0.4,60.159468793980714,
1,"Simon and Carina noticed each other as they walked into the grocery store at the same time, their carts nearly colliding as they squeezed into the entrance.",1,1,,,,0,1,1,1,,,,,0,0,0,0,,,,,,,,,,,,,,,,,,,,,,,,,,,9,11.154054685001029,,,,,,,,,,,,,,,,,,,,,,,,,022819_p3,001,2019_Feb_28_1619,body_behavioural,3.0.4,60.159468793980714,
1,"They were both new to the Boston area, and this was their first time in this store. ",1,1,,,,0,1,1,1,,,,,0,1,1,1,,,,,,,,,,,,,,,,,,,,,,,,,,,1,4.2041241619990615,,,,,,,,,,,,,,,,,,,,,,,,,022819_p3,001,2019_Feb_28_1619,body_behavioural,3.0.4,60.159468793980714,
1,"It kind of looked like a large warehouse, with high unfurnished ceilings, industrial lights, and large packages of food. ",1,1,,,,0,1,1,1,,,,,0,2,2,2,,,,,,,,,,,,,,,,,,,,,,,,,,,1,10.136972194999544,,,,,,,,,,,,,,,,,,,,,,,,,022819_p3,001,2019_Feb_28_1619,body_behavioural,3.0.4,60.159468793980714,
1,"They went off along separate routes, but soon ended up back together in the meat section. ",2,1,,,,0,1,1,1,,,,,0,3,3,3,,,,,,,,,,,,,,,,,,,,,,,,,,,1,5.119889667003008,,,,,,,,,,,,,,,,,,,,,,,,,022819_p3,001,2019_Feb_28_1619,body_behavioural,3.0.4,60.159468793980714,
1,"They were both preparing for barbecues, so they were looking over the same cuts of meat. ",2,1,,,,0,1,1,1,,,,,0,4,4,4,,,,,,,,,,,,,,,,,,,,,,,,,,,1,3.3864458329990157,,,,,,,,,,,,,,,,,,,,,,,,,022819_p3,001,2019_Feb_28_1619,body_behavioural,3.0.4,60.159468793980714,
1,"Simon really wanted to talk to Carina, and Carina really wanted to say something to Simon, but they felt embarrassed striking up a conversation with a stranger.",2,1,,,,0,1,1,1,,,,,0,5,5,5,,,,,,,,,,,,,,,,,,,,,,,,,,,1,0.6860876370010374,,,,,,,,,,,,,,,,,,,,,,,,,022819_p3,001,2019_Feb_28_1619,body_behavioural,3.0.4,60.159468793980714,
1,"Carina suddenly turned to Simon and, pointing at a Cornish hen, asked, “Isn’t this meat cute?”",2,2,,,,0,1,1,1,,,,,0,6,6,6,,,,,,,,,,,,,,,,,,,,,,,,,,,9,5.817481174999557,,,,,,,,,,,,,,,,,,,,,,,,,022819_p3,001,2019_Feb_28_1619,body_behavioural,3.0.4,60.159468793980714,
1,"He laughed, and said, “It is very cute.",2,2,,,,0,1,1,1,,,,,0,7,7,7,,,,,,,,,,,,,,,,,,,,,,,,,,,1,1.5530018229983398,,,,,,,,,,,,,,,,,,,,,,,,,022819_p3,001,2019_Feb_28_1619,body_behavioural,3.0.4,60.159468793980714,
1,"Probably the younger brother of this guy,” and he picked up a regular-sized chicken.",2,2,,,,0,1,1,1,,,,,0,8,8,8,,,,,,,,,,,,,,,,,,,,,,,,,,,1,7.320058404999145,,,,,,,,,,,,,,,,,,,,,,,,,022819_p3,001,2019_Feb_28_1619,body_behavioural,3.0.4,60.159468793980714,
1,"“Unlucky family,” she responded. ",2,2,,,,0,1,1,1,,,,,0,9,9,9,,,,,,,,,,,,,,,,,,,,,,,,,,,1,3.519795107000391,,,,,,,,,,,,,,,,,,,,,,,,,022819_p3,001,2019_Feb_28_1619,body_behavioural,3.0.4,60.159468793980714,
1,They continued to chat as they picked out their groceries.,2,2,,,,0,1,1,1,,,,,0,10,10,10,,,,,,,,,,,,,,,,,,,,,,,,,,,1,7.603513789999852,,,,,,,,,,,,,,,,,,,,,,,,,022819_p3,001,2019_Feb_28_1619,body_behavioural,3.0.4,60.159468793980714,
1,"Simon helped Carina pick out the best ribs and his personal favorite barbeque sauce, and she helped him gather the  peppers, onions, and spices for a vegetable kabob she recommended.",2,2,,,,0,1,1,1,,,,,0,11,11,11,,,,,,,,,,,,,,,,,,,,,,,,,,,9,18.035191785002098,,,,,,,,,,,,,,,,,,,,,,,,,022819_p3,001,2019_Feb_28_1619,body_behavioural,3.0.4,60.159468793980714,
1,"When they were both finished shopping, they went to the checkout area.",3,2,,,,0,1,1,1,,,,,0,12,12,12,,,,,,,,,,,,,,,,,,,,,,,,,,,1,1.6363752099969133,,,,,,,,,,,,,,,,,,,,,,,,,022819_p3,001,2019_Feb_28_1619,body_behavioural,3.0.4,60.159468793980714,
1,"Simon was disappointed to see that the lines were short, since he had been hoping for an excuse to spend more time with Carina.",3,2,,,,0,1,1,1,,,,,0,13,13,13,,,,,,,,,,,,,,,,,,,,,,,,,,,1,5.38436947199807,,,,,,,,,,,,,,,,,,,,,,,,,022819_p3,001,2019_Feb_28_1619,body_behavioural,3.0.4,60.159468793980714,
1,"They had real chemistry, and both of them could definitely see a future together despite having just met.",3,2,,,,0,1,1,1,,,,,0,14,14,14,,,,,,,,,,,,,,,,,,,,,,,,,,,1,6.870144040000014,,,,,,,,,,,,,,,,,,,,,,,,,022819_p3,001,2019_Feb_28_1619,body_behavioural,3.0.4,60.159468793980714,
1,"“So you haven’t been around the city much?”, Simon asked. ",3,2,,,,0,1,1,1,,,,,0,15,15,15,,,,,,,,,,,,,,,,,,,,,,,,,,,1,2.2032271699972625,,,,,,,,,,,,,,,,,,,,,,,,,022819_p3,001,2019_Feb_28_1619,body_behavioural,3.0.4,60.159468793980714,
1,"“No, not really.",3,2,,,,0,1,1,1,,,,,0,16,16,16,,,,,,,,,,,,,,,,,,,,,,,,,,,1,1.3174869870017574,,,,,,,,,,,,,,,,,,,,,,,,,022819_p3,001,2019_Feb_28_1619,body_behavioural,3.0.4,60.159468793980714,
1,I’ve mainly been working and setting up my apartment.”,3,2,,,,0,1,1,1,,,,,0,17,17,17,,,,,,,,,,,,,,,,,,,,,,,,,,,1,2.286533509999572,,,,,,,,,,,,,,,,,,,,,,,,,022819_p3,001,2019_Feb_28_1619,body_behavioural,3.0.4,60.159468793980714,
1,"Simon asked her, “Ok well, if you’d like I could pick you up next weekend, and we could go around Harvard Square and get dinner.",3,3,,,,0,1,1,1,,,,,0,18,18,18,,,,,,,,,,,,,,,,,,,,,,,,,,,1,4.953246094999486,,,,,,,,,,,,,,,,,,,,,,,,,022819_p3,001,2019_Feb_28_1619,body_behavioural,3.0.4,60.159468793980714,
1,"There are a lot of great places around there, and it’s really nice during the summer.",3,3,,,,0,1,1,1,,,,,0,19,19,19,,,,,,,,,,,,,,,,,,,,,,,,,,,1,3.602636027000699,,,,,,,,,,,,,,,,,,,,,,,,,022819_p3,001,2019_Feb_28_1619,body_behavioural,3.0.4,60.159468793980714,
1,The Harvard campus is also beautiful.” ,3,3,,,,0,1,1,1,,,,,0,20,20,20,,,,,,,,,,,,,,,,,,,,,,,,,,,1,2.953168399999413,,,,,,,,,,,,,,,,,,,,,,,,,022819_p3,001,2019_Feb_28_1619,body_behavioural,3.0.4,60.159468793980714,
1,"Carina smiled, “I’d love to: that sounds great!”",3,3,,,,0,1,1,1,,,,,0,21,21,21,,,,,,,,,,,,,,,,,,,,,,,,,,,1,1.769335406999744,,,,,,,,,,,,,,,,,,,,,,,,,022819_p3,001,2019_Feb_28_1619,body_behavioural,3.0.4,60.159468793980714,
1,"She quickly entered her number in his phone, since they only had to wait a couple minutes in line.",3,3,,,,0,1,1,1,,,,,0,22,22,22,,,,,,,,,,,,,,,,,,,,,,,,,,,1,2.9365934550005477,,,,,,,,,,,,,,,,,,,,,,,,,022819_p3,001,2019_Feb_28_1619,body_behavioural,3.0.4,60.159468793980714,
1,Then it was her turn to check out with the cashier. ,4,3,,,,0,1,1,1,,,,,0,23,23,23,,,,,,,,,,,,,,,,,,,,,,,,,,,1,1.5197916450015327,,,,,,,,,,,,,,,,,,,,,,,,,022819_p3,001,2019_Feb_28_1619,body_behavioural,3.0.4,60.159468793980714,
1,"Simon, wanting to make a gesture of his affection, lifted up the divider on the conveyor belt and said to the cashier, “Actually these are together.",4,3,,,,0,1,1,1,,,,,0,24,24,24,,,,,,,,,,,,,,,,,,,,,,,,,,,9,5.487387637000211,,,,,,,,,,,,,,,,,,,,,,,,,022819_p3,001,2019_Feb_28_1619,body_behavioural,3.0.4,60.159468793980714,
1,"Carina, I’ve got it.",4,3,,,,0,1,1,1,,,,,0,25,25,25,,,,,,,,,,,,,,,,,,,,,,,,,,,1,2.686462120000215,,,,,,,,,,,,,,,,,,,,,,,,,022819_p3,001,2019_Feb_28_1619,body_behavioural,3.0.4,60.159468793980714,
1,This was kind-of a date today.”,4,3,,,,0,1,1,1,,,,,0,26,26,26,,,,,,,,,,,,,,,,,,,,,,,,,,,1,4.336647952000931,,,,,,,,,,,,,,,,,,,,,,,,,022819_p3,001,2019_Feb_28_1619,body_behavioural,3.0.4,60.159468793980714,
1,Carina blushed and laughed; she thought this was ridiculous but also very sweet. ,4,3,,,,0,1,1,1,,,,,0,27,27,27,,,,,,,,,,,,,,,,,,,,,,,,,,,1,3.103232899997238,,,,,,,,,,,,,,,,,,,,,,,,,022819_p3,001,2019_Feb_28_1619,body_behavioural,3.0.4,60.159468793980714,
1,"The cashier rolled her eyes when they weren’t looking, and she scanned the rest of his items. ",4,3,,,,0,1,1,1,,,,,0,28,28,28,,,,,,,,,,,,,,,,,,,,,,,,,,,1,6.6197816300009436,,,,,,,,,,,,,,,,,,,,,,,,,022819_p3,001,2019_Feb_28_1619,body_behavioural,3.0.4,60.159468793980714,
1,"The total came to $120, and he paid with his credit card.",4,3,,,,0,1,1,1,,,,,0,29,29,29,,,,,,,,,,,,,,,,,,,,,,,,,,,1,6.770064345000719,,,,,,,,,,,,,,,,,,,,,,,,,022819_p3,001,2019_Feb_28_1619,body_behavioural,3.0.4,60.159468793980714,
1,"Carina thanked him, and they took the groceries and walked out.",4,3,,,,0,1,1,1,,,,,0,30,30,30,,,,,,,,,,,,,,,,,,,,,,,,,,,1,1.4031044820003444,,,,,,,,,,,,,,,,,,,,,,,,,022819_p3,001,2019_Feb_28_1619,body_behavioural,3.0.4,60.159468793980714,
1,"As they were walking towards the exit, Carina reluctantly said goodbye since she was running late for the barbeque she was hosting that afternoon.",4,4,,,,0,1,1,1,,,,,0,31,31,31,,,,,,,,,,,,,,,,,,,,,,,,,,,1,12.586737116998847,,,,,,,,,,,,,,,,,,,,,,,,,022819_p3,001,2019_Feb_28_1619,body_behavioural,3.0.4,60.159468793980714,
1,"They hugged and parted ways, stealing glances at each other as they both walked back to their cars.",4,4,,,,0,1,1,1,,,,,0,32,32,32,,,,,,,,,,,,,,,,,,,,,,,,,,,1,2.953208352002548,,,,,,,,,,,,,,,,,,,,,,,,,022819_p3,001,2019_Feb_28_1619,body_behavioural,3.0.4,60.159468793980714,
1,,,,,,,0,1,1,1,,,,,,,,,,,,,,,,,,,,,,,,,,,,,,,,,,,,,,,,,,,,,,,,,,,,,,,,,,,,,022819_p3,001,2019_Feb_28_1619,body_behavioural,3.0.4,60.159468793980714,
2,,,,,,,0,2,2,2,0,0,0,0,,,,,,,,,,,,,,,,,,,,,,,,,space,1.0527630249998765,space,1.2028453169987188,space,3.2534409250001772,,,,,,,,,,,,,,,,,,,,,,,,,,,022819_p3,001,2019_Feb_28_1619,body_behavioural,3.0.4,60.159468793980714,
2,Charlie saw Alma as they walked into class and he motioned for her to come sit in the back next to him: they had business to discuss.,1,1,,,,0,2,2,2,,,,,0,0,0,0,,,,,,,,,,,,,,,,,,,,,,,,,,,9,25.204390355000214,,,,,,,,,,,,,,,,,,,,,,,,,022819_p3,001,2019_Feb_28_1619,body_behavioural,3.0.4,60.159468793980714,
2,Charlie and Alma were both economics students with entrepreneurial bents.,1,1,,,,0,2,2,2,,,,,0,1,1,1,,,,,,,,,,,,,,,,,,,,,,,,,,,1,7.270507837001787,,,,,,,,,,,,,,,,,,,,,,,,,022819_p3,001,2019_Feb_28_1619,body_behavioural,3.0.4,60.159468793980714,
2,They were also both very busy and in the same class.,1,1,,,,0,2,2,2,,,,,0,2,2,2,,,,,,,,,,,,,,,,,,,,,,,,,,,1,4.5698648399993544,,,,,,,,,,,,,,,,,,,,,,,,,022819_p3,001,2019_Feb_28_1619,body_behavioural,3.0.4,60.159468793980714,
2,"After talking at a party, Charlie had discovered that Alma was looking for financing for her web development company.",1,1,,,,0,2,2,2,,,,,0,3,3,3,,,,,,,,,,,,,,,,,,,,,,,,,,,1,9.153653906996624,,,,,,,,,,,,,,,,,,,,,,,,,022819_p3,001,2019_Feb_28_1619,body_behavioural,3.0.4,60.159468793980714,
2,It was serendipitous because he had been talking with other members of his venture capital group about making an investment. ,1,1,,,,0,2,2,2,,,,,0,4,4,4,,,,,,,,,,,,,,,,,,,,,,,,,,,1,6.453466524999385,,,,,,,,,,,,,,,,,,,,,,,,,022819_p3,001,2019_Feb_28_1619,body_behavioural,3.0.4,60.159468793980714,
2,"His financial group had come to a decision that morning about Alma’s idea, and he didn't want to wait until after class to discuss the proposal with her. ",1,1,,,,0,2,2,2,,,,,0,5,5,5,,,,,,,,,,,,,,,,,,,,,,,,,,,1,6.786774192001758,,,,,,,,,,,,,,,,,,,,,,,,,022819_p3,001,2019_Feb_28_1619,body_behavioural,3.0.4,60.159468793980714,
2,"The class was in a large auditorium with small, foldable desks on the side of each cushioned chair. ",1,1,,,,0,2,2,2,,,,,0,6,6,6,,,,,,,,,,,,,,,,,,,,,,,,,,,9,3.21751690200108,,,,,,,,,,,,,,,,,,,,,,,,,022819_p3,001,2019_Feb_28_1619,body_behavioural,3.0.4,60.159468793980714,
2,"There were large windows on both sides of the hall, and they could see the first flurries of a winter storm starting outside. ",1,1,,,,0,2,2,2,,,,,0,7,7,7,,,,,,,,,,,,,,,,,,,,,,,,,,,1,3.337096016999567,,,,,,,,,,,,,,,,,,,,,,,,,022819_p3,001,2019_Feb_28_1619,body_behavioural,3.0.4,60.159468793980714,
2,"“Here we are at Lecture Seven already in History of the Eternal City,” said the professor. ",2,1,,,,0,2,2,2,,,,,0,8,8,8,,,,,,,,,,,,,,,,,,,,,,,,,,,9,4.636655333000817,,,,,,,,,,,,,,,,,,,,,,,,,022819_p3,001,2019_Feb_28_1619,body_behavioural,3.0.4,60.159468793980714,
2,“We're going to talk today about the age of the first Roman emperor: Augustus.” ,2,1,,,,0,2,2,2,,,,,0,9,9,9,,,,,,,,,,,,,,,,,,,,,,,,,,,1,13.051575023000623,,,,,,,,,,,,,,,,,,,,,,,,,022819_p3,001,2019_Feb_28_1619,body_behavioural,3.0.4,60.159468793980714,
2,"She went into some recap of the last lecture, and Charlie took this as an opportunity to start talking to Alma.",2,1,,,,0,2,2,2,,,,,0,10,10,10,,,,,,,,,,,,,,,,,,,,,,,,,,,1,3.253127769999992,,,,,,,,,,,,,,,,,,,,,,,,,022819_p3,001,2019_Feb_28_1619,body_behavioural,3.0.4,60.159468793980714,
2,"“Okay so I’ve been thinking about your startup idea, and I have talked about it with my fellow investors.",2,2,,,,0,2,2,2,,,,,0,11,11,11,,,,,,,,,,,,,,,,,,,,,,,,,,,1,3.9201565650000703,,,,,,,,,,,,,,,,,,,,,,,,,022819_p3,001,2019_Feb_28_1619,body_behavioural,3.0.4,60.159468793980714,
2,We’d like to invest half of what you originally suggested.,2,2,,,,0,2,2,2,,,,,0,12,12,12,,,,,,,,,,,,,,,,,,,,,,,,,,,1,2.5864982349994534,,,,,,,,,,,,,,,,,,,,,,,,,022819_p3,001,2019_Feb_28_1619,body_behavioural,3.0.4,60.159468793980714,
2,"Rather than $30,000, we start with $15,000.",2,2,,,,0,2,2,2,,,,,0,13,13,13,,,,,,,,,,,,,,,,,,,,,,,,,,,1,2.4868628620024538,,,,,,,,,,,,,,,,,,,,,,,,,022819_p3,001,2019_Feb_28_1619,body_behavioural,3.0.4,60.159468793980714,
2,We would see how the company does and then invest the other half later.” ,2,2,,,,0,2,2,2,,,,,0,14,14,14,,,,,,,,,,,,,,,,,,,,,,,,,,,1,4.22043493199817,,,,,,,,,,,,,,,,,,,,,,,,,022819_p3,001,2019_Feb_28_1619,body_behavioural,3.0.4,60.159468793980714,
2,"Alma, tapping her pen on her notebook, narrowed her eyes and pursed her lips.",2,2,,,,0,2,2,2,,,,,0,15,15,15,,,,,,,,,,,,,,,,,,,,,,,,,,,1,4.253101166999841,,,,,,,,,,,,,,,,,,,,,,,,,022819_p3,001,2019_Feb_28_1619,body_behavioural,3.0.4,60.159468793980714,
2,She turned back to the lecture as she considered this.,2,2,,,,0,2,2,2,,,,,0,16,16,16,,,,,,,,,,,,,,,,,,,,,,,,,,,1,4.886673067001539,,,,,,,,,,,,,,,,,,,,,,,,,022819_p3,001,2019_Feb_28_1619,body_behavioural,3.0.4,60.159468793980714,
2,"The professor was going on: “The senate had conferred upon him the title of Augustus the sacred and revered one, the restorer of traditional values, the city’s new religious leader, the restorer of temples. ",3,2,,,,0,2,2,2,,,,,0,17,17,17,,,,,,,,,,,,,,,,,,,,,,,,,,,9,9.58678815500025,,,,,,,,,,,,,,,,,,,,,,,,,022819_p3,001,2019_Feb_28_1619,body_behavioural,3.0.4,60.159468793980714,
2,"Augustus also sought to beautify Rome, make it into a new Athens, and dispel the criticisms of Rome as disorganized and ugly.”",3,2,,,,0,2,2,2,,,,,0,18,18,18,,,,,,,,,,,,,,,,,,,,,,,,,,,1,6.353530039999896,,,,,,,,,,,,,,,,,,,,,,,,,022819_p3,001,2019_Feb_28_1619,body_behavioural,3.0.4,60.159468793980714,
2,"Alma turned back to Charlie and offered her rebuttal, “I don’t know about that: it’s not going to be possible to implement our ideas effectively unless the project is fully funded. ",3,3,,,,0,2,2,2,,,,,0,19,19,19,,,,,,,,,,,,,,,,,,,,,,,,,,,9,8.453488949999155,,,,,,,,,,,,,,,,,,,,,,,,,022819_p3,001,2019_Feb_28_1619,body_behavioural,3.0.4,60.159468793980714,
2,We would have to find other investors and that would set us back in our timeline. ,3,3,,,,0,2,2,2,,,,,0,20,20,20,,,,,,,,,,,,,,,,,,,,,,,,,,,1,4.369845494999026,,,,,,,,,,,,,,,,,,,,,,,,,022819_p3,001,2019_Feb_28_1619,body_behavioural,3.0.4,60.159468793980714,
2,"Our profit projections assumed we'd be starting relatively soon, not months down the line.” ",3,3,,,,0,2,2,2,,,,,0,21,21,21,,,,,,,,,,,,,,,,,,,,,,,,,,,1,6.420170506997238,,,,,,,,,,,,,,,,,,,,,,,,,022819_p3,001,2019_Feb_28_1619,body_behavioural,3.0.4,60.159468793980714,
2,They whispered back and forth during the whole class in order to work out a compromise. ,3,3,,,,0,2,2,2,,,,,0,22,22,22,,,,,,,,,,,,,,,,,,,,,,,,,,,1,3.601101389998803,,,,,,,,,,,,,,,,,,,,,,,,,022819_p3,001,2019_Feb_28_1619,body_behavioural,3.0.4,60.159468793980714,
2,"Finally, the class ended, and the professor dismissed the students with a reminder that the midterm paper was due on Thursday and that they should email their papers to the TA.",4,3,,,,0,2,2,2,,,,,0,23,23,23,,,,,,,,,,,,,,,,,,,,,,,,,,,9,14.07043909999993,,,,,,,,,,,,,,,,,,,,,,,,,022819_p3,001,2019_Feb_28_1619,body_behavioural,3.0.4,60.159468793980714,
2,"Everyone, except Charlie and Alma, packed up their things and headed out of the lecture hall to get to their next class. ",4,3,,,,0,2,2,2,,,,,0,24,24,24,,,,,,,,,,,,,,,,,,,,,,,,,,,1,3.4033427350004786,,,,,,,,,,,,,,,,,,,,,,,,,022819_p3,001,2019_Feb_28_1619,body_behavioural,3.0.4,60.159468793980714,
2,"“Alright, so we’ll have the $30,000 wired to you by tomorrow,” Charlie said. ",4,4,,,,0,2,2,2,,,,,0,25,25,25,,,,,,,,,,,,,,,,,,,,,,,,,,,1,5.720215760000428,,,,,,,,,,,,,,,,,,,,,,,,,022819_p3,001,2019_Feb_28_1619,body_behavioural,3.0.4,60.159468793980714,
2,"This wasn't ideal for Charlie, but Alma had refused to budge, and his investment group had told him they were willing to pay the full amount if necessary. ",4,4,,,,0,2,2,2,,,,,0,26,26,26,,,,,,,,,,,,,,,,,,,,,,,,,,,1,7.570201394999458,,,,,,,,,,,,,,,,,,,,,,,,,022819_p3,001,2019_Feb_28_1619,body_behavioural,3.0.4,60.159468793980714,
2,"They shook hands, walked out of the now-empty lecture hall, and made plans to sign the official paperwork the next day.",4,4,,,,0,2,2,2,,,,,0,27,27,27,,,,,,,,,,,,,,,,,,,,,,,,,,,1,4.836561436997727,,,,,,,,,,,,,,,,,,,,,,,,,022819_p3,001,2019_Feb_28_1619,body_behavioural,3.0.4,60.159468793980714,
2,,,,,,,0,2,2,2,,,,,,,,,,,,,,,,,,,,,,,,,,,,,,,,,,,,,,,,,,,,,,,,,,,,,,,,,,,,,022819_p3,001,2019_Feb_28_1619,body_behavioural,3.0.4,60.159468793980714,
3,,,,,,,0,3,3,3,0,0,0,0,,,,,,,,,,,,,,,,,,,,,,,,,space,0.9359512980008731,space,0.9363296419978724,space,1.1860635800003365,,,,,,,,,,,,,,,,,,,,,,,,,,,022819_p3,001,2019_Feb_28_1619,body_behavioural,3.0.4,60.159468793980714,
3,,,,,,,0,3,3,3,1,0,1,0,,,,,,,,,,,,,,,,,,,,,,,,,,,,,space,0.8698361030001251,,,,,,,,,,,,,,,,,,,,,,,,,,,022819_p3,001,2019_Feb_28_1619,body_behavioural,3.0.4,60.159468793980714,
3,,,,,,,0,3,3,3,2,0,2,0,,,,,,,,,,,,,,,,,,,,,,,,,,,,,space,0.5840471699993941,,,,,,,,,,,,,,,,,,,,,,,,,,,022819_p3,001,2019_Feb_28_1619,body_behavioural,3.0.4,60.159468793980714,
3,,,,,,,0,3,3,3,3,0,3,0,,,,,,,,,,,,,,,,,,,,,,,,,,,,,space,0.586196745000052,,,,,,,,,,,,,,,,,,,,,,,,,,,022819_p3,001,2019_Feb_28_1619,body_behavioural,3.0.4,60.159468793980714,
3,,,,,,,0,3,3,3,4,0,4,0,,,,,,,,,,,,,,,,,,,,,,,,,,,,,space,0.7697421470002155,,,,,,,,,,,,,,,,,,,,,,,,,,,022819_p3,001,2019_Feb_28_1619,body_behavioural,3.0.4,60.159468793980714,
3,"It didn’t help the situation that Calvin and Jessie were running late to the airport, since Jessie had already been fuming at Calvin and preparing to end things with him.",1,1,,,,0,3,3,3,,,,,0,0,0,0,,,,,,,,,,,,,,,,,,,,,,,,,,,9,12.370720644998073,,,,,,,,,,,,,,,,,,,,,,,,,022819_p3,001,2019_Feb_28_1619,body_behavioural,3.0.4,60.159468793980714,
3,"Upon arriving, they had only 45 minutes until their international flight would depart from Jamaica for the US.",1,1,,,,0,3,3,3,,,,,0,1,1,1,,,,,,,,,,,,,,,,,,,,,,,,,,,1,6.703524325002945,,,,,,,,,,,,,,,,,,,,,,,,,022819_p3,001,2019_Feb_28_1619,body_behavioural,3.0.4,60.159468793980714,
3,It had been a tough vacation for them.,1,1,,,,0,3,3,3,,,,,0,2,2,2,,,,,,,,,,,,,,,,,,,,,,,,,,,1,3.2028453450002417,,,,,,,,,,,,,,,,,,,,,,,,,022819_p3,001,2019_Feb_28_1619,body_behavioural,3.0.4,60.159468793980714,
3,"Jessie had really had it with Calvin’s constant ramblings about the same excruciatingly boring golfing and work stories, which he insisted on repeating to her regardless of how little interest she showed.",1,1,,,,0,3,3,3,,,,,0,3,3,3,,,,,,,,,,,,,,,,,,,,,,,,,,,1,17.103971806998743,,,,,,,,,,,,,,,,,,,,,,,,,022819_p3,001,2019_Feb_28_1619,body_behavioural,3.0.4,60.159468793980714,
3,"Calvin knew that Jessie was upset, but wasn't sure what to do besides attempting to carry on as normal and tell stories that took up the silence. ",1,1,,,,0,3,3,3,,,,,0,4,4,4,,,,,,,,,,,,,,,,,,,,,,,,,,,1,4.586552750002738,,,,,,,,,,,,,,,,,,,,,,,,,022819_p3,001,2019_Feb_28_1619,body_behavioural,3.0.4,60.159468793980714,
3,"The security line was luckily very short, and once the online boarding passes were scanned they were ushered quickly through the metal detector, not having to take off their shoes or remove the liquids from their bags.",2,1,,,,0,3,3,3,,,,,0,5,5,5,,,,,,,,,,,,,,,,,,,,,,,,,,,9,8.017830239998148,,,,,,,,,,,,,,,,,,,,,,,,,022819_p3,001,2019_Feb_28_1619,body_behavioural,3.0.4,60.159468793980714,
3,"“The infrastructure of this airport is really quite poor," said Calvin as they waited for their bags to emerge from the x-ray machine.",2,1,,,,0,3,3,3,,,,,0,6,6,6,,,,,,,,,,,,,,,,,,,,,,,,,,,1,5.270311917000072,,,,,,,,,,,,,,,,,,,,,,,,,022819_p3,001,2019_Feb_28_1619,body_behavioural,3.0.4,60.159468793980714,
3,“I really could've hidden something in my shoes quite easily.” ,2,1,,,,0,3,3,3,,,,,0,7,7,7,,,,,,,,,,,,,,,,,,,,,,,,,,,1,3.169432294998842,,,,,,,,,,,,,,,,,,,,,,,,,022819_p3,001,2019_Feb_28_1619,body_behavioural,3.0.4,60.159468793980714,
3,"Jessie, exasperated at his need to broadcast his every inner thought, scowled at the conveyor belt.",2,1,,,,0,3,3,3,,,,,0,8,8,8,,,,,,,,,,,,,,,,,,,,,,,,,,,1,5.967669419998856,,,,,,,,,,,,,,,,,,,,,,,,,022819_p3,001,2019_Feb_28_1619,body_behavioural,3.0.4,60.159468793980714,
3,"“What?”, he asked.",2,1,,,,0,3,3,3,,,,,0,9,9,9,,,,,,,,,,,,,,,,,,,,,,,,,,,1,0.8200704049995693,,,,,,,,,,,,,,,,,,,,,,,,,022819_p3,001,2019_Feb_28_1619,body_behavioural,3.0.4,60.159468793980714,
3,She balled up her fists and turned to face him.,2,1,,,,0,3,3,3,,,,,0,10,10,10,,,,,,,,,,,,,,,,,,,,,,,,,,,1,2.135577598000964,,,,,,,,,,,,,,,,,,,,,,,,,022819_p3,001,2019_Feb_28_1619,body_behavioural,3.0.4,60.159468793980714,
3,"“Calvin, I really don’t think I can do this anymore.",2,2,,,,0,3,3,3,,,,,0,11,11,11,,,,,,,,,,,,,,,,,,,,,,,,,,,9,6.553538043001026,,,,,,,,,,,,,,,,,,,,,,,,,022819_p3,001,2019_Feb_28_1619,body_behavioural,3.0.4,60.159468793980714,
3,I think it’s best that once we get to the States we part ways for good.” ,2,2,,,,0,3,3,3,,,,,0,12,12,12,,,,,,,,,,,,,,,,,,,,,,,,,,,1,2.619700429997465,,,,,,,,,,,,,,,,,,,,,,,,,022819_p3,001,2019_Feb_28_1619,body_behavioural,3.0.4,60.159468793980714,
3,Calvin said nothing as he grabbed his bag and quickly walked away.,2,2,,,,0,3,3,3,,,,,0,13,13,13,,,,,,,,,,,,,,,,,,,,,,,,,,,1,4.486669640002219,,,,,,,,,,,,,,,,,,,,,,,,,022819_p3,001,2019_Feb_28_1619,body_behavioural,3.0.4,60.159468793980714,
3,"Jessie trailed behind him as they made their way quickly toward their gate, shouting at his back in hopes of getting a response.",3,2,,,,0,3,3,3,,,,,0,14,14,14,,,,,,,,,,,,,,,,,,,,,,,,,,,9,14.103686718000972,,,,,,,,,,,,,,,,,,,,,,,,,022819_p3,001,2019_Feb_28_1619,body_behavioural,3.0.4,60.159468793980714,
3,“So now you have nothing to say?,3,2,,,,0,3,3,3,,,,,0,15,15,15,,,,,,,,,,,,,,,,,,,,,,,,,,,1,1.9860671420028666,,,,,,,,,,,,,,,,,,,,,,,,,022819_p3,001,2019_Feb_28_1619,body_behavioural,3.0.4,60.159468793980714,
3,"Every time we talk, you are just looking for a way to steer the conversation back into your stories.”",3,2,,,,0,3,3,3,,,,,0,16,16,16,,,,,,,,,,,,,,,,,,,,,,,,,,,1,4.335091331002332,,,,,,,,,,,,,,,,,,,,,,,,,022819_p3,001,2019_Feb_28_1619,body_behavioural,3.0.4,60.159468793980714,
3,"Calvin didn't slow his pace, gritting his teeth and staring straight ahead. ",3,2,,,,0,3,3,3,,,,,0,17,17,17,,,,,,,,,,,,,,,,,,,,,,,,,,,1,3.300887965000584,,,,,,,,,,,,,,,,,,,,,,,,,022819_p3,001,2019_Feb_28_1619,body_behavioural,3.0.4,60.159468793980714,
3,He was very frustrated that he had been trying to appease Jessie this whole time and this was how she responded. ,3,2,,,,0,3,3,3,,,,,0,18,18,18,,,,,,,,,,,,,,,,,,,,,,,,,,,1,5.62004721500125,,,,,,,,,,,,,,,,,,,,,,,,,022819_p3,001,2019_Feb_28_1619,body_behavioural,3.0.4,60.159468793980714,
3,The silence was punctuated only by the rapid rhythmic clacking of their suitcase wheels over the tile floor as they continued power-walking through the terminal. ,3,2,,,,0,3,3,3,,,,,0,19,19,19,,,,,,,,,,,,,,,,,,,,,,,,,,,1,8.584081899996818,,,,,,,,,,,,,,,,,,,,,,,,,022819_p3,001,2019_Feb_28_1619,body_behavioural,3.0.4,60.159468793980714,
3,"“Well?” Jessie said, and Calvin finally turned to her.",3,2,,,,0,3,3,3,,,,,0,20,20,20,,,,,,,,,,,,,,,,,,,,,,,,,,,1,3.284139294999477,,,,,,,,,,,,,,,,,,,,,,,,,022819_p3,001,2019_Feb_28_1619,body_behavioural,3.0.4,60.159468793980714,
3,"“Well, Jessie, this makes perfect sense. ",3,3,,,,0,3,3,3,,,,,0,21,21,21,,,,,,,,,,,,,,,,,,,,,,,,,,,1,2.8341375700001663,,,,,,,,,,,,,,,,,,,,,,,,,022819_p3,001,2019_Feb_28_1619,body_behavioural,3.0.4,60.159468793980714,
3,"If you feel this way, then I don’t want to keep boring you, and I agree, let’s part ways once we make it back.",3,3,,,,0,3,3,3,,,,,0,22,22,22,,,,,,,,,,,,,,,,,,,,,,,,,,,1,7.003809229998296,,,,,,,,,,,,,,,,,,,,,,,,,022819_p3,001,2019_Feb_28_1619,body_behavioural,3.0.4,60.159468793980714,
3,You should’ve spoken up about my apparent intolerability before you decided to plan this vacation.”,3,3,,,,0,3,3,3,,,,,0,23,23,23,,,,,,,,,,,,,,,,,,,,,,,,,,,1,3.967556355000852,,,,,,,,,,,,,,,,,,,,,,,,,022819_p3,001,2019_Feb_28_1619,body_behavioural,3.0.4,60.159468793980714,
3,"He was clearly hurt, but thought it was pointless to argue. ",3,3,,,,0,3,3,3,,,,,0,24,24,24,,,,,,,,,,,,,,,,,,,,,,,,,,,1,3.0198962499998743,,,,,,,,,,,,,,,,,,,,,,,,,022819_p3,001,2019_Feb_28_1619,body_behavioural,3.0.4,60.159468793980714,
3,"They finally made it to the gate, just as they heard the final call for passengers boarding their flight.",3,3,,,,0,3,3,3,,,,,0,25,25,25,,,,,,,,,,,,,,,,,,,,,,,,,,,9,3.5531410520015925,,,,,,,,,,,,,,,,,,,,,,,,,022819_p3,001,2019_Feb_28_1619,body_behavioural,3.0.4,60.159468793980714,
3,"They scanned their tickets, and the annoyed flight attendant shooed them onto the jet bridge and then closed the door behind them.",4,3,,,,0,3,3,3,,,,,0,26,26,26,,,,,,,,,,,,,,,,,,,,,,,,,,,1,6.170025172999885,,,,,,,,,,,,,,,,,,,,,,,,,022819_p3,001,2019_Feb_28_1619,body_behavioural,3.0.4,60.159468793980714,
3,"Luckily, they had forgotten to arrange seats next to each other on the flight back.",4,3,,,,0,3,3,3,,,,,0,27,27,27,,,,,,,,,,,,,,,,,,,,,,,,,,,1,3.053545431997918,,,,,,,,,,,,,,,,,,,,,,,,,022819_p3,001,2019_Feb_28_1619,body_behavioural,3.0.4,60.159468793980714,
3,"They both had first-class tickets, but Jessie was headed for seat 1B while Calvin's seat was 4F. ",4,3,,,,0,3,3,3,,,,,0,28,28,28,,,,,,,,,,,,,,,,,,,,,,,,,,,1,7.619803360001242,,,,,,,,,,,,,,,,,,,,,,,,,022819_p3,001,2019_Feb_28_1619,body_behavioural,3.0.4,60.159468793980714,
3,"Before Jessie sat down, she took a deep breath and then awkwardly shook Calvin’s hand, mumbling, “Well, have a nice flight.” ",4,4,,,,0,3,3,3,,,,,0,29,29,29,,,,,,,,,,,,,,,,,,,,,,,,,,,1,11.203671362000023,,,,,,,,,,,,,,,,,,,,,,,,,022819_p3,001,2019_Feb_28_1619,body_behavioural,3.0.4,60.159468793980714,
3,He laughed in disbelief and walked to his window seat three rows back to get ready for takeoff.,4,4,,,,0,3,3,3,,,,,0,30,30,30,,,,,,,,,,,,,,,,,,,,,,,,,,,1,6.436644739998883,,,,,,,,,,,,,,,,,,,,,,,,,022819_p3,001,2019_Feb_28_1619,body_behavioural,3.0.4,60.159468793980714,
3,Both were upset but glad that they would have this flight to mull things over and recenter. ,4,4,,,,0,3,3,3,,,,,0,31,31,31,,,,,,,,,,,,,,,,,,,,,,,,,,,1,5.069968922001863,,,,,,,,,,,,,,,,,,,,,,,,,022819_p3,001,2019_Feb_28_1619,body_behavioural,3.0.4,60.159468793980714,
3,,,,,,,0,3,3,3,,,,,,,,,,,,,,,,,,,,,,,,,,,,,,,,,,,,,,,,,,,,,,,,,,,,,,,,,,,,,022819_p3,001,2019_Feb_28_1619,body_behavioural,3.0.4,60.159468793980714,
4,,,,,,,0,4,4,4,0,0,0,0,,,,,,,,,,,,,,,,,,,,,,,,,space,0.7698897269983718,space,2.603063237002061,space,2.7197136900031182,,,,,,,,,,,,,,,,,,,,,,,,,,,022819_p3,001,2019_Feb_28_1619,body_behavioural,3.0.4,60.159468793980714,
4,"Jeff, hoping that today would be a pivotal day for his new business, had only been waiting inside the doors of the airport for a few minutes when he saw William and eagerly waved him over. ",1,1,,,,0,4,4,4,,,,,0,0,0,0,,,,,,,,,,,,,,,,,,,,,,,,,,,9,11.920483239999157,,,,,,,,,,,,,,,,,,,,,,,,,022819_p3,001,2019_Feb_28_1619,body_behavioural,3.0.4,60.159468793980714,
4,"Jeff, checking his watch, was pleased to see that the two of them had two hours to discuss business before their flights left Boston.",1,1,,,,0,4,4,4,,,,,0,1,1,1,,,,,,,,,,,,,,,,,,,,,,,,,,,1,8.32158955700288,,,,,,,,,,,,,,,,,,,,,,,,,022819_p3,001,2019_Feb_28_1619,body_behavioural,3.0.4,60.159468793980714,
4,The two had met the night before in line for the bathroom at a local bar. ,1,1,,,,0,4,4,4,,,,,0,2,2,2,,,,,,,,,,,,,,,,,,,,,,,,,,,9,3.9199105900006543,,,,,,,,,,,,,,,,,,,,,,,,,022819_p3,001,2019_Feb_28_1619,body_behavioural,3.0.4,60.159468793980714,
4,Jeff had delivered some surprisingly-detailed complaints to William about the wine selection.,1,1,,,,0,4,4,4,,,,,0,3,3,3,,,,,,,,,,,,,,,,,,,,,,,,,,,1,3.8365355850000924,,,,,,,,,,,,,,,,,,,,,,,,,022819_p3,001,2019_Feb_28_1619,body_behavioural,3.0.4,60.159468793980714,
4,They quickly learned about each other that Jeff was a representative for wine vineyards in the Northeast and William was a wine buyer for corporate events.,1,1,,,,0,4,4,4,,,,,0,4,4,4,,,,,,,,,,,,,,,,,,,,,,,,,,,1,9.701488509999763,,,,,,,,,,,,,,,,,,,,,,,,,022819_p3,001,2019_Feb_28_1619,body_behavioural,3.0.4,60.159468793980714,
4,"Since they both had flights out of Boston at the same time, they had agreed to meet at the airport and talk about potentially doing business. ",1,1,,,,0,4,4,4,,,,,0,5,5,5,,,,,,,,,,,,,,,,,,,,,,,,,,,1,7.220287624997582,,,,,,,,,,,,,,,,,,,,,,,,,022819_p3,001,2019_Feb_28_1619,body_behavioural,3.0.4,60.159468793980714,
4,"They headed to security together, pleased to find that the line was not so long, and they chatted a little as they were waiting. ",2,1,,,,0,4,4,4,,,,,0,6,6,6,,,,,,,,,,,,,,,,,,,,,,,,,,,9,5.169911349999893,,,,,,,,,,,,,,,,,,,,,,,,,022819_p3,001,2019_Feb_28_1619,body_behavioural,3.0.4,60.159468793980714,
4,"“It’s crazy that we met last night,” William said, “I am flying out right now to meet my boss, and was worried that I was going to show up empty handed without any local retailer prepared.” ",2,1,,,,0,4,4,4,,,,,0,7,7,7,,,,,,,,,,,,,,,,,,,,,,,,,,,1,6.23667546499928,,,,,,,,,,,,,,,,,,,,,,,,,022819_p3,001,2019_Feb_28_1619,body_behavioural,3.0.4,60.159468793980714,
4,"“I know, what are the chances, right?” Jeff said.",2,1,,,,0,4,4,4,,,,,0,8,8,8,,,,,,,,,,,,,,,,,,,,,,,,,,,1,3.2364948720023676,,,,,,,,,,,,,,,,,,,,,,,,,022819_p3,001,2019_Feb_28_1619,body_behavioural,3.0.4,60.159468793980714,
4,"William laughed and said, “I’m glad our shared complaining can come in handy.",2,1,,,,0,4,4,4,,,,,0,9,9,9,,,,,,,,,,,,,,,,,,,,,,,,,,,1,6.9515395350026665,,,,,,,,,,,,,,,,,,,,,,,,,022819_p3,001,2019_Feb_28_1619,body_behavioural,3.0.4,60.159468793980714,
4,"I know this is fast, but I'd like to get right down to specifics.",2,2,,,,0,4,4,4,,,,,0,10,10,10,,,,,,,,,,,,,,,,,,,,,,,,,,,9,5.41993150000053,,,,,,,,,,,,,,,,,,,,,,,,,022819_p3,001,2019_Feb_28_1619,body_behavioural,3.0.4,60.159468793980714,
4,I'd like to order a couple of sample shipments from you and present them to our corporate buyers.,2,2,,,,0,4,4,4,,,,,0,11,11,11,,,,,,,,,,,,,,,,,,,,,,,,,,,1,6.253083145002165,,,,,,,,,,,,,,,,,,,,,,,,,022819_p3,001,2019_Feb_28_1619,body_behavioural,3.0.4,60.159468793980714,
4,"Typically we expect to get these kinds of samples at a deep discount, at least half-off the label price.",2,2,,,,0,4,4,4,,,,,0,12,12,12,,,,,,,,,,,,,,,,,,,,,,,,,,,1,5.620031873000698,,,,,,,,,,,,,,,,,,,,,,,,,022819_p3,001,2019_Feb_28_1619,body_behavioural,3.0.4,60.159468793980714,
4,"This is nothing, okay, compared to what you will be making if one of these buyers makes a contract.",2,2,,,,0,4,4,4,,,,,0,13,13,13,,,,,,,,,,,,,,,,,,,,,,,,,,,1,5.970299104999867,,,,,,,,,,,,,,,,,,,,,,,,,022819_p3,001,2019_Feb_28_1619,body_behavioural,3.0.4,60.159468793980714,
4,So I propose that you send us $600 worth of wine shipments for a price of $300.”,2,2,,,,0,4,4,4,,,,,0,14,14,14,,,,,,,,,,,,,,,,,,,,,,,,,,,1,4.069765772001119,,,,,,,,,,,,,,,,,,,,,,,,,022819_p3,001,2019_Feb_28_1619,body_behavioural,3.0.4,60.159468793980714,
4,"When it was their turn to go through the metal detector, they took off their shoes and pulled out their laptops.",2,2,,,,0,4,4,4,,,,,0,15,15,15,,,,,,,,,,,,,,,,,,,,,,,,,,,1,7.06784909199996,,,,,,,,,,,,,,,,,,,,,,,,,022819_p3,001,2019_Feb_28_1619,body_behavioural,3.0.4,60.159468793980714,
4,"Jeff mulled over the offer, nodding noncommittally to William's pitch as they proceeded through the metal detector and retrieved their belongings.",2,2,,,,0,4,4,4,,,,,0,16,16,16,,,,,,,,,,,,,,,,,,,,,,,,,,,1,6.134439552999538,,,,,,,,,,,,,,,,,,,,,,,,,022819_p3,001,2019_Feb_28_1619,body_behavioural,3.0.4,60.159468793980714,
4,"They began to walk through the concourse, and William handed some printed spreadsheets to Jeff as they navigated toward their gates at the end of the terminal.",3,2,,,,0,4,4,4,,,,,0,17,17,17,,,,,,,,,,,,,,,,,,,,,,,,,,,1,8.936671502000536,,,,,,,,,,,,,,,,,,,,,,,,,022819_p3,001,2019_Feb_28_1619,body_behavioural,3.0.4,60.159468793980714,
4,"Jeff, weaving through the crowds of travelers, squinted at William's rosy projections of the number of bottles he could be able to purchase in the future.",3,2,,,,0,4,4,4,,,,,0,18,18,18,,,,,,,,,,,,,,,,,,,,,,,,,,,9,9.086481480000657,,,,,,,,,,,,,,,,,,,,,,,,,022819_p3,001,2019_Feb_28_1619,body_behavioural,3.0.4,60.159468793980714,
4,"Finally Jeff said, “I don’t know, we’re not coming from corporate vineyards, so gambling with sample shipments is the kind of risk we can’t necessarily make. ",3,3,,,,0,4,4,4,,,,,0,19,19,19,,,,,,,,,,,,,,,,,,,,,,,,,,,1,15.504744485002448,,,,,,,,,,,,,,,,,,,,,,,,,022819_p3,001,2019_Feb_28_1619,body_behavioural,3.0.4,60.159468793980714,
4,"These corporate purchases would have to be huge and practically guaranteed, to offset the loss from selling sample shipments at this price.”",3,3,,,,0,4,4,4,,,,,0,20,20,20,,,,,,,,,,,,,,,,,,,,,,,,,,,1,9.93697798499852,,,,,,,,,,,,,,,,,,,,,,,,,022819_p3,001,2019_Feb_28_1619,body_behavioural,3.0.4,60.159468793980714,
4,"They walked to the gates very slowly, barely registering the hubbub of the airport since they were so caught up in figuring out this deal before their flights left.",3,3,,,,0,4,4,4,,,,,0,21,21,21,,,,,,,,,,,,,,,,,,,,,,,,,,,1,6.753388692002773,,,,,,,,,,,,,,,,,,,,,,,,,022819_p3,001,2019_Feb_28_1619,body_behavioural,3.0.4,60.159468793980714,
4,"At the end of their long walk, they got to Jeff’s gate first, which had begun boarding passengers.",3,3,,,,0,4,4,4,,,,,0,22,22,22,,,,,,,,,,,,,,,,,,,,,,,,,,,1,4.9369827449991135,,,,,,,,,,,,,,,,,,,,,,,,,022819_p3,001,2019_Feb_28_1619,body_behavioural,3.0.4,60.159468793980714,
4,"In these last minutes, William and Jeff agreed on a compromise rate on the sample shipment, paying $400 for a $600 shipment, and they finalized the deal with a handshake. ",3,4,,,,0,4,4,4,,,,,0,23,23,23,,,,,,,,,,,,,,,,,,,,,,,,,,,9,7.153431103000912,,,,,,,,,,,,,,,,,,,,,,,,,022819_p3,001,2019_Feb_28_1619,body_behavioural,3.0.4,60.159468793980714,
4,"“Well, what a tremendous pleasure to do business with you and to have all this work out,” William said.",3,4,,,,0,4,4,4,,,,,0,24,24,24,,,,,,,,,,,,,,,,,,,,,,,,,,,1,6.02054674199826,,,,,,,,,,,,,,,,,,,,,,,,,022819_p3,001,2019_Feb_28_1619,body_behavioural,3.0.4,60.159468793980714,
4,"Jeff nodded enthusiastically, and responded, “Likewise, this has been great.  ",3,4,,,,0,4,4,4,,,,,0,25,25,25,,,,,,,,,,,,,,,,,,,,,,,,,,,1,4.203338504998101,,,,,,,,,,,,,,,,,,,,,,,,,022819_p3,001,2019_Feb_28_1619,body_behavioural,3.0.4,60.159468793980714,
4,I'll let you get to your gate.,3,4,,,,0,4,4,4,,,,,0,26,26,26,,,,,,,,,,,,,,,,,,,,,,,,,,,1,3.0868716450022475,,,,,,,,,,,,,,,,,,,,,,,,,022819_p3,001,2019_Feb_28_1619,body_behavioural,3.0.4,60.159468793980714,
4,"Once we’re both back on the ground, we can get all the shipments in the books.”",3,4,,,,0,4,4,4,,,,,0,27,27,27,,,,,,,,,,,,,,,,,,,,,,,,,,,1,3.069414672001585,,,,,,,,,,,,,,,,,,,,,,,,,022819_p3,001,2019_Feb_28_1619,body_behavioural,3.0.4,60.159468793980714,
4,They parted with a wave as Jeff scanned his boarding pass at the gate. ,3,4,,,,0,4,4,4,,,,,0,28,28,28,,,,,,,,,,,,,,,,,,,,,,,,,,,1,2.4198773150019406,,,,,,,,,,,,,,,,,,,,,,,,,022819_p3,001,2019_Feb_28_1619,body_behavioural,3.0.4,60.159468793980714,
4,He walked onto the plane and sat down in his aisle seat in the business class section.,4,4,,,,0,4,4,4,,,,,0,29,29,29,,,,,,,,,,,,,,,,,,,,,,,,,,,1,3.6698242370002845,,,,,,,,,,,,,,,,,,,,,,,,,022819_p3,001,2019_Feb_28_1619,body_behavioural,3.0.4,60.159468793980714,
4,He typed out a quick email on his phone letting the rest of his team know the good news. ,4,4,,,,0,4,4,4,,,,,0,30,30,30,,,,,,,,,,,,,,,,,,,,,,,,,,,1,4.0867425149990595,,,,,,,,,,,,,,,,,,,,,,,,,022819_p3,001,2019_Feb_28_1619,body_behavioural,3.0.4,60.159468793980714,
4,"When the flight attendant came by, he ordered a glass of champagne to celebrate.",4,4,,,,0,4,4,4,,,,,0,31,31,31,,,,,,,,,,,,,,,,,,,,,,,,,,,1,3.1194950569988578,,,,,,,,,,,,,,,,,,,,,,,,,022819_p3,001,2019_Feb_28_1619,body_behavioural,3.0.4,60.159468793980714,
4,,,,,,,0,4,4,4,,,,,,,,,,,,,,,,,,,,,,,,,,,,,,,,,,,,,,,,,,,,,,,,,,,,,,,,,,,,,022819_p3,001,2019_Feb_28_1619,body_behavioural,3.0.4,60.159468793980714,
5,,,,,,,0,5,5,5,0,0,0,0,,,,,,,,,,,,,,,,,,,,,,,,,space,0.850717525001528,space,1.086390817003121,space,0.6529737500022748,,,,,,,,,,,,,,,,,,,,,,,,,,,022819_p3,001,2019_Feb_28_1619,body_behavioural,3.0.4,60.159468793980714,
5,,,,,,,0,5,5,5,1,0,1,0,,,,,,,,,,,,,,,,,,,,,,,,,,,,,space,0.7701120419988001,,,,,,,,,,,,,,,,,,,,,,,,,,,022819_p3,001,2019_Feb_28_1619,body_behavioural,3.0.4,60.159468793980714,
5,"Alex was a distracted, sweaty mess as he walked into the grocery store with Chloe; he was hoping that she wouldn't suspect that he was about to propose.",1,1,,,,0,5,5,5,,,,,0,0,0,0,,,,,,,,,,,,,,,,,,,,,,,,,,,9,12.787051935003547,,,,,,,,,,,,,,,,,,,,,,,,,022819_p3,001,2019_Feb_28_1619,body_behavioural,3.0.4,60.159468793980714,
5,"The grocery store was brightly lit; this was one of the nicest grocery stores in Atlanta, and sunlight poured in through the glass walls.",1,1,,,,0,5,5,5,,,,,0,1,1,1,,,,,,,,,,,,,,,,,,,,,,,,,,,9,5.167364753000584,,,,,,,,,,,,,,,,,,,,,,,,,022819_p3,001,2019_Feb_28_1619,body_behavioural,3.0.4,60.159468793980714,
5,"The atmosphere was also bright because tomorrow was Thanksgiving, and most shoppers had carts piled high with turkey, stuffing, and pies.",1,1,,,,0,5,5,5,,,,,0,2,2,2,,,,,,,,,,,,,,,,,,,,,,,,,,,1,7.0365749720003805,,,,,,,,,,,,,,,,,,,,,,,,,022819_p3,001,2019_Feb_28_1619,body_behavioural,3.0.4,60.159468793980714,
5,Alex wanted to propose to Chloe here because he knew she would not suspect it at all. ,1,1,,,,0,5,5,5,,,,,0,3,3,3,,,,,,,,,,,,,,,,,,,,,,,,,,,1,3.1010018319975643,,,,,,,,,,,,,,,,,,,,,,,,,022819_p3,001,2019_Feb_28_1619,body_behavioural,3.0.4,60.159468793980714,
5,"Chloe loved surprises, and Alex loved the look on Chloe’s face when she was surprised. ",1,1,,,,0,5,5,5,,,,,0,4,4,4,,,,,,,,,,,,,,,,,,,,,,,,,,,1,3.0676149600003555,,,,,,,,,,,,,,,,,,,,,,,,,022819_p3,001,2019_Feb_28_1619,body_behavioural,3.0.4,60.159468793980714,
5,"“Alex, we need to get some cranberry sauce, so let’s go there first.” ",2,1,,,,0,5,5,5,,,,,0,5,5,5,,,,,,,,,,,,,,,,,,,,,,,,,,,1,5.036783231997106,,,,,,,,,,,,,,,,,,,,,,,,,022819_p3,001,2019_Feb_28_1619,body_behavioural,3.0.4,60.159468793980714,
5,She led the way to the section of the store that held the canned foods. ,2,1,,,,0,5,5,5,,,,,0,6,6,6,,,,,,,,,,,,,,,,,,,,,,,,,,,9,7.6532064719976916,,,,,,,,,,,,,,,,,,,,,,,,,022819_p3,001,2019_Feb_28_1619,body_behavioural,3.0.4,60.159468793980714,
5,Alex looked like he was going to throw up. ,2,1,,,,0,5,5,5,,,,,0,7,7,7,,,,,,,,,,,,,,,,,,,,,,,,,,,1,8.787044222000986,,,,,,,,,,,,,,,,,,,,,,,,,022819_p3,001,2019_Feb_28_1619,body_behavioural,3.0.4,60.159468793980714,
5,"As they were walking there, Chloe asked him, “Is everything okay, dear?”",2,1,,,,0,5,5,5,,,,,0,8,8,8,,,,,,,,,,,,,,,,,,,,,,,,,,,1,4.219803544998285,,,,,,,,,,,,,,,,,,,,,,,,,022819_p3,001,2019_Feb_28_1619,body_behavioural,3.0.4,60.159468793980714,
5,"“Oh yeah, for sure,” he said, unconvincingly. ",2,1,,,,0,5,5,5,,,,,0,9,9,9,,,,,,,,,,,,,,,,,,,,,,,,,,,1,1.7031378070023493,,,,,,,,,,,,,,,,,,,,,,,,,022819_p3,001,2019_Feb_28_1619,body_behavioural,3.0.4,60.159468793980714,
5,"She chuckled, “Alright, whatever you say.” ",2,1,,,,0,5,5,5,,,,,0,10,10,10,,,,,,,,,,,,,,,,,,,,,,,,,,,1,1.4029327249991184,,,,,,,,,,,,,,,,,,,,,,,,,022819_p3,001,2019_Feb_28_1619,body_behavioural,3.0.4,60.159468793980714,
5,"She was mulling over the different cans of cranberry sauce, and Alex knew she would be a while.",2,1,,,,0,5,5,5,,,,,0,11,11,11,,,,,,,,,,,,,,,,,,,,,,,,,,,1,5.553121617002034,,,,,,,,,,,,,,,,,,,,,,,,,022819_p3,001,2019_Feb_28_1619,body_behavioural,3.0.4,60.159468793980714,
5,He turned his back to her and pulled out the ring.,2,2,,,,0,5,5,5,,,,,0,12,12,12,,,,,,,,,,,,,,,,,,,,,,,,,,,1,2.0532470399994054,,,,,,,,,,,,,,,,,,,,,,,,,022819_p3,001,2019_Feb_28_1619,body_behavioural,3.0.4,60.159468793980714,
5,He had been saving up for this for a while. ,2,2,,,,0,5,5,5,,,,,0,13,13,13,,,,,,,,,,,,,,,,,,,,,,,,,,,1,1.9880961649978417,,,,,,,,,,,,,,,,,,,,,,,,,022819_p3,001,2019_Feb_28_1619,body_behavioural,3.0.4,60.159468793980714,
5,The ring had three large diamonds with smaller ones encircling each one: all of them sparkled in the light streaming in from the windows. ,2,2,,,,0,5,5,5,,,,,0,14,14,14,,,,,,,,,,,,,,,,,,,,,,,,,,,1,5.73646736199953,,,,,,,,,,,,,,,,,,,,,,,,,022819_p3,001,2019_Feb_28_1619,body_behavioural,3.0.4,60.159468793980714,
5,"“Alex?”, Chloe said suspiciously. ",2,2,,,,0,5,5,5,,,,,0,15,15,15,,,,,,,,,,,,,,,,,,,,,,,,,,,1,2.986710918001336,,,,,,,,,,,,,,,,,,,,,,,,,022819_p3,001,2019_Feb_28_1619,body_behavioural,3.0.4,60.159468793980714,
5,He closed the box and whipped around. “Yes?”,2,2,,,,0,5,5,5,,,,,0,16,16,16,,,,,,,,,,,,,,,,,,,,,,,,,,,1,1.4199841849986115,,,,,,,,,,,,,,,,,,,,,,,,,022819_p3,001,2019_Feb_28_1619,body_behavioural,3.0.4,60.159468793980714,
5,“Do we need anything else?”,2,2,,,,0,5,5,5,,,,,0,17,17,17,,,,,,,,,,,,,,,,,,,,,,,,,,,1,2.186340291998931,,,,,,,,,,,,,,,,,,,,,,,,,022819_p3,001,2019_Feb_28_1619,body_behavioural,3.0.4,60.159468793980714,
5,"“Yeah I don’t know, honey.” ",2,2,,,,0,5,5,5,,,,,0,18,18,18,,,,,,,,,,,,,,,,,,,,,,,,,,,1,1.8366192649991717,,,,,,,,,,,,,,,,,,,,,,,,,022819_p3,001,2019_Feb_28_1619,body_behavioural,3.0.4,60.159468793980714,
5,They went to the checkout and waited in a long line.,3,2,,,,0,5,5,5,,,,,0,19,19,19,,,,,,,,,,,,,,,,,,,,,,,,,,,9,3.2865587749984115,,,,,,,,,,,,,,,,,,,,,,,,,022819_p3,001,2019_Feb_28_1619,body_behavioural,3.0.4,60.159468793980714,
5,Alex was staring intensely off into the distance. ,3,2,,,,0,5,5,5,,,,,0,20,20,20,,,,,,,,,,,,,,,,,,,,,,,,,,,1,4.003191300002072,,,,,,,,,,,,,,,,,,,,,,,,,022819_p3,001,2019_Feb_28_1619,body_behavioural,3.0.4,60.159468793980714,
5,Chloe was watching him trying to decide whether he looked scared or confused. ,3,2,,,,0,5,5,5,,,,,0,21,21,21,,,,,,,,,,,,,,,,,,,,,,,,,,,1,2.6866951000010886,,,,,,,,,,,,,,,,,,,,,,,,,022819_p3,001,2019_Feb_28_1619,body_behavioural,3.0.4,60.159468793980714,
5,Alex looked over at their friends who were waiting by the entrance of the grocery store.,3,2,,,,0,5,5,5,,,,,0,22,22,22,,,,,,,,,,,,,,,,,,,,,,,,,,,1,4.5866524369994295,,,,,,,,,,,,,,,,,,,,,,,,,022819_p3,001,2019_Feb_28_1619,body_behavioural,3.0.4,60.159468793980714,
5,They got the message and walked over slowly. ,3,2,,,,0,5,5,5,,,,,0,23,23,23,,,,,,,,,,,,,,,,,,,,,,,,,,,1,1.7872832079992804,,,,,,,,,,,,,,,,,,,,,,,,,022819_p3,001,2019_Feb_28_1619,body_behavioural,3.0.4,60.159468793980714,
5,"“Honey,” he said to get her attention, “Look, Chloe, I love you so much and I want to be with you forever, I can’t imagine a day without you.”",3,2,,,,0,5,5,5,,,,,0,24,24,24,,,,,,,,,,,,,,,,,,,,,,,,,,,1,4.386984305001533,,,,,,,,,,,,,,,,,,,,,,,,,022819_p3,001,2019_Feb_28_1619,body_behavioural,3.0.4,60.159468793980714,
5,"“Awww, Alex, me too.”",3,2,,,,0,5,5,5,,,,,0,25,25,25,,,,,,,,,,,,,,,,,,,,,,,,,,,1,1.5363358069989772,,,,,,,,,,,,,,,,,,,,,,,,,022819_p3,001,2019_Feb_28_1619,body_behavioural,3.0.4,60.159468793980714,
5,"Alex got down on one knee, and Chloe gasped. ",3,3,,,,0,5,5,5,,,,,0,26,26,26,,,,,,,,,,,,,,,,,,,,,,,,,,,1,1.9698936249988037,,,,,,,,,,,,,,,,,,,,,,,,,022819_p3,001,2019_Feb_28_1619,body_behavioural,3.0.4,60.159468793980714,
5,"“I am serious, Chloe. Will you marry me?”",3,3,,,,0,5,5,5,,,,,0,27,27,27,,,,,,,,,,,,,,,,,,,,,,,,,,,1,3.669475857001089,,,,,,,,,,,,,,,,,,,,,,,,,022819_p3,001,2019_Feb_28_1619,body_behavioural,3.0.4,60.159468793980714,
5,"The people in line around them realized what was happening, stepped back, and started taking pictures.",3,3,,,,0,5,5,5,,,,,0,28,28,28,,,,,,,,,,,,,,,,,,,,,,,,,,,1,4.853314905001753,,,,,,,,,,,,,,,,,,,,,,,,,022819_p3,001,2019_Feb_28_1619,body_behavioural,3.0.4,60.159468793980714,
5,Their friends were no longer trying to hide and were videotaping and taking pictures too. ,3,3,,,,0,5,5,5,,,,,0,29,29,29,,,,,,,,,,,,,,,,,,,,,,,,,,,1,3.469484676999855,,,,,,,,,,,,,,,,,,,,,,,,,022819_p3,001,2019_Feb_28_1619,body_behavioural,3.0.4,60.159468793980714,
5,Chloe looked around and laughed. ,3,3,,,,0,5,5,5,,,,,0,30,30,30,,,,,,,,,,,,,,,,,,,,,,,,,,,1,1.4697282450033526,,,,,,,,,,,,,,,,,,,,,,,,,022819_p3,001,2019_Feb_28_1619,body_behavioural,3.0.4,60.159468793980714,
5,"“Yes!” she shouted, and jumped to embrace Alex in a hug. ",3,4,,,,0,5,5,5,,,,,0,31,31,31,,,,,,,,,,,,,,,,,,,,,,,,,,,1,1.8031359630003863,,,,,,,,,,,,,,,,,,,,,,,,,022819_p3,001,2019_Feb_28_1619,body_behavioural,3.0.4,60.159468793980714,
5,Everyone in line clapped and cheered. ,3,4,,,,0,5,5,5,,,,,0,32,32,32,,,,,,,,,,,,,,,,,,,,,,,,,,,1,1.7364273970015347,,,,,,,,,,,,,,,,,,,,,,,,,022819_p3,001,2019_Feb_28_1619,body_behavioural,3.0.4,60.159468793980714,
5,"Alex put the ring on Chloe’s finger, who was nearly spinning in excitement.",3,4,,,,0,5,5,5,,,,,0,33,33,33,,,,,,,,,,,,,,,,,,,,,,,,,,,1,3.868246611997165,,,,,,,,,,,,,,,,,,,,,,,,,022819_p3,001,2019_Feb_28_1619,body_behavioural,3.0.4,60.159468793980714,
5,"“I love it, oh my gosh, it’s so glittery!",3,4,,,,0,5,5,5,,,,,0,34,34,34,,,,,,,,,,,,,,,,,,,,,,,,,,,1,4.2864964269974735,,,,,,,,,,,,,,,,,,,,,,,,,022819_p3,001,2019_Feb_28_1619,body_behavioural,3.0.4,60.159468793980714,
5,Look at this!” she said as she shoved her hand in a stranger’s face.,3,4,,,,0,5,5,5,,,,,0,35,35,35,,,,,,,,,,,,,,,,,,,,,,,,,,,1,1.8007386729987047,,,,,,,,,,,,,,,,,,,,,,,,,022819_p3,001,2019_Feb_28_1619,body_behavioural,3.0.4,60.159468793980714,
5,Her friends came over and hugged them.,3,4,,,,0,5,5,5,,,,,0,36,36,36,,,,,,,,,,,,,,,,,,,,,,,,,,,1,2.436105780001526,,,,,,,,,,,,,,,,,,,,,,,,,022819_p3,001,2019_Feb_28_1619,body_behavioural,3.0.4,60.159468793980714,
5,The other people let them move up to the front of the checkout line. ,3,4,,,,0,5,5,5,,,,,0,37,37,37,,,,,,,,,,,,,,,,,,,,,,,,,,,1,6.486737200000789,,,,,,,,,,,,,,,,,,,,,,,,,022819_p3,001,2019_Feb_28_1619,body_behavioural,3.0.4,60.159468793980714,
5,The cashier congratulated them and scanned their cranberry sauce. ,4,4,,,,0,5,5,5,,,,,0,38,38,38,,,,,,,,,,,,,,,,,,,,,,,,,,,1,10.585928918997524,,,,,,,,,,,,,,,,,,,,,,,,,022819_p3,001,2019_Feb_28_1619,body_behavioural,3.0.4,60.159468793980714,
5,The total came to $4 and Chloe paid in cash while getting distracted and staring at the ring as she pulled out the bills.,4,4,,,,0,5,5,5,,,,,0,39,39,39,,,,,,,,,,,,,,,,,,,,,,,,,,,9,1.0193460849986877,,,,,,,,,,,,,,,,,,,,,,,,,022819_p3,001,2019_Feb_28_1619,body_behavioural,3.0.4,60.159468793980714,
5,"Alex grabbed the cans, and they walked out with their friends bunched around them. ",4,4,,,,0,5,5,5,,,,,0,40,40,40,,,,,,,,,,,,,,,,,,,,,,,,,,,1,4.119952175002254,,,,,,,,,,,,,,,,,,,,,,,,,022819_p3,001,2019_Feb_28_1619,body_behavioural,3.0.4,60.159468793980714,
5,,,,,,,0,5,5,5,,,,,,,,,,,,,,,,,,,,,,,,,,,,,,,,,,,,,,,,,,,,,,,,,,,,,,,,,,,,,022819_p3,001,2019_Feb_28_1619,body_behavioural,3.0.4,60.159468793980714,
6,,,,,,,0,6,6,6,0,0,0,0,,,,,,,,,,,,,,,,,,,,,,,,,space,0.7530743050010642,space,0.5695715399997425,space,0.7862732450012118,,,,,,,,,,,,,,,,,,,,,,,,,,,022819_p3,001,2019_Feb_28_1619,body_behavioural,3.0.4,60.159468793980714,
6,"Maria walked into lecture beside Henry, and she was mentally rehearsing what she should say to break up with him.",1,1,,,,0,6,6,6,,,,,0,0,0,0,,,,,,,,,,,,,,,,,,,,,,,,,,,9,7.020450872001675,,,,,,,,,,,,,,,,,,,,,,,,,022819_p3,001,2019_Feb_28_1619,body_behavioural,3.0.4,60.159468793980714,
6,"She had been putting it off with a growing sense of dread, and now this lecture was the last chance before she had to leave campus. ",1,1,,,,0,6,6,6,,,,,0,1,1,1,,,,,,,,,,,,,,,,,,,,,,,,,,,1,6.520021586999064,,,,,,,,,,,,,,,,,,,,,,,,,022819_p3,001,2019_Feb_28_1619,body_behavioural,3.0.4,60.159468793980714,
6,"The lecture hall was large, with a stage for the lecturer in the front of the room, and tiered seats that stretched up in 15 stacked rows. ",1,1,,,,0,6,6,6,,,,,0,2,2,2,,,,,,,,,,,,,,,,,,,,,,,,,,,1,3.7200577149997116,,,,,,,,,,,,,,,,,,,,,,,,,022819_p3,001,2019_Feb_28_1619,body_behavioural,3.0.4,60.159468793980714,
6,"The clock struck 3 pm, and Maria and Henry slid into neighboring seats near the back of the room.",1,1,,,,0,6,6,6,,,,,0,3,3,3,,,,,,,,,,,,,,,,,,,,,,,,,,,1,3.0697333600001,,,,,,,,,,,,,,,,,,,,,,,,,022819_p3,001,2019_Feb_28_1619,body_behavioural,3.0.4,60.159468793980714,
6,"“Good afternoon, everybody,” said the professor, fiddling to connect his laptop with the projector.",2,1,,,,0,6,6,6,,,,,0,4,4,4,,,,,,,,,,,,,,,,,,,,,,,,,,,1,3.469923389999167,,,,,,,,,,,,,,,,,,,,,,,,,022819_p3,001,2019_Feb_28_1619,body_behavioural,3.0.4,60.159468793980714,
6,“Welcome to week 4 of Intro to Ancient Philosophy. ,2,1,,,,0,6,6,6,,,,,0,5,5,5,,,,,,,,,,,,,,,,,,,,,,,,,,,1,2.9031473399991228,,,,,,,,,,,,,,,,,,,,,,,,,022819_p3,001,2019_Feb_28_1619,body_behavioural,3.0.4,60.159468793980714,
6,Today we are going to continue our lecture on Aristotelian Philosophy.”,2,1,,,,0,6,6,6,,,,,0,6,6,6,,,,,,,,,,,,,,,,,,,,,,,,,,,1,3.6198255620001873,,,,,,,,,,,,,,,,,,,,,,,,,022819_p3,001,2019_Feb_28_1619,body_behavioural,3.0.4,60.159468793980714,
6,Everyone in class pulled out their notebooks and settled in their seats as the slides appeared on the large front screens.,2,1,,,,0,6,6,6,,,,,0,7,7,7,,,,,,,,,,,,,,,,,,,,,,,,,,,1,6.900992105001933,,,,,,,,,,,,,,,,,,,,,,,,,022819_p3,001,2019_Feb_28_1619,body_behavioural,3.0.4,60.159468793980714,
6,"“Henry,” Maria whispered.",2,1,,,,0,6,6,6,,,,,0,8,8,8,,,,,,,,,,,,,,,,,,,,,,,,,,,1,1.4534002679974947,,,,,,,,,,,,,,,,,,,,,,,,,022819_p3,001,2019_Feb_28_1619,body_behavioural,3.0.4,60.159468793980714,
6,"“Hmm?” he replied, distracted.",2,1,,,,0,6,6,6,,,,,0,9,9,9,,,,,,,,,,,,,,,,,,,,,,,,,,,1,1.4007575920004456,,,,,,,,,,,,,,,,,,,,,,,,,022819_p3,001,2019_Feb_28_1619,body_behavioural,3.0.4,60.159468793980714,
6,"“Henry, I need to tell you something really important, and I don’t know when else I’ll have a chance to do it,” she said.",2,1,,,,0,6,6,6,,,,,0,10,10,10,,,,,,,,,,,,,,,,,,,,,,,,,,,9,5.803281849999621,,,,,,,,,,,,,,,,,,,,,,,,,022819_p3,001,2019_Feb_28_1619,body_behavioural,3.0.4,60.159468793980714,
6,"“Okay, what's up?”, he said, tilting his head close to her. ",2,1,,,,0,6,6,6,,,,,0,11,11,11,,,,,,,,,,,,,,,,,,,,,,,,,,,1,2.086076518000482,,,,,,,,,,,,,,,,,,,,,,,,,022819_p3,001,2019_Feb_28_1619,body_behavioural,3.0.4,60.159468793980714,
6," “Henry, I don’t think I can do long distance.",2,2,,,,0,6,6,6,,,,,0,12,12,12,,,,,,,,,,,,,,,,,,,,,,,,,,,1,1.95396466999955,,,,,,,,,,,,,,,,,,,,,,,,,022819_p3,001,2019_Feb_28_1619,body_behavioural,3.0.4,60.159468793980714,
6,"I think what we have here is great, but I think it will be really hard when we are so far apart for such an extended period.",2,2,,,,0,6,6,6,,,,,0,13,13,13,,,,,,,,,,,,,,,,,,,,,,,,,,,9,6.853187425000215,,,,,,,,,,,,,,,,,,,,,,,,,022819_p3,001,2019_Feb_28_1619,body_behavioural,3.0.4,60.159468793980714,
6,"I’m sorry I’m telling you now in lecture, but I'm out of time, and it’s taken me awhile to come to this decision.",2,2,,,,0,6,6,6,,,,,0,14,14,14,,,,,,,,,,,,,,,,,,,,,,,,,,,1,3.770012189997942,,,,,,,,,,,,,,,,,,,,,,,,,022819_p3,001,2019_Feb_28_1619,body_behavioural,3.0.4,60.159468793980714,
6,"I really think this is best, and who knows what will happen when I get back from my study abroad.” ",2,2,,,,0,6,6,6,,,,,0,15,15,15,,,,,,,,,,,,,,,,,,,,,,,,,,,1,4.119871341998078,,,,,,,,,,,,,,,,,,,,,,,,,022819_p3,001,2019_Feb_28_1619,body_behavioural,3.0.4,60.159468793980714,
6,"While Henry tried to think of what to say, he and Maria stared unlistening at the professor as he started the lecture, “First we will talk about Aristotle’s work, The Categories.",3,2,,,,0,6,6,6,,,,,0,16,16,16,,,,,,,,,,,,,,,,,,,,,,,,,,,1,4.819963974998245,,,,,,,,,,,,,,,,,,,,,,,,,022819_p3,001,2019_Feb_28_1619,body_behavioural,3.0.4,60.159468793980714,
6,"This text, as you might have been able to guess, is about the kinds, or categories, of things that there are.",3,2,,,,0,6,6,6,,,,,0,17,17,17,,,,,,,,,,,,,,,,,,,,,,,,,,,1,7.820363275001,,,,,,,,,,,,,,,,,,,,,,,,,022819_p3,001,2019_Feb_28_1619,body_behavioural,3.0.4,60.159468793980714,
6,"In fact, our term category comes from this Aristotelian context.” ",3,2,,,,0,6,6,6,,,,,0,18,18,18,,,,,,,,,,,,,,,,,,,,,,,,,,,1,2.6198623919990496,,,,,,,,,,,,,,,,,,,,,,,,,022819_p3,001,2019_Feb_28_1619,body_behavioural,3.0.4,60.159468793980714,
6,"Henry felt horrible, like the wind had just been knocked out of him.",3,2,,,,0,6,6,6,,,,,0,19,19,19,,,,,,,,,,,,,,,,,,,,,,,,,,,9,4.702870287001133,,,,,,,,,,,,,,,,,,,,,,,,,022819_p3,001,2019_Feb_28_1619,body_behavioural,3.0.4,60.159468793980714,
6,"A few tears started to fall down his cheeks as he whispered back, “Maria, I think we can make it work.",3,3,,,,0,6,6,6,,,,,0,20,20,20,,,,,,,,,,,,,,,,,,,,,,,,,,,1,2.9868060929984495,,,,,,,,,,,,,,,,,,,,,,,,,022819_p3,001,2019_Feb_28_1619,body_behavioural,3.0.4,60.159468793980714,
6,I’ll come visit you.,3,3,,,,0,6,6,6,,,,,0,21,21,21,,,,,,,,,,,,,,,,,,,,,,,,,,,1,1.2363773299985041,,,,,,,,,,,,,,,,,,,,,,,,,022819_p3,001,2019_Feb_28_1619,body_behavioural,3.0.4,60.159468793980714,
6,It will be fine.,3,3,,,,0,6,6,6,,,,,0,22,22,22,,,,,,,,,,,,,,,,,,,,,,,,,,,1,0.7697153900007834,,,,,,,,,,,,,,,,,,,,,,,,,022819_p3,001,2019_Feb_28_1619,body_behavioural,3.0.4,60.159468793980714,
6,I don’t want to break up.”,3,3,,,,0,6,6,6,,,,,0,23,23,23,,,,,,,,,,,,,,,,,,,,,,,,,,,1,1.336130071998923,,,,,,,,,,,,,,,,,,,,,,,,,022819_p3,001,2019_Feb_28_1619,body_behavioural,3.0.4,60.159468793980714,
6,"Maria felt so guilty that she nearly gave in, but forced herself to hold her ground, knowing that this would make things much easier for both of them in the future.",3,3,,,,0,6,6,6,,,,,0,24,24,24,,,,,,,,,,,,,,,,,,,,,,,,,,,1,5.619751254998846,,,,,,,,,,,,,,,,,,,,,,,,,022819_p3,001,2019_Feb_28_1619,body_behavioural,3.0.4,60.159468793980714,
6,"She gave his hand a squeeze but shook her head sadly, before turning back to her laptop and half-heartedly taking notes on the lecture which they sat through in painful silence.",3,3,,,,0,6,6,6,,,,,0,25,25,25,,,,,,,,,,,,,,,,,,,,,,,,,,,1,10.220384658001421,,,,,,,,,,,,,,,,,,,,,,,,,022819_p3,001,2019_Feb_28_1619,body_behavioural,3.0.4,60.159468793980714,
6,"Finally, the professor was wrapping up, “This is what Aristotle means when he says that an animal’s or plant’s form rather than its matter is its nature. ",4,3,,,,0,6,6,6,,,,,0,26,26,26,,,,,,,,,,,,,,,,,,,,,,,,,,,1,4.419898706997628,,,,,,,,,,,,,,,,,,,,,,,,,022819_p3,001,2019_Feb_28_1619,body_behavioural,3.0.4,60.159468793980714,
6,"Alright class, that’s all for today. ",4,3,,,,0,6,6,6,,,,,0,27,27,27,,,,,,,,,,,,,,,,,,,,,,,,,,,1,1.5859420250017138,,,,,,,,,,,,,,,,,,,,,,,,,022819_p3,001,2019_Feb_28_1619,body_behavioural,3.0.4,60.159468793980714,
6,"Remember the final exam is coming up next week on Tuesday on the Pre-Socratics, Plato, and Aristotle, so feel free to come by office hours to discuss if you have the inspiration.",4,3,,,,0,6,6,6,,,,,0,28,28,28,,,,,,,,,,,,,,,,,,,,,,,,,,,1,11.886704479999025,,,,,,,,,,,,,,,,,,,,,,,,,022819_p3,001,2019_Feb_28_1619,body_behavioural,3.0.4,60.159468793980714,
6,"And if anyone is doing the 20 page paper in lieu of the final, that’s due next Tuesday as well.",4,3,,,,0,6,6,6,,,,,0,29,29,29,,,,,,,,,,,,,,,,,,,,,,,,,,,1,2.6197958720003953,,,,,,,,,,,,,,,,,,,,,,,,,022819_p3,001,2019_Feb_28_1619,body_behavioural,3.0.4,60.159468793980714,
6,"Have a good day, folks.” ",4,3,,,,0,6,6,6,,,,,0,30,30,30,,,,,,,,,,,,,,,,,,,,,,,,,,,1,0.9173790300010296,,,,,,,,,,,,,,,,,,,,,,,,,022819_p3,001,2019_Feb_28_1619,body_behavioural,3.0.4,60.159468793980714,
6,"Maria and Henry packed up hurriedly, and slipped quickly out of the class before the rest of the crowd. ",4,3,,,,0,6,6,6,,,,,0,31,31,31,,,,,,,,,,,,,,,,,,,,,,,,,,,9,5.4340459619998,,,,,,,,,,,,,,,,,,,,,,,,,022819_p3,001,2019_Feb_28_1619,body_behavioural,3.0.4,60.159468793980714,
6,"They hugged outside, and both of them were crying. ",4,4,,,,0,6,6,6,,,,,0,32,32,32,,,,,,,,,,,,,,,,,,,,,,,,,,,1,1.5031005919991003,,,,,,,,,,,,,,,,,,,,,,,,,022819_p3,001,2019_Feb_28_1619,body_behavioural,3.0.4,60.159468793980714,
6,"“Maria, I don’t want you to leave.",4,4,,,,0,6,6,6,,,,,0,33,33,33,,,,,,,,,,,,,,,,,,,,,,,,,,,1,1.9007160000001022,,,,,,,,,,,,,,,,,,,,,,,,,022819_p3,001,2019_Feb_28_1619,body_behavioural,3.0.4,60.159468793980714,
6,I don’t want this to end. ,4,4,,,,0,6,6,6,,,,,0,34,34,34,,,,,,,,,,,,,,,,,,,,,,,,,,,1,1.219902959997853,,,,,,,,,,,,,,,,,,,,,,,,,022819_p3,001,2019_Feb_28_1619,body_behavioural,3.0.4,60.159468793980714,
6,"But if this is what you think is best, I can’t make it otherwise.” ",4,4,,,,0,6,6,6,,,,,0,35,35,35,,,,,,,,,,,,,,,,,,,,,,,,,,,1,2.6363417120010126,,,,,,,,,,,,,,,,,,,,,,,,,022819_p3,001,2019_Feb_28_1619,body_behavioural,3.0.4,60.159468793980714,
6,"They hugged one last time, and Maria ran off to get her things from her dorm.",4,4,,,,0,6,6,6,,,,,0,36,36,36,,,,,,,,,,,,,,,,,,,,,,,,,,,1,2.0532015499993577,,,,,,,,,,,,,,,,,,,,,,,,,022819_p3,001,2019_Feb_28_1619,body_behavioural,3.0.4,60.159468793980714,
6,Henry sadly watched her go. ,4,4,,,,0,6,6,6,,,,,0,37,37,37,,,,,,,,,,,,,,,,,,,,,,,,,,,1,1.584234613001172,,,,,,,,,,,,,,,,,,,,,,,,,022819_p3,001,2019_Feb_28_1619,body_behavioural,3.0.4,60.159468793980714,
6,,,,,,,0,6,6,6,,,,,,,,,,,,,,,,,,,,,,,,,,,,,,,,,,,,,,,,,,,,,,,,,,,,,,,,,,,,,022819_p3,001,2019_Feb_28_1619,body_behavioural,3.0.4,60.159468793980714,
7,,,,,,,0,7,7,7,0,0,0,0,,,,,,,,,,,,,,,,,,,,,,,,,space,1.2196846469996672,space,0.5698894720007956,space,0.6696372450023773,,,,,,,,,,,,,,,,,,,,,,,,,,,022819_p3,001,2019_Feb_28_1619,body_behavioural,3.0.4,60.159468793980714,
7,"Alvira and Senna walked into the restaurant hand in sweaty hand with quite different expectations: Senna was going to propose tonight, and Alvira had no idea.",1,1,None,None,,0,7,7,7,,,,,0,0,0,0,,,,,,,,,,,,,,,,,,,,,,,,,,,9,8.82047094200243,,,,,,,,,,,,,,,,,,,,,,,,,022819_p3,001,2019_Feb_28_1619,body_behavioural,3.0.4,60.159468793980714,
7,"He took a deep breath, trying to calm his nerves as worst case scenarios ran through his mind. ",1,1,None,None,,0,7,7,7,,,,,0,1,1,1,,,,,,,,,,,,,,,,,,,,,,,,,,,1,3.6843970400004764,,,,,,,,,,,,,,,,,,,,,,,,,022819_p3,001,2019_Feb_28_1619,body_behavioural,3.0.4,60.159468793980714,
7,The entrance of the restaurant was dazzling; chandeliers spread their warm light onto the delicate place settings of all the tables filled with guests dressed to the nines. ,1,1,None,None,,0,7,7,7,,,,,0,2,2,2,,,,,,,,,,,,,,,,,,,,,,,,,,,1,5.102841972002352,,,,,,,,,,,,,,,,,,,,,,,,,022819_p3,001,2019_Feb_28_1619,body_behavioural,3.0.4,60.159468793980714,
7,"Through the floor-to-ceiling arched windows of the back wall, they saw the sun setting onto the Pacific ocean.",1,1,None,None,,0,7,7,7,,,,,0,3,3,3,,,,,,,,,,,,,,,,,,,,,,,,,,,1,7.203361902000324,,,,,,,,,,,,,,,,,,,,,,,,,022819_p3,001,2019_Feb_28_1619,body_behavioural,3.0.4,60.159468793980714,
7,"This was surely one of the best restaurants on the west coast, situated right on the beach.",1,1,None,None,,0,7,7,7,,,,,0,4,4,4,,,,,,,,,,,,,,,,,,,,,,,,,,,1,7.819819629999984,,,,,,,,,,,,,,,,,,,,,,,,,022819_p3,001,2019_Feb_28_1619,body_behavioural,3.0.4,60.159468793980714,
7,"Senna gave his name to the host, who quickly located their reservation with an almost comically wide customer-service smile.",1,1,7.0,None,,0,7,7,7,,,,,0,5,5,5,,,,,,,,,,,,,,,,,,,,,,,,,,,1,3.986541127000237,,,,,,,,,,,,,,,,,,,,,,,,,022819_p3,001,2019_Feb_28_1619,body_behavioural,3.0.4,60.159468793980714,
7,He led them to a table right by the window.,2,1,None,None,,0,7,7,7,,,,,0,6,6,6,,,,,,,,,,,,,,,,,,,,,,,,,,,1,3.1342872550012544,,,,,,,,,,,,,,,,,,,,,,,,,022819_p3,001,2019_Feb_28_1619,body_behavioural,3.0.4,60.159468793980714,
7,"He brought out some very small menus, with a short list of the celebrity chef's carefully selected daily dishes written in a loopy, cursive font unadorned by any mention of prices.",2,1,None,9.0,,0,7,7,7,,,,,0,7,7,7,,,,,,,,,,,,,,,,,,,,,,,,,,,1,4.569976392998797,,,,,,,,,,,,,,,,,,,,,,,,,022819_p3,001,2019_Feb_28_1619,body_behavioural,3.0.4,60.159468793980714,
7,Senna slipped off to the bathroom to check to make sure the ring was in order.,2,2,None,None,,0,7,7,7,,,,,0,8,8,8,,,,,,,,,,,,,,,,,,,,,,,,,,,1,6.253421704997891,,,,,,,,,,,,,,,,,,,,,,,,,022819_p3,001,2019_Feb_28_1619,body_behavioural,3.0.4,60.159468793980714,
7,"The ring contained a canary diamond that had been in his grandmother’s wedding ring, and it was a brilliant stone that was accentuated by the small white diamonds encircling it.",2,2,None,None,,0,7,7,7,,,,,0,9,9,9,,,,,,,,,,,,,,,,,,,,,,,,,,,9,13.337235170001804,,,,,,,,,,,,,,,,,,,,,,,,,022819_p3,001,2019_Feb_28_1619,body_behavioural,3.0.4,60.159468793980714,
7,"He walked back to the table after handing the small, velvet box to a waiter at the front podium.",2,2,6.0,None,,0,7,7,7,,,,,0,10,10,10,,,,,,,,,,,,,,,,,,,,,,,,,,,1,2.6697182200005045,,,,,,,,,,,,,,,,,,,,,,,,,022819_p3,001,2019_Feb_28_1619,body_behavioural,3.0.4,60.159468793980714,
7,He came back just as their waiter was approaching the table to get their order.,3,2,None,None,,0,7,7,7,,,,,0,11,11,11,,,,,,,,,,,,,,,,,,,,,,,,,,,1,3.886537901998963,,,,,,,,,,,,,,,,,,,,,,,,,022819_p3,001,2019_Feb_28_1619,body_behavioural,3.0.4,60.159468793980714,
7,"Senna ordered the oysters with garlic-parmesan sauce, and Alvira ordered the sauteed sea scallops with caramelized apples. ",3,2,None,None,,0,7,7,7,,,,,0,12,12,12,,,,,,,,,,,,,,,,,,,,,,,,,,,1,2.886344359998475,,,,,,,,,,,,,,,,,,,,,,,,,022819_p3,001,2019_Feb_28_1619,body_behavioural,3.0.4,60.159468793980714,
7,"“Excellent choices,” the waiter said with a subsequent brisk spin away from the table.",3,2,None,None,,0,7,7,7,,,,,0,13,13,13,,,,,,,,,,,,,,,,,,,,,,,,,,,1,2.5698212399984186,,,,,,,,,,,,,,,,,,,,,,,,,022819_p3,001,2019_Feb_28_1619,body_behavioural,3.0.4,60.159468793980714,
7,"“What a beautiful place, Senna. ",3,2,None,None,,0,7,7,7,,,,,0,14,14,14,,,,,,,,,,,,,,,,,,,,,,,,,,,1,0.9528102619988204,,,,,,,,,,,,,,,,,,,,,,,,,022819_p3,001,2019_Feb_28_1619,body_behavioural,3.0.4,60.159468793980714,
7,"Really this is too much just to celebrate the first tomatoes I grew in the garden, like, this is absurd,” Alvira said.",3,2,None,None,,0,7,7,7,,,,,0,15,15,15,,,,,,,,,,,,,,,,,,,,,,,,,,,1,6.2370261719988775,,,,,,,,,,,,,,,,,,,,,,,,,022819_p3,001,2019_Feb_28_1619,body_behavioural,3.0.4,60.159468793980714,
7,"Senna laughed and said, “No, those were really the best tomatoes I’ve ever had. ",3,2,None,None,,0,7,7,7,,,,,0,16,16,16,,,,,,,,,,,,,,,,,,,,,,,,,,,1,5.236778666996543,,,,,,,,,,,,,,,,,,,,,,,,,022819_p3,001,2019_Feb_28_1619,body_behavioural,3.0.4,60.159468793980714,
7,We had to celebrate.” ,3,2,None,None,,0,7,7,7,,,,,0,17,17,17,,,,,,,,,,,,,,,,,,,,,,,,,,,1,1.1526887049985817,,,,,,,,,,,,,,,,,,,,,,,,,022819_p3,001,2019_Feb_28_1619,body_behavioural,3.0.4,60.159468793980714,
7,"They talked and laughed as the sun sank below the horizon, and the glow from the ocean was replaced by the glow from the chandeliers.",3,2,8.0,None,,0,7,7,7,,,,,0,18,18,18,,,,,,,,,,,,,,,,,,,,,,,,,,,1,3.3365373950000503,,,,,,,,,,,,,,,,,,,,,,,,,022819_p3,001,2019_Feb_28_1619,body_behavioural,3.0.4,60.159468793980714,
7,"The waiter eventually returned with their meals, and everything was even more delicious than they had expected, especially the oysters, which Senna said tasted like the ocean. ",4,2,None,None,,0,7,7,7,,,,,0,19,19,19,,,,,,,,,,,,,,,,,,,,,,,,,,,1,4.419696054999804,,,,,,,,,,,,,,,,,,,,,,,,,022819_p3,001,2019_Feb_28_1619,body_behavioural,3.0.4,60.159468793980714,
7,Then he paused and looked at Alvira meaningfully. ,4,2,None,None,,0,7,7,7,,,,,0,20,20,20,,,,,,,,,,,,,,,,,,,,,,,,,,,1,2.2531564500022796,,,,,,,,,,,,,,,,,,,,,,,,,022819_p3,001,2019_Feb_28_1619,body_behavioural,3.0.4,60.159468793980714,
7, “It’s really been the best three years of my life with you.,4,2,None,None,,0,7,7,7,,,,,0,21,21,21,,,,,,,,,,,,,,,,,,,,,,,,,,,1,1.6366031800025667,,,,,,,,,,,,,,,,,,,,,,,,,022819_p3,001,2019_Feb_28_1619,body_behavioural,3.0.4,60.159468793980714,
7,"I couldn’t imagine it any other way, and I don’t want to.",4,2,None,None,,0,7,7,7,,,,,0,22,22,22,,,,,,,,,,,,,,,,,,,,,,,,,,,1,1.7865511370000604,,,,,,,,,,,,,,,,,,,,,,,,,022819_p3,001,2019_Feb_28_1619,body_behavioural,3.0.4,60.159468793980714,
7,"I really want to spend the rest of my years eating garden tomatoes, whatever it is, with you.” ",4,2,None,None,,0,7,7,7,,,,,0,23,23,23,,,,,,,,,,,,,,,,,,,,,,,,,,,1,4.051133670000127,,,,,,,,,,,,,,,,,,,,,,,,,022819_p3,001,2019_Feb_28_1619,body_behavioural,3.0.4,60.159468793980714,
7,"Alvira smiled, “I want the same with you too, Senna.” ",4,2,None,17.0,,0,7,7,7,,,,,0,24,24,24,,,,,,,,,,,,,,,,,,,,,,,,,,,1,3.6531894800027658,,,,,,,,,,,,,,,,,,,,,,,,,022819_p3,001,2019_Feb_28_1619,body_behavioural,3.0.4,60.159468793980714,
7,"Senna nodded at the waiter who had been watching attentively, and he quickly strode over to place a small, elegant cake topped with the ring in front of Alvira. ",4,3,None,None,,0,7,7,7,,,,,0,25,25,25,,,,,,,,,,,,,,,,,,,,,,,,,,,9,7.170181247001892,,,,,,,,,,,,,,,,,,,,,,,,,022819_p3,001,2019_Feb_28_1619,body_behavioural,3.0.4,60.159468793980714,
7,Her eyes widened in shock when she realized what she was looking at.,4,3,None,None,,0,7,7,7,,,,,0,26,26,26,,,,,,,,,,,,,,,,,,,,,,,,,,,1,2.4367586949992983,,,,,,,,,,,,,,,,,,,,,,,,,022819_p3,001,2019_Feb_28_1619,body_behavioural,3.0.4,60.159468793980714,
7,"“Alvira, will you marry me? ",4,3,None,None,,0,7,7,7,,,,,0,27,27,27,,,,,,,,,,,,,,,,,,,,,,,,,,,1,1.1862795849992835,,,,,,,,,,,,,,,,,,,,,,,,,022819_p3,001,2019_Feb_28_1619,body_behavioural,3.0.4,60.159468793980714,
7,"I love you, and I will never stop loving you.” ",4,3,None,None,,0,7,7,7,,,,,0,28,28,28,,,,,,,,,,,,,,,,,,,,,,,,,,,1,1.5530114920002234,,,,,,,,,,,,,,,,,,,,,,,,,022819_p3,001,2019_Feb_28_1619,body_behavioural,3.0.4,60.159468793980714,
7,Alvira started to cry.,4,3,None,None,,0,7,7,7,,,,,0,29,29,29,,,,,,,,,,,,,,,,,,,,,,,,,,,1,1.0668517320009414,,,,,,,,,,,,,,,,,,,,,,,,,022819_p3,001,2019_Feb_28_1619,body_behavioural,3.0.4,60.159468793980714,
7,"The room became silent, and everyone turned to their table. ",4,3,None,5.0,,0,7,7,7,,,,,0,30,30,30,,,,,,,,,,,,,,,,,,,,,,,,,,,1,2.652999974998238,,,,,,,,,,,,,,,,,,,,,,,,,022819_p3,001,2019_Feb_28_1619,body_behavioural,3.0.4,60.159468793980714,
7,"“Yes, of course, yes!” she shouted as she wiped away tears.",4,4,None,None,,0,7,7,7,,,,,0,31,31,31,,,,,,,,,,,,,,,,,,,,,,,,,,,1,3.1366437899996527,,,,,,,,,,,,,,,,,,,,,,,,,022819_p3,001,2019_Feb_28_1619,body_behavioural,3.0.4,60.159468793980714,
7,The neighboring tables exploded in applause.,4,4,None,None,,0,7,7,7,,,,,0,32,32,32,,,,,,,,,,,,,,,,,,,,,,,,,,,1,2.0030616219992226,,,,,,,,,,,,,,,,,,,,,,,,,022819_p3,001,2019_Feb_28_1619,body_behavioural,3.0.4,60.159468793980714,
7,The waiter returned with a bottle of champagne and popped it. ,4,4,None,None,,0,7,7,7,,,,,0,33,33,33,,,,,,,,,,,,,,,,,,,,,,,,,,,1,2.3192710250004893,,,,,,,,,,,,,,,,,,,,,,,,,022819_p3,001,2019_Feb_28_1619,body_behavioural,3.0.4,60.159468793980714,
7,"All of this went unnoticed by Senna and Alvira as they looked into each others’ eyes, and he slipped the ring onto her finger. ",4,4,None,None,,0,7,7,7,,,,,0,34,34,34,,,,,,,,,,,,,,,,,,,,,,,,,,,1,4.453383411997493,,,,,,,,,,,,,,,,,,,,,,,,,022819_p3,001,2019_Feb_28_1619,body_behavioural,3.0.4,60.159468793980714,
7,"She held up her hand to admire it, and her glittering tears of joy matched the shine from her ring.   
",4,4,17.0,5.0,,0,7,7,7,,,,,0,35,35,35,,,,,,,,,,,,,,,,,,,,,,,,,,,1,4.753057202000491,,,,,,,,,,,,,,,,,,,,,,,,,022819_p3,001,2019_Feb_28_1619,body_behavioural,3.0.4,60.159468793980714,
7,,,,,,,0,7,7,7,,,,,,,,,,,,,,,,,,,,,,,,,,,,,,,,,,,,,,,,,,,,,,,,,,,,,,,,,,,,,022819_p3,001,2019_Feb_28_1619,body_behavioural,3.0.4,60.159468793980714,
,,,,,,,,,,,,,,,,,,,,,,,,,,,,,,,,,,,,,,,,,,,,,,,1721.7419617820015,space,1.3196793550014263,,,,,,,,,,,,,,,,,,,,,,022819_p3,001,2019_Feb_28_1619,body_behavioural,3.0.4,60.159468793980714,
,,,,,,The next task in the experiment is to recall each story to the best of your ability.,,,,,,,,,,,,,0,0,0,0,,,,,,,,,,,,,,,,,,,,,,,,,,,,space,3.8700174469995545,,,,,,,,,,,,,,,,,,,,022819_p3,001,2019_Feb_28_1619,body_behavioural,3.0.4,60.159468793980714,
,,,,,,"You will be presented with the story title, names, the images, and a blank text box for each story.",,,,,,,,,,,,,0,1,1,1,,,,,,,,,,,,,,,,,,,,,,,,,,,,space,17.071048680001695,,,,,,,,,,,,,,,,,,,,022819_p3,001,2019_Feb_28_1619,body_behavioural,3.0.4,60.159468793980714,
,,,,,,Describe the story with as many details as you can remember in the space provided. ,,,,,,,,,,,,,0,2,2,2,,,,,,,,,,,,,,,,,,,,,,,,,,,,space,2.703092097002809,,,,,,,,,,,,,,,,,,,,022819_p3,001,2019_Feb_28_1619,body_behavioural,3.0.4,60.159468793980714,
,,,,,,"When you are finished recalling one story, to move onto the next one hit ‘return’. ",,,,,,,,,,,,,0,3,3,3,,,,,,,,,,,,,,,,,,,,,,,,,,,,space,5.369955602000118,,,,,,,,,,,,,,,,,,,,022819_p3,001,2019_Feb_28_1619,body_behavioural,3.0.4,60.159468793980714,
,,,,,,There is a 5 minute time limit to make your response. ,,,,,,,,,,,,,0,4,4,4,,,,,,,,,,,,,,,,,,,,,,,,,,,,space,2.886143366999022,,,,,,,,,,,,,,,,,,,,022819_p3,001,2019_Feb_28_1619,body_behavioural,3.0.4,60.159468793980714,
0,,,,,,,,,,,,,,,,,,,,,,,0,0,0,0,,,,,,,,,,,,,,,,,,,,,,,,,,space,4.853364347000024,Teresa walks into a resteraunt but isn't paying attention so she hits the glass door on her way in. james had noticed her and found her amusing. a person gives them a place near each other. they recieve menus. one of them orders eggs with milk and the other panckakes. they don't enjoy the food very much. the pancakes were salty. but they did enjoy each other's company and james asked teresa to go to a concert with him later. they exchanged numbers and he had to leave because he had work. when teresa was leaving she almost hit the door again and they had a good laugh.,,,,,,,,,,,,,,,,,022819_p3,001,2019_Feb_28_1619,body_behavioural,3.0.4,60.159468793980714,
1,,,,,,,,,,,,,,,,,,,,,,,0,1,1,1,,,,,,,,,,,,,,,,,,,,,,,,,,space,1.0867476250023174,Simon and carina met at a grocery store. simon noticed and approached her. they spoke to each other making some jokes about meat. they were going to check out their food and they were upset to see the line was short because they wanted to spend more time together. simon offers to pay for both their items. it was a total of $120. he asks her if she has been to the city. she says she doesn't go often so he offers to take her around harvard for dinner and to see the beautiful campus. she agrees and they go their seperate ways. simon calls their encounter in the grocery store their first kinda date.,,,,,,,,,,,,,,,,,022819_p3,001,2019_Feb_28_1619,body_behavioural,3.0.4,60.159468793980714,
2,,,,,,,,,,,,,,,,,,,,,,,0,2,2,2,,,,,,,,,,,,,,,,,,,,,,,,,,space,0.6700079920010467,Charlie had been thinking about alma's proposal. he spoke about it to his investment team and they have agreed to invest in it. he sees her in lecture and cant wait to tell her. they sit next to eachother and discuss it as the lecture goes on. the lecture was about augutus and history of rome. simon tells alma that his investment group agreed to invest $15000 which is half of the total. alma thinks it through and insists that the full amount is invested. eventually simon agrees  and the lecture ends with the professor announcing a midterm due thursday.,,,,,,,,,,,,,,,,,022819_p3,001,2019_Feb_28_1619,body_behavioural,3.0.4,60.159468793980714,
3,,,,,,,,,,,,,,,,,,,,,,,0,3,3,3,,,,,,,,,,,,,,,,,,,,,,,,,,space,0.7007619469986821,"Calvin and jessie were in vacation in jamaica and they were returning to the united states. they enter the airport. they are both feeling fed up with each other. calvin is trying to speak and tell stories in an attempt to please her. but, jessie gets frustrated. the line for check in was short. when they get through security they dont have to take their shoes off. calvin makes a comment about how he could have hid anything in his shoe and got away with it. jessie feels angry and decides to tell him they their relationship is not working and that when they return to the united states they should go their seperate ways. calvin doesn't reply at first but when she insists he says that if thats what she wants then thats what they will do. he was obviously hurt but didnt want to argue. when they got to the gate they were rushed inside and they were in first class but not in seats next to each other. jessie was in 1b and calvin was 3 rows behind her. jessie shook his hand and told him to have a safe flight then went to her seat.",,,,,,,,,,,,,,,,,022819_p3,001,2019_Feb_28_1619,body_behavioural,3.0.4,60.159468793980714,
4,,,,,,,,,,,,,,,,,,,,,,,0,4,4,4,,,,,,,,,,,,,,,,,,,,,,,,,,space,0.76951894299782,William and jeff had met accidently the night before their flight. they were happy to meet each other because william needed to return with someone for retail and finding jeff was a great thing for him. they began discussing the situation as they walked through security and toward the gate at the airport. william suggested that jeff give him $600 worth of supplies for $300 and says that it will be worth it because of the amount of money he will be making in the end. jeff thinks it through and hesitates. they finally agree that jeff will give william $600 of supplies for $400. they came up with a compromise and went their seperate ways ,,,,,,,,,,,,,,,,,022819_p3,001,2019_Feb_28_1619,body_behavioural,3.0.4,60.159468793980714,
5,,,,,,,,,,,,,,,,,,,,,,,0,5,5,5,,,,,,,,,,,,,,,,,,,,,,,,,,space,0.7195845729984285,Alex wanted to propose to chloe at a resteraunt. they enter the really nice resteraunt. it had a greta feel and aesthetic. they are seated by the waiter with a large smile. they recieve a menu and order oysters. they really enjoy their food. after they're done alex says some sweet words and the waiter comes with a cake that has a nice ring on top of it. alex was really nervous about proposing but chloe says yes and cries. the people in the resteraunt witness this and cheer. they leave the resteraunt and hug. alex told chloe they were there to celebrate her growing her first tomato but he really wanted to just propose. ,,,,,,,,,,,,,,,,,022819_p3,001,2019_Feb_28_1619,body_behavioural,3.0.4,60.159468793980714,
6,,,,,,,,,,,,,,,,,,,,,,,0,6,6,6,,,,,,,,,,,,,,,,,,,,,,,,,,space,0.6033270500010985,Maria and henry were a couple. they had class and walked into lecture. maria was feeling very conflicted about the relationship. she felt like she couldn't do it anymore. she tells henry that she needs to end it because she doesnt think she can do long distance and it will be for the best. henry tears up and tells her that they can make it. maria almost gives in but she stands firm. henry eventually accepts this and says that if its for the best then he cant do anything. they cry and hug after the lecture of aristotle ends. they had an assignment due tuesday. ,,,,,,,,,,,,,,,,,022819_p3,001,2019_Feb_28_1619,body_behavioural,3.0.4,60.159468793980714,
7,,,,,,,,,,,,,,,,,,,,,,,0,7,7,7,,,,,,,,,,,,,,,,,,,,,,,,,,space,0.5697555170008854,Senna and alvira were a couple. senna wanted to propose to alvira. he told her that they are going to a resteraunt to celebrate her growing her first tomato. senna and alvira walk into the beautiful resteraunt. its described very nicely. they are seated and are given menus by a waiter who is smiling pretty hard. they order and really enjoy the food. senna proposes and alvira says yes. she cries and the rest of the customers witness it happening. a cake with a nice ring is place on the table and they have their moment. ,,,,,,,,,,,,,,,,,022819_p3,001,2019_Feb_28_1619,body_behavioural,3.0.4,60.159468793980714,
,,,,,,,,,,,,,,,,,,,,,,,,,,,,,,,,,,,,,,,,,,,,,,,,,,,,,,,3378.5867395120003,space,0.6526917699993646,,,,,,,,,,,,,,022819_p3,001,2019_Feb_28_1619,body_behavioural,3.0.4,60.159468793980714,
,,,,,,The next part of the task is to answer 8 questions about each story.,,,,,,,,,,,,,,,,,,,,,0,0,0,0,,,,,,,,,,,,,,,,,,,,,,,,,,,,space,3.1865334370013443,,,,,,,,,,,,022819_p3,001,2019_Feb_28_1619,body_behavioural,3.0.4,60.159468793980714,
,,,,,,Some of the questions are not related to the perspective you were asked to assume.,,,,,,,,,,,,,,,,,,,,,0,1,1,1,,,,,,,,,,,,,,,,,,,,,,,,,,,,space,11.553991310000129,,,,,,,,,,,,022819_p3,001,2019_Feb_28_1619,body_behavioural,3.0.4,60.159468793980714,
,,,,,,"We realize that we did not tell you to think of these questions during the story, but do your best to answer them.",,,,,,,,,,,,,,,,,,,,,0,2,2,2,,,,,,,,,,,,,,,,,,,,,,,,,,,,space,6.669922871999006,,,,,,,,,,,,022819_p3,001,2019_Feb_28_1619,body_behavioural,3.0.4,60.159468793980714,
,,,,,,"When you have finished typing your answer, hit ‘return’ to submit your answer and move onto the next question. ",,,,,,,,,,,,,,,,,,,,,0,3,3,3,,,,,,,,,,,,,,,,,,,,,,,,,,,,space,5.33675403199959,,,,,,,,,,,,022819_p3,001,2019_Feb_28_1619,body_behavioural,3.0.4,60.159468793980714,
0,,,,,,,,,,,,,,,,,,,,,,,,,,,,,,,0,0,0,0,,,,,,,,,,,,,,,,,,,,They didn't like the food. the pancakes were salty ,,,,,,space,1.003690806999657,James noticed teresa first because she wasnt paying attention and hit the glass door of the resteraunt on her way in ,non-primed first,They are seated near each other at the resteraunt. teresa makes a comment about scorpions that bit her in her trip to egypt the previous summer,James proposes to go on an actual date. he asks her to join him at a concert that night,James leaves first because he has work,I dont entirely remember but it was alright,Teresa ordered an omlet and milk and james had pancakes,Teresa ordered an omlet and milk and james had pancakes,They didn't like the food. the pancakes were salty ,022819_p3,001,2019_Feb_28_1619,body_behavioural,3.0.4,60.159468793980714,
1,,,,,,,,,,,,,,,,,,,,,,,,,,,,,,,0,1,1,1,,,,,,,,,,,,,,,,,,,,Simon offered to pay for them both. the total was $120 ,,,,,,space,0.8006754029993317,Simon notices carina first at the grocery store,primed first,Carina makes a joke about meat and simon plays along ,Simon proposes and he offers to take her to dinner near the beautiful harvard campus,Carina leaves first ,It wasnt crowded. many aisles ,I dont remember ,"The check out line was really short, simon wished it was longer so he can talk to carina for longer",Simon offered to pay for them both. the total was $120 ,022819_p3,001,2019_Feb_28_1619,body_behavioural,3.0.4,60.159468793980714,
2,,,,,,,,,,,,,,,,,,,,,,,,,,,,,,,0,2,2,2,,,,,,,,,,,,,,,,,,,,Charlie agreed to invest in full ,,,,,,space,1.100823576998664,"Big, i dont remember ",primed first,"The class was discussing augustus, maybe history class",Augustus became the ruler of rome and restored it to greatness,Thursday ,Web development,Charlies group wanted to invest half of the money aksed by almas group which was $15000 of the $30000. alma did not agree and in the end charlie agreed to pay in full,Alma did not agree with the proposal,Charlie agreed to invest in full ,022819_p3,001,2019_Feb_28_1619,body_behavioural,3.0.4,60.159468793980714,
,,,,,,,,,,,,,,,,,,,,,,,,,,,,,,,,,,,,,,,,,,,,,,,,,,,,,,Jessie is upset and frustrated ,,,,,,space,0.6363215230012429,40 mins ,primed first,They dont have to do much. didnt have to take off their shoes,They are upset and angry from a recent break up ,They sit in first class. jessie in 1b and calvin three rows behind,Jessie is upset and frustrated ,,,,,,,,,,
