count,storyText,locationEvent,socialEvent,story,locationEventSize,socialEventSize,socialAnswer,locationAnswer,instructText,trials.thisRepN,trials.thisTrialN,trials.thisN,trials.thisIndex,trials_7.thisRepN,trials_7.thisTrialN,trials_7.thisN,trials_7.thisIndex,trials_2.thisRepN,trials_2.thisTrialN,trials_2.thisN,trials_2.thisIndex,trials_5.thisRepN,trials_5.thisTrialN,trials_5.thisN,trials_5.thisIndex,trials_6.thisRepN,trials_6.thisTrialN,trials_6.thisN,trials_6.thisIndex,trials_8.thisRepN,trials_8.thisTrialN,trials_8.thisN,trials_8.thisIndex,order of stories,order of perspectives,participant 2 order - stories,participant 2 order  - schemas types,key_resp_8.keys,key_resp_8.rt,key_resp_5.keys,key_resp_5.rt,key_resp_7.keys,key_resp_7.rt,story_presses.keys,story_presses.rt,recall time,key_resp_12.keys,key_resp_12.rt,key_resp_3.keys,key_resp_3.rt,key_resp_11.keys,key_resp_11.rt,recall,question1_answer,order of question,question2_answer,question3_answer,question4_answer,question5_answer,question6_answer,question7_answer,question8_answer,questions time,key_resp_13.keys,key_resp_13.rt,participant,session,date,expName,psychopyVersion,frameRate,
0,,,,,,,,,,0,0,0,0,0,0,0,0,,,,,,,,,,,,,,,,,[23 41 21 43 32 34 12 14 13 11 22 42 24 33 44 31],"['Location' 'Location' 'Social' 'Social' 'Location' 'Social' 'Social'
 'Location' 'Social' 'Location' 'Location' 'Social' 'Social' 'Location'
 'Location' 'Social']",[13 11 22 42 24 33 44 31],"['Social' 'Location' 'Location' 'Social' 'Social' 'Location' 'Location'
 'Social']",space,14.556695937004406,space,3.4862588550022338,space,3.1027612920006504,,,,,,,,,,,,,,,,,,,,,,,050119_p1,001,2019_May_01_1231,body_behavioural_mayedit,3.0.4,59.95978137723138,
0,,,,,,,,,,0,0,0,0,1,0,1,0,,,,,,,,,,,,,,,,,,,,,,,,,space,0.9362714549934026,,,,,,,,,,,,,,,,,,,,,,,050119_p1,001,2019_May_01_1231,body_behavioural_mayedit,3.0.4,59.95978137723138,
0,,,,,,,,,,0,0,0,0,2,0,2,0,,,,,,,,,,,,,,,,,,,,,,,,,space,2.4698888499988243,,,,,,,,,,,,,,,,,,,,,,,050119_p1,001,2019_May_01_1231,body_behavioural_mayedit,3.0.4,59.95978137723138,
0,,,,,,,,,,0,0,0,0,3,0,3,0,,,,,,,,,,,,,,,,,,,,,,,,,space,2.1197802100068657,,,,,,,,,,,,,,,,,,,,,,,050119_p1,001,2019_May_01_1231,body_behavioural_mayedit,3.0.4,59.95978137723138,
0,,,,,,,,,,0,0,0,0,4,0,4,0,,,,,,,,,,,,,,,,,,,,,,,,,space,0.6028864450054243,,,,,,,,,,,,,,,,,,,,,,,050119_p1,001,2019_May_01_1231,body_behavioural_mayedit,3.0.4,59.95978137723138,
0,,,,,,,,,,0,0,0,0,5,0,5,0,,,,,,,,,,,,,,,,,,,,,,,,,space,0.7696569450054085,,,,,,,,,,,,,,,,,,,,,,,050119_p1,001,2019_May_01_1231,body_behavioural_mayedit,3.0.4,59.95978137723138,
0,"Alex was a distracted, sweaty mess as he walked into the grocery store with Chloe; he was hoping that she wouldn't suspect that he was about to propose.",1.0,1.0,23.0,,,,,,0,0,0,0,,,,,0,0,0,0,,,,,,,,,,,,,,,,,,,,,,,9,22.65546918999462,,,,,,,,,,,,,,,,,,,,,050119_p1,001,2019_May_01_1231,body_behavioural_mayedit,3.0.4,59.95978137723138,
0,The grocery store was brightly lit with singing pouring in through glass walls at the front of the store.,1.0,1.0,None,,,,,,0,0,0,0,,,,,0,1,1,1,,,,,,,,,,,,,,,,,,,,,,,1,6.352977825008566,,,,,,,,,,,,,,,,,,,,,050119_p1,001,2019_May_01_1231,body_behavioural_mayedit,3.0.4,59.95978137723138,
0,Also at the front of the store were large posters advertising thanksgiving promotions.,1.0,1.0,None,,,,,,0,0,0,0,,,,,0,2,2,2,,,,,,,,,,,,,,,,,,,,,,,9,5.786823817994446,,,,,,,,,,,,,,,,,,,,,050119_p1,001,2019_May_01_1231,body_behavioural_mayedit,3.0.4,59.95978137723138,
0,"The atmosphere was also buzzing because tomorrow was Thanksgiving, and most shoppers had carts piled high with turkey, stuffing, and pies.",1.0,1.0,None,,,,,,0,0,0,0,,,,,0,3,3,3,,,,,,,,,,,,,,,,,,,,,,,1,3.5857961360015906,,,,,,,,,,,,,,,,,,,,,050119_p1,001,2019_May_01_1231,body_behavioural_mayedit,3.0.4,59.95978137723138,
0,Alex wanted to propose to Chloe here because he knew she would not suspect it at all. ,1.0,1.0,None,,,,,,0,0,0,0,,,,,0,4,4,4,,,,,,,,,,,,,,,,,,,,,,,9,9.470198739989428,,,,,,,,,,,,,,,,,,,,,050119_p1,001,2019_May_01_1231,body_behavioural_mayedit,3.0.4,59.95978137723138,
0,"After 23 months of dating, Alex know one of the things Chloe loved most was surprises. ",1.0,1.0,None,,,,,,0,0,0,0,,,,,0,5,5,5,,,,,,,,,,,,,,,,,,,,,,,9,3.770095730011235,,,,,,,,,,,,,,,,,,,,,050119_p1,001,2019_May_01_1231,body_behavioural_mayedit,3.0.4,59.95978137723138,
0,She led the way to the section of the store that held the canned foods. ,2.0,1.0,None,,,,,,0,0,0,0,,,,,0,6,6,6,,,,,,,,,,,,,,,,,,,,,,,1,13.187132435006788,,,,,,,,,,,,,,,,,,,,,050119_p1,001,2019_May_01_1231,body_behavioural_mayedit,3.0.4,59.95978137723138,
0,"“Alex, we need to get some cranberry sauce, so we’re going there first.” ",2.0,1.0,None,,,,,,0,0,0,0,,,,,0,7,7,7,,,,,,,,,,,,,,,,,,,,,,,1,2.7859178819926456,,,,,,,,,,,,,,,,,,,,,050119_p1,001,2019_May_01_1231,body_behavioural_mayedit,3.0.4,59.95978137723138,
0,"Alex was jittery and as they were walking there, Chloe asked him, “Is everything okay, dear?”",2.0,1.0,None,,,,,,0,0,0,0,,,,,0,8,8,8,,,,,,,,,,,,,,,,,,,,,,,1,12.60358823700517,,,,,,,,,,,,,,,,,,,,,050119_p1,001,2019_May_01_1231,body_behavioural_mayedit,3.0.4,59.95978137723138,
0,"“Oh yeah, for sure,” he said, unconvincingly. ",2.0,1.0,None,,,,,,0,0,0,0,,,,,0,9,9,9,,,,,,,,,,,,,,,,,,,,,,,1,1.5008520699921064,,,,,,,,,,,,,,,,,,,,,050119_p1,001,2019_May_01_1231,body_behavioural_mayedit,3.0.4,59.95978137723138,
0,"She chuckled, “Alright, whatever you say.” ",2.0,1.0,None,,,,,,0,0,0,0,,,,,0,10,10,10,,,,,,,,,,,,,,,,,,,,,,,1,1.4864575599931413,,,,,,,,,,,,,,,,,,,,,050119_p1,001,2019_May_01_1231,body_behavioural_mayedit,3.0.4,59.95978137723138,
0,"She had already picked out a can of pumpkin puree, vinegar, and she was now mulling over the different cans of cranberry sauce, and Alex knew she would be a while.",2.0,1.0,None,,,,,,0,0,0,0,,,,,0,11,11,11,,,,,,,,,,,,,,,,,,,,,,,1,4.5362559119967045,,,,,,,,,,,,,,,,,,,,,050119_p1,001,2019_May_01_1231,body_behavioural_mayedit,3.0.4,59.95978137723138,
0,He turned his back to her and pulled out the ring.,2.0,2.0,None,,,,,,0,0,0,0,,,,,0,12,12,12,,,,,,,,,,,,,,,,,,,,,,,1,2.303322202002164,,,,,,,,,,,,,,,,,,,,,050119_p1,001,2019_May_01_1231,body_behavioural_mayedit,3.0.4,59.95978137723138,
0,The ring had one white diamond on a thin band that sparkled in the light. ,2.0,2.0,None,,,,,,0,0,0,0,,,,,0,13,13,13,,,,,,,,,,,,,,,,,,,,,,,1,4.869725329990615,,,,,,,,,,,,,,,,,,,,,050119_p1,001,2019_May_01_1231,body_behavioural_mayedit,3.0.4,59.95978137723138,
0,"“Alex?”, Chloe said suspiciously with the chosen can of cranberry sauce in her hand. ",2.0,2.0,None,,,,,,0,0,0,0,,,,,0,14,14,14,,,,,,,,,,,,,,,,,,,,,,,1,4.736751037999056,,,,,,,,,,,,,,,,,,,,,050119_p1,001,2019_May_01_1231,body_behavioural_mayedit,3.0.4,59.95978137723138,
0,He closed the box and whipped around. “Yes?”,2.0,2.0,None,,,,,,0,0,0,0,,,,,0,15,15,15,,,,,,,,,,,,,,,,,,,,,,,1,2.3866549219965236,,,,,,,,,,,,,,,,,,,,,050119_p1,001,2019_May_01_1231,body_behavioural_mayedit,3.0.4,59.95978137723138,
0,“Do we need anything else?”,2.0,2.0,None,,,,,,0,0,0,0,,,,,0,16,16,16,,,,,,,,,,,,,,,,,,,,,,,1,11.301448694997816,,,,,,,,,,,,,,,,,,,,,050119_p1,001,2019_May_01_1231,body_behavioural_mayedit,3.0.4,59.95978137723138,
0,"“Yeah I don’t know, honey.” ",2.0,2.0,None,,,,,,0,0,0,0,,,,,0,17,17,17,,,,,,,,,,,,,,,,,,,,,,,1,2.069865680008661,,,,,,,,,,,,,,,,,,,,,050119_p1,001,2019_May_01_1231,body_behavioural_mayedit,3.0.4,59.95978137723138,
0,They went to the checkout where there were 5 aisles open and they stepped in line for station 3. ,3.0,2.0,None,,,,,,0,0,0,0,,,,,0,18,18,18,,,,,,,,,,,,,,,,,,,,,,,9,19.287715020007454,,,,,,,,,,,,,,,,,,,,,050119_p1,001,2019_May_01_1231,body_behavioural_mayedit,3.0.4,59.95978137723138,
0,Alex was staring intensely off into the distance for most of the time and fidgeting with his wallet. ,3.0,2.0,None,,,,,,0,0,0,0,,,,,0,19,19,19,,,,,,,,,,,,,,,,,,,,,,,1,4.803383377002319,,,,,,,,,,,,,,,,,,,,,050119_p1,001,2019_May_01_1231,body_behavioural_mayedit,3.0.4,59.95978137723138,
0,"Chloe watched him trying to decide whether he looked scared or confused, and shrugged, pulling out her phone since she figured he’d talk about whatever was on his mind when he was ready. ",3.0,2.0,None,,,,,,0,0,0,0,,,,,0,20,20,20,,,,,,,,,,,,,,,,,,,,,,,1,3.2699212949955836,,,,,,,,,,,,,,,,,,,,,050119_p1,001,2019_May_01_1231,body_behavioural_mayedit,3.0.4,59.95978137723138,
0,Alex looked over at their friends who were waiting by the entrance of the grocery store.,3.0,2.0,None,,,,,,0,0,0,0,,,,,0,21,21,21,,,,,,,,,,,,,,,,,,,,,,,9,0.052940324996598065,,,,,,,,,,,,,,,,,,,,,050119_p1,001,2019_May_01_1231,body_behavioural_mayedit,3.0.4,59.95978137723138,
0,They got the message and walked over slowly. ,3.0,2.0,None,,,,,,0,0,0,0,,,,,0,22,22,22,,,,,,,,,,,,,,,,,,,,,,,1,0.03633756500494201,,,,,,,,,,,,,,,,,,,,,050119_p1,001,2019_May_01_1231,body_behavioural_mayedit,3.0.4,59.95978137723138,
0,"“Honey,” he said to get her attention, “Look, Chloe, I love you so much and I want to be with you forever, I can’t imagine a day without you.”",3.0,2.0,None,,,,,,0,0,0,0,,,,,0,23,23,23,,,,,,,,,,,,,,,,,,,,,,,9,0.03384485800052062,,,,,,,,,,,,,,,,,,,,,050119_p1,001,2019_May_01_1231,body_behavioural_mayedit,3.0.4,59.95978137723138,
0,"“Awww, Alex, me too.”",3.0,2.0,None,,,,,,0,0,0,0,,,,,0,24,24,24,,,,,,,,,,,,,,,,,,,,,,,1,0.08643472999392543,,,,,,,,,,,,,,,,,,,,,050119_p1,001,2019_May_01_1231,body_behavioural_mayedit,3.0.4,59.95978137723138,
0,"Alex got down on one knee, and Chloe gasped. ",3.0,3.0,None,,,,,,0,0,0,0,,,,,0,25,25,25,,,,,,,,,,,,,,,,,,,,,,,1,0.13411487499251962,,,,,,,,,,,,,,,,,,,,,050119_p1,001,2019_May_01_1231,body_behavioural_mayedit,3.0.4,59.95978137723138,
0,"The ring was in the crevice of his wallet, and he opened it.",None,None,None,,,,,,0,0,0,0,,,,,0,26,26,26,,,,,,,,,,,,,,,,,,,,,,,1,0.10314125999866519,,,,,,,,,,,,,,,,,,,,,050119_p1,001,2019_May_01_1231,body_behavioural_mayedit,3.0.4,59.95978137723138,
0,"“I am serious, Chloe. Will you marry me?”",3.0,3.0,None,,,,,,0,0,0,0,,,,,0,27,27,27,,,,,,,,,,,,,,,,,,,,,,,9,0.020169082010397688,,,,,,,,,,,,,,,,,,,,,050119_p1,001,2019_May_01_1231,body_behavioural_mayedit,3.0.4,59.95978137723138,
0,"The people in line around them realized what was happening, stepped back, and started taking pictures.",3.0,3.0,None,,,,,,0,0,0,0,,,,,0,28,28,28,,,,,,,,,,,,,,,,,,,,,,,1,0.019085281994193792,,,,,,,,,,,,,,,,,,,,,050119_p1,001,2019_May_01_1231,body_behavioural_mayedit,3.0.4,59.95978137723138,
0,Their friends were no longer trying to hide and were videotaping and taking pictures too. ,3.0,3.0,None,,,,,,0,0,0,0,,,,,0,29,29,29,,,,,,,,,,,,,,,,,,,,,,,9,0.01745403699169401,,,,,,,,,,,,,,,,,,,,,050119_p1,001,2019_May_01_1231,body_behavioural_mayedit,3.0.4,59.95978137723138,
0,Chloe looked around and laughed. ,3.0,3.0,None,,,,,,0,0,0,0,,,,,0,30,30,30,,,,,,,,,,,,,,,,,,,,,,,1,0.03340463500353508,,,,,,,,,,,,,,,,,,,,,050119_p1,001,2019_May_01_1231,body_behavioural_mayedit,3.0.4,59.95978137723138,
0,"“Yes!” she shouted, and jumped to embrace Alex in a hug. ",3.0,4.0,None,,,,,,0,0,0,0,,,,,0,31,31,31,,,,,,,,,,,,,,,,,,,,,,,9,0.020242352009518072,,,,,,,,,,,,,,,,,,,,,050119_p1,001,2019_May_01_1231,body_behavioural_mayedit,3.0.4,59.95978137723138,
0,Everyone in line clapped and cheered. ,3.0,4.0,None,,,,,,0,0,0,0,,,,,0,32,32,32,,,,,,,,,,,,,,,,,,,,,,,1,0.05052597000030801,,,,,,,,,,,,,,,,,,,,,050119_p1,001,2019_May_01_1231,body_behavioural_mayedit,3.0.4,59.95978137723138,
0,"Alex put the ring on Chloe’s finger, who was nearly spinning in excitement.",3.0,4.0,None,,,,,,0,0,0,0,,,,,0,33,33,33,,,,,,,,,,,,,,,,,,,,,,,9,0.019949651992646977,,,,,,,,,,,,,,,,,,,,,050119_p1,001,2019_May_01_1231,body_behavioural_mayedit,3.0.4,59.95978137723138,
0,"“I love it, oh my gosh, it’s so glittery!",3.0,4.0,None,,,,,,0,0,0,0,,,,,0,34,34,34,,,,,,,,,,,,,,,,,,,,,,,1,0.03671152499737218,,,,,,,,,,,,,,,,,,,,,050119_p1,001,2019_May_01_1231,body_behavioural_mayedit,3.0.4,59.95978137723138,
0,Look at this!” she said as she shoved her hand in a stranger’s face.,3.0,4.0,None,,,,,,0,0,0,0,,,,,0,35,35,35,,,,,,,,,,,,,,,,,,,,,,,9,0.020752940006786957,,,,,,,,,,,,,,,,,,,,,050119_p1,001,2019_May_01_1231,body_behavioural_mayedit,3.0.4,59.95978137723138,
0,Her friends came over and hugged them.,3.0,4.0,None,,,,,,0,0,0,0,,,,,0,36,36,36,,,,,,,,,,,,,,,,,,,,,,,1,0.036458179994951934,,,,,,,,,,,,,,,,,,,,,050119_p1,001,2019_May_01_1231,body_behavioural_mayedit,3.0.4,59.95978137723138,
0,The other people let them move up to the front of the checkout line. ,3.0,4.0,None,,,,,,0,0,0,0,,,,,0,37,37,37,,,,,,,,,,,,,,,,,,,,,,,9,0.019576200007577427,,,,,,,,,,,,,,,,,,,,,050119_p1,001,2019_May_01_1231,body_behavioural_mayedit,3.0.4,59.95978137723138,
0,Chloe immediately texted her mom a picture of her hand. ,3.0,4.0,None,,,,,,0,0,0,0,,,,,0,38,38,38,,,,,,,,,,,,,,,,,,,,,,,1,0.036618313009967096,,,,,,,,,,,,,,,,,,,,,050119_p1,001,2019_May_01_1231,body_behavioural_mayedit,3.0.4,59.95978137723138,
0,The cashier congratulated them and scanned their cranberry sauce. ,4.0,4.0,None,,,,,,0,0,0,0,,,,,0,39,39,39,,,,,,,,,,,,,,,,,,,,,,,9,0.020140715001616627,,,,,,,,,,,,,,,,,,,,,050119_p1,001,2019_May_01_1231,body_behavioural_mayedit,3.0.4,59.95978137723138,
0,The total came to $14 and Alex paid in cash while Chloe greeted their friends.,4.0,4.0,None,,,,,,0,0,0,0,,,,,0,40,40,40,,,,,,,,,,,,,,,,,,,,,,,1,0.05312078198767267,,,,,,,,,,,,,,,,,,,,,050119_p1,001,2019_May_01_1231,body_behavioural_mayedit,3.0.4,59.95978137723138,
0,"Alex grabbed the bags, and they all walked out together working out where they’d go to celebrate.  ",4.0,4.0,None,,,,,,0,0,0,0,,,,,0,41,41,41,,,,,,,,,,,,,,,,,,,,,,,9,0.0036785100091947243,,,,,,,,,,,,,,,,,,,,,050119_p1,001,2019_May_01_1231,body_behavioural_mayedit,3.0.4,59.95978137723138,
0,,,,,,,,,,0,0,0,0,,,,,,,,,,,,,,,,,,,,,,,,,,,,,,,,,,,,,,,,,,,,,,,,,,,,,050119_p1,001,2019_May_01_1231,body_behavioural_mayedit,3.0.4,59.95978137723138,
1,,,,,,,,,,0,1,1,1,0,0,0,0,,,,,,,,,,,,,,,,,,,,,space,1.7030352699948708,space,2.853294996995828,space,1.1196690569922794,,,,,,,,,,,,,,,,,,,,,,,050119_p1,001,2019_May_01_1231,body_behavioural_mayedit,3.0.4,59.95978137723138,
1,"James noticed Teresa immediately as she walked into the restaurant - or, more accurately as she attempted to walk into the restaurant. ",1,1,41.0,,,,,,0,1,1,1,,,,,0,0,0,0,,,,,,,,,,,,,,,,,,,,,,,1,6.420310998000787,,,,,,,,,,,,,,,,,,,,,050119_p1,001,2019_May_01_1231,body_behavioural_mayedit,3.0.4,59.95978137723138,
1,"She was typing intently on her phone and ran straight into the restaurant’s clear, glass door with an echoing thud. ",1,1,None,,,,,,0,1,1,1,,,,,0,1,1,1,,,,,,,,,,,,,,,,,,,,,,,1,3.602794432998053,,,,,,,,,,,,,,,,,,,,,050119_p1,001,2019_May_01_1231,body_behavioural_mayedit,3.0.4,59.95978137723138,
1,Everyone waiting around the cash register turned to see if she was okay.,1,1,None,,,,,,0,1,1,1,,,,,0,2,2,2,,,,,,,,,,,,,,,,,,,,,,,9,1.1031685069901869,,,,,,,,,,,,,,,,,,,,,050119_p1,001,2019_May_01_1231,body_behavioural_mayedit,3.0.4,59.95978137723138,
1,Teresa rubbed her head.,1,1,None,,,,,,0,1,1,1,,,,,0,3,3,3,,,,,,,,,,,,,,,,,,,,,,,1,1.253374364998308,,,,,,,,,,,,,,,,,,,,,050119_p1,001,2019_May_01_1231,body_behavioural_mayedit,3.0.4,59.95978137723138,
1,"While being both confused and unembarrassed, she looked mostly indignant that the door had been in her way. ",1,1,None,,,,,,0,1,1,1,,,,,0,4,4,4,,,,,,,,,,,,,,,,,,,,,,,9,1.7180732949927915,,,,,,,,,,,,,,,,,,,,,050119_p1,001,2019_May_01_1231,body_behavioural_mayedit,3.0.4,59.95978137723138,
1,"James found this quite charming and stole a couple glances at her, peeking up from the newspaper he was holding, until she noticed and wrinkled her eyebrows at him in suspicion. ",1,1,None,,,,,,0,1,1,1,,,,,0,5,5,5,,,,,,,,,,,,,,,,,,,,,,,1,0.6346580980025465,,,,,,,,,,,,,,,,,,,,,050119_p1,001,2019_May_01_1231,body_behavioural_mayedit,3.0.4,59.95978137723138,
1,James and Teresa had both chosen the least busy time to try out Atlanta’s newest sushi restaurant.  ,1,1,None,,,,,,0,1,1,1,,,,,0,6,6,6,,,,,,,,,,,,,,,,,,,,,,,1,0.15262891000020318,,,,,,,,,,,,,,,,,,,,,050119_p1,001,2019_May_01_1231,body_behavioural_mayedit,3.0.4,59.95978137723138,
1,It was notable for both the food and but also for the decor: inside it looked like a forest. ,1,1,None,,,,,,0,1,1,1,,,,,0,7,7,7,,,,,,,,,,,,,,,,,,,,,,,9,0.16937227800372057,,,,,,,,,,,,,,,,,,,,,050119_p1,001,2019_May_01_1231,body_behavioural_mayedit,3.0.4,59.95978137723138,
1,"There were pine wood countertops and chairs, plants all along the sides of the walls, and branch-looking structures hanging from the ceilings. ",1,1,None,,,,,,0,1,1,1,,,,,0,8,8,8,,,,,,,,,,,,,,,,,,,,,,,1,0.05305864699766971,,,,,,,,,,,,,,,,,,,,,050119_p1,001,2019_May_01_1231,body_behavioural_mayedit,3.0.4,59.95978137723138,
1,The waiter saw that James and Teresa were both alone and motioned to both of them. ,1,1,None,,,,,,0,1,1,1,,,,,0,9,9,9,,,,,,,,,,,,,,,,,,,,,,,9,0.003765169996768236,,,,,,,,,,,,,,,,,,,,,050119_p1,001,2019_May_01_1231,body_behavioural_mayedit,3.0.4,59.95978137723138,
1,“Right this way.,2,1,None,,,,,,0,1,1,1,,,,,0,10,10,10,,,,,,,,,,,,,,,,,,,,,,,1,0.06979859799321275,,,,,,,,,,,,,,,,,,,,,050119_p1,001,2019_May_01_1231,body_behavioural_mayedit,3.0.4,59.95978137723138,
1,You two don't mind sitting at the counter?” ,2,1,None,,,,,,0,1,1,1,,,,,0,11,11,11,,,,,,,,,,,,,,,,,,,,,,,1,0.11958267498994246,,,,,,,,,,,,,,,,,,,,,050119_p1,001,2019_May_01_1231,body_behavioural_mayedit,3.0.4,59.95978137723138,
1,They sat a seat apart from each other on the split tree trunk that served as a bench.,2,1,None,,,,,,0,1,1,1,,,,,0,12,12,12,,,,,,,,,,,,,,,,,,,,,,,1,0.11730128800263628,,,,,,,,,,,,,,,,,,,,,050119_p1,001,2019_May_01_1231,body_behavioural_mayedit,3.0.4,59.95978137723138,
1,"The waitress behind the counter gave them bright neon menus that were filled with entrees in Japanese with small, English translations under them. ",2,1,None,,,,,,0,1,1,1,,,,,0,13,13,13,,,,,,,,,,,,,,,,,,,,,,,1,0.10331087700615171,,,,,,,,,,,,,,,,,,,,,050119_p1,001,2019_May_01_1231,body_behavioural_mayedit,3.0.4,59.95978137723138,
1,"Teresa quickly glanced through it, then pulled out a book and started reading it while James played with the salt and pepper shakers as he tried to think of an excuse to talk to Teresa.",2,1,None,,,,,,0,1,1,1,,,,,0,14,14,14,,,,,,,,,,,,,,,,,,,,,,,1,0.05292120999365579,,,,,,,,,,,,,,,,,,,,,050119_p1,001,2019_May_01_1231,body_behavioural_mayedit,3.0.4,59.95978137723138,
1,"James eventually turned to her and asked, “Is your forehead alright?”",2,2,None,,,,,,0,1,1,1,,,,,0,15,15,15,,,,,,,,,,,,,,,,,,,,,,,9,0.0030314699979498982,,,,,,,,,,,,,,,,,,,,,050119_p1,001,2019_May_01_1231,body_behavioural_mayedit,3.0.4,59.95978137723138,
1,She put down her book and gave him a smirk.,2,2,None,,,,,,0,1,1,1,,,,,0,16,16,16,,,,,,,,,,,,,,,,,,,,,,,9,0.10295048500120174,,,,,,,,,,,,,,,,,,,,,050119_p1,001,2019_May_01_1231,body_behavioural_mayedit,3.0.4,59.95978137723138,
1,"“Have you ever been stung by a scorpion?”, she asked him, tilting her head.",2,2,None,,,,,,0,1,1,1,,,,,0,17,17,17,,,,,,,,,,,,,,,,,,,,,,,9,0.08634598999924492,,,,,,,,,,,,,,,,,,,,,050119_p1,001,2019_May_01_1231,body_behavioural_mayedit,3.0.4,59.95978137723138,
1,"“What?”, he asked confusedly.",2,2,None,,,,,,0,1,1,1,,,,,0,18,18,18,,,,,,,,,,,,,,,,,,,,,,,9,0.10290920198895037,,,,,,,,,,,,,,,,,,,,,050119_p1,001,2019_May_01_1231,body_behavioural_mayedit,3.0.4,59.95978137723138,
1, “A scorpion.”,2,2,None,,,,,,0,1,1,1,,,,,0,19,19,19,,,,,,,,,,,,,,,,,,,,,,,9,0.11972378499922343,,,,,,,,,,,,,,,,,,,,,050119_p1,001,2019_May_01_1231,body_behavioural_mayedit,3.0.4,59.95978137723138,
1,James began to worry that Teresa had possibly suffered a concussion in the door crash.,2,2,None,,,,,,0,1,1,1,,,,,0,20,20,20,,,,,,,,,,,,,,,,,,,,,,,9,0.0673584350006422,,,,,,,,,,,,,,,,,,,,,050119_p1,001,2019_May_01_1231,body_behavioural_mayedit,3.0.4,59.95978137723138,
1,"“Uh no, why?” ",2,2,None,,,,,,0,1,1,1,,,,,0,21,21,21,,,,,,,,,,,,,,,,,,,,,,,1,0.08606793700892013,,,,,,,,,,,,,,,,,,,,,050119_p1,001,2019_May_01_1231,body_behavioural_mayedit,3.0.4,59.95978137723138,
1,"“Because I’ve been stung by one, and since then, things like bumping into doors seem like pretty small potatoes.” ",2,2,None,,,,,,0,1,1,1,,,,,0,22,22,22,,,,,,,,,,,,,,,,,,,,,,,1,0.12029057199833915,,,,,,,,,,,,,,,,,,,,,050119_p1,001,2019_May_01_1231,body_behavioural_mayedit,3.0.4,59.95978137723138,
1,"They carried on talking, and Teresa told him all about her encounter with a Deathstalker scorpion while she was studying abroad in Egypt.",2,2,None,,,,,,0,1,1,1,,,,,0,23,23,23,,,,,,,,,,,,,,,,,,,,,,,1,0.10344840299512725,,,,,,,,,,,,,,,,,,,,,050119_p1,001,2019_May_01_1231,body_behavioural_mayedit,3.0.4,59.95978137723138,
1,"After a few minutes, the waitress behind the counter came up to them, “Are you ready for your order?” ",3,2,None,,,,,,0,1,1,1,,,,,0,24,24,24,,,,,,,,,,,,,,,,,,,,,,,1,0.08398320199921727,,,,,,,,,,,,,,,,,,,,,050119_p1,001,2019_May_01_1231,body_behavioural_mayedit,3.0.4,59.95978137723138,
1,"She first looked at Teresa who answered, “Yes, I’ll have a salmon roll and a Japanese beer.”",3,2,None,,,,,,0,1,1,1,,,,,0,25,25,25,,,,,,,,,,,,,,,,,,,,,,,1,0.003025975005584769,,,,,,,,,,,,,,,,,,,,,050119_p1,001,2019_May_01_1231,body_behavioural_mayedit,3.0.4,59.95978137723138,
1,Then the waitress turned to James.,3,2,None,,,,,,0,1,1,1,,,,,0,26,26,26,,,,,,,,,,,,,,,,,,,,,,,1,0.052802821999648586,,,,,,,,,,,,,,,,,,,,,050119_p1,001,2019_May_01_1231,body_behavioural_mayedit,3.0.4,59.95978137723138,
1,"James said, “I’ll have a tuna roll and a vegetable roll.” ",3,2,None,,,,,,0,1,1,1,,,,,0,27,27,27,,,,,,,,,,,,,,,,,,,,,,,9,0.0693553070013877,,,,,,,,,,,,,,,,,,,,,050119_p1,001,2019_May_01_1231,body_behavioural_mayedit,3.0.4,59.95978137723138,
1,"“Alright, thank you!”",3,2,None,,,,,,0,1,1,1,,,,,0,28,28,28,,,,,,,,,,,,,,,,,,,,,,,1,0.08610896200116258,,,,,,,,,,,,,,,,,,,,,050119_p1,001,2019_May_01_1231,body_behavioural_mayedit,3.0.4,59.95978137723138,
1,"They picked up their conversation, and James ended up telling Teresa about a concert he was going to later that evening. ",3,2,None,,,,,,0,1,1,1,,,,,0,29,29,29,,,,,,,,,,,,,,,,,,,,,,,9,0.0029490500019164756,,,,,,,,,,,,,,,,,,,,,050119_p1,001,2019_May_01_1231,body_behavioural_mayedit,3.0.4,59.95978137723138,
1,"After a few moments of thinking, he suddenly and nervously invited her to come along, promising her that the concert would be indoors and absolutely free of venomous insects.",3,3,None,,,,,,0,1,1,1,,,,,0,30,30,30,,,,,,,,,,,,,,,,,,,,,,,1,0.052671909987111576,,,,,,,,,,,,,,,,,,,,,050119_p1,001,2019_May_01_1231,body_behavioural_mayedit,3.0.4,59.95978137723138,
1,"Teresa agreed, gave him her number, and they worked out that James would pick her up before the concert and drive them there.",3,3,None,,,,,,0,1,1,1,,,,,0,31,31,31,,,,,,,,,,,,,,,,,,,,,,,9,0.15280725499906112,,,,,,,,,,,,,,,,,,,,,050119_p1,001,2019_May_01_1231,body_behavioural_mayedit,3.0.4,59.95978137723138,
1,"This was not what they had expected from their solitary lunch plans and were both excited, even though Teresa was doing a much better job of hiding it than James. ",3,3,None,,,,,,0,1,1,1,,,,,0,32,32,32,,,,,,,,,,,,,,,,,,,,,,,9,0.08624874200904742,,,,,,,,,,,,,,,,,,,,,050119_p1,001,2019_May_01_1231,body_behavioural_mayedit,3.0.4,59.95978137723138,
1,"After awhile, the waitress brought out their food, and James took this opportunity to scoot closer to Teresa on the log bench. ",4,3,None,,,,,,0,1,1,1,,,,,0,33,33,33,,,,,,,,,,,,,,,,,,,,,,,9,0.10305018999497406,,,,,,,,,,,,,,,,,,,,,050119_p1,001,2019_May_01_1231,body_behavioural_mayedit,3.0.4,59.95978137723138,
1,Teresa was happy to share the meal with James. ,4,3,None,,,,,,0,1,1,1,,,,,0,34,34,34,,,,,,,,,,,,,,,,,,,,,,,1,0.25076449000334833,,,,,,,,,,,,,,,,,,,,,050119_p1,001,2019_May_01_1231,body_behavioural_mayedit,3.0.4,59.95978137723138,
1,They really enjoyed their rolls because the fish tasted very fresh. ,4,3,None,,,,,,0,1,1,1,,,,,0,35,35,35,,,,,,,,,,,,,,,,,,,,,,,1,0.10268116199586075,,,,,,,,,,,,,,,,,,,,,050119_p1,001,2019_May_01_1231,body_behavioural_mayedit,3.0.4,59.95978137723138,
1,"When the meal was over, they got up, hugged, and parted ways. ",4,4,None,,,,,,0,1,1,1,,,,,0,36,36,36,,,,,,,,,,,,,,,,,,,,,,,1,0.10304886499943677,,,,,,,,,,,,,,,,,,,,,050119_p1,001,2019_May_01_1231,body_behavioural_mayedit,3.0.4,59.95978137723138,
1,"James looked at his watch and was shocked, saying,“Can you believe it’s 3pm?!”",4,4,None,,,,,,0,1,1,1,,,,,0,37,37,37,,,,,,,,,,,,,,,,,,,,,,,1,0.08642051700735465,,,,,,,,,,,,,,,,,,,,,050119_p1,001,2019_May_01_1231,body_behavioural_mayedit,3.0.4,59.95978137723138,
1,"I have to run, got to finish some errands before the show.”",4,4,None,,,,,,0,1,1,1,,,,,0,38,38,38,,,,,,,,,,,,,,,,,,,,,,,1,0.06716690200846642,,,,,,,,,,,,,,,,,,,,,050119_p1,001,2019_May_01_1231,body_behavioural_mayedit,3.0.4,59.95978137723138,
1,See you tonight!”,4,4,None,,,,,,0,1,1,1,,,,,0,39,39,39,,,,,,,,,,,,,,,,,,,,,,,1,0.08629090499016456,,,,,,,,,,,,,,,,,,,,,050119_p1,001,2019_May_01_1231,body_behavioural_mayedit,3.0.4,59.95978137723138,
1,James walked out of the restaurant and looked back to see Teresa almost run into the door again. ,4,4,None,,,,,,0,1,1,1,,,,,0,40,40,40,,,,,,,,,,,,,,,,,,,,,,,9,0.08399543499399442,,,,,,,,,,,,,,,,,,,,,050119_p1,001,2019_May_01_1231,body_behavioural_mayedit,3.0.4,59.95978137723138,
1,They both laughed and smiled once more goodbye. ,4,4,None,,,,,,0,1,1,1,,,,,0,41,41,41,,,,,,,,,,,,,,,,,,,,,,,1,0.020321162010077387,,,,,,,,,,,,,,,,,,,,,050119_p1,001,2019_May_01_1231,body_behavioural_mayedit,3.0.4,59.95978137723138,
1,,,,,,,,,,0,1,1,1,,,,,,,,,,,,,,,,,,,,,,,,,,,,,,,,,,,,,,,,,,,,,,,,,,,,,050119_p1,001,2019_May_01_1231,body_behavioural_mayedit,3.0.4,59.95978137723138,
2,,,,,,,,,,0,2,2,2,0,0,0,0,,,,,,,,,,,,,,,,,,,,,space,10.719702439004323,space,1.4201269700133707,space,0.8197673570102779,,,,,,,,,,,,,,,,,,,,,,,050119_p1,001,2019_May_01_1231,body_behavioural_mayedit,3.0.4,59.95978137723138,
2,,,,,,,,,,0,2,2,2,1,0,1,0,,,,,,,,,,,,,,,,,,,,,,,,,space,0.7996387000021059,,,,,,,,,,,,,,,,,,,,,,,050119_p1,001,2019_May_01_1231,body_behavioural_mayedit,3.0.4,59.95978137723138,
2,,,,,,,,,,0,2,2,2,2,0,2,0,,,,,,,,,,,,,,,,,,,,,,,,,space,0.8033399379928596,,,,,,,,,,,,,,,,,,,,,,,050119_p1,001,2019_May_01_1231,body_behavioural_mayedit,3.0.4,59.95978137723138,
2,,,,,,,,,,0,2,2,2,3,0,3,0,,,,,,,,,,,,,,,,,,,,,,,,,space,0.3198015069938265,,,,,,,,,,,,,,,,,,,,,,,050119_p1,001,2019_May_01_1231,body_behavioural_mayedit,3.0.4,59.95978137723138,
2,,,,,,,,,,0,2,2,2,4,0,4,0,,,,,,,,,,,,,,,,,,,,,,,,,space,0.9363822750019608,,,,,,,,,,,,,,,,,,,,,,,050119_p1,001,2019_May_01_1231,body_behavioural_mayedit,3.0.4,59.95978137723138,
2,,,,,,,,,,0,2,2,2,5,0,5,0,,,,,,,,,,,,,,,,,,,,,,,,,space,0.7197388500062516,,,,,,,,,,,,,,,,,,,,,,,050119_p1,001,2019_May_01_1231,body_behavioural_mayedit,3.0.4,59.95978137723138,
2,,,,,,,,,,0,2,2,2,6,0,6,0,,,,,,,,,,,,,,,,,,,,,,,,,space,0.6031378350016894,,,,,,,,,,,,,,,,,,,,,,,050119_p1,001,2019_May_01_1231,body_behavioural_mayedit,3.0.4,59.95978137723138,
2,"Alvira and Senna walked into the restaurant hand in sweaty hand with quite different expectations: Senna, after 5 years of dating,  was going to propose tonight, and Alvira had no idea.",1,1,21.0,None,None,,,,0,2,2,2,,,,,0,0,0,0,,,,,,,,,,,,,,,,,,,,,,,9,9.903845701992395,,,,,,,,,,,,,,,,,,,,,050119_p1,001,2019_May_01_1231,body_behavioural_mayedit,3.0.4,59.95978137723138,
2,"He took a deep breath, trying to calm his nerves as worst case scenarios ran through his mind. ",1,1,None,None,None,,,,0,2,2,2,,,,,0,1,1,1,,,,,,,,,,,,,,,,,,,,,,,1,3.019811752004898,,,,,,,,,,,,,,,,,,,,,050119_p1,001,2019_May_01_1231,body_behavioural_mayedit,3.0.4,59.95978137723138,
2,The restaurant was on the beach and had floor-to-ceiling arched windows through which you could steal glances at the ocean.,1,1,None,None,None,,,,0,2,2,2,,,,,0,2,2,2,,,,,,,,,,,,,,,,,,,,,,,1,1.8696188570029335,,,,,,,,,,,,,,,,,,,,,050119_p1,001,2019_May_01_1231,body_behavioural_mayedit,3.0.4,59.95978137723138,
2,"The restaurant itself was beautiful- crystal chandeliers hung from the high ceiling above small tables covered with white table clothes.
",1,1,None,None,None,,,,0,2,2,2,,,,,0,3,3,3,,,,,,,,,,,,,,,,,,,,,,,1,1.3870145469991257,,,,,,,,,,,,,,,,,,,,,050119_p1,001,2019_May_01_1231,body_behavioural_mayedit,3.0.4,59.95978137723138,
2,They saw the sun setting onto the Pacific ocean.,1,1,None,None,None,,,,0,2,2,2,,,,,0,4,4,4,,,,,,,,,,,,,,,,,,,,,,,1,3.7702564869978232,,,,,,,,,,,,,,,,,,,,,050119_p1,001,2019_May_01_1231,body_behavioural_mayedit,3.0.4,59.95978137723138,
2,This was surely one of the best restaurants on the west coast.,1,1,None,None,None,,,,0,2,2,2,,,,,0,5,5,5,,,,,,,,,,,,,,,,,,,,,,,1,2.819963389993063,,,,,,,,,,,,,,,,,,,,,050119_p1,001,2019_May_01_1231,body_behavioural_mayedit,3.0.4,59.95978137723138,
2,"Senna gave his name to the host, who quickly located their reservation with a beaming smile and knowing look directed at Senna.",1,1,None,7.0,None,,,,0,2,2,2,,,,,0,6,6,6,,,,,,,,,,,,,,,,,,,,,,,9,3.8032407200080343,,,,,,,,,,,,,,,,,,,,,050119_p1,001,2019_May_01_1231,body_behavioural_mayedit,3.0.4,59.95978137723138,
2,The host led them to a table right by the window.,2,1,None,None,None,,,,0,2,2,2,,,,,0,7,7,7,,,,,,,,,,,,,,,,,,,,,,,1,6.134389920000103,,,,,,,,,,,,,,,,,,,,,050119_p1,001,2019_May_01_1231,body_behavioural_mayedit,3.0.4,59.95978137723138,
2,"He brought out some very small menus, with a short list of the celebrity chef's carefully selected daily dishes written in a loopy, cursive font unadorned by any mention of prices.",2,1,None,None,9.0,,,,0,2,2,2,,,,,0,8,8,8,,,,,,,,,,,,,,,,,,,,,,,9,11.58721821999643,,,,,,,,,,,,,,,,,,,,,050119_p1,001,2019_May_01_1231,body_behavioural_mayedit,3.0.4,59.95978137723138,
2,Senna slipped off to the bathroom to check to make sure the ring was in order.,2,2,None,None,None,,,,0,2,2,2,,,,,0,9,9,9,,,,,,,,,,,,,,,,,,,,,,,9,2.103190731999348,,,,,,,,,,,,,,,,,,,,,050119_p1,001,2019_May_01_1231,body_behavioural_mayedit,3.0.4,59.95978137723138,
2,"The ring contained three canary yellow diamond that had been in his grandmother’s wedding ring, and it was a beautiful symphony of a ring. ",2,2,None,None,None,,,,0,2,2,2,,,,,0,10,10,10,,,,,,,,,,,,,,,,,,,,,,,9,0.10302154200326186,,,,,,,,,,,,,,,,,,,,,050119_p1,001,2019_May_01_1231,body_behavioural_mayedit,3.0.4,59.95978137723138,
2,"He walked back to the table after handing the small, velvet box to a waiter at the front podium.",2,2,None,6.0,None,,,,0,2,2,2,,,,,0,11,11,11,,,,,,,,,,,,,,,,,,,,,,,9,0.08633372499025427,,,,,,,,,,,,,,,,,,,,,050119_p1,001,2019_May_01_1231,body_behavioural_mayedit,3.0.4,59.95978137723138,
2,He came back just as their waiter was approaching the table to get their order.,3,2,None,None,None,,,,0,2,2,2,,,,,0,12,12,12,,,,,,,,,,,,,,,,,,,,,,,9,0.06956968999293167,,,,,,,,,,,,,,,,,,,,,050119_p1,001,2019_May_01_1231,body_behavioural_mayedit,3.0.4,59.95978137723138,
2,"Senna ordered the oysters with garlic-parmesan sauce, and Alvira ordered the sauteed sea scallops with caramelized apples. ",3,2,None,None,None,,,,0,2,2,2,,,,,0,13,13,13,,,,,,,,,,,,,,,,,,,,,,,1,0.00314163499569986,,,,,,,,,,,,,,,,,,,,,050119_p1,001,2019_May_01_1231,body_behavioural_mayedit,3.0.4,59.95978137723138,
2,"“Excellent choices,” the waiter said with a subsequent brisk spin away from the table.",3,2,None,None,None,,,,0,2,2,2,,,,,0,14,14,14,,,,,,,,,,,,,,,,,,,,,,,1,0.1032315250049578,,,,,,,,,,,,,,,,,,,,,050119_p1,001,2019_May_01_1231,body_behavioural_mayedit,3.0.4,59.95978137723138,
2,"“What a beautiful place, Senna. ",3,2,None,None,None,,,,0,2,2,2,,,,,0,15,15,15,,,,,,,,,,,,,,,,,,,,,,,9,0.02022756500809919,,,,,,,,,,,,,,,,,,,,,050119_p1,001,2019_May_01_1231,body_behavioural_mayedit,3.0.4,59.95978137723138,
2,"Really this is too much just to celebrate the first tomatoes I grew in the garden, like, this is absurd,” Alvira said.",3,2,None,None,None,,,,0,2,2,2,,,,,0,16,16,16,,,,,,,,,,,,,,,,,,,,,,,1,0.0340141969936667,,,,,,,,,,,,,,,,,,,,,050119_p1,001,2019_May_01_1231,body_behavioural_mayedit,3.0.4,59.95978137723138,
2,"Senna laughed and said, “No, those were really the best tomatoes I’ve ever had. ",3,2,None,None,None,,,,0,2,2,2,,,,,0,17,17,17,,,,,,,,,,,,,,,,,,,,,,,1,0.08452148501237389,,,,,,,,,,,,,,,,,,,,,050119_p1,001,2019_May_01_1231,body_behavioural_mayedit,3.0.4,59.95978137723138,
2,We had to celebrate.” ,3,2,None,None,None,,,,0,2,2,2,,,,,0,18,18,18,,,,,,,,,,,,,,,,,,,,,,,1,0.06961891498940531,,,,,,,,,,,,,,,,,,,,,050119_p1,001,2019_May_01_1231,body_behavioural_mayedit,3.0.4,59.95978137723138,
2,"They talked and laughed as the sun sank below the horizon, and the glow from the ocean was replaced by the glow from the chandeliers.",3,2,None,8.0,None,,,,0,2,2,2,,,,,0,19,19,19,,,,,,,,,,,,,,,,,,,,,,,9,0.0031493569986196235,,,,,,,,,,,,,,,,,,,,,050119_p1,001,2019_May_01_1231,body_behavioural_mayedit,3.0.4,59.95978137723138,
2,"The waiter eventually returned with their meals, and everything was even more delicious than they had expected, especially the oysters, which Senna said tasted like the ocean. ",4,2,None,None,None,,,,0,2,2,2,,,,,0,20,20,20,,,,,,,,,,,,,,,,,,,,,,,1,0.017362516999128275,,,,,,,,,,,,,,,,,,,,,050119_p1,001,2019_May_01_1231,body_behavioural_mayedit,3.0.4,59.95978137723138,
2,Then he paused and looked at Alvira meaningfully. ,4,2,None,None,None,,,,0,2,2,2,,,,,0,21,21,21,,,,,,,,,,,,,,,,,,,,,,,9,0.0034228369913762435,,,,,,,,,,,,,,,,,,,,,050119_p1,001,2019_May_01_1231,body_behavioural_mayedit,3.0.4,59.95978137723138,
2, “It’s really been the best three years of my life with you.,4,2,None,None,None,,,,0,2,2,2,,,,,0,22,22,22,,,,,,,,,,,,,,,,,,,,,,,1,0.05283233799855225,,,,,,,,,,,,,,,,,,,,,050119_p1,001,2019_May_01_1231,body_behavioural_mayedit,3.0.4,59.95978137723138,
2,"I couldn’t imagine it any other way, and I don’t want to.",4,2,None,None,None,,,,0,2,2,2,,,,,0,23,23,23,,,,,,,,,,,,,,,,,,,,,,,9,0.0038402820064220577,,,,,,,,,,,,,,,,,,,,,050119_p1,001,2019_May_01_1231,body_behavioural_mayedit,3.0.4,59.95978137723138,
2,"I really want to spend the rest of my years eating garden tomatoes, whatever it is, with you.” ",4,2,None,None,None,,,,0,2,2,2,,,,,0,24,24,24,,,,,,,,,,,,,,,,,,,,,,,1,0.03395528499095235,,,,,,,,,,,,,,,,,,,,,050119_p1,001,2019_May_01_1231,body_behavioural_mayedit,3.0.4,59.95978137723138,
2,"Alvira smiled, “I want the same with you too, Senna.” ",4,2,None,None,17.0,,,,0,2,2,2,,,,,0,25,25,25,,,,,,,,,,,,,,,,,,,,,,,9,0.0036992130044382066,,,,,,,,,,,,,,,,,,,,,050119_p1,001,2019_May_01_1231,body_behavioural_mayedit,3.0.4,59.95978137723138,
2,"Senna nodded at the waiter who had been watching attentively, and he quickly strode over to place a small, elegant cake topped with the ring in front of Alvira. ",4,3,None,None,None,,,,0,2,2,2,,,,,0,26,26,26,,,,,,,,,,,,,,,,,,,,,,,1,0.03602109999337699,,,,,,,,,,,,,,,,,,,,,050119_p1,001,2019_May_01_1231,body_behavioural_mayedit,3.0.4,59.95978137723138,
2,Her eyes widened in shock when she realized what she was looking at.,4,3,None,None,None,,,,0,2,2,2,,,,,0,27,27,27,,,,,,,,,,,,,,,,,,,,,,,1,0.0863235050055664,,,,,,,,,,,,,,,,,,,,,050119_p1,001,2019_May_01_1231,body_behavioural_mayedit,3.0.4,59.95978137723138,
2,"“Alvira, will you marry me? ",4,3,None,None,None,,,,0,2,2,2,,,,,0,28,28,28,,,,,,,,,,,,,,,,,,,,,,,1,0.10272227200039197,,,,,,,,,,,,,,,,,,,,,050119_p1,001,2019_May_01_1231,body_behavioural_mayedit,3.0.4,59.95978137723138,
2,"I love you, and I will never stop loving you.” ",4,3,None,None,None,,,,0,2,2,2,,,,,0,29,29,29,,,,,,,,,,,,,,,,,,,,,,,9,0.003182405009283684,,,,,,,,,,,,,,,,,,,,,050119_p1,001,2019_May_01_1231,body_behavioural_mayedit,3.0.4,59.95978137723138,
2,Alvira started to cry.,4,3,None,None,None,,,,0,2,2,2,,,,,0,30,30,30,,,,,,,,,,,,,,,,,,,,,,,1,0.06923301999631803,,,,,,,,,,,,,,,,,,,,,050119_p1,001,2019_May_01_1231,body_behavioural_mayedit,3.0.4,59.95978137723138,
2,"The room became silent, and everyone turned to their table. ",4,3,None,None,5.0,,,,0,2,2,2,,,,,0,31,31,31,,,,,,,,,,,,,,,,,,,,,,,1,0.11974734500108752,,,,,,,,,,,,,,,,,,,,,050119_p1,001,2019_May_01_1231,body_behavioural_mayedit,3.0.4,59.95978137723138,
2,"“Yes, of course, yes!” she shouted as she wiped away tears.",4,4,None,None,None,,,,0,2,2,2,,,,,0,32,32,32,,,,,,,,,,,,,,,,,,,,,,,1,0.08586907999415416,,,,,,,,,,,,,,,,,,,,,050119_p1,001,2019_May_01_1231,body_behavioural_mayedit,3.0.4,59.95978137723138,
2,The neighboring tables exploded in applause.,4,4,None,None,None,,,,0,2,2,2,,,,,0,33,33,33,,,,,,,,,,,,,,,,,,,,,,,9,0.003016100003151223,,,,,,,,,,,,,,,,,,,,,050119_p1,001,2019_May_01_1231,body_behavioural_mayedit,3.0.4,59.95978137723138,
2,They hugged and the waiter returned with a bottle of champagne and popped it. ,4,4,None,None,None,,,,0,2,2,2,,,,,0,34,34,34,,,,,,,,,,,,,,,,,,,,,,,1,0.05253362999064848,,,,,,,,,,,,,,,,,,,,,050119_p1,001,2019_May_01_1231,body_behavioural_mayedit,3.0.4,59.95978137723138,
2,"All of this went unnoticed by Senna and Alvira as they looked into each others’ eyes, and he slipped the ring onto her finger. ",4,4,None,None,None,,,,0,2,2,2,,,,,0,35,35,35,,,,,,,,,,,,,,,,,,,,,,,1,0.11953915700723883,,,,,,,,,,,,,,,,,,,,,050119_p1,001,2019_May_01_1231,body_behavioural_mayedit,3.0.4,59.95978137723138,
2,"She held up her hand to admire it, and her glittering tears of joy matched the shine from her ring.   
",4,4,None,17.0,5.0,,,,0,2,2,2,,,,,0,36,36,36,,,,,,,,,,,,,,,,,,,,,,,1,0.08624065500043798,,,,,,,,,,,,,,,,,,,,,050119_p1,001,2019_May_01_1231,body_behavioural_mayedit,3.0.4,59.95978137723138,
2,“I need to text my dad and tell him!” she sang. ,4,4,None,None,None,,,,0,2,2,2,,,,,0,37,37,37,,,,,,,,,,,,,,,,,,,,,,,1,0.08648000999528449,,,,,,,,,,,,,,,,,,,,,050119_p1,001,2019_May_01_1231,body_behavioural_mayedit,3.0.4,59.95978137723138,
2,The whole restaurant proceeded in cheers with them to celebrate the joyous occasion.  ,4,4,None,None,None,,,,0,2,2,2,,,,,0,38,38,38,,,,,,,,,,,,,,,,,,,,,,,9,0.003100292000453919,,,,,,,,,,,,,,,,,,,,,050119_p1,001,2019_May_01_1231,body_behavioural_mayedit,3.0.4,59.95978137723138,
2,,,,,,,,,,0,2,2,2,,,,,,,,,,,,,,,,,,,,,,,,,,,,,,,,,,,,,,,,,,,,,,,,,,,,,050119_p1,001,2019_May_01_1231,body_behavioural_mayedit,3.0.4,59.95978137723138,
3,,,,,,,,,,0,3,3,3,0,0,0,0,,,,,,,,,,,,,,,,,,,,,space,11.003778123005759,space,1.3690579819958657,space,1.2193909750058083,,,,,,,,,,,,,,,,,,,,,,,050119_p1,001,2019_May_01_1231,body_behavioural_mayedit,3.0.4,59.95978137723138,
3,,,,,,,,,,0,3,3,3,1,0,1,0,,,,,,,,,,,,,,,,,,,,,,,,,space,3.9369654150068527,,,,,,,,,,,,,,,,,,,,,,,050119_p1,001,2019_May_01_1231,body_behavioural_mayedit,3.0.4,59.95978137723138,
3,,,,,,,,,,0,3,3,3,2,0,2,0,,,,,,,,,,,,,,,,,,,,,,,,,space,0.18392717000097036,,,,,,,,,,,,,,,,,,,,,,,050119_p1,001,2019_May_01_1231,body_behavioural_mayedit,3.0.4,59.95978137723138,
3,,,,,,,,,,0,3,3,3,3,0,3,0,,,,,,,,,,,,,,,,,,,,,,,,,space,0.5863912250060821,,,,,,,,,,,,,,,,,,,,,,,050119_p1,001,2019_May_01_1231,body_behavioural_mayedit,3.0.4,59.95978137723138,
3,,,,,,,,,,0,3,3,3,4,0,4,0,,,,,,,,,,,,,,,,,,,,,,,,,space,2.019378807002795,,,,,,,,,,,,,,,,,,,,,,,050119_p1,001,2019_May_01_1231,body_behavioural_mayedit,3.0.4,59.95978137723138,
3,,,,,,,,,,0,3,3,3,5,0,5,0,,,,,,,,,,,,,,,,,,,,,,,,,space,0.15300935500999913,,,,,,,,,,,,,,,,,,,,,,,050119_p1,001,2019_May_01_1231,body_behavioural_mayedit,3.0.4,59.95978137723138,
3,,,,,,,,,,0,3,3,3,6,0,6,0,,,,,,,,,,,,,,,,,,,,,,,,,space,2.1527859970083227,,,,,,,,,,,,,,,,,,,,,,,050119_p1,001,2019_May_01_1231,body_behavioural_mayedit,3.0.4,59.95978137723138,
3,"Carina noticed Simon first as they walked into the grocery store at the same time, both distracted in thought. ",1,1,43.0,,,,,,0,3,3,3,,,,,0,0,0,0,,,,,,,,,,,,,,,,,,,,,,,1,3.1532360999990487,,,,,,,,,,,,,,,,,,,,,050119_p1,001,2019_May_01_1231,body_behavioural_mayedit,3.0.4,59.95978137723138,
3,She nearly dropped the keys she was holding. ,1,1,None,,,,,,0,3,3,3,,,,,0,1,1,1,,,,,,,,,,,,,,,,,,,,,,,9,0.05292189499596134,,,,,,,,,,,,,,,,,,,,,050119_p1,001,2019_May_01_1231,body_behavioural_mayedit,3.0.4,59.95978137723138,
3,"They were both new to the Boston area, and this was their first time in this store. ",1,1,None,,,,,,0,3,3,3,,,,,0,2,2,2,,,,,,,,,,,,,,,,,,,,,,,9,0.11998229500022717,,,,,,,,,,,,,,,,,,,,,050119_p1,001,2019_May_01_1231,body_behavioural_mayedit,3.0.4,59.95978137723138,
3,"It kind of looked like a large warehouse, with high, black ceilings, industrial lights, and large packages of food. ",1,1,None,,,,,,0,3,3,3,,,,,0,3,3,3,,,,,,,,,,,,,,,,,,,,,,,1,0.05339285200170707,,,,,,,,,,,,,,,,,,,,,050119_p1,001,2019_May_01_1231,body_behavioural_mayedit,3.0.4,59.95978137723138,
3,"They went off along separate routes, but soon ended up back together in the meat section. ",2,1,None,,,,,,0,3,3,3,,,,,0,4,4,4,,,,,,,,,,,,,,,,,,,,,,,1,0.11963418799859937,,,,,,,,,,,,,,,,,,,,,050119_p1,001,2019_May_01_1231,body_behavioural_mayedit,3.0.4,59.95978137723138,
3,"They were both preparing for barbecues, so they were looking over the same cuts of meat. ",2,1,None,,,,,,0,3,3,3,,,,,0,5,5,5,,,,,,,,,,,,,,,,,,,,,,,9,0.10365250500035472,,,,,,,,,,,,,,,,,,,,,050119_p1,001,2019_May_01_1231,body_behavioural_mayedit,3.0.4,59.95978137723138,
3,"Simon really wanted to talk to Carina, and Carina really wanted to say something to Simon, but they felt embarrassed striking up a conversation with a stranger.",2,1,None,,,,,,0,3,3,3,,,,,0,6,6,6,,,,,,,,,,,,,,,,,,,,,,,1,0.0677163149957778,,,,,,,,,,,,,,,,,,,,,050119_p1,001,2019_May_01_1231,body_behavioural_mayedit,3.0.4,59.95978137723138,
3,"Carina suddenly turned to Simon and, pointing at a Cornish hen, asked, “Isn’t this meat cute?”",2,2,None,,,,,,0,3,3,3,,,,,0,7,7,7,,,,,,,,,,,,,,,,,,,,,,,9,0.11953633499797434,,,,,,,,,,,,,,,,,,,,,050119_p1,001,2019_May_01_1231,body_behavioural_mayedit,3.0.4,59.95978137723138,
3,"He laughed, and said, “It is very cute.",2,2,None,,,,,,0,3,3,3,,,,,0,8,8,8,,,,,,,,,,,,,,,,,,,,,,,9,0.06934729199565481,,,,,,,,,,,,,,,,,,,,,050119_p1,001,2019_May_01_1231,body_behavioural_mayedit,3.0.4,59.95978137723138,
3,"Probably the younger brother of this guy,” and he picked up a regular-sized chicken.",2,2,None,,,,,,0,3,3,3,,,,,0,9,9,9,,,,,,,,,,,,,,,,,,,,,,,9,0.18638848498812877,,,,,,,,,,,,,,,,,,,,,050119_p1,001,2019_May_01_1231,body_behavioural_mayedit,3.0.4,59.95978137723138,
3,"“Unlucky family,” she responded. ",2,2,None,,,,,,0,3,3,3,,,,,0,10,10,10,,,,,,,,,,,,,,,,,,,,,,,1,0.020453820005059242,,,,,,,,,,,,,,,,,,,,,050119_p1,001,2019_May_01_1231,body_behavioural_mayedit,3.0.4,59.95978137723138,
3,They continued to chat as they picked out a few last-minute groceries.,2,2,None,,,,,,0,3,3,3,,,,,0,11,11,11,,,,,,,,,,,,,,,,,,,,,,,9,0.05300787300802767,,,,,,,,,,,,,,,,,,,,,050119_p1,001,2019_May_01_1231,body_behavioural_mayedit,3.0.4,59.95978137723138,
3,"Simon helped Carina select the best ribs and his personal favorite barbecue sauce, and she helped him gather red  peppers and spices for a vegetable kabob she recommended.",2,2,None,,,,,,0,3,3,3,,,,,0,12,12,12,,,,,,,,,,,,,,,,,,,,,,,9,0.08641138499660883,,,,,,,,,,,,,,,,,,,,,050119_p1,001,2019_May_01_1231,body_behavioural_mayedit,3.0.4,59.95978137723138,
3,"When they were both finished shopping, they went to the checkout area.",3,2,None,,,,,,0,3,3,3,,,,,0,13,13,13,,,,,,,,,,,,,,,,,,,,,,,1,0.03416073000698816,,,,,,,,,,,,,,,,,,,,,050119_p1,001,2019_May_01_1231,body_behavioural_mayedit,3.0.4,59.95978137723138,
3,"Simon was disappointed to see that the lines were short, as he had been hoping for an excuse to spend more time with Carina.",3,2,None,,,,,,0,3,3,3,,,,,0,14,14,14,,,,,,,,,,,,,,,,,,,,,,,9,0.03633243498916272,,,,,,,,,,,,,,,,,,,,,050119_p1,001,2019_May_01_1231,body_behavioural_mayedit,3.0.4,59.95978137723138,
3,There were there lines open and they went to aisle 8. ,3,2,None,,,,,,0,3,3,3,,,,,0,15,15,15,,,,,,,,,,,,,,,,,,,,,,,9,0.1029419330006931,,,,,,,,,,,,,,,,,,,,,050119_p1,001,2019_May_01_1231,body_behavioural_mayedit,3.0.4,59.95978137723138,
3,"They had real chemistry, and both of them could definitely see a future together despite having just met.",3,2,None,,,,,,0,3,3,3,,,,,0,16,16,16,,,,,,,,,,,,,,,,,,,,,,,9,0.15295353000692558,,,,,,,,,,,,,,,,,,,,,050119_p1,001,2019_May_01_1231,body_behavioural_mayedit,3.0.4,59.95978137723138,
3,"“So you haven’t been around the city much?”, Simon asked. ",3,2,None,,,,,,0,3,3,3,,,,,0,17,17,17,,,,,,,,,,,,,,,,,,,,,,,9,0.10337741700641345,,,,,,,,,,,,,,,,,,,,,050119_p1,001,2019_May_01_1231,body_behavioural_mayedit,3.0.4,59.95978137723138,
3,"“No, not really.",3,2,None,,,,,,0,3,3,3,,,,,0,18,18,18,,,,,,,,,,,,,,,,,,,,,,,1,0.03617954500077758,,,,,,,,,,,,,,,,,,,,,050119_p1,001,2019_May_01_1231,body_behavioural_mayedit,3.0.4,59.95978137723138,
3,I’ve mainly been working and setting up my apartment.”,3,2,None,,,,,,0,3,3,3,,,,,0,19,19,19,,,,,,,,,,,,,,,,,,,,,,,9,0.05302243800542783,,,,,,,,,,,,,,,,,,,,,050119_p1,001,2019_May_01_1231,body_behavioural_mayedit,3.0.4,59.95978137723138,
3,"Simon asked her, “Ok well, if you’d like next Saturday let’s tour around Harvard Square and get something to eat.",3,3,None,,,,,,0,3,3,3,,,,,0,20,20,20,,,,,,,,,,,,,,,,,,,,,,,9,0.0838298149901675,,,,,,,,,,,,,,,,,,,,,050119_p1,001,2019_May_01_1231,body_behavioural_mayedit,3.0.4,59.95978137723138,
3,"There are a lot of great places around there, and it’s really nice during the summer.”",3,3,None,,,,,,0,3,3,3,,,,,0,21,21,21,,,,,,,,,,,,,,,,,,,,,,,9,0.11953537500812672,,,,,,,,,,,,,,,,,,,,,050119_p1,001,2019_May_01_1231,body_behavioural_mayedit,3.0.4,59.95978137723138,
3,"Carina smiled, “I’d love to: that sounds great!”",3,3,None,,,,,,0,3,3,3,,,,,0,22,22,22,,,,,,,,,,,,,,,,,,,,,,,9,0.10117211801116355,,,,,,,,,,,,,,,,,,,,,050119_p1,001,2019_May_01_1231,body_behavioural_mayedit,3.0.4,59.95978137723138,
3,"She quickly entered her number in his phone, since they only had to wait a couple minutes in line.",3,3,None,,,,,,0,3,3,3,,,,,0,23,23,23,,,,,,,,,,,,,,,,,,,,,,,1,0.003036399997654371,,,,,,,,,,,,,,,,,,,,,050119_p1,001,2019_May_01_1231,body_behavioural_mayedit,3.0.4,59.95978137723138,
3,Then it was her turn to check out with the cashier. ,4,3,None,,,,,,0,3,3,3,,,,,0,24,24,24,,,,,,,,,,,,,,,,,,,,,,,9,0.05291405999741983,,,,,,,,,,,,,,,,,,,,,050119_p1,001,2019_May_01_1231,body_behavioural_mayedit,3.0.4,59.95978137723138,
3,"Simon, wanting to make a gesture of his affection, lifted up the divider on the conveyor belt and said to the cashier, “Actually these are together.",4,3,None,,,,,,0,3,3,3,,,,,0,25,25,25,,,,,,,,,,,,,,,,,,,,,,,1,0.06724049500189722,,,,,,,,,,,,,,,,,,,,,050119_p1,001,2019_May_01_1231,body_behavioural_mayedit,3.0.4,59.95978137723138,
3,"Carina, I’ve got it.",4,3,None,,,,,,0,3,3,3,,,,,0,26,26,26,,,,,,,,,,,,,,,,,,,,,,,9,0.036467557001742534,,,,,,,,,,,,,,,,,,,,,050119_p1,001,2019_May_01_1231,body_behavioural_mayedit,3.0.4,59.95978137723138,
3,This was kind-of a date today.”,4,3,None,,,,,,0,3,3,3,,,,,0,27,27,27,,,,,,,,,,,,,,,,,,,,,,,1,0.10270524199586362,,,,,,,,,,,,,,,,,,,,,050119_p1,001,2019_May_01_1231,body_behavioural_mayedit,3.0.4,59.95978137723138,
3,Carina blushed and laughed; she thought this was ridiculous but also very sweet. ,4,3,None,,,,,,0,3,3,3,,,,,0,28,28,28,,,,,,,,,,,,,,,,,,,,,,,9,0.03634796499682125,,,,,,,,,,,,,,,,,,,,,050119_p1,001,2019_May_01_1231,body_behavioural_mayedit,3.0.4,59.95978137723138,
3,"The cashier rolled her eyes when they weren’t looking, and she scanned the rest of his items. ",4,3,None,,,,,,0,3,3,3,,,,,0,29,29,29,,,,,,,,,,,,,,,,,,,,,,,9,0.10250582700246014,,,,,,,,,,,,,,,,,,,,,050119_p1,001,2019_May_01_1231,body_behavioural_mayedit,3.0.4,59.95978137723138,
3,"The total came to $52, and he paid with his credit card.",4,3,None,,,,,,0,3,3,3,,,,,0,30,30,30,,,,,,,,,,,,,,,,,,,,,,,9,0.13646888198854867,,,,,,,,,,,,,,,,,,,,,050119_p1,001,2019_May_01_1231,body_behavioural_mayedit,3.0.4,59.95978137723138,
3,"Carina thanked him, and they took the groceries and walked out.",4,3,None,,,,,,0,3,3,3,,,,,0,31,31,31,,,,,,,,,,,,,,,,,,,,,,,9,0.11931537800410297,,,,,,,,,,,,,,,,,,,,,050119_p1,001,2019_May_01_1231,body_behavioural_mayedit,3.0.4,59.95978137723138,
3,"As they were walking towards the exit, Carina checked her phone for the time.",4,3,None,,,,,,0,3,3,3,,,,,0,32,32,32,,,,,,,,,,,,,,,,,,,,,,,9,0.13612028500938322,,,,,,,,,,,,,,,,,,,,,050119_p1,001,2019_May_01_1231,body_behavioural_mayedit,3.0.4,59.95978137723138,
3,"Seeing that it was 4:30 pm, she reluctantly said goodbye since she was running late for the barbeque she was hosting that afternoon.",4,4,None,,,,,,0,3,3,3,,,,,0,33,33,33,,,,,,,,,,,,,,,,,,,,,,,1,0.036070059999474324,,,,,,,,,,,,,,,,,,,,,050119_p1,001,2019_May_01_1231,body_behavioural_mayedit,3.0.4,59.95978137723138,
3,"They hugged and parted ways, stealing glances at each other as they both walked back to their cars.",4,4,None,,,,,,0,3,3,3,,,,,0,34,34,34,,,,,,,,,,,,,,,,,,,,,,,9,0.05313781200675294,,,,,,,,,,,,,,,,,,,,,050119_p1,001,2019_May_01_1231,body_behavioural_mayedit,3.0.4,59.95978137723138,
3,,,,,,,,,,0,3,3,3,,,,,,,,,,,,,,,,,,,,,,,,,,,,,,,,,,,,,,,,,,,,,,,,,,,,,050119_p1,001,2019_May_01_1231,body_behavioural_mayedit,3.0.4,59.95978137723138,
4,,,,,,,,,,0,4,4,4,0,0,0,0,,,,,,,,,,,,,,,,,,,,,space,2.6022926009900402,space,0.5530072800029302,space,0.8358054569980595,,,,,,,,,,,,,,,,,,,,,,,050119_p1,001,2019_May_01_1231,body_behavioural_mayedit,3.0.4,59.95978137723138,
4,"Jeff, hoping that today would be a pivotal day for his company, had only been waiting inside the doors of the airport for a few minutes when he saw William and eagerly waved him over. ",1,1,32.0,,,,,,0,4,4,4,,,,,0,0,0,0,,,,,,,,,,,,,,,,,,,,,,,9,2.286566495007719,,,,,,,,,,,,,,,,,,,,,050119_p1,001,2019_May_01_1231,body_behavioural_mayedit,3.0.4,59.95978137723138,
4,"Jeff, checking his watch, was pleased to see that the two of them had two hours to discuss business before their flights left Boston.",1,1,None,,,,,,0,4,4,4,,,,,0,1,1,1,,,,,,,,,,,,,,,,,,,,,,,9,0.06993721700564492,,,,,,,,,,,,,,,,,,,,,050119_p1,001,2019_May_01_1231,body_behavioural_mayedit,3.0.4,59.95978137723138,
4,The two had met the night before in line for the bathroom at a local bar. ,1,1,None,,,,,,0,4,4,4,,,,,0,2,2,2,,,,,,,,,,,,,,,,,,,,,,,9,0.06970020200242288,,,,,,,,,,,,,,,,,,,,,050119_p1,001,2019_May_01_1231,body_behavioural_mayedit,3.0.4,59.95978137723138,
4,Jeff had delivered some surprisingly-detailed complaints to William about the wine selection.,1,1,None,,,,,,0,4,4,4,,,,,0,3,3,3,,,,,,,,,,,,,,,,,,,,,,,1,0.0697115970106097,,,,,,,,,,,,,,,,,,,,,050119_p1,001,2019_May_01_1231,body_behavioural_mayedit,3.0.4,59.95978137723138,
4,They quickly learned that they were both in the wine industry: Jeff was a sales associate for wine vineyards in the Northeast and William was a wine buyer for corporate events.,1,1,None,,,,,,0,4,4,4,,,,,0,4,4,4,,,,,,,,,,,,,,,,,,,,,,,9,0.0036482400028035045,,,,,,,,,,,,,,,,,,,,,050119_p1,001,2019_May_01_1231,body_behavioural_mayedit,3.0.4,59.95978137723138,
4,"Since they both had flights out of Boston at the same time, they had agreed to meet at the airport and talk about potentially doing business. ",1,1,None,,,,,,0,4,4,4,,,,,0,5,5,5,,,,,,,,,,,,,,,,,,,,,,,9,0.06959792000998277,,,,,,,,,,,,,,,,,,,,,050119_p1,001,2019_May_01_1231,body_behavioural_mayedit,3.0.4,59.95978137723138,
4,"They headed to security together, and waited in the line.",2,1,None,,,,,,0,4,4,4,,,,,0,6,6,6,,,,,,,,,,,,,,,,,,,,,,,1,0.019626371999038383,,,,,,,,,,,,,,,,,,,,,050119_p1,001,2019_May_01_1231,body_behavioural_mayedit,3.0.4,59.95978137723138,
4,"“It’s crazy that we met last night,” William said, “I am flying out right now to meet my boss, and was worried that I was going to show up empty handed without any local retailer prepared.” ",2,1,None,,,,,,0,4,4,4,,,,,0,7,7,7,,,,,,,,,,,,,,,,,,,,,,,9,0.019180026996764354,,,,,,,,,,,,,,,,,,,,,050119_p1,001,2019_May_01_1231,body_behavioural_mayedit,3.0.4,59.95978137723138,
4,"“I know, what are the chances, right?” Jeff said.",2,1,None,,,,,,0,4,4,4,,,,,0,8,8,8,,,,,,,,,,,,,,,,,,,,,,,1,0.08644705699407496,,,,,,,,,,,,,,,,,,,,,050119_p1,001,2019_May_01_1231,body_behavioural_mayedit,3.0.4,59.95978137723138,
4,"William laughed and said, “I’m glad our shared complaining can come in handy.",2,1,None,,,,,,0,4,4,4,,,,,0,9,9,9,,,,,,,,,,,,,,,,,,,,,,,1,0.11961149299168028,,,,,,,,,,,,,,,,,,,,,050119_p1,001,2019_May_01_1231,body_behavioural_mayedit,3.0.4,59.95978137723138,
4,"Ok, so, I know this is fast, but I'd like to get right down to business since I don’t want to worry about time.",2,2,None,,,,,,0,4,4,4,,,,,0,10,10,10,,,,,,,,,,,,,,,,,,,,,,,1,0.08603909499652218,,,,,,,,,,,,,,,,,,,,,050119_p1,001,2019_May_01_1231,body_behavioural_mayedit,3.0.4,59.95978137723138,
4,I'd really like to order a couple of sample shipments from you and present them to our corporate buyers: I think they’d really love to have some East Coast variety. ,2,2,None,,,,,,0,4,4,4,,,,,0,11,11,11,,,,,,,,,,,,,,,,,,,,,,,1,0.10077209000883158,,,,,,,,,,,,,,,,,,,,,050119_p1,001,2019_May_01_1231,body_behavioural_mayedit,3.0.4,59.95978137723138,
4,"Now, typically we expect to get these kinds of samples at a deep discount, at least half-off the label price.",2,2,None,,,,,,0,4,4,4,,,,,0,12,12,12,,,,,,,,,,,,,,,,,,,,,,,1,0.06959360500331968,,,,,,,,,,,,,,,,,,,,,050119_p1,001,2019_May_01_1231,body_behavioural_mayedit,3.0.4,59.95978137723138,
4,"This is nothing, okay, compared to what you will be making if one of these buyers makes a contract.",2,2,None,,,,,,0,4,4,4,,,,,0,13,13,13,,,,,,,,,,,,,,,,,,,,,,,1,0.08636672000284307,,,,,,,,,,,,,,,,,,,,,050119_p1,001,2019_May_01_1231,body_behavioural_mayedit,3.0.4,59.95978137723138,
4,So I propose that you send us 5 barrels of your select wines for $800.”,2,2,None,,,,,,0,4,4,4,,,,,0,14,14,14,,,,,,,,,,,,,,,,,,,,,,,1,0.08646846500050742,,,,,,,,,,,,,,,,,,,,,050119_p1,001,2019_May_01_1231,body_behavioural_mayedit,3.0.4,59.95978137723138,
4,"Before going through the metal detector, they slipped off their loafers, undid their belts and watches and pulled out their laptops from their briefcase bags. ",2,2,None,,,,,,0,4,4,4,,,,,0,15,15,15,,,,,,,,,,,,,,,,,,,,,,,9,0.06956353998975828,,,,,,,,,,,,,,,,,,,,,050119_p1,001,2019_May_01_1231,body_behavioural_mayedit,3.0.4,59.95978137723138,
4,They placed everything in the bins. ,2,2,None,,,,,,0,4,4,4,,,,,0,16,16,16,,,,,,,,,,,,,,,,,,,,,,,1,0.019373930001165718,,,,,,,,,,,,,,,,,,,,,050119_p1,001,2019_May_01_1231,body_behavioural_mayedit,3.0.4,59.95978137723138,
4,"Jeff mulled over the offer, nodding noncommittally to William's pitch as they proceeded through the metal detector and retrieved their belongings.",2,2,None,,,,,,0,4,4,4,,,,,0,17,17,17,,,,,,,,,,,,,,,,,,,,,,,9,0.03584800999669824,,,,,,,,,,,,,,,,,,,,,050119_p1,001,2019_May_01_1231,body_behavioural_mayedit,3.0.4,59.95978137723138,
4,"Having recovered from the security check, they began to walk through the concourse toward Jeff’s gate, B8, and William handed some printed spreadsheets to Jeff as they walked.",3,2,None,,,,,,0,4,4,4,,,,,0,18,18,18,,,,,,,,,,,,,,,,,,,,,,,1,0.06737926999630872,,,,,,,,,,,,,,,,,,,,,050119_p1,001,2019_May_01_1231,body_behavioural_mayedit,3.0.4,59.95978137723138,
4,"Jeff, weaving through the crowds of travelers, squinted at William's rosy projections of the number of bottles he could be able to purchase in the future.",3,2,None,,,,,,0,4,4,4,,,,,0,19,19,19,,,,,,,,,,,,,,,,,,,,,,,1,0.13643402500019874,,,,,,,,,,,,,,,,,,,,,050119_p1,001,2019_May_01_1231,body_behavioural_mayedit,3.0.4,59.95978137723138,
4,"Jeff said, “I don’t know, we’re not coming from corporate vineyards, so gambling with sample shipments is the kind of risk we can’t necessarily make. ",3,3,None,,,,,,0,4,4,4,,,,,0,20,20,20,,,,,,,,,,,,,,,,,,,,,,,1,0.11957954699755646,,,,,,,,,,,,,,,,,,,,,050119_p1,001,2019_May_01_1231,body_behavioural_mayedit,3.0.4,59.95978137723138,
4,"These corporate purchases would have to be huge and practically guaranteed, to offset the loss from selling sample shipments at this price.”",3,3,None,,,,,,0,4,4,4,,,,,0,21,21,21,,,,,,,,,,,,,,,,,,,,,,,1,0.11969732999568805,,,,,,,,,,,,,,,,,,,,,050119_p1,001,2019_May_01_1231,body_behavioural_mayedit,3.0.4,59.95978137723138,
4,"William decided to tell Jeff that they had med the same offer to their competitor, East Vines, who had refused and that they would make a better offer to Jeff and his company.",3,3,None,,,,,,0,4,4,4,,,,,0,22,22,22,,,,,,,,,,,,,,,,,,,,,,,1,0.03600441699381918,,,,,,,,,,,,,,,,,,,,,050119_p1,001,2019_May_01_1231,body_behavioural_mayedit,3.0.4,59.95978137723138,
4,"They walked to the gates very slowly, barely registering the hubbub of the airport since they were so caught up in figuring out this deal before their flights left.",3,3,None,,,,,,0,4,4,4,,,,,0,23,23,23,,,,,,,,,,,,,,,,,,,,,,,1,0.036401197998202406,,,,,,,,,,,,,,,,,,,,,050119_p1,001,2019_May_01_1231,body_behavioural_mayedit,3.0.4,59.95978137723138,
4,"At the end of their long walk, they got to Jeff’s gate first, which had begun boarding passengers.",3,3,None,,,,,,0,4,4,4,,,,,0,24,24,24,,,,,,,,,,,,,,,,,,,,,,,1,0.36987316999875475,,,,,,,,,,,,,,,,,,,,,050119_p1,001,2019_May_01_1231,body_behavioural_mayedit,3.0.4,59.95978137723138,
4,"In these last minutes, William and Jeff agreed on a compromise rate on the sample shipment, paying $400 for a $600 shipment, and they finalized the deal with a handshake. ",3,4,None,,,,,,0,4,4,4,,,,,0,25,25,25,,,,,,,,,,,,,,,,,,,,,,,1,0.05309092500829138,,,,,,,,,,,,,,,,,,,,,050119_p1,001,2019_May_01_1231,body_behavioural_mayedit,3.0.4,59.95978137723138,
4,"“Well, what a tremendous pleasure to do business with you and to have all this work out,” William said.",3,4,None,,,,,,0,4,4,4,,,,,0,26,26,26,,,,,,,,,,,,,,,,,,,,,,,9,0.1363503720058361,,,,,,,,,,,,,,,,,,,,,050119_p1,001,2019_May_01_1231,body_behavioural_mayedit,3.0.4,59.95978137723138,
4,"Jeff nodded enthusiastically, and responded, “Likewise, this has been great.  ",3,4,None,,,,,,0,4,4,4,,,,,0,27,27,27,,,,,,,,,,,,,,,,,,,,,,,9,0.08583944701240398,,,,,,,,,,,,,,,,,,,,,050119_p1,001,2019_May_01_1231,body_behavioural_mayedit,3.0.4,59.95978137723138,
4,I'll let you get to your gate.,3,4,None,,,,,,0,4,4,4,,,,,0,28,28,28,,,,,,,,,,,,,,,,,,,,,,,9,0.11966794199543074,,,,,,,,,,,,,,,,,,,,,050119_p1,001,2019_May_01_1231,body_behavioural_mayedit,3.0.4,59.95978137723138,
4,"Once we’re both back on the ground, we can get all the shipments in the books.”",3,4,None,,,,,,0,4,4,4,,,,,0,29,29,29,,,,,,,,,,,,,,,,,,,,,,,1,0.019977717005531304,,,,,,,,,,,,,,,,,,,,,050119_p1,001,2019_May_01_1231,body_behavioural_mayedit,3.0.4,59.95978137723138,
4,They parted with a wave as Jeff scanned his boarding pass at the gate. ,3,4,None,,,,,,0,4,4,4,,,,,0,30,30,30,,,,,,,,,,,,,,,,,,,,,,,1,0.10295783200126607,,,,,,,,,,,,,,,,,,,,,050119_p1,001,2019_May_01_1231,body_behavioural_mayedit,3.0.4,59.95978137723138,
4,He walked onto the plane and sat down in seat 4A in the business class section.,4,4,None,,,,,,0,4,4,4,,,,,0,31,31,31,,,,,,,,,,,,,,,,,,,,,,,1,0.11951603498891927,,,,,,,,,,,,,,,,,,,,,050119_p1,001,2019_May_01_1231,body_behavioural_mayedit,3.0.4,59.95978137723138,
4,He typed out a quick email on his phone letting the rest of his team know the good news. ,4,4,None,,,,,,0,4,4,4,,,,,0,32,32,32,,,,,,,,,,,,,,,,,,,,,,,1,0.0690832819964271,,,,,,,,,,,,,,,,,,,,,050119_p1,001,2019_May_01_1231,body_behavioural_mayedit,3.0.4,59.95978137723138,
4,"When the flight attendant came by, he ordered a glass of champagne to celebrate.",4,4,None,,,,,,0,4,4,4,,,,,0,33,33,33,,,,,,,,,,,,,,,,,,,,,,,1,0.08624006499303505,,,,,,,,,,,,,,,,,,,,,050119_p1,001,2019_May_01_1231,body_behavioural_mayedit,3.0.4,59.95978137723138,
4,,,,,,,,,,0,4,4,4,,,,,,,,,,,,,,,,,,,,,,,,,,,,,,,,,,,,,,,,,,,,,,,,,,,,,050119_p1,001,2019_May_01_1231,body_behavioural_mayedit,3.0.4,59.95978137723138,
5,,,,,,,,,,0,5,5,5,0,0,0,0,,,,,,,,,,,,,,,,,,,,,space,0.9528952370019397,space,0.8531420200015418,space,14.604050687004928,,,,,,,,,,,,,,,,,,,,,,,050119_p1,001,2019_May_01_1231,body_behavioural_mayedit,3.0.4,59.95978137723138,
5,,,,,,,,,,0,5,5,5,1,0,1,0,,,,,,,,,,,,,,,,,,,,,,,,,space,0.8848328379972372,,,,,,,,,,,,,,,,,,,,,,,050119_p1,001,2019_May_01_1231,body_behavioural_mayedit,3.0.4,59.95978137723138,
5,Charlie saw Alma as they walked into class and he motioned for her to come sit in the back next to him: they had business to discuss.,1,1,34.0,,,,,,0,5,5,5,,,,,0,0,0,0,,,,,,,,,,,,,,,,,,,,,,,9,13.25407061498845,,,,,,,,,,,,,,,,,,,,,050119_p1,001,2019_May_01_1231,body_behavioural_mayedit,3.0.4,59.95978137723138,
5,Charlie and Alma were both economics students with entrepreneurial bents.,1,1,None,,,,,,0,5,5,5,,,,,0,1,1,1,,,,,,,,,,,,,,,,,,,,,,,1,3.870389462012099,,,,,,,,,,,,,,,,,,,,,050119_p1,001,2019_May_01_1231,body_behavioural_mayedit,3.0.4,59.95978137723138,
5,They were also both very busy and in the same class.,1,1,None,,,,,,0,5,5,5,,,,,0,2,2,2,,,,,,,,,,,,,,,,,,,,,,,9,2.2008896449988242,,,,,,,,,,,,,,,,,,,,,050119_p1,001,2019_May_01_1231,body_behavioural_mayedit,3.0.4,59.95978137723138,
5,"After talking at a party, Charlie had discovered that Alma was looking for financing for her web development company of which she was the founder and CEO.",1,1,None,,,,,,0,5,5,5,,,,,0,3,3,3,,,,,,,,,,,,,,,,,,,,,,,1,1.8006134000024758,,,,,,,,,,,,,,,,,,,,,050119_p1,001,2019_May_01_1231,body_behavioural_mayedit,3.0.4,59.95978137723138,
5,It was serendipitous because he was an investment analyst for a group on campus and he had been talking with other members of this venture capital group about making a new investment. ,1,1,None,,,,,,0,5,5,5,,,,,0,4,4,4,,,,,,,,,,,,,,,,,,,,,,,1,1.2507754870021017,,,,,,,,,,,,,,,,,,,,,050119_p1,001,2019_May_01_1231,body_behavioural_mayedit,3.0.4,59.95978137723138,
5,"His financial group had come to a decision that morning about Alma’s idea, and he didn't want to wait until after class to discuss the proposal with her. ",1,1,None,,,,,,0,5,5,5,,,,,0,5,5,5,,,,,,,,,,,,,,,,,,,,,,,1,0.719523380001192,,,,,,,,,,,,,,,,,,,,,050119_p1,001,2019_May_01_1231,body_behavioural_mayedit,3.0.4,59.95978137723138,
5,The class was in a medium-sized auditorium which was brightly lit and very modern-looking. ,1,1,None,,,,,,0,5,5,5,,,,,0,6,6,6,,,,,,,,,,,,,,,,,,,,,,,1,0.33582749498600606,,,,,,,,,,,,,,,,,,,,,050119_p1,001,2019_May_01_1231,body_behavioural_mayedit,3.0.4,59.95978137723138,
5,There were three projector screens and tables for each row of the audience which had power outlets and USB ports. ,1,1,None,,,,,,0,5,5,5,,,,,0,7,7,7,,,,,,,,,,,,,,,,,,,,,,,1,0.1362474000052316,,,,,,,,,,,,,,,,,,,,,050119_p1,001,2019_May_01_1231,body_behavioural_mayedit,3.0.4,59.95978137723138,
5,“Here we are at Lecture Seven already in Archaeology of Rome” said the professor. ,2,1,None,,,,,,0,5,5,5,,,,,0,8,8,8,,,,,,,,,,,,,,,,,,,,,,,1,0.08669669000664726,,,,,,,,,,,,,,,,,,,,,050119_p1,001,2019_May_01_1231,body_behavioural_mayedit,3.0.4,59.95978137723138,
5,"“We're going to talk today about Augustus, an incredibly important influence in Roman architecture.” ",2,1,None,,,,,,0,5,5,5,,,,,0,9,9,9,,,,,,,,,,,,,,,,,,,,,,,1,0.18621460800932255,,,,,,,,,,,,,,,,,,,,,050119_p1,001,2019_May_01_1231,body_behavioural_mayedit,3.0.4,59.95978137723138,
5,"She went into some recap of the last lecture, and Charlie took this as an opportunity to start talking to Alma.",2,1,None,,,,,,0,5,5,5,,,,,0,10,10,10,,,,,,,,,,,,,,,,,,,,,,,1,0.07004015700658783,,,,,,,,,,,,,,,,,,,,,050119_p1,001,2019_May_01_1231,body_behavioural_mayedit,3.0.4,59.95978137723138,
5,"“Okay so I’ve been thinking about your startup idea, and I have talked about it with my fellow investors.",2,2,None,,,,,,0,5,5,5,,,,,0,11,11,11,,,,,,,,,,,,,,,,,,,,,,,1,0.0689958199945977,,,,,,,,,,,,,,,,,,,,,050119_p1,001,2019_May_01_1231,body_behavioural_mayedit,3.0.4,59.95978137723138,
5,We’d like to invest half of what you originally suggested.,2,2,None,,,,,,0,5,5,5,,,,,0,12,12,12,,,,,,,,,,,,,,,,,,,,,,,1,0.10299150200444274,,,,,,,,,,,,,,,,,,,,,050119_p1,001,2019_May_01_1231,body_behavioural_mayedit,3.0.4,59.95978137723138,
5,"So we propose we start with wiring $28,000.",2,2,None,,,,,,0,5,5,5,,,,,0,13,13,13,,,,,,,,,,,,,,,,,,,,,,,1,0.08619096899928991,,,,,,,,,,,,,,,,,,,,,050119_p1,001,2019_May_01_1231,body_behavioural_mayedit,3.0.4,59.95978137723138,
5,We would see how the company does and then invest the other half later.” ,2,2,None,,,,,,0,5,5,5,,,,,0,14,14,14,,,,,,,,,,,,,,,,,,,,,,,1,0.21963927199249156,,,,,,,,,,,,,,,,,,,,,050119_p1,001,2019_May_01_1231,body_behavioural_mayedit,3.0.4,59.95978137723138,
5,"Alma, tapping her pen on her notebook, narrowed her eyes and pursed her lips.",2,2,None,,,,,,0,5,5,5,,,,,0,15,15,15,,,,,,,,,,,,,,,,,,,,,,,1,0.08548473900009412,,,,,,,,,,,,,,,,,,,,,050119_p1,001,2019_May_01_1231,body_behavioural_mayedit,3.0.4,59.95978137723138,
5,She turned back to the lecture as she considered this.,2,2,None,,,,,,0,5,5,5,,,,,0,16,16,16,,,,,,,,,,,,,,,,,,,,,,,1,0.13653392500418704,,,,,,,,,,,,,,,,,,,,,050119_p1,001,2019_May_01_1231,body_behavioural_mayedit,3.0.4,59.95978137723138,
5,"The professor was going on: “The senate had conferred upon him the title of Augustus the sacred and revered one, the restorer of traditional values, the city’s new religious leader, the restorer of temples. ",3,2,None,,,,,,0,5,5,5,,,,,0,17,17,17,,,,,,,,,,,,,,,,,,,,,,,1,0.11970365700835828,,,,,,,,,,,,,,,,,,,,,050119_p1,001,2019_May_01_1231,body_behavioural_mayedit,3.0.4,59.95978137723138,
5,"Augustus also sought to beautify Rome, make it into a new Athens, and dispel the criticisms of Rome as disorganized and ugly.”",3,2,None,,,,,,0,5,5,5,,,,,0,18,18,18,,,,,,,,,,,,,,,,,,,,,,,1,0.0029392269934760407,,,,,,,,,,,,,,,,,,,,,050119_p1,001,2019_May_01_1231,body_behavioural_mayedit,3.0.4,59.95978137723138,
5,"Alma turned back to Charlie and offered her rebuttal, “I don’t know about that: it’s not going to be possible to implement our ideas effectively unless the project is fully funded. ",3,3,None,,,,,,0,5,5,5,,,,,0,19,19,19,,,,,,,,,,,,,,,,,,,,,,,1,0.052849248007987626,,,,,,,,,,,,,,,,,,,,,050119_p1,001,2019_May_01_1231,body_behavioural_mayedit,3.0.4,59.95978137723138,
5,"We would have to find other investors like your competitor on campus, Churchill Capital Group, and that would set us back in our timeline. ",3,3,None,,,,,,0,5,5,5,,,,,0,20,20,20,,,,,,,,,,,,,,,,,,,,,,,1,0.03581144000054337,,,,,,,,,,,,,,,,,,,,,050119_p1,001,2019_May_01_1231,body_behavioural_mayedit,3.0.4,59.95978137723138,
5,"Our profit projections assumed we'd be starting relatively soon, not months down the line.” ",3,3,None,,,,,,0,5,5,5,,,,,0,21,21,21,,,,,,,,,,,,,,,,,,,,,,,1,0.01980695000384003,,,,,,,,,,,,,,,,,,,,,050119_p1,001,2019_May_01_1231,body_behavioural_mayedit,3.0.4,59.95978137723138,
5,They whispered back and forth during the whole class in order to work out a compromise. ,3,3,None,,,,,,0,5,5,5,,,,,0,22,22,22,,,,,,,,,,,,,,,,,,,,,,,1,0.050697434999165125,,,,,,,,,,,,,,,,,,,,,050119_p1,001,2019_May_01_1231,body_behavioural_mayedit,3.0.4,59.95978137723138,
5,"Finally, the class ended, and the professor dismissed the students with a reminder that the midterm paper was due on Thursday and that they should email their papers to the TA.",4,3,None,,,,,,0,5,5,5,,,,,0,23,23,23,,,,,,,,,,,,,,,,,,,,,,,1,0.08614936500089243,,,,,,,,,,,,,,,,,,,,,050119_p1,001,2019_May_01_1231,body_behavioural_mayedit,3.0.4,59.95978137723138,
5,"Everyone, except Charlie and Alma, packed up their things and headed out of the lecture hall to get to their next class. ",4,3,None,,,,,,0,5,5,5,,,,,0,24,24,24,,,,,,,,,,,,,,,,,,,,,,,1,0.03406422000261955,,,,,,,,,,,,,,,,,,,,,050119_p1,001,2019_May_01_1231,body_behavioural_mayedit,3.0.4,59.95978137723138,
5,"“Alright, so we’ll have the $30,000 wired to you by tomorrow,” Charlie said. ",4,4,None,,,,,,0,5,5,5,,,,,0,25,25,25,,,,,,,,,,,,,,,,,,,,,,,1,0.019628893001936376,,,,,,,,,,,,,,,,,,,,,050119_p1,001,2019_May_01_1231,body_behavioural_mayedit,3.0.4,59.95978137723138,
5,"This wasn't ideal for Charlie, but Alma had refused to budge, and his investment group had told him they were willing to pay the full amount if necessary. ",4,4,None,,,,,,0,5,5,5,,,,,0,26,26,26,,,,,,,,,,,,,,,,,,,,,,,1,0.019347384994034655,,,,,,,,,,,,,,,,,,,,,050119_p1,001,2019_May_01_1231,body_behavioural_mayedit,3.0.4,59.95978137723138,
5,"They hugged in confirmation of the deal, walked out of the now-empty lecture hall, and made plans to sign the official paperwork the next day.",4,4,None,,,,,,0,5,5,5,,,,,0,27,27,27,,,,,,,,,,,,,,,,,,,,,,,1,0.03399871000146959,,,,,,,,,,,,,,,,,,,,,050119_p1,001,2019_May_01_1231,body_behavioural_mayedit,3.0.4,59.95978137723138,
5,,,,,,,,,,0,5,5,5,,,,,,,,,,,,,,,,,,,,,,,,,,,,,,,,,,,,,,,,,,,,,,,,,,,,,050119_p1,001,2019_May_01_1231,body_behavioural_mayedit,3.0.4,59.95978137723138,
6,,,,,,,,,,0,6,6,6,0,0,0,0,,,,,,,,,,,,,,,,,,,,,space,1.5031085380032891,space,0.9862781800038647,space,1.0862985550047597,,,,,,,,,,,,,,,,,,,,,,,050119_p1,001,2019_May_01_1231,body_behavioural_mayedit,3.0.4,59.95978137723138,
6,,,,,,,,,,0,6,6,6,1,0,1,0,,,,,,,,,,,,,,,,,,,,,,,,,space,0.652304336996167,,,,,,,,,,,,,,,,,,,,,,,050119_p1,001,2019_May_01_1231,body_behavioural_mayedit,3.0.4,59.95978137723138,
6,,,,,,,,,,0,6,6,6,2,0,2,0,,,,,,,,,,,,,,,,,,,,,,,,,space,2.286216542008333,,,,,,,,,,,,,,,,,,,,,,,050119_p1,001,2019_May_01_1231,body_behavioural_mayedit,3.0.4,59.95978137723138,
6,"It didn’t help the situation that Calvin and Jessie were running late to the airport, since Jessie had already been fuming at Calvin and preparing to end things with him.",1,1,12.0,,,,,,0,6,6,6,,,,,0,0,0,0,,,,,,,,,,,,,,,,,,,,,,,1,1.9030634420050774,,,,,,,,,,,,,,,,,,,,,050119_p1,001,2019_May_01_1231,body_behavioural_mayedit,3.0.4,59.95978137723138,
6,"Upon arriving, they had only 45 minutes until their international flight would depart from Jamaica for the US.",1,1,None,,,,,,0,6,6,6,,,,,0,1,1,1,,,,,,,,,,,,,,,,,,,,,,,1,0.10289210500195622,,,,,,,,,,,,,,,,,,,,,050119_p1,001,2019_May_01_1231,body_behavioural_mayedit,3.0.4,59.95978137723138,
6,It had been a tough vacation for them.,1,1,None,,,,,,0,6,6,6,,,,,0,2,2,2,,,,,,,,,,,,,,,,,,,,,,,1,0.08629954500065651,,,,,,,,,,,,,,,,,,,,,050119_p1,001,2019_May_01_1231,body_behavioural_mayedit,3.0.4,59.95978137723138,
6,"Jessie had really had it with Calvin’s constant ramblings about the same excruciatingly boring golfing and work stories, which he insisted on repeating to her regardless of how little interest she showed.",1,1,None,,,,,,0,6,6,6,,,,,0,3,3,3,,,,,,,,,,,,,,,,,,,,,,,1,0.13681311000254937,,,,,,,,,,,,,,,,,,,,,050119_p1,001,2019_May_01_1231,body_behavioural_mayedit,3.0.4,59.95978137723138,
6,She decided she would break up with him after 6 weeks of thinking about it. ,1,1,None,,,,,,0,6,6,6,,,,,0,4,4,4,,,,,,,,,,,,,,,,,,,,,,,1,0.10298296999826562,,,,,,,,,,,,,,,,,,,,,050119_p1,001,2019_May_01_1231,body_behavioural_mayedit,3.0.4,59.95978137723138,
6,"Calvin knew that Jessie was upset, but wasn't sure what to do besides attempting to carry on as normal and tell stories that took up the silence. ",1,1,None,,,,,,0,6,6,6,,,,,0,5,5,5,,,,,,,,,,,,,,,,,,,,,,,1,0.0359035729925381,,,,,,,,,,,,,,,,,,,,,050119_p1,001,2019_May_01_1231,body_behavioural_mayedit,3.0.4,59.95978137723138,
6,"The security line was luckily very short, and once the online boarding passes were scanned, Calvin took his belt and watch and they put their bags on the conveyor belt before being ushered quickly through the metal detector.",2,1,None,,,,,,0,6,6,6,,,,,0,6,6,6,,,,,,,,,,,,,,,,,,,,,,,1,0.28650427200773265,,,,,,,,,,,,,,,,,,,,,050119_p1,001,2019_May_01_1231,body_behavioural_mayedit,3.0.4,59.95978137723138,
6,"“The infrastructure of this airport is really quite poor," said Calvin as they waited for their bags to emerge from the x-ray machine.",2,1,None,,,,,,0,6,6,6,,,,,0,7,7,7,,,,,,,,,,,,,,,,,,,,,,,9,0.10257397200621199,,,,,,,,,,,,,,,,,,,,,050119_p1,001,2019_May_01_1231,body_behavioural_mayedit,3.0.4,59.95978137723138,
6,“I really could've hidden something in my shoes quite easily.” ,2,1,None,,,,,,0,6,6,6,,,,,0,8,8,8,,,,,,,,,,,,,,,,,,,,,,,9,0.4857469300040975,,,,,,,,,,,,,,,,,,,,,050119_p1,001,2019_May_01_1231,body_behavioural_mayedit,3.0.4,59.95978137723138,
6,"Jessie, exasperated at his need to broadcast his every inner thought, scowled at the conveyor belt.",2,1,None,,,,,,0,6,6,6,,,,,0,9,9,9,,,,,,,,,,,,,,,,,,,,,,,1,0.02023904000816401,,,,,,,,,,,,,,,,,,,,,050119_p1,001,2019_May_01_1231,body_behavioural_mayedit,3.0.4,59.95978137723138,
6,"“What?”, he asked.",2,1,None,,,,,,0,6,6,6,,,,,0,10,10,10,,,,,,,,,,,,,,,,,,,,,,,9,0.03632923999975901,,,,,,,,,,,,,,,,,,,,,050119_p1,001,2019_May_01_1231,body_behavioural_mayedit,3.0.4,59.95978137723138,
6,She balled up her fists and turned to face him.,2,1,None,,,,,,0,6,6,6,,,,,0,11,11,11,,,,,,,,,,,,,,,,,,,,,,,1,0.050777901997207664,,,,,,,,,,,,,,,,,,,,,050119_p1,001,2019_May_01_1231,body_behavioural_mayedit,3.0.4,59.95978137723138,
6,"“Calvin, I really don’t think I can do this anymore because I don’t think our personalities are compatible. ",2,2,None,,,,,,0,6,6,6,,,,,0,12,12,12,,,,,,,,,,,,,,,,,,,,,,,9,0.019147771992720664,,,,,,,,,,,,,,,,,,,,,050119_p1,001,2019_May_01_1231,body_behavioural_mayedit,3.0.4,59.95978137723138,
6,I think it’s best that once we get to the States we part ways for good.” ,2,2,None,,,,,,0,6,6,6,,,,,0,13,13,13,,,,,,,,,,,,,,,,,,,,,,,1,0.05304033799620811,,,,,,,,,,,,,,,,,,,,,050119_p1,001,2019_May_01_1231,body_behavioural_mayedit,3.0.4,59.95978137723138,
6,Calvin said nothing as he grabbed his bag and quickly walked away.,2,2,None,,,,,,0,6,6,6,,,,,0,14,14,14,,,,,,,,,,,,,,,,,,,,,,,9,0.0032342539925593883,,,,,,,,,,,,,,,,,,,,,050119_p1,001,2019_May_01_1231,body_behavioural_mayedit,3.0.4,59.95978137723138,
6,"Jessie trailed behind him as they made their way quickly toward their gate, A28, shouting at his back in hopes of getting a response.",3,2,None,,,,,,0,6,6,6,,,,,0,15,15,15,,,,,,,,,,,,,,,,,,,,,,,1,0.019495482003549114,,,,,,,,,,,,,,,,,,,,,050119_p1,001,2019_May_01_1231,body_behavioural_mayedit,3.0.4,59.95978137723138,
6,“So now you have nothing to say?,3,2,None,,,,,,0,6,6,6,,,,,0,16,16,16,,,,,,,,,,,,,,,,,,,,,,,9,0.033672695004497655,,,,,,,,,,,,,,,,,,,,,050119_p1,001,2019_May_01_1231,body_behavioural_mayedit,3.0.4,59.95978137723138,
6,"Every time we talk, you are just looking for a way to steer the conversation back into your stories.”",3,2,None,,,,,,0,6,6,6,,,,,0,17,17,17,,,,,,,,,,,,,,,,,,,,,,,1,0.01942382899869699,,,,,,,,,,,,,,,,,,,,,050119_p1,001,2019_May_01_1231,body_behavioural_mayedit,3.0.4,59.95978137723138,
6,"Calvin didn't slow his pace, gritting his teeth and staring straight ahead. ",3,2,None,,,,,,0,6,6,6,,,,,0,18,18,18,,,,,,,,,,,,,,,,,,,,,,,9,0.019393251001019962,,,,,,,,,,,,,,,,,,,,,050119_p1,001,2019_May_01_1231,body_behavioural_mayedit,3.0.4,59.95978137723138,
6,He was very frustrated that he had been trying to appease Jessie this whole time and this was how she responded. ,3,2,None,,,,,,0,6,6,6,,,,,0,19,19,19,,,,,,,,,,,,,,,,,,,,,,,1,0.019151578002492897,,,,,,,,,,,,,,,,,,,,,050119_p1,001,2019_May_01_1231,body_behavioural_mayedit,3.0.4,59.95978137723138,
6,This silence was punctuated only by the rapid rhythmic clacking of their suitcase wheels over the tile floor as they continued power-walking through the terminal. ,3,2,None,,,,,,0,6,6,6,,,,,0,20,20,20,,,,,,,,,,,,,,,,,,,,,,,9,0.0022477330057881773,,,,,,,,,,,,,,,,,,,,,050119_p1,001,2019_May_01_1231,body_behavioural_mayedit,3.0.4,59.95978137723138,
6,"“Well?” Jessie said,",3,2,None,,,,,,0,6,6,6,,,,,0,21,21,21,,,,,,,,,,,,,,,,,,,,,,,1,0.03550401999382302,,,,,,,,,,,,,,,,,,,,,050119_p1,001,2019_May_01_1231,body_behavioural_mayedit,3.0.4,59.95978137723138,
6,"Calvin finally turned to her, “Well, Jessie, this makes perfect sense. ",3,3,None,,,,,,0,6,6,6,,,,,0,22,22,22,,,,,,,,,,,,,,,,,,,,,,,9,0.035186947003239766,,,,,,,,,,,,,,,,,,,,,050119_p1,001,2019_May_01_1231,body_behavioural_mayedit,3.0.4,59.95978137723138,
6,"If you feel this way, then I think we should break up because I don’t want to keep boring you.",3,3,None,,,,,,0,6,6,6,,,,,0,23,23,23,,,,,,,,,,,,,,,,,,,,,,,1,0.03540605600574054,,,,,,,,,,,,,,,,,,,,,050119_p1,001,2019_May_01_1231,body_behavioural_mayedit,3.0.4,59.95978137723138,
6,"I agree, let’s part ways once we make it back.",3,3,None,,,,,,0,6,6,6,,,,,0,24,24,24,,,,,,,,,,,,,,,,,,,,,,,9,0.034239531989442185,,,,,,,,,,,,,,,,,,,,,050119_p1,001,2019_May_01_1231,body_behavioural_mayedit,3.0.4,59.95978137723138,
6,You should’ve spoken up about my apparent intolerability before you decided to plan this vacation.”,3,3,None,,,,,,0,6,6,6,,,,,0,25,25,25,,,,,,,,,,,,,,,,,,,,,,,1,0.050572391992318444,,,,,,,,,,,,,,,,,,,,,050119_p1,001,2019_May_01_1231,body_behavioural_mayedit,3.0.4,59.95978137723138,
6,"He was clearly hurt, but thought it was pointless to argue. ",3,3,None,,,,,,0,6,6,6,,,,,0,26,26,26,,,,,,,,,,,,,,,,,,,,,,,9,0.0015295420016627759,,,,,,,,,,,,,,,,,,,,,050119_p1,001,2019_May_01_1231,body_behavioural_mayedit,3.0.4,59.95978137723138,
6,"They finally made it to the gate, just as they heard the final call for passengers boarding their flight.",3,3,None,,,,,,0,6,6,6,,,,,0,27,27,27,,,,,,,,,,,,,,,,,,,,,,,1,0.035329296995769255,,,,,,,,,,,,,,,,,,,,,050119_p1,001,2019_May_01_1231,body_behavioural_mayedit,3.0.4,59.95978137723138,
6,"They scanned their tickets, and the annoyed flight attendant shooed them onto the jet bridge and then closed the door behind them.",4,3,None,,,,,,0,6,6,6,,,,,0,28,28,28,,,,,,,,,,,,,,,,,,,,,,,9,0.019180890012648888,,,,,,,,,,,,,,,,,,,,,050119_p1,001,2019_May_01_1231,body_behavioural_mayedit,3.0.4,59.95978137723138,
6,"Luckily, they had forgotten to arrange seats next to each other on the flight back.",4,3,None,,,,,,0,6,6,6,,,,,0,29,29,29,,,,,,,,,,,,,,,,,,,,,,,1,0.05231168099271599,,,,,,,,,,,,,,,,,,,,,050119_p1,001,2019_May_01_1231,body_behavioural_mayedit,3.0.4,59.95978137723138,
6,"They were both economy, but Jessie was headed for seat 33A while Calvin's seat was 33F. ",4,3,None,,,,,,0,6,6,6,,,,,0,30,30,30,,,,,,,,,,,,,,,,,,,,,,,9,0.0019475419976515695,,,,,,,,,,,,,,,,,,,,,050119_p1,001,2019_May_01_1231,body_behavioural_mayedit,3.0.4,59.95978137723138,
6,"Before Jessie sat down, she took a deep breath and then awkwardly shook Calvin’s hand, mumbling, “Well, have a nice flight. ",4,4,None,,,,,,0,6,6,6,,,,,0,31,31,31,,,,,,,,,,,,,,,,,,,,,,,1,0.03558836699812673,,,,,,,,,,,,,,,,,,,,,050119_p1,001,2019_May_01_1231,body_behavioural_mayedit,3.0.4,59.95978137723138,
6,"Oh, and when you get a chance could you send me back all the philosophy books I lent you?”",4,4,None,,,,,,0,6,6,6,,,,,0,32,32,32,,,,,,,,,,,,,,,,,,,,,,,9,0.053564025001833215,,,,,,,,,,,,,,,,,,,,,050119_p1,001,2019_May_01_1231,body_behavioural_mayedit,3.0.4,59.95978137723138,
6,He laughed in disbelief and walked to his window seat three rows back to get ready for takeoff.,4,4,None,,,,,,0,6,6,6,,,,,0,33,33,33,,,,,,,,,,,,,,,,,,,,,,,1,0.0029602750000776723,,,,,,,,,,,,,,,,,,,,,050119_p1,001,2019_May_01_1231,body_behavioural_mayedit,3.0.4,59.95978137723138,
6,Both were upset but glad that they would have this flight to mull things over and recenter. ,4,4,None,,,,,,0,6,6,6,,,,,0,34,34,34,,,,,,,,,,,,,,,,,,,,,,,1,0.08566048699140083,,,,,,,,,,,,,,,,,,,,,050119_p1,001,2019_May_01_1231,body_behavioural_mayedit,3.0.4,59.95978137723138,
6,,,,,,,,,,0,6,6,6,,,,,,,,,,,,,,,,,,,,,,,,,,,,,,,,,,,,,,,,,,,,,,,,,,,,,050119_p1,001,2019_May_01_1231,body_behavioural_mayedit,3.0.4,59.95978137723138,
7,,,,,,,,,,0,7,7,7,0,0,0,0,,,,,,,,,,,,,,,,,,,,,space,1.7687032120011281,space,1.6693530850025127,space,2.12048489699373,,,,,,,,,,,,,,,,,,,,,,,050119_p1,001,2019_May_01_1231,body_behavioural_mayedit,3.0.4,59.95978137723138,
7,"Maria walked into lecture beside Henry, and she was mentally rehearsing what she should say to break up with him.",1,1,14.0,,,,,,0,7,7,7,,,,,0,0,0,0,,,,,,,,,,,,,,,,,,,,,,,1,1.0198238549928647,,,,,,,,,,,,,,,,,,,,,050119_p1,001,2019_May_01_1231,body_behavioural_mayedit,3.0.4,59.95978137723138,
7,"She had been putting it off with a growing sense of dread for the past week since she had begun to think about breaking up with Henry, and now this lecture was the last chance before she had to leave campus. ",1,1,None,,,,,,0,7,7,7,,,,,0,1,1,1,,,,,,,,,,,,,,,,,,,,,,,9,0.6030220520042349,,,,,,,,,,,,,,,,,,,,,050119_p1,001,2019_May_01_1231,body_behavioural_mayedit,3.0.4,59.95978137723138,
7,"The lecture hall was large, with a stage for the lecturer in the front of the room, and tiered seats that stretched up in 15 stacked rows. ",1,1,None,,,,,,0,7,7,7,,,,,0,2,2,2,,,,,,,,,,,,,,,,,,,,,,,1,0.23407547500391956,,,,,,,,,,,,,,,,,,,,,050119_p1,001,2019_May_01_1231,body_behavioural_mayedit,3.0.4,59.95978137723138,
7,"The clock struck 3 pm, and Maria and Henry slid into neighboring seats near the back of the room.",1,1,None,,,,,,0,7,7,7,,,,,0,3,3,3,,,,,,,,,,,,,,,,,,,,,,,9,0.0029626550094690174,,,,,,,,,,,,,,,,,,,,,050119_p1,001,2019_May_01_1231,body_behavioural_mayedit,3.0.4,59.95978137723138,
7,"“Good afternoon, everybody,” said the professor, fiddling to connect his laptop with the projector.",2,1,None,,,,,,0,7,7,7,,,,,0,4,4,4,,,,,,,,,,,,,,,,,,,,,,,1,0.05285989500407595,,,,,,,,,,,,,,,,,,,,,050119_p1,001,2019_May_01_1231,body_behavioural_mayedit,3.0.4,59.95978137723138,
7,“Welcome to week 4 of Intro to Ancient Philosophy. ,2,1,None,,,,,,0,7,7,7,,,,,0,5,5,5,,,,,,,,,,,,,,,,,,,,,,,9,0.017598669990547933,,,,,,,,,,,,,,,,,,,,,050119_p1,001,2019_May_01_1231,body_behavioural_mayedit,3.0.4,59.95978137723138,
7,Today we are going to continue our lecture on Aristotelian Philosophy.”,2,1,None,,,,,,0,7,7,7,,,,,0,6,6,6,,,,,,,,,,,,,,,,,,,,,,,1,0.0528790870012017,,,,,,,,,,,,,,,,,,,,,050119_p1,001,2019_May_01_1231,body_behavioural_mayedit,3.0.4,59.95978137723138,
7,Everyone in class pulled out their notebooks and settled in their seats as the slides appeared on the large front screens.,2,1,None,,,,,,0,7,7,7,,,,,0,7,7,7,,,,,,,,,,,,,,,,,,,,,,,9,0.0036154299887130037,,,,,,,,,,,,,,,,,,,,,050119_p1,001,2019_May_01_1231,body_behavioural_mayedit,3.0.4,59.95978137723138,
7,"“Henry,” Maria whispered.",2,1,None,,,,,,0,7,7,7,,,,,0,8,8,8,,,,,,,,,,,,,,,,,,,,,,,1,0.03644383999926504,,,,,,,,,,,,,,,,,,,,,050119_p1,001,2019_May_01_1231,body_behavioural_mayedit,3.0.4,59.95978137723138,
7,"“Hmm?” he replied, distracted.",2,1,None,,,,,,0,7,7,7,,,,,0,9,9,9,,,,,,,,,,,,,,,,,,,,,,,9,0.01906489000248257,,,,,,,,,,,,,,,,,,,,,050119_p1,001,2019_May_01_1231,body_behavioural_mayedit,3.0.4,59.95978137723138,
7,"“Henry, I need to tell you something really important, and I don’t know when else I’ll have a chance to do it,” she said.",2,1,None,,,,,,0,7,7,7,,,,,0,10,10,10,,,,,,,,,,,,,,,,,,,,,,,1,0.020284380007069558,,,,,,,,,,,,,,,,,,,,,050119_p1,001,2019_May_01_1231,body_behavioural_mayedit,3.0.4,59.95978137723138,
7,"“Okay, what's up?”, he said, tilting his head close to her. ",2,1,None,,,,,,0,7,7,7,,,,,0,11,11,11,,,,,,,,,,,,,,,,,,,,,,,9,0.02002251001249533,,,,,,,,,,,,,,,,,,,,,050119_p1,001,2019_May_01_1231,body_behavioural_mayedit,3.0.4,59.95978137723138,
7," “Henry, I think we should break up because I don’t think I can do long distance.",2,2,None,,,,,,0,7,7,7,,,,,0,12,12,12,,,,,,,,,,,,,,,,,,,,,,,1,0.020056794994161464,,,,,,,,,,,,,,,,,,,,,050119_p1,001,2019_May_01_1231,body_behavioural_mayedit,3.0.4,59.95978137723138,
7,"I think what we have here is great, but I think it will be really hard when we are so far apart for such an extended period.",2,2,None,,,,,,0,7,7,7,,,,,0,13,13,13,,,,,,,,,,,,,,,,,,,,,,,9,0.01934697199612856,,,,,,,,,,,,,,,,,,,,,050119_p1,001,2019_May_01_1231,body_behavioural_mayedit,3.0.4,59.95978137723138,
7,"I’m sorry I’m telling you now in lecture, but I'm out of time, and it’s taken me awhile to come to this decision.",2,2,None,,,,,,0,7,7,7,,,,,0,14,14,14,,,,,,,,,,,,,,,,,,,,,,,1,0.019282791996374726,,,,,,,,,,,,,,,,,,,,,050119_p1,001,2019_May_01_1231,body_behavioural_mayedit,3.0.4,59.95978137723138,
7,"I really think this is best, and who knows what will happen when I get back from my study abroad.",2,2,None,,,,,,0,7,7,7,,,,,0,15,15,15,,,,,,,,,,,,,,,,,,,,,,,9,0.0030206329975044355,,,,,,,,,,,,,,,,,,,,,050119_p1,001,2019_May_01_1231,body_behavioural_mayedit,3.0.4,59.95978137723138,
7,I just know when I’m there I’m going to be so busy and I really want to be immersed.”,2,2,None,,,,,,0,7,7,7,,,,,0,16,16,16,,,,,,,,,,,,,,,,,,,,,,,1,0.03629157700925134,,,,,,,,,,,,,,,,,,,,,050119_p1,001,2019_May_01_1231,body_behavioural_mayedit,3.0.4,59.95978137723138,
7,"While Henry tried to think of what to say, he and Maria stared unlistening at the professor as he started the lecture, “First we will talk about Aristotle’s work, The Categories.",3,2,None,,,,,,0,7,7,7,,,,,0,17,17,17,,,,,,,,,,,,,,,,,,,,,,,9,0.0036479330010479316,,,,,,,,,,,,,,,,,,,,,050119_p1,001,2019_May_01_1231,body_behavioural_mayedit,3.0.4,59.95978137723138,
7,"This text, as you might have been able to guess, is about the kinds, or categories, of things that there are.",3,2,None,,,,,,0,7,7,7,,,,,0,18,18,18,,,,,,,,,,,,,,,,,,,,,,,1,0.0363797999889357,,,,,,,,,,,,,,,,,,,,,050119_p1,001,2019_May_01_1231,body_behavioural_mayedit,3.0.4,59.95978137723138,
7,"In fact, our term category comes from this Aristotelian context.” ",3,2,None,,,,,,0,7,7,7,,,,,0,19,19,19,,,,,,,,,,,,,,,,,,,,,,,1,0.10284634500567336,,,,,,,,,,,,,,,,,,,,,050119_p1,001,2019_May_01_1231,body_behavioural_mayedit,3.0.4,59.95978137723138,
7,"Henry felt horrible, like the wind had just been knocked out of him.",3,2,None,,,,,,0,7,7,7,,,,,0,20,20,20,,,,,,,,,,,,,,,,,,,,,,,9,0.004016437000245787,,,,,,,,,,,,,,,,,,,,,050119_p1,001,2019_May_01_1231,body_behavioural_mayedit,3.0.4,59.95978137723138,
7,"A few tears started to fall down his cheeks as he whispered back, “Maria, I don’t want to break up with you because I love you.",3,3,None,,,,,,0,7,7,7,,,,,0,21,21,21,,,,,,,,,,,,,,,,,,,,,,,9,0.11834878999798093,,,,,,,,,,,,,,,,,,,,,050119_p1,001,2019_May_01_1231,body_behavioural_mayedit,3.0.4,59.95978137723138,
7,I’ll come visit you and it will be fine.,3,3,None,,,,,,0,7,7,7,,,,,0,22,22,22,,,,,,,,,,,,,,,,,,,,,,,1,0.06988122800248675,,,,,,,,,,,,,,,,,,,,,050119_p1,001,2019_May_01_1231,body_behavioural_mayedit,3.0.4,59.95978137723138,
7,I don’t want to break up.”,3,3,None,,,,,,0,7,7,7,,,,,0,23,23,23,,,,,,,,,,,,,,,,,,,,,,,1,0.11938641199958511,,,,,,,,,,,,,,,,,,,,,050119_p1,001,2019_May_01_1231,body_behavioural_mayedit,3.0.4,59.95978137723138,
7,"Maria felt so guilty that she nearly gave in, but forced herself to hold her ground, knowing that this would make things much easier for both of them in the future.",3,3,None,,,,,,0,7,7,7,,,,,0,24,24,24,,,,,,,,,,,,,,,,,,,,,,,1,0.06910569500178099,,,,,,,,,,,,,,,,,,,,,050119_p1,001,2019_May_01_1231,body_behavioural_mayedit,3.0.4,59.95978137723138,
7,"She gave his hand a squeeze but shook her head sadly, before turning back to her laptop and half-heartedly taking notes on the lecture which they sat through in painful silence.",3,3,None,,,,,,0,7,7,7,,,,,0,25,25,25,,,,,,,,,,,,,,,,,,,,,,,1,0.08615714999905322,,,,,,,,,,,,,,,,,,,,,050119_p1,001,2019_May_01_1231,body_behavioural_mayedit,3.0.4,59.95978137723138,
7,"Finally, the professor was wrapping up, “This is what Aristotle means when he says that an animal’s or plant’s form rather than its matter is its nature. ",4,3,None,,,,,,0,7,7,7,,,,,0,26,26,26,,,,,,,,,,,,,,,,,,,,,,,9,0.003006632992764935,,,,,,,,,,,,,,,,,,,,,050119_p1,001,2019_May_01_1231,body_behavioural_mayedit,3.0.4,59.95978137723138,
7,"Alright class, that’s all for today. ",4,3,None,,,,,,0,7,7,7,,,,,0,27,27,27,,,,,,,,,,,,,,,,,,,,,,,1,0.05282663200341631,,,,,,,,,,,,,,,,,,,,,050119_p1,001,2019_May_01_1231,body_behavioural_mayedit,3.0.4,59.95978137723138,
7,"Remember the final exam is coming up next week on Tuesday on the Pre-Socratics, Plato, and Aristotle, so feel free to come by office hours to discuss if you have the inspiration.",4,3,None,,,,,,0,7,7,7,,,,,0,28,28,28,,,,,,,,,,,,,,,,,,,,,,,9,0.03402145499421749,,,,,,,,,,,,,,,,,,,,,050119_p1,001,2019_May_01_1231,body_behavioural_mayedit,3.0.4,59.95978137723138,
7,"And if anyone is doing the 20 page paper in lieu of the final, that’s due next Tuesday as well.",4,3,None,,,,,,0,7,7,7,,,,,0,29,29,29,,,,,,,,,,,,,,,,,,,,,,,1,0.019671166999614798,,,,,,,,,,,,,,,,,,,,,050119_p1,001,2019_May_01_1231,body_behavioural_mayedit,3.0.4,59.95978137723138,
7,"Have a good day, folks.” ",4,3,None,,,,,,0,7,7,7,,,,,0,30,30,30,,,,,,,,,,,,,,,,,,,,,,,9,0.036170889987261035,,,,,,,,,,,,,,,,,,,,,050119_p1,001,2019_May_01_1231,body_behavioural_mayedit,3.0.4,59.95978137723138,
7,"Maria and Henry packed up hurriedly, and slipped quickly out of the class before the rest of the crowd. ",4,3,None,,,,,,0,7,7,7,,,,,0,31,31,31,,,,,,,,,,,,,,,,,,,,,,,1,0.03643277000810485,,,,,,,,,,,,,,,,,,,,,050119_p1,001,2019_May_01_1231,body_behavioural_mayedit,3.0.4,59.95978137723138,
7,"They hugged outside, and both of them were crying. ",4,4,None,,,,,,0,7,7,7,,,,,0,32,32,32,,,,,,,,,,,,,,,,,,,,,,,9,0.03672019700752571,,,,,,,,,,,,,,,,,,,,,050119_p1,001,2019_May_01_1231,body_behavioural_mayedit,3.0.4,59.95978137723138,
7,"“Maria, I don’t want you to leave.",4,4,None,,,,,,0,7,7,7,,,,,0,33,33,33,,,,,,,,,,,,,,,,,,,,,,,1,0.050694707009824924,,,,,,,,,,,,,,,,,,,,,050119_p1,001,2019_May_01_1231,body_behavioural_mayedit,3.0.4,59.95978137723138,
7,I don’t want this to end. ,4,4,None,,,,,,0,7,7,7,,,,,0,34,34,34,,,,,,,,,,,,,,,,,,,,,,,9,0.0038994250062387437,,,,,,,,,,,,,,,,,,,,,050119_p1,001,2019_May_01_1231,body_behavioural_mayedit,3.0.4,59.95978137723138,
7,"But if this is what you think is best, I can’t make it otherwise.” ",4,4,None,,,,,,0,7,7,7,,,,,0,35,35,35,,,,,,,,,,,,,,,,,,,,,,,1,0.08680043499043677,,,,,,,,,,,,,,,,,,,,,050119_p1,001,2019_May_01_1231,body_behavioural_mayedit,3.0.4,59.95978137723138,
7,"They hugged one last time, and then Maria remembered she had left her favorite Alpaca sweater in Henry’s room.",4,4,None,,,,,,0,7,7,7,,,,,0,36,36,36,,,,,,,,,,,,,,,,,,,,,,,1,0.08641452199663036,,,,,,,,,,,,,,,,,,,,,050119_p1,001,2019_May_01_1231,body_behavioural_mayedit,3.0.4,59.95978137723138,
7,"“Henry, I’m so sorry to ask this now but could you grab my alpaca sweater from your dorm and meet me in front of the student center?”",4,4,None,,,,,,0,7,7,7,,,,,0,37,37,37,,,,,,,,,,,,,,,,,,,,,,,1,0.10066385699610692,,,,,,,,,,,,,,,,,,,,,050119_p1,001,2019_May_01_1231,body_behavioural_mayedit,3.0.4,59.95978137723138,
7,"He agreed, and she ran off to get her things from her dorm as he sadly watched her go. ",4,4,None,,,,,,0,7,7,7,,,,,0,38,38,38,,,,,,,,,,,,,,,,,,,,,,,1,0.05270248699525837,,,,,,,,,,,,,,,,,,,,,050119_p1,001,2019_May_01_1231,body_behavioural_mayedit,3.0.4,59.95978137723138,
7,,,,,,,,,,0,7,7,7,,,,,,,,,,,,,,,,,,,,,,,,,,,,,,,,,,,,,,,,,,,,,,,,,,,,,050119_p1,001,2019_May_01_1231,body_behavioural_mayedit,3.0.4,59.95978137723138,
8,,,,,,,,,,0,8,8,8,0,0,0,0,,,,,,,,,,,,,,,,,,,,,space,0.8197230600053445,space,1.2002047870046226,space,3.0864935819990933,,,,,,,,,,,,,,,,,,,,,,,050119_p1,001,2019_May_01_1231,body_behavioural_mayedit,3.0.4,59.95978137723138,
8,,,,,,,,,,0,8,8,8,1,0,1,0,,,,,,,,,,,,,,,,,,,,,,,,,space,0.5363314000132959,,,,,,,,,,,,,,,,,,,,,,,050119_p1,001,2019_May_01_1231,body_behavioural_mayedit,3.0.4,59.95978137723138,
8,,,,,,,,,,0,8,8,8,2,0,2,0,,,,,,,,,,,,,,,,,,,,,,,,,space,0.43601877499895636,,,,,,,,,,,,,,,,,,,,,,,050119_p1,001,2019_May_01_1231,body_behavioural_mayedit,3.0.4,59.95978137723138,
8,,,,,,,,,,0,8,8,8,3,0,3,0,,,,,,,,,,,,,,,,,,,,,,,,,space,0.26962607199675404,,,,,,,,,,,,,,,,,,,,,,,050119_p1,001,2019_May_01_1231,body_behavioural_mayedit,3.0.4,59.95978137723138,
8,,,,,,,,,,0,8,8,8,4,0,4,0,,,,,,,,,,,,,,,,,,,,,,,,,space,0.6529196720075561,,,,,,,,,,,,,,,,,,,,,,,050119_p1,001,2019_May_01_1231,body_behavioural_mayedit,3.0.4,59.95978137723138,
8,,,,,,,,,,0,8,8,8,5,0,5,0,,,,,,,,,,,,,,,,,,,,,,,,,space,0.5695787500008009,,,,,,,,,,,,,,,,,,,,,,,050119_p1,001,2019_May_01_1231,body_behavioural_mayedit,3.0.4,59.95978137723138,
8,,,,,,,,,,0,8,8,8,6,0,6,0,,,,,,,,,,,,,,,,,,,,,,,,,space,0.30255986700649373,,,,,,,,,,,,,,,,,,,,,,,050119_p1,001,2019_May_01_1231,body_behavioural_mayedit,3.0.4,59.95978137723138,
8,The grocery store was not the place Emmanuella and Liam wanted to be at the moment considering they had been fighting beforehand to the point where Emmanuella was thinking of breaking up with Liam as she had been for the past 5 months.,1,1,13.0,,,,,,0,8,8,8,,,,,0,0,0,0,,,,,,,,,,,,,,,,,,,,,,,9,2.5537725949980086,,,,,,,,,,,,,,,,,,,,,050119_p1,001,2019_May_01_1231,body_behavioural_mayedit,3.0.4,59.95978137723138,
8,"However, they had to go grocery shopping because they were hosting a dinner party for friends that evening and had no groceries. ",1,1,None,,,,,,0,8,8,8,,,,,0,1,1,1,,,,,,,,,,,,,,,,,,,,,,,1,0.13649095200526062,,,,,,,,,,,,,,,,,,,,,050119_p1,001,2019_May_01_1231,body_behavioural_mayedit,3.0.4,59.95978137723138,
8,"The grocery store smelled like lavender upon entering and was dimly lit with pine shelves in the entrance and obscure, aesthetic, organic products stocking them.",1,1,None,,,,,,0,8,8,8,,,,,0,2,2,2,,,,,,,,,,,,,,,,,,,,,,,9,0.050720782004646026,,,,,,,,,,,,,,,,,,,,,050119_p1,001,2019_May_01_1231,body_behavioural_mayedit,3.0.4,59.95978137723138,
8,"Then, Emmanuella headed immediately for the pasta section, not looking to see if Liam was following, and he trailed behind her. ",2,1,None,,,,,,0,8,8,8,,,,,0,3,3,3,,,,,,,,,,,,,,,,,,,,,,,1,0.020806312008062378,,,,,,,,,,,,,,,,,,,,,050119_p1,001,2019_May_01_1231,body_behavioural_mayedit,3.0.4,59.95978137723138,
8,She selected a few boxes of bow-tie pasta.,2,1,None,,,,,,0,8,8,8,,,,,0,4,4,4,,,,,,,,,,,,,,,,,,,,,,,9,0.020064655007445253,,,,,,,,,,,,,,,,,,,,,050119_p1,001,2019_May_01_1231,body_behavioural_mayedit,3.0.4,59.95978137723138,
8,"“I guess we are having a pasta dish tonight,” Liam said.",2,1,None,,,,,,0,8,8,8,,,,,0,5,5,5,,,,,,,,,,,,,,,,,,,,,,,1,0.0530370549968211,,,,,,,,,,,,,,,,,,,,,050119_p1,001,2019_May_01_1231,body_behavioural_mayedit,3.0.4,59.95978137723138,
8,"Emmanuella looked back at him and said, “Well if you were going to actually help cook, I would be fine with something else.”",2,1,None,,,,,,0,8,8,8,,,,,0,6,6,6,,,,,,,,,,,,,,,,,,,,,,,9,0.0032246600021608174,,,,,,,,,,,,,,,,,,,,,050119_p1,001,2019_May_01_1231,body_behavioural_mayedit,3.0.4,59.95978137723138,
8,"Liam sighed, and finally said, “You konw, you don’t want me to help.",2,1,None,,,,,,0,8,8,8,,,,,0,7,7,7,,,,,,,,,,,,,,,,,,,,,,,1,0.05298812199907843,,,,,,,,,,,,,,,,,,,,,050119_p1,001,2019_May_01_1231,body_behavioural_mayedit,3.0.4,59.95978137723138,
8,"I try to, but it seems like I always get in the way!” ",2,1,None,,,,,,0,8,8,8,,,,,0,8,8,8,,,,,,,,,,,,,,,,,,,,,,,9,0.003719751999597065,,,,,,,,,,,,,,,,,,,,,050119_p1,001,2019_May_01_1231,body_behavioural_mayedit,3.0.4,59.95978137723138,
8,Emmanuella shook her head and dropped the boxes in the cart.,2,1,None,,,,,,0,8,8,8,,,,,0,9,9,9,,,,,,,,,,,,,,,,,,,,,,,1,0.05239548199460842,,,,,,,,,,,,,,,,,,,,,050119_p1,001,2019_May_01_1231,body_behavioural_mayedit,3.0.4,59.95978137723138,
8," “Liam, you don’t even try!",2,1,None,,,,,,0,8,8,8,,,,,0,10,10,10,,,,,,,,,,,,,,,,,,,,,,,9,0.003262627011281438,,,,,,,,,,,,,,,,,,,,,050119_p1,001,2019_May_01_1231,body_behavioural_mayedit,3.0.4,59.95978137723138,
8,She continued down the aisle and grabbed a jar of vodka sauce and a can of olives. ,2,1,None,,,,,,0,8,8,8,,,,,0,11,11,11,,,,,,,,,,,,,,,,,,,,,,,1,0.03415133499947842,,,,,,,,,,,,,,,,,,,,,050119_p1,001,2019_May_01_1231,body_behavioural_mayedit,3.0.4,59.95978137723138,
8,You know what?,2,1,None,,,,,,0,8,8,8,,,,,0,12,12,12,,,,,,,,,,,,,,,,,,,,,,,9,0.020022152006276883,,,,,,,,,,,,,,,,,,,,,050119_p1,001,2019_May_01_1231,body_behavioural_mayedit,3.0.4,59.95978137723138,
8,I don’t think I can do this anymore and I want to break up since I’m tired of the constant fighting. ,2,2,None,,,,,,0,8,8,8,,,,,0,13,13,13,,,,,,,,,,,,,,,,,,,,,,,1,0.03636949499195907,,,,,,,,,,,,,,,,,,,,,050119_p1,001,2019_May_01_1231,body_behavioural_mayedit,3.0.4,59.95978137723138,
8,"I was going to wait until after this unfortunately-timed dinner party tonight to talk about this, but I might as well say it now.",2,2,None,,,,,,0,8,8,8,,,,,0,14,14,14,,,,,,,,,,,,,,,,,,,,,,,9,0.0030909449997125193,,,,,,,,,,,,,,,,,,,,,050119_p1,001,2019_May_01_1231,body_behavioural_mayedit,3.0.4,59.95978137723138,
8,"I feel like when we try to do anything anymore it ends up unpleasant for the stupidest reasons, and I am just past  trying to work things out.”",2,2,None,,,,,,0,8,8,8,,,,,0,15,15,15,,,,,,,,,,,,,,,,,,,,,,,1,0.003758016988285817,,,,,,,,,,,,,,,,,,,,,050119_p1,001,2019_May_01_1231,body_behavioural_mayedit,3.0.4,59.95978137723138,
8,"Liam refused to look at her as she picked out sauces for the pasta, and then she threw up her hands, saying, “You know what, if this party is still happening we are going to just eat pasta.”",2,2,None,,,,,,0,8,8,8,,,,,0,16,16,16,,,,,,,,,,,,,,,,,,,,,,,9,0.05286574699857738,,,,,,,,,,,,,,,,,,,,,050119_p1,001,2019_May_01_1231,body_behavioural_mayedit,3.0.4,59.95978137723138,
8,"They headed to the checkout area where there was only one station open, station 2, but it was not crowded at all.",3,2,None,,,,,,0,8,8,8,,,,,0,17,17,17,,,,,,,,,,,,,,,,,,,,,,,1,0.10257216000172775,,,,,,,,,,,,,,,,,,,,,050119_p1,001,2019_May_01_1231,body_behavioural_mayedit,3.0.4,59.95978137723138,
8,Emmanuella sighed and got in line while Liam pretended to be interested in the magazine racks as he thought. ,3,2,None,,,,,,0,8,8,8,,,,,0,18,18,18,,,,,,,,,,,,,,,,,,,,,,,1,0.06965849699918181,,,,,,,,,,,,,,,,,,,,,050119_p1,001,2019_May_01_1231,body_behavioural_mayedit,3.0.4,59.95978137723138,
8,"Finally he turned to her and sighed, “Yes, I think the same thing.",3,3,None,,,,,,0,8,8,8,,,,,0,19,19,19,,,,,,,,,,,,,,,,,,,,,,,1,0.06976236499031074,,,,,,,,,,,,,,,,,,,,,050119_p1,001,2019_May_01_1231,body_behavioural_mayedit,3.0.4,59.95978137723138,
8,I think we should break up because we could definitely be happier with other people.” ,3,3,None,,,,,,0,8,8,8,,,,,0,20,20,20,,,,,,,,,,,,,,,,,,,,,,,1,0.16980288999911863,,,,,,,,,,,,,,,,,,,,,050119_p1,001,2019_May_01_1231,body_behavioural_mayedit,3.0.4,59.95978137723138,
8,"As Emmanuella waited in line, she took a moment to compose herself, deciding that there was no reason to continue making a scene in the store. ",3,3,None,,,,,,0,8,8,8,,,,,0,21,21,21,,,,,,,,,,,,,,,,,,,,,,,1,0.08635795999725815,,,,,,,,,,,,,,,,,,,,,050119_p1,001,2019_May_01_1231,body_behavioural_mayedit,3.0.4,59.95978137723138,
8," Right when Liam came back with the pasta, the cashier started scanning their groceries.",4,3,None,,,,,,0,8,8,8,,,,,0,22,22,22,,,,,,,,,,,,,,,,,,,,,,,1,0.08591054999851622,,,,,,,,,,,,,,,,,,,,,050119_p1,001,2019_May_01_1231,body_behavioural_mayedit,3.0.4,59.95978137723138,
8,"The cost came to $30, and Emmanuella paid with her credit card.",4,3,None,,,,,,0,8,8,8,,,,,0,23,23,23,,,,,,,,,,,,,,,,,,,,,,,1,0.08398161699005868,,,,,,,,,,,,,,,,,,,,,050119_p1,001,2019_May_01_1231,body_behavioural_mayedit,3.0.4,59.95978137723138,
8,"She asked Liam politely to take the bags, and he obliged, following her to toward the exit. ",4,3,None,,,,,,0,8,8,8,,,,,0,24,24,24,,,,,,,,,,,,,,,,,,,,,,,1,0.07006942699081264,,,,,,,,,,,,,,,,,,,,,050119_p1,001,2019_May_01_1231,body_behavioural_mayedit,3.0.4,59.95978137723138,
8,"“Liam, I think we are making the right decision.",4,4,None,,,,,,0,8,8,8,,,,,0,25,25,25,,,,,,,,,,,,,,,,,,,,,,,1,0.06989117999910377,,,,,,,,,,,,,,,,,,,,,050119_p1,001,2019_May_01_1231,body_behavioural_mayedit,3.0.4,59.95978137723138,
8,This is good.” ,4,4,None,,,,,,0,8,8,8,,,,,0,26,26,26,,,,,,,,,,,,,,,,,,,,,,,1,0.10257041700242553,,,,,,,,,,,,,,,,,,,,,050119_p1,001,2019_May_01_1231,body_behavioural_mayedit,3.0.4,59.95978137723138,
8,"“I agree,” he said, visibly relieved at the thought that they had gotten through the last fight they would ever need to have.",4,4,None,,,,,,0,8,8,8,,,,,0,27,27,27,,,,,,,,,,,,,,,,,,,,,,,1,0.08636024700535927,,,,,,,,,,,,,,,,,,,,,050119_p1,001,2019_May_01_1231,body_behavioural_mayedit,3.0.4,59.95978137723138,
8,"“I think we can still host this dinner tonight, as long as you're still on board,” Emmanuella said.",4,4,None,,,,,,0,8,8,8,,,,,0,28,28,28,,,,,,,,,,,,,,,,,,,,,,,1,0.05289346798963379,,,,,,,,,,,,,,,,,,,,,050119_p1,001,2019_May_01_1231,body_behavioural_mayedit,3.0.4,59.95978137723138,
