count,storyText,locationEvent,socialEvent,story,locationEventSize,socialEventSize,socialAnswer,locationAnswer,instructText,trials.thisRepN,trials.thisTrialN,trials.thisN,trials.thisIndex,trials_7.thisRepN,trials_7.thisTrialN,trials_7.thisN,trials_7.thisIndex,trials_2.thisRepN,trials_2.thisTrialN,trials_2.thisN,trials_2.thisIndex,trials_5.thisRepN,trials_5.thisTrialN,trials_5.thisN,trials_5.thisIndex,trials_6.thisRepN,trials_6.thisTrialN,trials_6.thisN,trials_6.thisIndex,order of stories,order of perspectives,participant 2 order - stories,participant 2 order  - schemas types,key_resp_8.keys,key_resp_8.rt,key_resp_5.keys,key_resp_5.rt,key_resp_7.keys,key_resp_7.rt,story_presses.keys,story_presses.rt,recall time,key_resp_12.keys,key_resp_12.rt,key_resp_3.keys,key_resp_3.rt,key_resp_11.keys,key_resp_11.rt,recall,question1_answer,order of question,question2_answer,question3_answer,question4_answer,question5_answer,question6_answer,question7_answer,question8_answer,questions time,participant,session,date,expName,psychopyVersion,frameRate,
0,,,,,,,,,,0,0,0,0,0,0,0,0,,,,,,,,,,,,,[42 33 13 22 31 24 44 11 23 34 12 41 43 14 21 32],"['Social' 'Social' 'Location' 'Location' 'Location' 'Social' 'Location'
 'Social' 'Social' 'Social' 'Social' 'Social' 'Location' 'Location'
 'Location' 'Location']",[23 34 12 41 43 14 21 32],"['Social' 'Social' 'Social' 'Social' 'Location' 'Location' 'Location'
 'Location']",space,42.457441811973695,space,1.1691577300080098,space,1.119605940009933,,,,,,,,,,,,,,,,,,,,,060719_p1,001,2019_Jun_07_1232,body_behavioural_mayedit,3.0.4,60.08420741983443,
0,,,,,,,,,,0,0,0,0,1,0,1,0,,,,,,,,,,,,,,,,,,,,,space,1.2863781800260767,,,,,,,,,,,,,,,,,,,,,060719_p1,001,2019_Jun_07_1232,body_behavioural_mayedit,3.0.4,60.08420741983443,
0,David saw Anna for the first time when she burst into the airport frazzled with her half-zipped bag skidding behind her.,1,1,42.0,,,,,,0,0,0,0,,,,,0,0,0,0,,,,,,,,,,,,,,,,,,,1,17.13799434201792,,,,,,,,,,,,,,,,,,,060719_p1,001,2019_Jun_07_1232,body_behavioural_mayedit,3.0.4,60.08420741983443,
0,"He had three hours until his flight and was reading a book on the laptop he was holding in the entrance to the airport, but she had only 35 minutes and was hoping to spend as little time in the entrance as possible. ",1,1,None,,,,,,0,0,0,0,,,,,0,1,1,1,,,,,,,,,,,,,,,,,,,1,13.837063495011535,,,,,,,,,,,,,,,,,,,060719_p1,001,2019_Jun_07_1232,body_behavioural_mayedit,3.0.4,60.08420741983443,
0,"Anna, a few strides into the airport, suddenly realized to her dismay that her shoes were untied, so she hunched over to tie them.",1,1,None,,,,,,0,0,0,0,,,,,0,2,2,2,,,,,,,,,,,,,,,,,,,9,6.920097016962245,,,,,,,,,,,,,,,,,,,060719_p1,001,2019_Jun_07_1232,body_behavioural_mayedit,3.0.4,60.08420741983443,
0,"David, who had been intrigued by Anna, observed that someone with a tall cart of luggage was heading straight for where she was kneeling and that both her and the person driving the cart were oblivious to the impeding collision. ",1,1,None,,,,,,0,0,0,0,,,,,0,3,3,3,,,,,,,,,,,,,,,,,,,1,10.337143049982842,,,,,,,,,,,,,,,,,,,060719_p1,001,2019_Jun_07_1232,body_behavioural_mayedit,3.0.4,60.08420741983443,
0,"After a few moment of deliberation, David decided to intervene, and he ran in front of the cart pushing her out of the way just in the nick of time, and they tumbled on the airport floor. ",1,2,None,,,,,,0,0,0,0,,,,,0,4,4,4,,,,,,,,,,,,,,,,,,,9,8.920254314958584,,,,,,,,,,,,,,,,,,,060719_p1,001,2019_Jun_07_1232,body_behavioural_mayedit,3.0.4,60.08420741983443,
0,"Anna, bewildered, looked up and saw the cart pass by and then looked at David. ",1,2,None,,,,,,0,0,0,0,,,,,0,5,5,5,,,,,,,,,,,,,,,,,,,1,5.536853065015748,,,,,,,,,,,,,,,,,,,060719_p1,001,2019_Jun_07_1232,body_behavioural_mayedit,3.0.4,60.08420741983443,
0,He flashed a smile.,1,2,None,,,,,,0,0,0,0,,,,,0,6,6,6,,,,,,,,,,,,,,,,,,,1,2.019534794962965,,,,,,,,,,,,,,,,,,,060719_p1,001,2019_Jun_07_1232,body_behavioural_mayedit,3.0.4,60.08420741983443,
0,“Were you ever a gymnast?,1,2,None,,,,,,0,0,0,0,,,,,0,7,7,7,,,,,,,,,,,,,,,,,,,9,3.519450834952295,,,,,,,,,,,,,,,,,,,060719_p1,001,2019_Jun_07_1232,body_behavioural_mayedit,3.0.4,60.08420741983443,
0," That was a nice tumble,” he said.",1,2,None,,,,,,0,0,0,0,,,,,0,8,8,8,,,,,,,,,,,,,,,,,,,1,1.8697384120314382,,,,,,,,,,,,,,,,,,,060719_p1,001,2019_Jun_07_1232,body_behavioural_mayedit,3.0.4,60.08420741983443,
0,"She managed a chuckle and said, “Actually yes, but I’d say that deserved a score of zero.",1,2,None,,,,,,0,0,0,0,,,,,0,9,9,9,,,,,,,,,,,,,,,,,,,1,4.453693009971175,,,,,,,,,,,,,,,,,,,060719_p1,001,2019_Jun_07_1232,body_behavioural_mayedit,3.0.4,60.08420741983443,
0,Wow- I almost got smooshed by that cart.”,1,2,None,,,,,,0,0,0,0,,,,,0,10,10,10,,,,,,,,,,,,,,,,,,,1,1.8865261769969948,,,,,,,,,,,,,,,,,,,060719_p1,001,2019_Jun_07_1232,body_behavioural_mayedit,3.0.4,60.08420741983443,
0,Her head was still spinning as she stared at the handsome stranger who had saved her. ,1,2,None,,,,,,0,0,0,0,,,,,0,11,11,11,,,,,,,,,,,,,,,,,,,1,3.4861024399870075,,,,,,,,,,,,,,,,,,,060719_p1,001,2019_Jun_07_1232,body_behavioural_mayedit,3.0.4,60.08420741983443,
0,David helped her up and had to keep holding on to her arms to steady her even once they were standing.,1,2,None,,,,,,0,0,0,0,,,,,0,12,12,12,,,,,,,,,,,,,,,,,,,1,8.870172074995935,,,,,,,,,,,,,,,,,,,060719_p1,001,2019_Jun_07_1232,body_behavioural_mayedit,3.0.4,60.08420741983443,
0,"“I’m really late for my flight,” she said. ",1,2,None,,,,,,0,0,0,0,,,,,0,13,13,13,,,,,,,,,,,,,,,,,,,1,2.486706191964913,,,,,,,,,,,,,,,,,,,060719_p1,001,2019_Jun_07_1232,body_behavioural_mayedit,3.0.4,60.08420741983443,
0,"“Don't worry,” said David, "let me help you get to your gate." ",1,2,None,,,,,,0,0,0,0,,,,,0,14,14,14,,,,,,,,,,,,,,,,,,,1,2.000523409980815,,,,,,,,,,,,,,,,,,,060719_p1,001,2019_Jun_07_1232,body_behavioural_mayedit,3.0.4,60.08420741983443,
0,He waved off her half-hearted protests. ,1,2,None,,,,,,0,0,0,0,,,,,0,15,15,15,,,,,,,,,,,,,,,,,,,1,4.4366779800038785,,,,,,,,,,,,,,,,,,,060719_p1,001,2019_Jun_07_1232,body_behavioural_mayedit,3.0.4,60.08420741983443,
0,“Really- I have plenty of time and nothing better to do.” he said. ,1,2,None,,,,,,0,0,0,0,,,,,0,16,16,16,,,,,,,,,,,,,,,,,,,1,3.5365541470237076,,,,,,,,,,,,,,,,,,,060719_p1,001,2019_Jun_07_1232,body_behavioural_mayedit,3.0.4,60.08420741983443,
0,"At security, the line was not long, but since Anna’s flight was so soon the security guard allowed them to go to the front of the line.",2,2,None,,,,,,0,0,0,0,,,,,0,17,17,17,,,,,,,,,,,,,,,,,,,9,4.320298070029821,,,,,,,,,,,,,,,,,,,060719_p1,001,2019_Jun_07_1232,body_behavioural_mayedit,3.0.4,60.08420741983443,
0,"They had to wait however, because there was a strange malfunction of the metal detector. ",2,2,None,,,,,,0,0,0,0,,,,,0,18,18,18,,,,,,,,,,,,,,,,,,,1,4.787121544999536,,,,,,,,,,,,,,,,,,,060719_p1,001,2019_Jun_07_1232,body_behavioural_mayedit,3.0.4,60.08420741983443,
0,"In this span of time, they managed to find out that they had gone to the same high school and that Anna had graduated 3 years before David. ",2,2,None,,,,,,0,0,0,0,,,,,0,19,19,19,,,,,,,,,,,,,,,,,,,1,6.403081281983759,,,,,,,,,,,,,,,,,,,060719_p1,001,2019_Jun_07_1232,body_behavioural_mayedit,3.0.4,60.08420741983443,
0,They hurriedly took off their shoes and coats.,2,2,None,,,,,,0,0,0,0,,,,,0,20,20,20,,,,,,,,,,,,,,,,,,,1,2.0336293959990144,,,,,,,,,,,,,,,,,,,060719_p1,001,2019_Jun_07_1232,body_behavioural_mayedit,3.0.4,60.08420741983443,
0,"Anna placed her purse and suitcase on the conveyor belt, and David put his backpack on the conveyor belt as well, with his laptop in a separate bin. ",2,2,None,,,,,,0,0,0,0,,,,,0,21,21,21,,,,,,,,,,,,,,,,,,,1,6.9208749570534565,,,,,,,,,,,,,,,,,,,060719_p1,001,2019_Jun_07_1232,body_behavioural_mayedit,3.0.4,60.08420741983443,
0,Both of them went through the metal detector without any problems. ,2,2,None,,,,,,0,0,0,0,,,,,0,22,22,22,,,,,,,,,,,,,,,,,,,1,1.6698591699823737,,,,,,,,,,,,,,,,,,,060719_p1,001,2019_Jun_07_1232,body_behavioural_mayedit,3.0.4,60.08420741983443,
0,"As they were rushing to put their shoes and coats on, they shared when they were coming back. ",2,2,None,,,,,,0,0,0,0,,,,,0,23,23,23,,,,,,,,,,,,,,,,,,,1,6.90345562499715,,,,,,,,,,,,,,,,,,,060719_p1,001,2019_Jun_07_1232,body_behavioural_mayedit,3.0.4,60.08420741983443,
0,"In a moment of boldness, David asked, “When we're back in town next Tuesday, is there any chance you'd want to get dinner?",2,3,None,,,,,,0,0,0,0,,,,,0,24,24,24,,,,,,,,,,,,,,,,,,,9,13.08716178999748,,,,,,,,,,,,,,,,,,,060719_p1,001,2019_Jun_07_1232,body_behavioural_mayedit,3.0.4,60.08420741983443,
0,"I know we just met, but when life throws a luggage cart at you it seems like we should listen. “",2,3,None,,,,,,0,0,0,0,,,,,0,25,25,25,,,,,,,,,,,,,,,,,,,1,4.053263581998181,,,,,,,,,,,,,,,,,,,060719_p1,001,2019_Jun_07_1232,body_behavioural_mayedit,3.0.4,60.08420741983443,
0,"She stopped packing, and said with a smile, “Yes I would love that.”",2,3,None,,,,,,0,0,0,0,,,,,0,26,26,26,,,,,,,,,,,,,,,,,,,1,6.220059701998252,,,,,,,,,,,,,,,,,,,060719_p1,001,2019_Jun_07_1232,body_behavioural_mayedit,3.0.4,60.08420741983443,
0,"On the concourse, they were running to get to Anna’s gate, J37, which was at the end of the terminal. ",3,3,None,,,,,,0,0,0,0,,,,,0,27,27,27,,,,,,,,,,,,,,,,,,,1,9.32003371004248,,,,,,,,,,,,,,,,,,,060719_p1,001,2019_Jun_07_1232,body_behavioural_mayedit,3.0.4,60.08420741983443,
0,"David took her suitcase, grabbed her hand, and weaved crowd of people.",3,3,None,,,,,,0,0,0,0,,,,,0,28,28,28,,,,,,,,,,,,,,,,,,,1,4.753146662027575,,,,,,,,,,,,,,,,,,,060719_p1,001,2019_Jun_07_1232,body_behavioural_mayedit,3.0.4,60.08420741983443,
0,People passing them were giving them funny looks because Anna looked so bewildered.,3,3,None,,,,,,0,0,0,0,,,,,0,29,29,29,,,,,,,,,,,,,,,,,,,1,2.8366865750285797,,,,,,,,,,,,,,,,,,,060719_p1,001,2019_Jun_07_1232,body_behavioural_mayedit,3.0.4,60.08420741983443,
0,"Before getting to the gate, explaining that she would sprint the rest of the way, Anna fished out a crumpled business card from her pocket and handed it to David, who handed her the suitcase.",3,4,None,,,,,,0,0,0,0,,,,,0,30,30,30,,,,,,,,,,,,,,,,,,,1,11.170357119990513,,,,,,,,,,,,,,,,,,,060719_p1,001,2019_Jun_07_1232,body_behavioural_mayedit,3.0.4,60.08420741983443,
0,"She gave him one last embarrassed smile, thanked him, and hurried away.",3,4,None,,,,,,0,0,0,0,,,,,0,31,31,31,,,,,,,,,,,,,,,,,,,1,2.936427309992723,,,,,,,,,,,,,,,,,,,060719_p1,001,2019_Jun_07_1232,body_behavioural_mayedit,3.0.4,60.08420741983443,
0,"David looked at his watch which read 10:55 AM, 5 minutes before her flight was supposed to leave. ",3,4,None,,,,,,0,0,0,0,,,,,0,32,32,32,,,,,,,,,,,,,,,,,,,1,7.136463716975413,,,,,,,,,,,,,,,,,,,060719_p1,001,2019_Jun_07_1232,body_behavioural_mayedit,3.0.4,60.08420741983443,
0,"At the gate, Anna waved to the flight attendant who motioned for her to hurry and she boarded the plane. ",4,4,None,,,,,,0,0,0,0,,,,,0,33,33,33,,,,,,,,,,,,,,,,,,,1,4.086064574948978,,,,,,,,,,,,,,,,,,,060719_p1,001,2019_Jun_07_1232,body_behavioural_mayedit,3.0.4,60.08420741983443,
0,"She slid into her window seat 7D in business class, and barely containing her glee, she hugged the plastic-wrapped blanket. ",4,4,None,,,,,,0,0,0,0,,,,,0,34,34,34,,,,,,,,,,,,,,,,,,,9,7.336768685025163,,,,,,,,,,,,,,,,,,,060719_p1,001,2019_Jun_07_1232,body_behavioural_mayedit,3.0.4,60.08420741983443,
0,"She was thankful that she had not only made it onto the plane in time, but also that she had been clumsy enough to forget to tie her shoes.",4,4,None,,,,,,0,0,0,0,,,,,0,35,35,35,,,,,,,,,,,,,,,,,,,1,5.120125024986919,,,,,,,,,,,,,,,,,,,060719_p1,001,2019_Jun_07_1232,body_behavioural_mayedit,3.0.4,60.08420741983443,
0,,,,,,,,,,0,0,0,0,,,,,,,,,,,,,,,,,,,,,,,,,,,,,,,,,,,,,,,,,,,,,,,060719_p1,001,2019_Jun_07_1232,body_behavioural_mayedit,3.0.4,60.08420741983443,
1,,,,,,,,,,0,1,1,1,0,0,0,0,,,,,,,,,,,,,,,,,space,3.65087469201535,space,1.4199479750241153,space,0.7697521569789387,,,,,,,,,,,,,,,,,,,,,060719_p1,001,2019_Jun_07_1232,body_behavioural_mayedit,3.0.4,60.08420741983443,
1,,,,,,,,,,0,1,1,1,1,0,1,0,,,,,,,,,,,,,,,,,,,,,space,0.7701742129866034,,,,,,,,,,,,,,,,,,,,,060719_p1,001,2019_Jun_07_1232,body_behavioural_mayedit,3.0.4,60.08420741983443,
1,"Ms. Bianchi and Ms. Morrison walked into the grocery store at the same time, and, after a moment of mutual recognition, greeted each other with a handshake.",1.0,1.0,33.0,,,,,,0,1,1,1,,,,,0,0,0,0,,,,,,,,,,,,,,,,,,,1,10.220514944987372,,,,,,,,,,,,,,,,,,,060719_p1,001,2019_Jun_07_1232,body_behavioural_mayedit,3.0.4,60.08420741983443,
1,"They were standing in the entrance of the grocery store, which had displays of pumpkins, candy, and halloween decorations set up in different stations around the door. ",1.0,1.0,None,,,,,,0,1,1,1,,,,,0,1,1,1,,,,,,,,,,,,,,,,,,,1,12.771572965022642,,,,,,,,,,,,,,,,,,,060719_p1,001,2019_Jun_07_1232,body_behavioural_mayedit,3.0.4,60.08420741983443,
1,"“Thank you again for inviting me here to discuss my business proposal,” said Ms. Bianchi.",1.0,1.0,None,,,,,,0,1,1,1,,,,,0,2,2,2,,,,,,,,,,,,,,,,,,,1,3.6032955280388705,,,,,,,,,,,,,,,,,,,060719_p1,001,2019_Jun_07_1232,body_behavioural_mayedit,3.0.4,60.08420741983443,
1,“It’s a pleasure to be out of the office.” ,1.0,1.0,None,,,,,,0,1,1,1,,,,,0,3,3,3,,,,,,,,,,,,,,,,,,,1,1.735899702005554,,,,,,,,,,,,,,,,,,,060719_p1,001,2019_Jun_07_1232,body_behavioural_mayedit,3.0.4,60.08420741983443,
1,"As an account representative for an Italian cheese company that was trying to expand its outreach to American grocery stores, this meeting was pivotal for Ms. Bianchi.",1.0,1.0,None,,,,,,0,1,1,1,,,,,0,4,4,4,,,,,,,,,,,,,,,,,,,1,8.903479676984716,,,,,,,,,,,,,,,,,,,060719_p1,001,2019_Jun_07_1232,body_behavioural_mayedit,3.0.4,60.08420741983443,
1,"Her sales target, Ms. Morrison, was the senior product manager for a corporate grocer and she had a say in the products distributed in stores across the West Coast.",1.0,1.0,None,,,,,,0,1,1,1,,,,,0,5,5,5,,,,,,,,,,,,,,,,,,,1,7.451228580030147,,,,,,,,,,,,,,,,,,,060719_p1,001,2019_Jun_07_1232,body_behavioural_mayedit,3.0.4,60.08420741983443,
1,"Ms. Morrison was also known for doing things unconventionally: for example, she said that she liked to make deals with suppliers in the place where the products were sold- “to keep their minds focused on what’s important.” ",1.0,1.0,None,,,,,,0,1,1,1,,,,,0,6,6,6,,,,,,,,,,,,,,,,,,,1,8.40334083000198,,,,,,,,,,,,,,,,,,,060719_p1,001,2019_Jun_07_1232,body_behavioural_mayedit,3.0.4,60.08420741983443,
1,"In the cheese section of the grocery store, Ms. Morrison motioned to the parmesan.",2.0,1.0,None,,,,,,0,1,1,1,,,,,0,7,7,7,,,,,,,,,,,,,,,,,,,9,4.019608135044109,,,,,,,,,,,,,,,,,,,060719_p1,001,2019_Jun_07_1232,body_behavioural_mayedit,3.0.4,60.08420741983443,
1,“We have quite a selection here.,2.0,1.0,None,,,,,,0,1,1,1,,,,,0,8,8,8,,,,,,,,,,,,,,,,,,,1,2.419881940004416,,,,,,,,,,,,,,,,,,,060719_p1,001,2019_Jun_07_1232,body_behavioural_mayedit,3.0.4,60.08420741983443,
1,I don’t know that we need an additional section for gourmet cheeses.” ,2.0,1.0,None,,,,,,0,1,1,1,,,,,0,9,9,9,,,,,,,,,,,,,,,,,,,1,2.436630225041881,,,,,,,,,,,,,,,,,,,060719_p1,001,2019_Jun_07_1232,body_behavioural_mayedit,3.0.4,60.08420741983443,
1," Ms. Bianchi did not hesitate but launched into her pitch: “Ms. Morrison, I think you would agree that selling food is more than just providing variety, but also about providing the highest quality.",2.0,2.0,None,,,,,,0,1,1,1,,,,,0,10,10,10,,,,,,,,,,,,,,,,,,,1,8.986889447027352,,,,,,,,,,,,,,,,,,,060719_p1,001,2019_Jun_07_1232,body_behavioural_mayedit,3.0.4,60.08420741983443,
1,You don’t have cheeses made in America that are like ours- it is true.,2.0,2.0,None,,,,,,0,1,1,1,,,,,0,11,11,11,,,,,,,,,,,,,,,,,,,1,4.436163006990682,,,,,,,,,,,,,,,,,,,060719_p1,001,2019_Jun_07_1232,body_behavioural_mayedit,3.0.4,60.08420741983443,
1,The availability of a product of excellent quality leads to the appreciation of the product.,2.0,2.0,None,,,,,,0,1,1,1,,,,,0,12,12,12,,,,,,,,,,,,,,,,,,,1,4.40333656698931,,,,,,,,,,,,,,,,,,,060719_p1,001,2019_Jun_07_1232,body_behavioural_mayedit,3.0.4,60.08420741983443,
1,"Your consumers will want to buy other, finer products to compliment that first ingredient, and suddenly your customer will be consuming in a new, more profitable way.",2.0,2.0,None,,,,,,0,1,1,1,,,,,0,13,13,13,,,,,,,,,,,,,,,,,,,1,38.698579191055615,,,,,,,,,,,,,,,,,,,060719_p1,001,2019_Jun_07_1232,body_behavioural_mayedit,3.0.4,60.08420741983443,
1,"I propose that you give it a shot: buy $1500 worth of cheese products for a few stores, and see how the sales increase not only in our cheeses but also in products related to cheeses: crackers, jams, olives.”",2.0,2.0,None,,,,,,0,1,1,1,,,,,0,14,14,14,,,,,,,,,,,,,,,,,,,1,11.771179547999054,,,,,,,,,,,,,,,,,,,060719_p1,001,2019_Jun_07_1232,body_behavioural_mayedit,3.0.4,60.08420741983443,
1,"Ms. Bianchi picked up a box of crackers by the cheese section, and said, “Here, I will buy these, and we can try some of our cheeses that I've brought with me.”",2.0,2.0,None,,,,,,0,1,1,1,,,,,0,15,15,15,,,,,,,,,,,,,,,,,,,9,6.036915219970979,,,,,,,,,,,,,,,,,,,060719_p1,001,2019_Jun_07_1232,body_behavioural_mayedit,3.0.4,60.08420741983443,
1,"Ms. Morrison, who was thinking about the proposed offer, nodded in agreement and said, “That sounds like a great idea, but those crackers are on me.”",2.0,2.0,None,,,,,,0,1,1,1,,,,,0,16,16,16,,,,,,,,,,,,,,,,,,,1,4.886641605000477,,,,,,,,,,,,,,,,,,,060719_p1,001,2019_Jun_07_1232,body_behavioural_mayedit,3.0.4,60.08420741983443,
1,She took the crackers from Ms. Bianchi and also picked up a bottle of ketchup and a case of sparkling water “for later.”,2.0,2.0,None,,,,,,0,1,1,1,,,,,0,17,17,17,,,,,,,,,,,,,,,,,,,1,4.834266300022136,,,,,,,,,,,,,,,,,,,060719_p1,001,2019_Jun_07_1232,body_behavioural_mayedit,3.0.4,60.08420741983443,
1,It was very busy in the checkout area.,3.0,2.0,None,,,,,,0,1,1,1,,,,,0,18,18,18,,,,,,,,,,,,,,,,,,,9,2.6008994770236313,,,,,,,,,,,,,,,,,,,060719_p1,001,2019_Jun_07_1232,body_behavioural_mayedit,3.0.4,60.08420741983443,
1,"People were stocking up for Halloween parties and trick-or-treating, and there were 10 aisles open. ",3.0,2.0,None,,,,,,0,1,1,1,,,,,0,19,19,19,,,,,,,,,,,,,,,,,,,1,4.451316035003401,,,,,,,,,,,,,,,,,,,060719_p1,001,2019_Jun_07_1232,body_behavioural_mayedit,3.0.4,60.08420741983443,
1,They stepped into lane 6 and waited.,3.0,2.0,None,,,,,,0,1,1,1,,,,,0,20,20,20,,,,,,,,,,,,,,,,,,,1,3.334155226999428,,,,,,,,,,,,,,,,,,,060719_p1,001,2019_Jun_07_1232,body_behavioural_mayedit,3.0.4,60.08420741983443,
1,Ms. Bianchi handed to Ms. Morrison a packet with printed graphs of the increase in profits that several other stores in Italy had seen after starting to carry their products.,3.0,2.0,None,,,,,,0,1,1,1,,,,,0,21,21,21,,,,,,,,,,,,,,,,,,,1,9.001066691998858,,,,,,,,,,,,,,,,,,,060719_p1,001,2019_Jun_07_1232,body_behavioural_mayedit,3.0.4,60.08420741983443,
1,"After a couple minutes of thinking, Ms. Morrison widened her eyes and said confidently, “You know what, I think you've convinced me that this could work. ",3.0,3.0,None,,,,,,0,1,1,1,,,,,0,22,22,22,,,,,,,,,,,,,,,,,,,1,5.684336970036384,,,,,,,,,,,,,,,,,,,060719_p1,001,2019_Jun_07_1232,body_behavioural_mayedit,3.0.4,60.08420741983443,
1,We've been trying to find a way to add a little European cachet to our stores.,3.0,3.0,None,,,,,,0,1,1,1,,,,,0,23,23,23,,,,,,,,,,,,,,,,,,,1,2.75074335699901,,,,,,,,,,,,,,,,,,,060719_p1,001,2019_Jun_07_1232,body_behavioural_mayedit,3.0.4,60.08420741983443,
1,"Our competitor, Orange Grocers, hasn’t expanded in this direction yet, and I’d like to beat them to it. ",3.0,3.0,None,,,,,,0,1,1,1,,,,,0,24,24,24,,,,,,,,,,,,,,,,,,,1,3.8531956869992428,,,,,,,,,,,,,,,,,,,060719_p1,001,2019_Jun_07_1232,body_behavioural_mayedit,3.0.4,60.08420741983443,
1,There's still a problem though- I'm worried we'll be paying out the nose for the import taxes.,3.0,3.0,None,,,,,,0,1,1,1,,,,,0,25,25,25,,,,,,,,,,,,,,,,,,,9,4.93647873000009,,,,,,,,,,,,,,,,,,,060719_p1,001,2019_Jun_07_1232,body_behavioural_mayedit,3.0.4,60.08420741983443,
1,Is that the case?",3.0,3.0,None,,,,,,0,1,1,1,,,,,0,26,26,26,,,,,,,,,,,,,,,,,,,1,1.8863973499974236,,,,,,,,,,,,,,,,,,,060719_p1,001,2019_Jun_07_1232,body_behavioural_mayedit,3.0.4,60.08420741983443,
1,"It was Ms. Morrison’s turn to check out, and the cashier chatted with Ms. Morrison as she scanned the items.",4.0,3.0,None,,,,,,0,1,1,1,,,,,0,27,27,27,,,,,,,,,,,,,,,,,,,9,6.5347643900313415,,,,,,,,,,,,,,,,,,,060719_p1,001,2019_Jun_07_1232,body_behavioural_mayedit,3.0.4,60.08420741983443,
1,Ms. Morrison was also distinguished for knowing most of the employees personally. ,None,None,None,,,,,,0,1,1,1,,,,,0,28,28,28,,,,,,,,,,,,,,,,,,,1,4.6200494799995795,,,,,,,,,,,,,,,,,,,060719_p1,001,2019_Jun_07_1232,body_behavioural_mayedit,3.0.4,60.08420741983443,
1,Ms. Bianchi watched in amusement as Ms. Morrison paid the $23 price by writing a check. ,4.0,3.0,None,,,,,,0,1,1,1,,,,,0,29,29,29,,,,,,,,,,,,,,,,,,,1,5.853692181990482,,,,,,,,,,,,,,,,,,,060719_p1,001,2019_Jun_07_1232,body_behavioural_mayedit,3.0.4,60.08420741983443,
1,"After Ms. Bianci addressed Ms. Morrison’s concerns, they came to an agreement and would have enough cheese shipments, $20,000 worth, to different stores to qualify for a subsidized import tax. ",4.0,4.0,None,,,,,,0,1,1,1,,,,,0,30,30,30,,,,,,,,,,,,,,,,,,,1,19.237676032993477,,,,,,,,,,,,,,,,,,,060719_p1,001,2019_Jun_07_1232,body_behavioural_mayedit,3.0.4,60.08420741983443,
1,"Ms. Morrison had had a small bottle of champagne in her purse, and she pulled it out and popped it in celebration of their deal. ",4.0,4.0,None,,,,,,0,1,1,1,,,,,0,31,31,31,,,,,,,,,,,,,,,,,,,1,7.18624947196804,,,,,,,,,,,,,,,,,,,060719_p1,001,2019_Jun_07_1232,body_behavioural_mayedit,3.0.4,60.08420741983443,
1,Ms. Bianchi decided that she loved doing business with Americans. ,4.0,4.0,None,,,,,,0,1,1,1,,,,,0,32,32,32,,,,,,,,,,,,,,,,,,,9,4.086756170028821,,,,,,,,,,,,,,,,,,,060719_p1,001,2019_Jun_07_1232,body_behavioural_mayedit,3.0.4,60.08420741983443,
1,,,,,,,,,,0,1,1,1,,,,,,,,,,,,,,,,,,,,,,,,,,,,,,,,,,,,,,,,,,,,,,,060719_p1,001,2019_Jun_07_1232,body_behavioural_mayedit,3.0.4,60.08420741983443,
2,,,,,,,,,,0,2,2,2,0,0,0,0,,,,,,,,,,,,,,,,,space,3.685936221969314,space,0.8865373749868013,space,0.8530867070076056,,,,,,,,,,,,,,,,,,,,,060719_p1,001,2019_Jun_07_1232,body_behavioural_mayedit,3.0.4,60.08420741983443,
2,The grocery store was not the place Emmanuella and Liam wanted to be at the moment considering that they had been fighting to the point where Emmanuella was thinking of breaking up with Liam.,1.0,1.0,13.0,,,,,,0,2,2,2,,,,,0,0,0,0,,,,,,,,,,,,,,,,,,,9,17.18768892000662,,,,,,,,,,,,,,,,,,,060719_p1,001,2019_Jun_07_1232,body_behavioural_mayedit,3.0.4,60.08420741983443,
2,Emmanuella had been thinking of breaking up with Liam for the past 5 months.,None,None,None,,,,,,0,2,2,2,,,,,0,1,1,1,,,,,,,,,,,,,,,,,,,1,3.720655854966026,,,,,,,,,,,,,,,,,,,060719_p1,001,2019_Jun_07_1232,body_behavioural_mayedit,3.0.4,60.08420741983443,
2,"Despite the current tension, they had to go grocery shopping because they were hosting a dinner party for friends that evening and had little at home with which to cook. ",1.0,1.0,None,,,,,,0,2,2,2,,,,,0,2,2,2,,,,,,,,,,,,,,,,,,,1,10.153878065000754,,,,,,,,,,,,,,,,,,,060719_p1,001,2019_Jun_07_1232,body_behavioural_mayedit,3.0.4,60.08420741983443,
2,"The grocery store smelled like lavender upon entering and was dimly lit with pine shelves in the entrance and obscure, organic products displayed on them.",1.0,1.0,None,,,,,,0,2,2,2,,,,,0,3,3,3,,,,,,,,,,,,,,,,,,,1,118.39465780497994,,,,,,,,,,,,,,,,,,,060719_p1,001,2019_Jun_07_1232,body_behavioural_mayedit,3.0.4,60.08420741983443,
2,"In the pasta section, Emmanuella grabbed a few boxes of bow-tie pasta.",2.0,1.0,None,,,,,,0,2,2,2,,,,,0,4,4,4,,,,,,,,,,,,,,,,,,,1,0.2532084549893625,,,,,,,,,,,,,,,,,,,060719_p1,001,2019_Jun_07_1232,body_behavioural_mayedit,3.0.4,60.08420741983443,
2,"“I guess we are having a pasta dish tonight,” Liam said.",2.0,1.0,None,,,,,,0,2,2,2,,,,,0,5,5,5,,,,,,,,,,,,,,,,,,,1,4.216972124995664,,,,,,,,,,,,,,,,,,,060719_p1,001,2019_Jun_07_1232,body_behavioural_mayedit,3.0.4,60.08420741983443,
2,"Emmanuella looked back at him and said, “Well if you were going to actually help cook, I would be fine with something else.”",2.0,1.0,None,,,,,,0,2,2,2,,,,,0,6,6,6,,,,,,,,,,,,,,,,,,,1,6.486653222993482,,,,,,,,,,,,,,,,,,,060719_p1,001,2019_Jun_07_1232,body_behavioural_mayedit,3.0.4,60.08420741983443,
2,"Liam sighed, and finally said, “You know- you don’t want me to help.",2.0,1.0,None,,,,,,0,2,2,2,,,,,0,7,7,7,,,,,,,,,,,,,,,,,,,1,5.603366716997698,,,,,,,,,,,,,,,,,,,060719_p1,001,2019_Jun_07_1232,body_behavioural_mayedit,3.0.4,60.08420741983443,
2,"I try to, but it seems like I always get in the way!” ",2.0,1.0,None,,,,,,0,2,2,2,,,,,0,8,8,8,,,,,,,,,,,,,,,,,,,1,1.9530062929843552,,,,,,,,,,,,,,,,,,,060719_p1,001,2019_Jun_07_1232,body_behavioural_mayedit,3.0.4,60.08420741983443,
2,Emmanuella shook her head and dropped the pasta boxes in the basket she was holding.,2.0,1.0,None,,,,,,0,2,2,2,,,,,0,9,9,9,,,,,,,,,,,,,,,,,,,1,4.569809690001421,,,,,,,,,,,,,,,,,,,060719_p1,001,2019_Jun_07_1232,body_behavioural_mayedit,3.0.4,60.08420741983443,
2," “Like you even try,” she mumbled to herself. ",2.0,1.0,None,,,,,,0,2,2,2,,,,,0,10,10,10,,,,,,,,,,,,,,,,,,,1,1.953267712960951,,,,,,,,,,,,,,,,,,,060719_p1,001,2019_Jun_07_1232,body_behavioural_mayedit,3.0.4,60.08420741983443,
2,She continued down the aisle and studied a jar of vodka sauce and a can of olives before putting them in the basket as well. ,2.0,1.0,None,,,,,,0,2,2,2,,,,,0,11,11,11,,,,,,,,,,,,,,,,,,,1,4.3176271399715915,,,,,,,,,,,,,,,,,,,060719_p1,001,2019_Jun_07_1232,body_behavioural_mayedit,3.0.4,60.08420741983443,
2,"Emmanuella suddenly wrinkled her eyebrows, turned to Liam, and said, “I want to break up since I’m tired of the constant fighting. ",2.0,2.0,None,,,,,,0,2,2,2,,,,,0,12,12,12,,,,,,,,,,,,,,,,,,,9,5.367611204972491,,,,,,,,,,,,,,,,,,,060719_p1,001,2019_Jun_07_1232,body_behavioural_mayedit,3.0.4,60.08420741983443,
2,"I was going to wait until after this horribly-timed dinner party tonight to talk about this, but I might as well say it now.",2.0,2.0,None,,,,,,0,2,2,2,,,,,0,13,13,13,,,,,,,,,,,,,,,,,,,1,5.4700143020018,,,,,,,,,,,,,,,,,,,060719_p1,001,2019_Jun_07_1232,body_behavioural_mayedit,3.0.4,60.08420741983443,
2,"I feel like when we try to do anything anymore it ends up unpleasant for the stupidest reasons, and I am just past trying to work things out.”",2.0,2.0,None,,,,,,0,2,2,2,,,,,0,14,14,14,,,,,,,,,,,,,,,,,,,1,8.30366989702452,,,,,,,,,,,,,,,,,,,060719_p1,001,2019_Jun_07_1232,body_behavioural_mayedit,3.0.4,60.08420741983443,
2,Liam was nodding automatically.,2.0,2.0,None,,,,,,0,2,2,2,,,,,0,15,15,15,,,,,,,,,,,,,,,,,,,1,2.468563325004652,,,,,,,,,,,,,,,,,,,060719_p1,001,2019_Jun_07_1232,body_behavioural_mayedit,3.0.4,60.08420741983443,
2,"In the checkout area, there was only one station open, Station 2, but it was not very crowded.",3.0,2.0,None,,,,,,0,2,2,2,,,,,0,16,16,16,,,,,,,,,,,,,,,,,,,9,4.869754257029854,,,,,,,,,,,,,,,,,,,060719_p1,001,2019_Jun_07_1232,body_behavioural_mayedit,3.0.4,60.08420741983443,
2,They got in line.,3.0,2.0,None,,,,,,0,2,2,2,,,,,0,17,17,17,,,,,,,,,,,,,,,,,,,1,2.3852138050133362,,,,,,,,,,,,,,,,,,,060719_p1,001,2019_Jun_07_1232,body_behavioural_mayedit,3.0.4,60.08420741983443,
2,"Liam gazed in the direction of the magazines, but his eyes were glazed over as he was working things out in his head while Emmanuella scrutinized the pasta sauce again. ",3.0,2.0,None,,,,,,0,2,2,2,,,,,0,18,18,18,,,,,,,,,,,,,,,,,,,1,9.404472624999471,,,,,,,,,,,,,,,,,,,060719_p1,001,2019_Jun_07_1232,body_behavioural_mayedit,3.0.4,60.08420741983443,
2,"After a few minutes of thinking, Liam recollected himself, turned to her, and sighed, “Yes, I think the same thing.",3.0,3.0,None,,,,,,0,2,2,2,,,,,0,19,19,19,,,,,,,,,,,,,,,,,,,1,6.370496815012302,,,,,,,,,,,,,,,,,,,060719_p1,001,2019_Jun_07_1232,body_behavioural_mayedit,3.0.4,60.08420741983443,
2,I think we should break up because we could definitely be happier with other people.” ,3.0,3.0,None,,,,,,0,2,2,2,,,,,0,20,20,20,,,,,,,,,,,,,,,,,,,1,2.9532698869588785,,,,,,,,,,,,,,,,,,,060719_p1,001,2019_Jun_07_1232,body_behavioural_mayedit,3.0.4,60.08420741983443,
2,Emmanuella nodded as she listened. ,3.0,3.0,None,,,,,,0,2,2,2,,,,,0,21,21,21,,,,,,,,,,,,,,,,,,,1,1.2697063369560055,,,,,,,,,,,,,,,,,,,060719_p1,001,2019_Jun_07_1232,body_behavioural_mayedit,3.0.4,60.08420741983443,
2,The cashier scanned their groceries.,4.0,3.0,None,,,,,,0,2,2,2,,,,,0,22,22,22,,,,,,,,,,,,,,,,,,,9,2.301716463989578,,,,,,,,,,,,,,,,,,,060719_p1,001,2019_Jun_07_1232,body_behavioural_mayedit,3.0.4,60.08420741983443,
2,"The cost came to $30, and Emmanuella paid with her credit card.",4.0,3.0,None,,,,,,0,2,2,2,,,,,0,23,23,23,,,,,,,,,,,,,,,,,,,1,2.170145011972636,,,,,,,,,,,,,,,,,,,060719_p1,001,2019_Jun_07_1232,body_behavioural_mayedit,3.0.4,60.08420741983443,
2,"She asked Liam politely to take the bags, and he obliged, following her to the exit. ",4.0,3.0,None,,,,,,0,2,2,2,,,,,0,24,24,24,,,,,,,,,,,,,,,,,,,1,3.637630786979571,,,,,,,,,,,,,,,,,,,060719_p1,001,2019_Jun_07_1232,body_behavioural_mayedit,3.0.4,60.08420741983443,
2,"Filled with a sudden wave of sadness, Emmanuella said, “Liam, I think we are making the right decision- this is good.”",4.0,4.0,None,,,,,,0,2,2,2,,,,,0,25,25,25,,,,,,,,,,,,,,,,,,,1,6.98641824699007,,,,,,,,,,,,,,,,,,,060719_p1,001,2019_Jun_07_1232,body_behavioural_mayedit,3.0.4,60.08420741983443,
2,"“I agree,” he said, relieved at the hope he was entertaining that they had just gotten through their last fight. ",4.0,4.0,None,,,,,,0,2,2,2,,,,,0,26,26,26,,,,,,,,,,,,,,,,,,,1,7.02006202202756,,,,,,,,,,,,,,,,,,,060719_p1,001,2019_Jun_07_1232,body_behavioural_mayedit,3.0.4,60.08420741983443,
2,"“I think we can still host this dinner tonight, as long as you're still on board,” Emmanuella said.",4.0,4.0,None,,,,,,0,2,2,2,,,,,0,27,27,27,,,,,,,,,,,,,,,,,,,1,3.51681409397861,,,,,,,,,,,,,,,,,,,060719_p1,001,2019_Jun_07_1232,body_behavioural_mayedit,3.0.4,60.08420741983443,
2,"Liam nodded, “Yes, let’s just not tell anyone we’ve broken up tonight.” ",4.0,4.0,None,,,,,,0,2,2,2,,,,,0,28,28,28,,,,,,,,,,,,,,,,,,,1,3.786656846990809,,,,,,,,,,,,,,,,,,,060719_p1,001,2019_Jun_07_1232,body_behavioural_mayedit,3.0.4,60.08420741983443,
2,"Emmanuella laughed, “Whoever leaks it loses their right to the cat.”",4.0,4.0,None,,,,,,0,2,2,2,,,,,0,29,29,29,,,,,,,,,,,,,,,,,,,1,7.869444155017845,,,,,,,,,,,,,,,,,,,060719_p1,001,2019_Jun_07_1232,body_behavioural_mayedit,3.0.4,60.08420741983443,
2,"Liam chuckled and responded, “Hey!",4.0,4.0,None,,,,,,0,2,2,2,,,,,0,30,30,30,,,,,,,,,,,,,,,,,,,1,1.936474372050725,,,,,,,,,,,,,,,,,,,060719_p1,001,2019_Jun_07_1232,body_behavioural_mayedit,3.0.4,60.08420741983443,
2,Luna is mine and I want her back.”,4.0,4.0,None,,,,,,0,2,2,2,,,,,0,31,31,31,,,,,,,,,,,,,,,,,,,1,1.6531448449823074,,,,,,,,,,,,,,,,,,,060719_p1,001,2019_Jun_07_1232,body_behavioural_mayedit,3.0.4,60.08420741983443,
2,"Emmanuella rolled her eyes, knowing the cat would be a whole other issue to sort out later.
",4.0,4.0,None,,,,,,0,2,2,2,,,,,0,32,32,32,,,,,,,,,,,,,,,,,,,9,3.7033451430033892,,,,,,,,,,,,,,,,,,,060719_p1,001,2019_Jun_07_1232,body_behavioural_mayedit,3.0.4,60.08420741983443,
2,,,,,,,,,,0,2,2,2,,,,,,,,,,,,,,,,,,,,,,,,,,,,,,,,,,,,,,,,,,,,,,,060719_p1,001,2019_Jun_07_1232,body_behavioural_mayedit,3.0.4,60.08420741983443,
3,,,,,,,,,,0,3,3,3,0,0,0,0,,,,,,,,,,,,,,,,,space,50.5632483449881,space,1.2030520899570547,space,6.819792735041119,,,,,,,,,,,,,,,,,,,,,060719_p1,001,2019_Jun_07_1232,body_behavioural_mayedit,3.0.4,60.08420741983443,
3,"Sven and Isabel walked hurriedly from the cab into the Barcelona Airport after an incredible week with Isabel’s family, and this had wiped away any doubts Sven had had about his decision to propose. ",1,1,22.0,,,,,,0,3,3,3,,,,,0,0,0,0,,,,,,,,,,,,,,,,,,,9,23.122017551970202,,,,,,,,,,,,,,,,,,,060719_p1,001,2019_Jun_07_1232,body_behavioural_mayedit,3.0.4,60.08420741983443,
3,They had only been dating for 11 months so this was the first time he had met her family. ,1,1,None,,,,,,0,3,3,3,,,,,0,1,1,1,,,,,,,,,,,,,,,,,,,1,8.853533525019884,,,,,,,,,,,,,,,,,,,060719_p1,001,2019_Jun_07_1232,body_behavioural_mayedit,3.0.4,60.08420741983443,
3,"They were pressed for time at the airport, with an hour and 15 minutes until their flight would take off to go back to the US, but they already had their online boarding passes and no checked luggage. ",1,1,None,,,,,,0,3,3,3,,,,,0,2,2,2,,,,,,,,,,,,,,,,,,,1,8.903583419974893,,,,,,,,,,,,,,,,,,,060719_p1,001,2019_Jun_07_1232,body_behavioural_mayedit,3.0.4,60.08420741983443,
3,"Isabel stopped to rummage through her purse to look for her phone, and meanwhile Sven turned his back to her and took the velvet box out of his backpack, opening it to look at the ring he had bought her.",1,2,None,,,,,,0,3,3,3,,,,,0,3,3,3,,,,,,,,,,,,,,,,,,,9,16.020403082016855,,,,,,,,,,,,,,,,,,,060719_p1,001,2019_Jun_07_1232,body_behavioural_mayedit,3.0.4,60.08420741983443,
3,"He had received her parents’ blessing during the trip, and he was almost giddy with excitement. ",1,2,None,,,,,,0,3,3,3,,,,,0,4,4,4,,,,,,,,,,,,,,,,,,,1,5.284359932004008,,,,,,,,,,,,,,,,,,,060719_p1,001,2019_Jun_07_1232,body_behavioural_mayedit,3.0.4,60.08420741983443,
3,"He tilted the ring backward and forward, despite having already studied it daily since purchasing it a few weeks ago. ",1,2,None,,,,,,0,3,3,3,,,,,0,5,5,5,,,,,,,,,,,,,,,,,,,1,7.403570564987604,,,,,,,,,,,,,,,,,,,060719_p1,001,2019_Jun_07_1232,body_behavioural_mayedit,3.0.4,60.08420741983443,
3,"It was a simple design, with two pink diamonds on a silver band.",1,2,None,,,,,,0,3,3,3,,,,,0,6,6,6,,,,,,,,,,,,,,,,,,,1,3.7034903520252556,,,,,,,,,,,,,,,,,,,060719_p1,001,2019_Jun_07_1232,body_behavioural_mayedit,3.0.4,60.08420741983443,
3,"“Sven, I’m good,” Isabel said. ",1,2,None,,,,,,0,3,3,3,,,,,0,7,7,7,,,,,,,,,,,,,,,,,,,9,5.2529916819767095,,,,,,,,,,,,,,,,,,,060719_p1,001,2019_Jun_07_1232,body_behavioural_mayedit,3.0.4,60.08420741983443,
3,Sven closed the box and discretely put it in his pocket.,1,2,None,,,,,,0,3,3,3,,,,,0,8,8,8,,,,,,,,,,,,,,,,,,,1,3.2866200549760833,,,,,,,,,,,,,,,,,,,060719_p1,001,2019_Jun_07_1232,body_behavioural_mayedit,3.0.4,60.08420741983443,
3,"They entered the security line, weaving through the roped walkways to the front. ",2,2,None,,,,,,0,3,3,3,,,,,0,9,9,9,,,,,,,,,,,,,,,,,,,1,5.720155211980455,,,,,,,,,,,,,,,,,,,060719_p1,001,2019_Jun_07_1232,body_behavioural_mayedit,3.0.4,60.08420741983443,
3,"When they were up, Isabel realized her laptop was buried somewhere in her duffle bag. ",2,2,None,,,,,,0,3,3,3,,,,,0,10,10,10,,,,,,,,,,,,,,,,,,,1,48.122696625010576,,,,,,,,,,,,,,,,,,,060719_p1,001,2019_Jun_07_1232,body_behavioural_mayedit,3.0.4,60.08420741983443,
3,"Luckily, at the same time, there was a stall in the line because someone ahead of them had a suspicious amount of metal pieces on his person. ",2,2,None,,,,,,0,3,3,3,,,,,0,11,11,11,,,,,,,,,,,,,,,,,,,1,7.26976537500741,,,,,,,,,,,,,,,,,,,060719_p1,001,2019_Jun_07_1232,body_behavioural_mayedit,3.0.4,60.08420741983443,
3,Sven had to hold the growing mound of objects Isabel pulled from her bag until she unearthed the laptop and set it in a bin.,2,2,None,,,,,,0,3,3,3,,,,,0,12,12,12,,,,,,,,,,,,,,,,,,,1,7.420092665008269,,,,,,,,,,,,,,,,,,,060719_p1,001,2019_Jun_07_1232,body_behavioural_mayedit,3.0.4,60.08420741983443,
3,"She then gave her bag to Sven, unstrapped her heels, and took the bag back from Sven.",2,2,None,,,,,,0,3,3,3,,,,,0,13,13,13,,,,,,,,,,,,,,,,,,,1,4.820030009956099,,,,,,,,,,,,,,,,,,,060719_p1,001,2019_Jun_07_1232,body_behavioural_mayedit,3.0.4,60.08420741983443,
3,"Sven, relieved of his holding duties, hurriedly deposited his own backpack on the belt, and took off his shoes. ",2,2,None,,,,,,0,3,3,3,,,,,0,14,14,14,,,,,,,,,,,,,,,,,,,1,8.437034633010626,,,,,,,,,,,,,,,,,,,060719_p1,001,2019_Jun_07_1232,body_behavioural_mayedit,3.0.4,60.08420741983443,
3,"Sven went into the millimeter wave scanner after Isabel, put his hands up, and the metal bars whirled around him.",2,2,None,,,,,,0,3,3,3,,,,,0,15,15,15,,,,,,,,,,,,,,,,,,,1,6.654013848048635,,,,,,,,,,,,,,,,,,,060719_p1,001,2019_Jun_07_1232,body_behavioural_mayedit,3.0.4,60.08420741983443,
3,The security guard asked Sven to wait. ,2,2,None,,,,,,0,3,3,3,,,,,0,16,16,16,,,,,,,,,,,,,,,,,,,1,1.4351561270304956,,,,,,,,,,,,,,,,,,,060719_p1,001,2019_Jun_07_1232,body_behavioural_mayedit,3.0.4,60.08420741983443,
3,"After looking at the monitor, the security guard said, “Sir, please empty your pockets,”.",2,2,None,,,,,,0,3,3,3,,,,,0,17,17,17,,,,,,,,,,,,,,,,,,,1,3.5354643239988945,,,,,,,,,,,,,,,,,,,060719_p1,001,2019_Jun_07_1232,body_behavioural_mayedit,3.0.4,60.08420741983443,
3,"Isabel, shoeless and wrinkling her eyebrows at Sven, looked at him expectantly.",2,2,None,,,,,,0,3,3,3,,,,,0,18,18,18,,,,,,,,,,,,,,,,,,,1,4.31992043799255,,,,,,,,,,,,,,,,,,,060719_p1,001,2019_Jun_07_1232,body_behavioural_mayedit,3.0.4,60.08420741983443,
3,"Realizing that he had forgotten the ring in his pocket, he grabbed Isabel’s, got down on one knee, and opening the velvet box, said, “Isabel, this isn't quite how I'd planned this, but - will you marry me?”",2,3,None,,,,,,0,3,3,3,,,,,0,19,19,19,,,,,,,,,,,,,,,,,,,9,14.317948931013234,,,,,,,,,,,,,,,,,,,060719_p1,001,2019_Jun_07_1232,body_behavioural_mayedit,3.0.4,60.08420741983443,
3,He held the ring up to her. ,2,3,None,,,,,,0,3,3,3,,,,,0,20,20,20,,,,,,,,,,,,,,,,,,,1,2.035658286011312,,,,,,,,,,,,,,,,,,,060719_p1,001,2019_Jun_07_1232,body_behavioural_mayedit,3.0.4,60.08420741983443,
3,The security guard stood shocked.,2,3,None,,,,,,0,3,3,3,,,,,0,21,21,21,,,,,,,,,,,,,,,,,,,1,2.1196063400129788,,,,,,,,,,,,,,,,,,,060719_p1,001,2019_Jun_07_1232,body_behavioural_mayedit,3.0.4,60.08420741983443,
3,All the people who were putting their shoes back on and gathering their belongings stopped and walked closer to the couple.,2,3,None,,,,,,0,3,3,3,,,,,0,22,22,22,,,,,,,,,,,,,,,,,,,9,11.702084556978662,,,,,,,,,,,,,,,,,,,060719_p1,001,2019_Jun_07_1232,body_behavioural_mayedit,3.0.4,60.08420741983443,
3,Isabel didn’t know what to do since she was far too shy to respond in front of all the people around.,2,3,None,,,,,,0,3,3,3,,,,,0,23,23,23,,,,,,,,,,,,,,,,,,,1,3.8364928549854085,,,,,,,,,,,,,,,,,,,060719_p1,001,2019_Jun_07_1232,body_behavioural_mayedit,3.0.4,60.08420741983443,
3,"Without responding to Sven, she frantically grabbed her and Sven’s shoes, leaving Sven to retrieve the rest, and she quickly walked onto the concourse.",3,3,None,,,,,,0,3,3,3,,,,,0,24,24,24,,,,,,,,,,,,,,,,,,,1,6.819806732004508,,,,,,,,,,,,,,,,,,,060719_p1,001,2019_Jun_07_1232,body_behavioural_mayedit,3.0.4,60.08420741983443,
3,"Sven, terrified, grabbed everything and hurried after Isabel onto the concourse shoeless.",3,3,None,,,,,,0,3,3,3,,,,,0,25,25,25,,,,,,,,,,,,,,,,,,,1,3.9194890019716695,,,,,,,,,,,,,,,,,,,060719_p1,001,2019_Jun_07_1232,body_behavioural_mayedit,3.0.4,60.08420741983443,
3,Sven eventually caught up to her with their bags and the open ring box.,3,3,None,,,,,,0,3,3,3,,,,,0,26,26,26,,,,,,,,,,,,,,,,,,,1,4.503727481991518,,,,,,,,,,,,,,,,,,,060719_p1,001,2019_Jun_07_1232,body_behavioural_mayedit,3.0.4,60.08420741983443,
3,"She stopped and with wide, excited eyes, shouted, “Of course yes, Sven!” ",3,4,None,,,,,,0,3,3,3,,,,,0,27,27,27,,,,,,,,,,,,,,,,,,,1,7.369245438021608,,,,,,,,,,,,,,,,,,,060719_p1,001,2019_Jun_07_1232,body_behavioural_mayedit,3.0.4,60.08420741983443,
3,"They dropped their belongings and hugged, and Sven put the ring onto Isabel’s finger. ",3,4,None,,,,,,0,3,3,3,,,,,0,28,28,28,,,,,,,,,,,,,,,,,,,1,3.653383732016664,,,,,,,,,,,,,,,,,,,060719_p1,001,2019_Jun_07_1232,body_behavioural_mayedit,3.0.4,60.08420741983443,
3,"“Isabel, you scared me!” he said. ",3,4,None,,,,,,0,3,3,3,,,,,0,29,29,29,,,,,,,,,,,,,,,,,,,1,1.9859986720257439,,,,,,,,,,,,,,,,,,,060719_p1,001,2019_Jun_07_1232,body_behavioural_mayedit,3.0.4,60.08420741983443,
3,"After getting their shoes back on, they practically floated to gate C40.",3,4,None,,,,,,0,3,3,3,,,,,0,30,30,30,,,,,,,,,,,,,,,,,,,9,4.570735479996074,,,,,,,,,,,,,,,,,,,060719_p1,001,2019_Jun_07_1232,body_behavioural_mayedit,3.0.4,60.08420741983443,
3,Sven was so happy he even high-fived a confused shoe-shine attendant as they passed.,3,4,None,,,,,,0,3,3,3,,,,,0,31,31,31,,,,,,,,,,,,,,,,,,,1,4.284259366977494,,,,,,,,,,,,,,,,,,,060719_p1,001,2019_Jun_07_1232,body_behavioural_mayedit,3.0.4,60.08420741983443,
3,Isabel texted her best friend telling her the news as they walked. ,3,4,None,,,,,,0,3,3,3,,,,,0,32,32,32,,,,,,,,,,,,,,,,,,,1,2.18400649697287,,,,,,,,,,,,,,,,,,,060719_p1,001,2019_Jun_07_1232,body_behavioural_mayedit,3.0.4,60.08420741983443,
3,"Having arrived at their gate, they waited, until the attendant called for passengers, and they scanned their tickets to board the plane.",4,4,None,,,,,,0,3,3,3,,,,,0,33,33,33,,,,,,,,,,,,,,,,,,,9,29.155385605001356,,,,,,,,,,,,,,,,,,,060719_p1,001,2019_Jun_07_1232,body_behavioural_mayedit,3.0.4,60.08420741983443,
3,"They walked through the connecting tunnel to the plane and sat together in first class, in seats 2A and 2B.",4,4,None,,,,,,0,3,3,3,,,,,0,34,34,34,,,,,,,,,,,,,,,,,,,1,9.13695043802727,,,,,,,,,,,,,,,,,,,060719_p1,001,2019_Jun_07_1232,body_behavioural_mayedit,3.0.4,60.08420741983443,
3,"Some of their neighboring passengers who had witnessed the proposal at security congratulated them, and a woman next to them showed them that she had been live-tweeting the whole event and that it was already going viral online.",4,4,None,,,,,,0,3,3,3,,,,,0,35,35,35,,,,,,,,,,,,,,,,,,,1,8.536881841951981,,,,,,,,,,,,,,,,,,,060719_p1,001,2019_Jun_07_1232,body_behavioural_mayedit,3.0.4,60.08420741983443,
3,"Isabel slid down in her seat with her hands over her face, embarrassed and overjoyed at the same time.
",4,4,None,,,,,,0,3,3,3,,,,,0,36,36,36,,,,,,,,,,,,,,,,,,,1,3.603760857018642,,,,,,,,,,,,,,,,,,,060719_p1,001,2019_Jun_07_1232,body_behavioural_mayedit,3.0.4,60.08420741983443,
3,,,,,,,,,,0,3,3,3,,,,,,,,,,,,,,,,,,,,,,,,,,,,,,,,,,,,,,,,,,,,,,,060719_p1,001,2019_Jun_07_1232,body_behavioural_mayedit,3.0.4,60.08420741983443,
4,,,,,,,,,,0,4,4,4,0,0,0,0,,,,,,,,,,,,,,,,,space,1.553006655012723,space,0.45305511000333354,space,2.0027884320006706,,,,,,,,,,,,,,,,,,,,,060719_p1,001,2019_Jun_07_1232,body_behavioural_mayedit,3.0.4,60.08420741983443,
4,Mr. Shelton and Mr. Gordon shook hands inside the waiting area of the restaurant: lunch today was about big business. ,1,1,31.0,,,,,,0,4,4,4,,,,,0,0,0,0,,,,,,,,,,,,,,,,,,,9,7.753466395020951,,,,,,,,,,,,,,,,,,,060719_p1,001,2019_Jun_07_1232,body_behavioural_mayedit,3.0.4,60.08420741983443,
4,They were both in the airplane manufacturing industry.,1,1,None,,,,,,0,4,4,4,,,,,0,1,1,1,,,,,,,,,,,,,,,,,,,1,4.4365094199893065,,,,,,,,,,,,,,,,,,,060719_p1,001,2019_Jun_07_1232,body_behavioural_mayedit,3.0.4,60.08420741983443,
4,"Mr. Shelton was the CFO of a larger, well-established company and had been in the aviation business for decades.",1,1,None,,,,,,0,4,4,4,,,,,0,2,2,2,,,,,,,,,,,,,,,,,,,1,7.353298577014357,,,,,,,,,,,,,,,,,,,060719_p1,001,2019_Jun_07_1232,body_behavioural_mayedit,3.0.4,60.08420741983443,
4,Mr. Gordon was the CEO of a smaller but technologically-advanced company that was projected to disrupt the airplane manufacturing market. ,1,1,None,,,,,,0,4,4,4,,,,,0,3,3,3,,,,,,,,,,,,,,,,,,,1,20.40405513800215,,,,,,,,,,,,,,,,,,,060719_p1,001,2019_Jun_07_1232,body_behavioural_mayedit,3.0.4,60.08420741983443,
4,"They chose to meet at an old steakhouse with dark wood paneling on the floor and ceilings, taxidermy animals on the walls, and a candelabra on every table.",1,1,None,,,,,,0,4,4,4,,,,,0,4,4,4,,,,,,,,,,,,,,,,,,,1,15.670909766980913,,,,,,,,,,,,,,,,,,,060719_p1,001,2019_Jun_07_1232,body_behavioural_mayedit,3.0.4,60.08420741983443,
4,The waitress seated them at their table in the back. ,2,1,None,,,,,,0,4,4,4,,,,,0,5,5,5,,,,,,,,,,,,,,,,,,,9,4.103257807029877,,,,,,,,,,,,,,,,,,,060719_p1,001,2019_Jun_07_1232,body_behavioural_mayedit,3.0.4,60.08420741983443,
4,"She brought out the menus, and they briefly chatted about personal happenings. ",2,1,None,,,,,,0,4,4,4,,,,,0,6,6,6,,,,,,,,,,,,,,,,,,,1,7.736712447018363,,,,,,,,,,,,,,,,,,,060719_p1,001,2019_Jun_07_1232,body_behavioural_mayedit,3.0.4,60.08420741983443,
4,"Mr. Gordon took out a picture of his daughter and talked about her recent engagement, and Mr. Gordon mentioned his purchase of a Tesla. ",2,1,None,,,,,,0,4,4,4,,,,,0,7,7,7,,,,,,,,,,,,,,,,,,,1,8.886897205025889,,,,,,,,,,,,,,,,,,,060719_p1,001,2019_Jun_07_1232,body_behavioural_mayedit,3.0.4,60.08420741983443,
4,They also looked over the menus which were heavy and covered in felt.,2,1,None,,,,,,0,4,4,4,,,,,0,8,8,8,,,,,,,,,,,,,,,,,,,1,4.436644906993024,,,,,,,,,,,,,,,,,,,060719_p1,001,2019_Jun_07_1232,body_behavioural_mayedit,3.0.4,60.08420741983443,
4,Flipping to the back of the menu brought one to a lengthy drink selection.,2,1,None,,,,,,0,4,4,4,,,,,0,9,9,9,,,,,,,,,,,,,,,,,,,1,7.502884854970034,,,,,,,,,,,,,,,,,,,060719_p1,001,2019_Jun_07_1232,body_behavioural_mayedit,3.0.4,60.08420741983443,
4,Mr. Shelton got serious and brought the conversation around to business.,2,2,None,,,,,,0,4,4,4,,,,,0,10,10,10,,,,,,,,,,,,,,,,,,,9,3.0695036000106484,,,,,,,,,,,,,,,,,,,060719_p1,001,2019_Jun_07_1232,body_behavioural_mayedit,3.0.4,60.08420741983443,
4,"“Mr. Gordon, we really admire what you’re doing at your company.",2,2,None,,,,,,0,4,4,4,,,,,0,11,11,11,,,,,,,,,,,,,,,,,,,1,2.6196933219907805,,,,,,,,,,,,,,,,,,,060719_p1,001,2019_Jun_07_1232,body_behavioural_mayedit,3.0.4,60.08420741983443,
4,We think it’s genius; we want to support your vision and make this tiny company of yours internationally known.,2,2,None,,,,,,0,4,4,4,,,,,0,12,12,12,,,,,,,,,,,,,,,,,,,1,16.737462537013926,,,,,,,,,,,,,,,,,,,060719_p1,001,2019_Jun_07_1232,body_behavioural_mayedit,3.0.4,60.08420741983443,
4,"But honestly, your company doesn’t have the resources to reach international markets right now.",2,2,None,,,,,,0,4,4,4,,,,,0,13,13,13,,,,,,,,,,,,,,,,,,,1,3.870630564983003,,,,,,,,,,,,,,,,,,,060719_p1,001,2019_Jun_07_1232,body_behavioural_mayedit,3.0.4,60.08420741983443,
4,"Maybe in a few years you could, but by that time, other companies may have already filled your niche.",2,2,None,,,,,,0,4,4,4,,,,,0,14,14,14,,,,,,,,,,,,,,,,,,,1,4.036523419956211,,,,,,,,,,,,,,,,,,,060719_p1,001,2019_Jun_07_1232,body_behavioural_mayedit,3.0.4,60.08420741983443,
4,I think we should join forces.”,2,2,None,,,,,,0,4,4,4,,,,,0,15,15,15,,,,,,,,,,,,,,,,,,,1,3.1528046220191754,,,,,,,,,,,,,,,,,,,060719_p1,001,2019_Jun_07_1232,body_behavioural_mayedit,3.0.4,60.08420741983443,
4,The waitress arrived and asked if they were ready to order.,3,2,None,,,,,,0,4,4,4,,,,,0,16,16,16,,,,,,,,,,,,,,,,,,,9,2.469856869953219,,,,,,,,,,,,,,,,,,,060719_p1,001,2019_Jun_07_1232,body_behavioural_mayedit,3.0.4,60.08420741983443,
4,"Mr. Gordon chose the medium-rare steak and a martini, and Mr. Shelton ordered the veal and a manhattan. ",3,2,None,,,,,,0,4,4,4,,,,,0,17,17,17,,,,,,,,,,,,,,,,,,,1,7.636572194984183,,,,,,,,,,,,,,,,,,,060719_p1,001,2019_Jun_07_1232,body_behavioural_mayedit,3.0.4,60.08420741983443,
4,"Then Mr. Shelton continued, “Look, I’ve talked to other members of the board, and we are prepared to offer $600 million to buy your company. ",3,2,None,,,,,,0,4,4,4,,,,,0,18,18,18,,,,,,,,,,,,,,,,,,,1,9.036634009971749,,,,,,,,,,,,,,,,,,,060719_p1,001,2019_Jun_07_1232,body_behavioural_mayedit,3.0.4,60.08420741983443,
4,"We'd keep on all of your current employees, and you would join as the director of your company branch.” ",3,2,None,,,,,,0,4,4,4,,,,,0,19,19,19,,,,,,,,,,,,,,,,,,,1,5.903182649984956,,,,,,,,,,,,,,,,,,,060719_p1,001,2019_Jun_07_1232,body_behavioural_mayedit,3.0.4,60.08420741983443,
4,"Mr. Gordon looked at Mr. Shelton skeptically for a few moments considering his response until he said, “Mr. Shelton, I think that you make a compelling offer, but there are definitely some disadvantages to attaching our small, streamlined productions to a large company like yours.",3,3,None,,,,,,0,4,4,4,,,,,0,20,20,20,,,,,,,,,,,,,,,,,,,9,21.75363455200568,,,,,,,,,,,,,,,,,,,060719_p1,001,2019_Jun_07_1232,body_behavioural_mayedit,3.0.4,60.08420741983443,
4,"We operate in a very different way than a large company, and the kind of administrative complexity that makes the scale of your productions possible would suffocate our business.",3,3,None,,,,,,0,4,4,4,,,,,0,21,21,21,,,,,,,,,,,,,,,,,,,1,11.535689931013621,,,,,,,,,,,,,,,,,,,060719_p1,001,2019_Jun_07_1232,body_behavioural_mayedit,3.0.4,60.08420741983443,
4,"With our product, scaling-up doesn’t necessarily make sense.” ",3,3,None,,,,,,0,4,4,4,,,,,0,22,22,22,,,,,,,,,,,,,,,,,,,1,5.02082827599952,,,,,,,,,,,,,,,,,,,060719_p1,001,2019_Jun_07_1232,body_behavioural_mayedit,3.0.4,60.08420741983443,
4,Mr. Shelton had expected this response and had come prepared.,3,3,None,,,,,,0,4,4,4,,,,,0,23,23,23,,,,,,,,,,,,,,,,,,,1,7.103489726956468,,,,,,,,,,,,,,,,,,,060719_p1,001,2019_Jun_07_1232,body_behavioural_mayedit,3.0.4,60.08420741983443,
4,He began laying out the details of how he had handled similar acquisitions successfully in the past.,3,3,None,,,,,,0,4,4,4,,,,,0,24,24,24,,,,,,,,,,,,,,,,,,,9,6.35330477997195,,,,,,,,,,,,,,,,,,,060719_p1,001,2019_Jun_07_1232,body_behavioural_mayedit,3.0.4,60.08420741983443,
4,"He also played out projections of how Mr. Gordon’s company could out-compete their own main competitor in the industry, TechJet, by using the resources of a larger corporation. ",3,3,None,,,,,,0,4,4,4,,,,,0,25,25,25,,,,,,,,,,,,,,,,,,,1,14.971989737008698,,,,,,,,,,,,,,,,,,,060719_p1,001,2019_Jun_07_1232,body_behavioural_mayedit,3.0.4,60.08420741983443,
4,"Mr. Gordon was impressed, and they went back and forth hashing out what the company configuration would look like post-merger. ",3,3,None,,,,,,0,4,4,4,,,,,0,26,26,26,,,,,,,,,,,,,,,,,,,1,73.65783180203289,,,,,,,,,,,,,,,,,,,060719_p1,001,2019_Jun_07_1232,body_behavioural_mayedit,3.0.4,60.08420741983443,
4,The waitress brought out their food on a large tray.,4,3,None,,,,,,0,4,4,4,,,,,0,27,27,27,,,,,,,,,,,,,,,,,,,9,4.186730979999993,,,,,,,,,,,,,,,,,,,060719_p1,001,2019_Jun_07_1232,body_behavioural_mayedit,3.0.4,60.08420741983443,
4,“Oh this looks so good!” Mr. Gordon said. ,4,3,None,,,,,,0,4,4,4,,,,,0,28,28,28,,,,,,,,,,,,,,,,,,,1,2.3199559850036167,,,,,,,,,,,,,,,,,,,060719_p1,001,2019_Jun_07_1232,body_behavioural_mayedit,3.0.4,60.08420741983443,
4, “Can I get you anything else?” the waitress asked.,4,3,None,,,,,,0,4,4,4,,,,,0,29,29,29,,,,,,,,,,,,,,,,,,,1,1.3363889200263657,,,,,,,,,,,,,,,,,,,060719_p1,001,2019_Jun_07_1232,body_behavioural_mayedit,3.0.4,60.08420741983443,
4,They declined and began to eat. ,4,3,None,,,,,,0,4,4,4,,,,,0,30,30,30,,,,,,,,,,,,,,,,,,,1,1.9533177749835886,,,,,,,,,,,,,,,,,,,060719_p1,001,2019_Jun_07_1232,body_behavioural_mayedit,3.0.4,60.08420741983443,
4,The meal was subpar- they both found the meat to be a bit overcooked and dry. ,4,3,None,,,,,,0,4,4,4,,,,,0,31,31,31,,,,,,,,,,,,,,,,,,,1,3.553448968043085,,,,,,,,,,,,,,,,,,,060719_p1,001,2019_Jun_07_1232,body_behavioural_mayedit,3.0.4,60.08420741983443,
4,"Mr. Gordon, after taking a contemplative bite and swallowing, said, “Mr. Shelton, I think we have a deal. ",4,4,None,,,,,,0,4,4,4,,,,,0,32,32,32,,,,,,,,,,,,,,,,,,,1,4.503454221994616,,,,,,,,,,,,,,,,,,,060719_p1,001,2019_Jun_07_1232,body_behavioural_mayedit,3.0.4,60.08420741983443,
4,"If you can guarantee that I can still have the final say in the all the work done by my team, I think this could be beneficial for both of us.",4,4,None,,,,,,0,4,4,4,,,,,0,33,33,33,,,,,,,,,,,,,,,,,,,1,6.303537657018751,,,,,,,,,,,,,,,,,,,060719_p1,001,2019_Jun_07_1232,body_behavioural_mayedit,3.0.4,60.08420741983443,
4,I propose a toast to the merging of our companies.”,4,4,None,,,,,,0,4,4,4,,,,,0,34,34,34,,,,,,,,,,,,,,,,,,,1,3.1363014350063168,,,,,,,,,,,,,,,,,,,060719_p1,001,2019_Jun_07_1232,body_behavioural_mayedit,3.0.4,60.08420741983443,
4,Mr. Shelton grinned and lifted his martini to clink glasses.,4,4,None,,,,,,0,4,4,4,,,,,0,35,35,35,,,,,,,,,,,,,,,,,,,1,1.3870688650058582,,,,,,,,,,,,,,,,,,,060719_p1,001,2019_Jun_07_1232,body_behavioural_mayedit,3.0.4,60.08420741983443,
4,"He said, “Cheers to a lifelong partnership and to the growth of our company.” ",4,4,None,,,,,,0,4,4,4,,,,,0,36,36,36,,,,,,,,,,,,,,,,,,,1,2.486642870004289,,,,,,,,,,,,,,,,,,,060719_p1,001,2019_Jun_07_1232,body_behavioural_mayedit,3.0.4,60.08420741983443,
4,,,,,,,,,,0,4,4,4,,,,,,,,,,,,,,,,,,,,,,,,,,,,,,,,,,,,,,,,,,,,,,,060719_p1,001,2019_Jun_07_1232,body_behavioural_mayedit,3.0.4,60.08420741983443,
5,,,,,,,,,,0,5,5,5,0,0,0,0,,,,,,,,,,,,,,,,,space,1.7367865050327964,space,0.4529498949996196,space,2.534245054994244,,,,,,,,,,,,,,,,,,,,,060719_p1,001,2019_Jun_07_1232,body_behavioural_mayedit,3.0.4,60.08420741983443,
5,,,,,,,,,,0,5,5,5,1,0,1,0,,,,,,,,,,,,,,,,,,,,,space,2.153096562018618,,,,,,,,,,,,,,,,,,,,,060719_p1,001,2019_Jun_07_1232,body_behavioural_mayedit,3.0.4,60.08420741983443,
5,"Lana walked into lecture holding hands with her boyfriend, Aaron, who was trying to contain his excitement about proposing to Lana in this class.",1,1,24.0,,,,,,0,5,5,5,,,,,0,0,0,0,,,,,,,,,,,,,,,,,,,9,13.554054538020864,,,,,,,,,,,,,,,,,,,060719_p1,001,2019_Jun_07_1232,body_behavioural_mayedit,3.0.4,60.08420741983443,
5,"Lana was lost in thought, puzzling over an integral on her problem set for another class.",1,1,None,,,,,,0,5,5,5,,,,,0,1,1,1,,,,,,,,,,,,,,,,,,,1,4.636864333006088,,,,,,,,,,,,,,,,,,,060719_p1,001,2019_Jun_07_1232,body_behavioural_mayedit,3.0.4,60.08420741983443,
5,"The lecture hall they had entered was the fanciest one at Princeton, with chandeliers, high ceilings, wood floors, and a large projector screen where chalkboards used to be. ",1,1,None,,,,,,0,5,5,5,,,,,0,2,2,2,,,,,,,,,,,,,,,,,,,1,9.31991643505171,,,,,,,,,,,,,,,,,,,060719_p1,001,2019_Jun_07_1232,body_behavioural_mayedit,3.0.4,60.08420741983443,
5,Aaron and Lana had met when they first started dating three years ago in freshman year.,1,1,None,,,,,,0,5,5,5,,,,,0,3,3,3,,,,,,,,,,,,,,,,,,,1,5.686683229985647,,,,,,,,,,,,,,,,,,,060719_p1,001,2019_Jun_07_1232,body_behavioural_mayedit,3.0.4,60.08420741983443,
5,They coincidentally had another class together in this same lecture hall. ,1,1,None,,,,,,0,5,5,5,,,,,0,4,4,4,,,,,,,,,,,,,,,,,,,1,5.720551409991458,,,,,,,,,,,,,,,,,,,060719_p1,001,2019_Jun_07_1232,body_behavioural_mayedit,3.0.4,60.08420741983443,
5,The professor caught Aaron's eye as he walked up to the front of the classroom and gave him a wink before the lecture began. ,1,1,None,,,,,,0,5,5,5,,,,,0,5,5,5,,,,,,,,,,,,,,,,,,,9,9.301342805032618,,,,,,,,,,,,,,,,,,,060719_p1,001,2019_Jun_07_1232,body_behavioural_mayedit,3.0.4,60.08420741983443,
5,Aaron flashed him a half-smile and nodded. ,1,1,None,,,,,,0,5,5,5,,,,,0,6,6,6,,,,,,,,,,,,,,,,,,,1,1.8007748550153337,,,,,,,,,,,,,,,,,,,060719_p1,001,2019_Jun_07_1232,body_behavioural_mayedit,3.0.4,60.08420741983443,
5,"The professor cleared his throat and said,“Alright, good afternoon, everyone!",2,1,None,,,,,,0,5,5,5,,,,,0,7,7,7,,,,,,,,,,,,,,,,,,,1,3.4025494300294667,,,,,,,,,,,,,,,,,,,060719_p1,001,2019_Jun_07_1232,body_behavioural_mayedit,3.0.4,60.08420741983443,
5,Welcome to another week of Introduction to Chemistry,2,1,None,,,,,,0,5,5,5,,,,,0,8,8,8,,,,,,,,,,,,,,,,,,,1,5.12065590498969,,,,,,,,,,,,,,,,,,,060719_p1,001,2019_Jun_07_1232,body_behavioural_mayedit,3.0.4,60.08420741983443,
5,This week the topic is ions.,2,1,None,,,,,,0,5,5,5,,,,,0,9,9,9,,,,,,,,,,,,,,,,,,,1,1.2693067900254391,,,,,,,,,,,,,,,,,,,060719_p1,001,2019_Jun_07_1232,body_behavioural_mayedit,3.0.4,60.08420741983443,
5,"Now, let me get my computer set up, one moment, class.”",2,1,None,,,,,,0,5,5,5,,,,,0,10,10,10,,,,,,,,,,,,,,,,,,,1,3.1039945399970748,,,,,,,,,,,,,,,,,,,060719_p1,001,2019_Jun_07_1232,body_behavioural_mayedit,3.0.4,60.08420741983443,
5,Lana pulled out the problem set she was thinking about as Aaron unzipped the small pocket in his backpack and pulled out the ring.,2,2,None,,,,,,0,5,5,5,,,,,0,11,11,11,,,,,,,,,,,,,,,,,,,1,24.352182006987277,,,,,,,,,,,,,,,,,,,060719_p1,001,2019_Jun_07_1232,body_behavioural_mayedit,3.0.4,60.08420741983443,
5,"Turning away from her, he looked it over yet again. ",2,2,None,,,,,,0,5,5,5,,,,,0,12,12,12,,,,,,,,,,,,,,,,,,,1,3.1031258669681847,,,,,,,,,,,,,,,,,,,060719_p1,001,2019_Jun_07_1232,body_behavioural_mayedit,3.0.4,60.08420741983443,
5,"Instead of one large diamond, there were 5 red diamonds embedded in a thick band. ",2,2,None,,,,,,0,5,5,5,,,,,0,13,13,13,,,,,,,,,,,,,,,,,,,1,6.637456631986424,,,,,,,,,,,,,,,,,,,060719_p1,001,2019_Jun_07_1232,body_behavioural_mayedit,3.0.4,60.08420741983443,
5,He knew Lana would like this because her style was more avant-garde than traditional.,2,2,None,,,,,,0,5,5,5,,,,,0,14,14,14,,,,,,,,,,,,,,,,,,,1,4.936689344991464,,,,,,,,,,,,,,,,,,,060719_p1,001,2019_Jun_07_1232,body_behavioural_mayedit,3.0.4,60.08420741983443,
5,"The professor said, “Remember, class, that the number of protons determines the identity of the element. ",3,2,None,,,,,,0,5,5,5,,,,,0,15,15,15,,,,,,,,,,,,,,,,,,,1,3.4864417819771916,,,,,,,,,,,,,,,,,,,060719_p1,001,2019_Jun_07_1232,body_behavioural_mayedit,3.0.4,60.08420741983443,
5,"So for example, all atoms of sodium have 11 protons in the nucleus. ",3,2,None,,,,,,0,5,5,5,,,,,0,16,16,16,,,,,,,,,,,,,,,,,,,1,3.08430283999769,,,,,,,,,,,,,,,,,,,060719_p1,001,2019_Jun_07_1232,body_behavioural_mayedit,3.0.4,60.08420741983443,
5,"And if you look on the periodic table, the atomic number for sodium, the symbol is Na, is eleven.",3,2,None,,,,,,0,5,5,5,,,,,0,17,17,17,,,,,,,,,,,,,,,,,,,1,4.217527882021386,,,,,,,,,,,,,,,,,,,060719_p1,001,2019_Jun_07_1232,body_behavioural_mayedit,3.0.4,60.08420741983443,
5,"An ion retains the same number of protons despite losing electrons, and therefore keeps the same identity in the periodic table. ",3,2,None,,,,,,0,5,5,5,,,,,0,18,18,18,,,,,,,,,,,,,,,,,,,1,4.1341999170253985,,,,,,,,,,,,,,,,,,,060719_p1,001,2019_Jun_07_1232,body_behavioural_mayedit,3.0.4,60.08420741983443,
5,Lana and Aaron tried to take notes during the lecture.,3,2,None,,,,,,0,5,5,5,,,,,0,19,19,19,,,,,,,,,,,,,,,,,,,9,3.1700070869992487,,,,,,,,,,,,,,,,,,,060719_p1,001,2019_Jun_07_1232,body_behavioural_mayedit,3.0.4,60.08420741983443,
5,"Right after talking about how two ions bond into one stable molecule by covalent bonds, the professor stopped the lecture, gave another wink to Aaron, and asked Lana to come to the front of the class to do a demonstration. ",3,3,None,,,,,,0,5,5,5,,,,,0,20,20,20,,,,,,,,,,,,,,,,,,,1,11.220148295047693,,,,,,,,,,,,,,,,,,,060719_p1,001,2019_Jun_07_1232,body_behavioural_mayedit,3.0.4,60.08420741983443,
5,"She walked to the front of the class confused, and the professor asked her to stand in the middle of the stage.",3,3,None,,,,,,0,5,5,5,,,,,0,21,21,21,,,,,,,,,,,,,,,,,,,1,8.937346666993108,,,,,,,,,,,,,,,,,,,060719_p1,001,2019_Jun_07_1232,body_behavioural_mayedit,3.0.4,60.08420741983443,
5,"Then Aaron walked up and, taking Lana’s hand, got down on one knee. ",3,3,None,,,,,,0,5,5,5,,,,,0,22,22,22,,,,,,,,,,,,,,,,,,,9,6.153323169972282,,,,,,,,,,,,,,,,,,,060719_p1,001,2019_Jun_07_1232,body_behavioural_mayedit,3.0.4,60.08420741983443,
5,The professor quickly switched to the last slide on the powerpoint which was a photo collage Aaron had sent him of pictures of Aaron and Lana. ,3,3,None,,,,,,0,5,5,5,,,,,0,23,23,23,,,,,,,,,,,,,,,,,,,1,7.167896974948235,,,,,,,,,,,,,,,,,,,060719_p1,001,2019_Jun_07_1232,body_behavioural_mayedit,3.0.4,60.08420741983443,
5,"“It's time for us to make a bond of our own, Lana.”",3,3,None,,,,,,0,5,5,5,,,,,0,24,24,24,,,,,,,,,,,,,,,,,,,1,10.336611756996717,,,,,,,,,,,,,,,,,,,060719_p1,001,2019_Jun_07_1232,body_behavioural_mayedit,3.0.4,60.08420741983443,
5,He opened the small notebook he had in his hand and the ring was sitting on the page. ,3,3,None,,,,,,0,5,5,5,,,,,0,25,25,25,,,,,,,,,,,,,,,,,,,1,11.503818164987024,,,,,,,,,,,,,,,,,,,060719_p1,001,2019_Jun_07_1232,body_behavioural_mayedit,3.0.4,60.08420741983443,
5,“Will you marry me?” ,3,3,None,,,,,,0,5,5,5,,,,,0,26,26,26,,,,,,,,,,,,,,,,,,,1,1.7525137499906123,,,,,,,,,,,,,,,,,,,060719_p1,001,2019_Jun_07_1232,body_behavioural_mayedit,3.0.4,60.08420741983443,
5,"Lana had put her hand over her mouth and tears were streaming down her face, but finally, she said, “Yes!”",3,4,None,,,,,,0,5,5,5,,,,,0,27,27,27,,,,,,,,,,,,,,,,,,,9,22.321244260005187,,,,,,,,,,,,,,,,,,,060719_p1,001,2019_Jun_07_1232,body_behavioural_mayedit,3.0.4,60.08420741983443,
5,"Aaron put the ring on her finger, and they hugged while the whole class applauded and cheered. ",3,4,None,,,,,,0,5,5,5,,,,,0,28,28,28,,,,,,,,,,,,,,,,,,,1,3.1533104249974713,,,,,,,,,,,,,,,,,,,060719_p1,001,2019_Jun_07_1232,body_behavioural_mayedit,3.0.4,60.08420741983443,
5,Their friends who had been secretly waiting outside came into the class and hugged both of them.,3,4,None,,,,,,0,5,5,5,,,,,0,29,29,29,,,,,,,,,,,,,,,,,,,1,3.8031817100127228,,,,,,,,,,,,,,,,,,,060719_p1,001,2019_Jun_07_1232,body_behavioural_mayedit,3.0.4,60.08420741983443,
5,The professor gave Aaron a celebratory handshake.,3,4,None,,,,,,0,5,5,5,,,,,0,30,30,30,,,,,,,,,,,,,,,,,,,1,2.5370476170210168,,,,,,,,,,,,,,,,,,,060719_p1,001,2019_Jun_07_1232,body_behavioural_mayedit,3.0.4,60.08420741983443,
5,"They made their way back to their seats, and Lana pulled out her phone to text her sister",3,4,None,,,,,,0,5,5,5,,,,,0,31,31,31,,,,,,,,,,,,,,,,,,,1,14.870685376983602,,,,,,,,,,,,,,,,,,,060719_p1,001,2019_Jun_07_1232,body_behavioural_mayedit,3.0.4,60.08420741983443,
5,"The professor dismissed the class, saying, “That was enough excitement for today!",4,4,None,,,,,,0,5,5,5,,,,,0,32,32,32,,,,,,,,,,,,,,,,,,,9,3.6999130520271137,,,,,,,,,,,,,,,,,,,060719_p1,001,2019_Jun_07_1232,body_behavioural_mayedit,3.0.4,60.08420741983443,
5,Don’t forget there’s a midterm exam next week on Monday on the material covered in the first 4 weeks of the semester.,4,4,None,,,,,,0,5,5,5,,,,,0,33,33,33,,,,,,,,,,,,,,,,,,,1,4.653446164971683,,,,,,,,,,,,,,,,,,,060719_p1,001,2019_Jun_07_1232,body_behavioural_mayedit,3.0.4,60.08420741983443,
5,"As everyone was packing up their notebooks and leaving, Lana and Aaron were surrounded by their friends eager to get a glimpse of the ring and congratulate them. ",4,4,None,,,,,,0,5,5,5,,,,,0,34,34,34,,,,,,,,,,,,,,,,,,,1,6.617316034971736,,,,,,,,,,,,,,,,,,,060719_p1,001,2019_Jun_07_1232,body_behavioural_mayedit,3.0.4,60.08420741983443,
5,,,,,,,,,,0,5,5,5,,,,,,,,,,,,,,,,,,,,,,,,,,,,,,,,,,,,,,,,,,,,,,,060719_p1,001,2019_Jun_07_1232,body_behavioural_mayedit,3.0.4,60.08420741983443,
6,,,,,,,,,,0,6,6,6,0,0,0,0,,,,,,,,,,,,,,,,,space,1.686472607019823,space,0.5197083220118657,space,1.4030304499901831,,,,,,,,,,,,,,,,,,,,,060719_p1,001,2019_Jun_07_1232,body_behavioural_mayedit,3.0.4,60.08420741983443,
6,"Ariana hurried into the classroom, and Leon did a double-take when he saw her, almost dropping the eraser he had in his hand. ",1.0,1.0,44.0,,,,,,0,6,6,6,,,,,0,0,0,0,,,,,,,,,,,,,,,,,,,9,8.434727422019932,,,,,,,,,,,,,,,,,,,060719_p1,001,2019_Jun_07_1232,body_behavioural_mayedit,3.0.4,60.08420741983443,
6,"This was his first day in college, and he had assumed that he wouldn’t know anyone on campus, but he had a strong feeling that he had seen her somewhere before. ",1.0,1.0,None,,,,,,0,6,6,6,,,,,0,1,1,1,,,,,,,,,,,,,,,,,,,1,13.953835271997377,,,,,,,,,,,,,,,,,,,060719_p1,001,2019_Jun_07_1232,body_behavioural_mayedit,3.0.4,60.08420741983443,
6,They were in a small classroom with rows of chairs with foldable desks.,1.0,1.0,None,,,,,,0,6,6,6,,,,,0,2,2,2,,,,,,,,,,,,,,,,,,,1,3.286446000041906,,,,,,,,,,,,,,,,,,,060719_p1,001,2019_Jun_07_1232,body_behavioural_mayedit,3.0.4,60.08420741983443,
6,These faced the speaker’s podium and a blackboard on wheels. ,None,None,None,,,,,,0,6,6,6,,,,,0,3,3,3,,,,,,,,,,,,,,,,,,,1,42.556193636963144,,,,,,,,,,,,,,,,,,,060719_p1,001,2019_Jun_07_1232,body_behavioural_mayedit,3.0.4,60.08420741983443,
6,"There were no windows in the room, since they were down in the basement of the History Department.",1.0,1.0,None,,,,,,0,6,6,6,,,,,0,4,4,4,,,,,,,,,,,,,,,,,,,1,5.570812397985719,,,,,,,,,,,,,,,,,,,060719_p1,001,2019_Jun_07_1232,body_behavioural_mayedit,3.0.4,60.08420741983443,
6,"Leon, trying to figure out where he had seen her before, could not stop looking over at Ariana.",1.0,1.0,None,,,,,,0,6,6,6,,,,,0,5,5,5,,,,,,,,,,,,,,,,,,,1,5.603079072025139,,,,,,,,,,,,,,,,,,,060719_p1,001,2019_Jun_07_1232,body_behavioural_mayedit,3.0.4,60.08420741983443,
6,Ariana was oblivious to Leon’s gaze and was only focused on getting ready for class. ,1.0,1.0,None,,,,,,0,6,6,6,,,,,0,6,6,6,,,,,,,,,,,,,,,,,,,1,2.636583235056605,,,,,,,,,,,,,,,,,,,060719_p1,001,2019_Jun_07_1232,body_behavioural_mayedit,3.0.4,60.08420741983443,
6,"“Good morning, everyone,” the professor began.",2.0,1.0,None,,,,,,0,6,6,6,,,,,0,7,7,7,,,,,,,,,,,,,,,,,,,9,2.4668205169728026,,,,,,,,,,,,,,,,,,,060719_p1,001,2019_Jun_07_1232,body_behavioural_mayedit,3.0.4,60.08420741983443,
6,“Welcome to History of Egypt. ,2.0,1.0,None,,,,,,0,6,6,6,,,,,0,8,8,8,,,,,,,,,,,,,,,,,,,1,1.4206275249598548,,,,,,,,,,,,,,,,,,,060719_p1,001,2019_Jun_07_1232,body_behavioural_mayedit,3.0.4,60.08420741983443,
6,"Today we will be talking about mummification, one of the most famous and often misunderstood customs in ancient Egyptian society.”",2.0,1.0,None,,,,,,0,6,6,6,,,,,0,9,9,9,,,,,,,,,,,,,,,,,,,1,5.40349838702241,,,,,,,,,,,,,,,,,,,060719_p1,001,2019_Jun_07_1232,body_behavioural_mayedit,3.0.4,60.08420741983443,
6,Leon and Ariana began taking notes. ,2.0,1.0,None,,,,,,0,6,6,6,,,,,0,10,10,10,,,,,,,,,,,,,,,,,,,1,2.469779799983371,,,,,,,,,,,,,,,,,,,060719_p1,001,2019_Jun_07_1232,body_behavioural_mayedit,3.0.4,60.08420741983443,
6,"Within a few minutes, Leon found his attention wandering from the lecture and back to Ariana, and he decided to do something about it by putting a note on her desk.",2.0,2.0,None,,,,,,0,6,6,6,,,,,0,11,11,11,,,,,,,,,,,,,,,,,,,1,9.9703618150088,,,,,,,,,,,,,,,,,,,060719_p1,001,2019_Jun_07_1232,body_behavioural_mayedit,3.0.4,60.08420741983443,
6,"“Are you from LA?” it read, “Sorry to distract you from mummies, but you look really familiar.”",2.0,2.0,None,,,,,,0,6,6,6,,,,,0,12,12,12,,,,,,,,,,,,,,,,,,,1,5.636920812015887,,,,,,,,,,,,,,,,,,,060719_p1,001,2019_Jun_07_1232,body_behavioural_mayedit,3.0.4,60.08420741983443,
6,"She looked at the note with surprise, and then turned to notice Leon for the first time. ",2.0,2.0,None,,,,,,0,6,6,6,,,,,0,13,13,13,,,,,,,,,,,,,,,,,,,9,6.219811525021214,,,,,,,,,,,,,,,,,,,060719_p1,001,2019_Jun_07_1232,body_behavioural_mayedit,3.0.4,60.08420741983443,
6,She instantly liked him when she saw him.,2.0,2.0,None,,,,,,0,6,6,6,,,,,0,14,14,14,,,,,,,,,,,,,,,,,,,1,2.2198661899892613,,,,,,,,,,,,,,,,,,,060719_p1,001,2019_Jun_07_1232,body_behavioural_mayedit,3.0.4,60.08420741983443,
6,She thought he looked trustworthy and genuine.,2.0,2.0,None,,,,,,0,6,6,6,,,,,0,15,15,15,,,,,,,,,,,,,,,,,,,1,3.0027783599798568,,,,,,,,,,,,,,,,,,,060719_p1,001,2019_Jun_07_1232,body_behavioural_mayedit,3.0.4,60.08420741983443,
6,"Ariana passed the note back to Leon, and she had replied, “No, but maybe my twin and I were separated at birth.”",2.0,2.0,None,,,,,,0,6,6,6,,,,,0,16,16,16,,,,,,,,,,,,,,,,,,,1,13.753515901975334,,,,,,,,,,,,,,,,,,,060719_p1,001,2019_Jun_07_1232,body_behavioural_mayedit,3.0.4,60.08420741983443,
6,"The professor continued, “One may well question why the ancient Egyptians spent so much time and effort on their funerary practices.",3.0,2.0,None,,,,,,0,6,6,6,,,,,0,17,17,17,,,,,,,,,,,,,,,,,,,1,9.484606991987675,,,,,,,,,,,,,,,,,,,060719_p1,001,2019_Jun_07_1232,body_behavioural_mayedit,3.0.4,60.08420741983443,
6,"Not only was the mummification process itself a complicated affair, but there were also elaborate rituals before, during, and after death.",3.0,2.0,None,,,,,,0,6,6,6,,,,,0,18,18,18,,,,,,,,,,,,,,,,,,,1,7.453976352990139,,,,,,,,,,,,,,,,,,,060719_p1,001,2019_Jun_07_1232,body_behavioural_mayedit,3.0.4,60.08420741983443,
6,The practice required teams of experts with years of training and took a total of 70 days to complete.” ,3.0,2.0,None,,,,,,0,6,6,6,,,,,0,19,19,19,,,,,,,,,,,,,,,,,,,1,7.553443004959263,,,,,,,,,,,,,,,,,,,060719_p1,001,2019_Jun_07_1232,body_behavioural_mayedit,3.0.4,60.08420741983443,
6,"They passed notes back and forth the whole class like they were in high school, and Leon wrote in one, “Would you like to go on a walk this evening?”",3.0,3.0,None,,,,,,0,6,6,6,,,,,0,20,20,20,,,,,,,,,,,,,,,,,,,9,6.5867712830076925,,,,,,,,,,,,,,,,,,,060719_p1,001,2019_Jun_07_1232,body_behavioural_mayedit,3.0.4,60.08420741983443,
6,"When Ariana read this, she looked at him and nodded her head",3.0,3.0,None,,,,,,0,6,6,6,,,,,0,21,21,21,,,,,,,,,,,,,,,,,,,1,3.469648140016943,,,,,,,,,,,,,,,,,,,060719_p1,001,2019_Jun_07_1232,body_behavioural_mayedit,3.0.4,60.08420741983443,
6,"She wrote back on the slip of paper, “Let’s meet at 8 in front of my dorm, Patton Hall.”",3.0,3.0,None,,,,,,0,6,6,6,,,,,0,22,22,22,,,,,,,,,,,,,,,,,,,1,5.136434204992838,,,,,,,,,,,,,,,,,,,060719_p1,001,2019_Jun_07_1232,body_behavioural_mayedit,3.0.4,60.08420741983443,
6,The professor ended the lecture and announced to the class that they would have their first quiz next class on Friday on mummification. ,4.0,3.0,None,,,,,,0,6,6,6,,,,,0,23,23,23,,,,,,,,,,,,,,,,,,,1,6.120137582009193,,,,,,,,,,,,,,,,,,,060719_p1,001,2019_Jun_07_1232,body_behavioural_mayedit,3.0.4,60.08420741983443,
6,Everyone packed up and filed out of the classroom except for Ariana and Leon. ,4.0,3.0,None,,,,,,0,6,6,6,,,,,0,24,24,24,,,,,,,,,,,,,,,,,,,1,2.670124915021006,,,,,,,,,,,,,,,,,,,060719_p1,001,2019_Jun_07_1232,body_behavioural_mayedit,3.0.4,60.08420741983443,
6,"Ariana spoke first, “I have to go to my next class.”",4.0,4.0,None,,,,,,0,6,6,6,,,,,0,25,25,25,,,,,,,,,,,,,,,,,,,1,3.2366223399876617,,,,,,,,,,,,,,,,,,,060719_p1,001,2019_Jun_07_1232,body_behavioural_mayedit,3.0.4,60.08420741983443,
6,"She looked at the clock which read noon and headed for the door saying, “I should run, but I’ll see you later tonight!” ",4.0,4.0,None,,,,,,0,6,6,6,,,,,0,26,26,26,,,,,,,,,,,,,,,,,,,1,9.970332377008162,,,,,,,,,,,,,,,,,,,060719_p1,001,2019_Jun_07_1232,body_behavioural_mayedit,3.0.4,60.08420741983443,
6,"She waved as she ran out the door, and Leon was still pondering where he had known her before, even more convinced that they had met before having heard her voice.",4.0,4.0,None,,,,,,0,6,6,6,,,,,0,27,27,27,,,,,,,,,,,,,,,,,,,1,8.536959639983252,,,,,,,,,,,,,,,,,,,060719_p1,001,2019_Jun_07_1232,body_behavioural_mayedit,3.0.4,60.08420741983443,
6,,,,,,,,,,0,6,6,6,,,,,,,,,,,,,,,,,,,,,,,,,,,,,,,,,,,,,,,,,,,,,,,060719_p1,001,2019_Jun_07_1232,body_behavioural_mayedit,3.0.4,60.08420741983443,
7,,,,,,,,,,0,7,7,7,0,0,0,0,,,,,,,,,,,,,,,,,space,9.53761174302781,space,0.9530523249995895,space,0.9864926899899729,,,,,,,,,,,,,,,,,,,,,060719_p1,001,2019_Jun_07_1232,body_behavioural_mayedit,3.0.4,60.08420741983443,
7,,,,,,,,,,0,7,7,7,1,0,1,0,,,,,,,,,,,,,,,,,,,,,space,1.0674185400130227,,,,,,,,,,,,,,,,,,,,,060719_p1,001,2019_Jun_07_1232,body_behavioural_mayedit,3.0.4,60.08420741983443,
7,,,,,,,,,,0,7,7,7,2,0,2,0,,,,,,,,,,,,,,,,,,,,,space,0.5529109800118022,,,,,,,,,,,,,,,,,,,,,060719_p1,001,2019_Jun_07_1232,body_behavioural_mayedit,3.0.4,60.08420741983443,
7,,,,,,,,,,0,7,7,7,3,0,3,0,,,,,,,,,,,,,,,,,,,,,space,0.4196656370186247,,,,,,,,,,,,,,,,,,,,,060719_p1,001,2019_Jun_07_1232,body_behavioural_mayedit,3.0.4,60.08420741983443,
7,,,,,,,,,,0,7,7,7,4,0,4,0,,,,,,,,,,,,,,,,,,,,,space,0.48629003000678495,,,,,,,,,,,,,,,,,,,,,060719_p1,001,2019_Jun_07_1232,body_behavioural_mayedit,3.0.4,60.08420741983443,
7,,,,,,,,,,0,7,7,7,5,0,5,0,,,,,,,,,,,,,,,,,,,,,space,0.43402109999442473,,,,,,,,,,,,,,,,,,,,,060719_p1,001,2019_Jun_07_1232,body_behavioural_mayedit,3.0.4,60.08420741983443,
7,,,,,,,,,,0,7,7,7,6,0,6,0,,,,,,,,,,,,,,,,,,,,,space,0.467290127009619,,,,,,,,,,,,,,,,,,,,,060719_p1,001,2019_Jun_07_1232,body_behavioural_mayedit,3.0.4,60.08420741983443,
7,"Thomas, dreading the approaching breakup conversation he was about to start, got to Annika’s Finer Diner late but Sadie, his girlfriend, was not there yet.",1,1,11.0,None,None,None,None,,0,7,7,7,,,,,0,0,0,0,,,,,,,,,,,,,,,,,,,9,30.825614031986333,,,,,,,,,,,,,,,,,,,060719_p1,001,2019_Jun_07_1232,body_behavioural_mayedit,3.0.4,60.08420741983443,
7,Thomas had been thinking about breaking up with her for 2 months now.,1,1,None,None,None,1.0,None,,0,7,7,7,,,,,0,1,1,1,,,,,,,,,,,,,,,,,,,1,3.267514150007628,,,,,,,,,,,,,,,,,,,060719_p1,001,2019_Jun_07_1232,body_behavioural_mayedit,3.0.4,60.08420741983443,
7,"The restaurant he had chosen to meet at was reminiscent of a diner from the 70’s; there was black and white checkerboard tiling on the floor, a long bar in the front, and booths and stools with red, leather upholstery. ",1,1,None,None,None,None,1.0,,0,7,7,7,,,,,0,2,2,2,,,,,,,,,,,,,,,,,,,1,9.4869006969966,,,,,,,,,,,,,,,,,,,060719_p1,001,2019_Jun_07_1232,body_behavioural_mayedit,3.0.4,60.08420741983443,
7,"A bell chimed as the door swung open, and Sadie entered to find Thomas ruminating at the bar.",1,1,None,None,None,None,None,,0,7,7,7,,,,,0,3,3,3,,,,,,,,,,,,,,,,,,,9,5.103177341981791,,,,,,,,,,,,,,,,,,,060719_p1,001,2019_Jun_07_1232,body_behavioural_mayedit,3.0.4,60.08420741983443,
7,"He stood up and gave her a side hug, asking quickly, “How was your day?”",1,1,None,None,None,None,None,,0,7,7,7,,,,,0,4,4,4,,,,,,,,,,,,,,,,,,,1,5.437343226978555,,,,,,,,,,,,,,,,,,,060719_p1,001,2019_Jun_07_1232,body_behavioural_mayedit,3.0.4,60.08420741983443,
7,"She clung onto him, “It was okay- I missed you today.”",1,1,None,None,None,None,None,,0,7,7,7,,,,,0,5,5,5,,,,,,,,,,,,,,,,,,,1,7.517737909976859,,,,,,,,,,,,,,,,,,,060719_p1,001,2019_Jun_07_1232,body_behavioural_mayedit,3.0.4,60.08420741983443,
7,"He looked away and addressed the hostess coming towards them, “Can we have a booth in the back?”",1,1,None,None,None,None,None,,0,7,7,7,,,,,0,6,6,6,,,,,,,,,,,,,,,,,,,1,4.869883047009353,,,,,,,,,,,,,,,,,,,060719_p1,001,2019_Jun_07_1232,body_behavioural_mayedit,3.0.4,60.08420741983443,
7,"She shrugged and after loudly popping her bubblegum replied, “Sure, honey.”",1,1,None,9.0,None,None,None,,0,7,7,7,,,,,0,7,7,7,,,,,,,,,,,,,,,,,,,1,7.003502011997625,,,,,,,,,,,,,,,,,,,060719_p1,001,2019_Jun_07_1232,body_behavioural_mayedit,3.0.4,60.08420741983443,
7,She seated them at a booth in the back corner of the diner.  ,2,1,None,None,None,None,None,,0,7,7,7,,,,,0,8,8,8,,,,,,,,,,,,,,,,,,,1,1.6693925270228647,,,,,,,,,,,,,,,,,,,060719_p1,001,2019_Jun_07_1232,body_behavioural_mayedit,3.0.4,60.08420741983443,
7,Sadie slipped into the cushioned seat and grabbed Thomas’ hand.,2,1,None,None,None,None,None,,0,7,7,7,,,,,0,9,9,9,,,,,,,,,,,,,,,,,,,9,4.736150817014277,,,,,,,,,,,,,,,,,,,060719_p1,001,2019_Jun_07_1232,body_behavioural_mayedit,3.0.4,60.08420741983443,
7,“Tell me about your day!” she sang.,2,1,None,None,None,None,None,,0,7,7,7,,,,,0,10,10,10,,,,,,,,,,,,,,,,,,,1,2.4199292869889177,,,,,,,,,,,,,,,,,,,060719_p1,001,2019_Jun_07_1232,body_behavioural_mayedit,3.0.4,60.08420741983443,
7,He looked at her silently and pulled his hand slowly from hers as a puzzled look grew on Sadie’s face. ,2,1,None,None,None,None,None,,0,7,7,7,,,,,0,11,11,11,,,,,,,,,,,,,,,,,,,1,7.119922649988439,,,,,,,,,,,,,,,,,,,060719_p1,001,2019_Jun_07_1232,body_behavioural_mayedit,3.0.4,60.08420741983443,
7,Thomas looked away and took a deep breath. ,2,1,None,None,None,None,None,,0,7,7,7,,,,,0,12,12,12,,,,,,,,,,,,,,,,,,,1,2.936521666997578,,,,,,,,,,,,,,,,,,,060719_p1,001,2019_Jun_07_1232,body_behavioural_mayedit,3.0.4,60.08420741983443,
7,"Sadie asked, “What’s wrong?” ",2,1,None,None,None,None,None,,0,7,7,7,,,,,0,13,13,13,,,,,,,,,,,,,,,,,,,1,1.4029718730016612,,,,,,,,,,,,,,,,,,,060719_p1,001,2019_Jun_07_1232,body_behavioural_mayedit,3.0.4,60.08420741983443,
7,Thomas picked at his fingernails.,2,1,None,None,22.0,None,None,,0,7,7,7,,,,,0,14,14,14,,,,,,,,,,,,,,,,,,,1,1.2007435749983415,,,,,,,,,,,,,,,,,,,060719_p1,001,2019_Jun_07_1232,body_behavioural_mayedit,3.0.4,60.08420741983443,
7,"After a few moments, Thomas let out a deep breath and said, “Sadie, I’ve been thinking, and I need a break from this relationship because I need to figure out my career path on my own.”",2,2,None,None,None,None,None,,0,7,7,7,,,,,0,15,15,15,,,,,,,,,,,,,,,,,,,9,10.853770904999692,,,,,,,,,,,,,,,,,,,060719_p1,001,2019_Jun_07_1232,body_behavioural_mayedit,3.0.4,60.08420741983443,
7,Sadie sat back in her seat.,2,2,None,None,None,None,None,,0,7,7,7,,,,,0,16,16,16,,,,,,,,,,,,,,,,,,,1,1.7342544620041735,,,,,,,,,,,,,,,,,,,060719_p1,001,2019_Jun_07_1232,body_behavioural_mayedit,3.0.4,60.08420741983443,
7,"Thomas continued, “Things have been really picking up at work, and I’m not sure that this is the job I want to do anymore.",2,2,None,None,None,None,None,,0,7,7,7,,,,,0,17,17,17,,,,,,,,,,,,,,,,,,,1,5.08706287300447,,,,,,,,,,,,,,,,,,,060719_p1,001,2019_Jun_07_1232,body_behavioural_mayedit,3.0.4,60.08420741983443,
7,"Plus, it’s been really overwhelming between working and figuring out if I should change careers, and I really feel like I need more time to figure it out.” ",2,2,None,17.0,None,None,None,,0,7,7,7,,,,,0,18,18,18,,,,,,,,,,,,,,,,,,,1,7.3868211069493555,,,,,,,,,,,,,,,,,,,060719_p1,001,2019_Jun_07_1232,body_behavioural_mayedit,3.0.4,60.08420741983443,
7,"The waiter appeared and cheerily asked, “Have you decided what you would like?”",3,2,None,None,None,None,None,,0,7,7,7,,,,,0,19,19,19,,,,,,,,,,,,,,,,,,,1,3.15314974199282,,,,,,,,,,,,,,,,,,,060719_p1,001,2019_Jun_07_1232,body_behavioural_mayedit,3.0.4,60.08420741983443,
7,"Thomas and Sadie realized there were menus on the table, and they glanced at them quickly.",3,2,None,None,None,None,None,,0,7,7,7,,,,,0,20,20,20,,,,,,,,,,,,,,,,,,,9,4.769568810006604,,,,,,,,,,,,,,,,,,,060719_p1,001,2019_Jun_07_1232,body_behavioural_mayedit,3.0.4,60.08420741983443,
7,"The menus were laminated posters with silly names for all the foods, and since they didn’t want to read through each item description, they settled on familiar orders.",3,2,None,None,None,None,None,,0,7,7,7,,,,,0,21,21,21,,,,,,,,,,,,,,,,,,,1,8.320718522998504,,,,,,,,,,,,,,,,,,,060719_p1,001,2019_Jun_07_1232,body_behavioural_mayedit,3.0.4,60.08420741983443,
7,"“I’ll have a burger, no tomatoes,” Thomas said.",3,2,None,None,None,None,None,,0,7,7,7,,,,,0,22,22,22,,,,,,,,,,,,,,,,,,,1,5.504397005017381,,,,,,,,,,,,,,,,,,,060719_p1,001,2019_Jun_07_1232,body_behavioural_mayedit,3.0.4,60.08420741983443,
7,"Sadie asked about the reuben, and the waiter told her it was excellent.",3,2,None,None,None,None,None,,0,7,7,7,,,,,0,23,23,23,,,,,,,,,,,,,,,,,,,1,5.4842745999922045,,,,,,,,,,,,,,,,,,,060719_p1,001,2019_Jun_07_1232,body_behavioural_mayedit,3.0.4,60.08420741983443,
7,"Confirming that that was all they’d like, the waiter walked away. ",3,2,None,None,None,None,None,,0,7,7,7,,,,,0,24,24,24,,,,,,,,,,,,,,,,,,,1,2.4836688070208766,,,,,,,,,,,,,,,,,,,060719_p1,001,2019_Jun_07_1232,body_behavioural_mayedit,3.0.4,60.08420741983443,
7,Sadie- not so quietly- burst into tears. ,3,3,None,None,None,None,None,,0,7,7,7,,,,,0,25,25,25,,,,,,,,,,,,,,,,,,,9,1.96981047000736,,,,,,,,,,,,,,,,,,,060719_p1,001,2019_Jun_07_1232,body_behavioural_mayedit,3.0.4,60.08420741983443,
7,People sitting at the bar looked over and quickly averted their gaze when they figured what was happening. ,3,3,None,None,None,None,None,,0,7,7,7,,,,,0,26,26,26,,,,,,,,,,,,,,,,,,,1,4.336545935017057,,,,,,,,,,,,,,,,,,,060719_p1,001,2019_Jun_07_1232,body_behavioural_mayedit,3.0.4,60.08420741983443,
7,"She whispered, “Is this really what you want?",3,3,None,None,None,None,None,,0,7,7,7,,,,,0,27,27,27,,,,,,,,,,,,,,,,,,,1,1.6531362949754111,,,,,,,,,,,,,,,,,,,060719_p1,001,2019_Jun_07_1232,body_behavioural_mayedit,3.0.4,60.08420741983443,
7,"I don’t understand- things were fine, I thought. ",3,3,None,None,None,None,None,,0,7,7,7,,,,,0,28,28,28,,,,,,,,,,,,,,,,,,,1,1.4365741819492541,,,,,,,,,,,,,,,,,,,060719_p1,001,2019_Jun_07_1232,body_behavioural_mayedit,3.0.4,60.08420741983443,
7,I think we should stay together because we can change how much we hang out. ,3,3,None,None,None,None,None,,0,7,7,7,,,,,0,29,29,29,,,,,,,,,,,,,,,,,,,1,4.536697605042718,,,,,,,,,,,,,,,,,,,060719_p1,001,2019_Jun_07_1232,body_behavioural_mayedit,3.0.4,60.08420741983443,
7,"We don’t have to hang out all the time, or as much as we do now.”",3,3,None,None,None,None,None,,0,7,7,7,,,,,0,30,30,30,,,,,,,,,,,,,,,,,,,1,3.0341100819641724,,,,,,,,,,,,,,,,,,,060719_p1,001,2019_Jun_07_1232,body_behavioural_mayedit,3.0.4,60.08420741983443,
7,Thomas chewed on his bottom lip and picked at his now bleeding hangnail. ,3,3,None,20.0,None,None,None,,0,7,7,7,,,,,0,31,31,31,,,,,,,,,,,,,,,,,,,1,6.37024386000121,,,,,,,,,,,,,,,,,,,060719_p1,001,2019_Jun_07_1232,body_behavioural_mayedit,3.0.4,60.08420741983443,
7,The waiter appeared with the burger and reuben and set them in front of them.,4,3,None,None,None,None,None,,0,7,7,7,,,,,0,32,32,32,,,,,,,,,,,,,,,,,,,1,2.419496849994175,,,,,,,,,,,,,,,,,,,060719_p1,001,2019_Jun_07_1232,body_behavioural_mayedit,3.0.4,60.08420741983443,
7,“Is there anything else I can get for you two?,4,3,None,None,None,None,None,,0,7,7,7,,,,,0,33,33,33,,,,,,,,,,,,,,,,,,,1,3.3199675920186564,,,,,,,,,,,,,,,,,,,060719_p1,001,2019_Jun_07_1232,body_behavioural_mayedit,3.0.4,60.08420741983443,
7,Will you be getting dessert tonight?” he asked.,4,3,None,None,None,None,None,,0,7,7,7,,,,,0,34,34,34,,,,,,,,,,,,,,,,,,,1,1.8339807850425132,,,,,,,,,,,,,,,,,,,060719_p1,001,2019_Jun_07_1232,body_behavioural_mayedit,3.0.4,60.08420741983443,
7,"“Oh no, we’re good, thanks,” Thomas said blankly.",4,3,None,None,None,None,None,,0,7,7,7,,,,,0,35,35,35,,,,,,,,,,,,,,,,,,,1,2.0008567799814045,,,,,,,,,,,,,,,,,,,060719_p1,001,2019_Jun_07_1232,body_behavioural_mayedit,3.0.4,60.08420741983443,
7," With the waiter gone, Sadie suddenly stood up, grabbed half of the reuben, and shook it at him as she growled, “Don’t follow me, and don’t talk to me anymore!",4,4,None,None,None,None,None,,0,7,7,7,,,,,0,36,36,36,,,,,,,,,,,,,,,,,,,9,8.253518994955812,,,,,,,,,,,,,,,,,,,060719_p1,001,2019_Jun_07_1232,body_behavioural_mayedit,3.0.4,60.08420741983443,
7,"Also, I want my polaroid camera and Beatles poster back!”",4,4,None,None,None,None,None,,0,7,7,7,,,,,0,37,37,37,,,,,,,,,,,,,,,,,,,1,3.5529542450094596,,,,,,,,,,,,,,,,,,,060719_p1,001,2019_Jun_07_1232,body_behavioural_mayedit,3.0.4,60.08420741983443,
7,"She stormed off, and the bell above the door jingled cheerfully as the door closed behind her.",4,4,None,None,None,None,None,,0,7,7,7,,,,,0,38,38,38,,,,,,,,,,,,,,,,,,,1,5.536624955013394,,,,,,,,,,,,,,,,,,,060719_p1,001,2019_Jun_07_1232,body_behavioural_mayedit,3.0.4,60.08420741983443,
7,Thomas sat there for awhile surprised at how quickly everything had transpired. ,4,4,None,None,None,None,None,,0,7,7,7,,,,,0,39,39,39,,,,,,,,,,,,,,,,,,,1,4.136681907053571,,,,,,,,,,,,,,,,,,,060719_p1,001,2019_Jun_07_1232,body_behavioural_mayedit,3.0.4,60.08420741983443,
7,"He grabbed his burger and took a bite of it, creating a dry and fishy taste in his mouth.",4,4,None,None,None,None,None,,0,7,7,7,,,,,0,40,40,40,,,,,,,,,,,,,,,,,,,1,4.936377475038171,,,,,,,,,,,,,,,,,,,060719_p1,001,2019_Jun_07_1232,body_behavioural_mayedit,3.0.4,60.08420741983443,
7,He dropped it back on his plate and wondered if the restaurant was responsible for the foul taste. ,4,4,None,13.0,5.0,None,None,,0,7,7,7,,,,,0,41,41,41,,,,,,,,,,,,,,,,,,,1,3.3176358319469728,,,,,,,,,,,,,,,,,,,060719_p1,001,2019_Jun_07_1232,body_behavioural_mayedit,3.0.4,60.08420741983443,
7,,,,,,,,,,0,7,7,7,,,,,,,,,,,,,,,,,,,,,,,,,,,,,,,,,,,,,,,,,,,,,,,060719_p1,001,2019_Jun_07_1232,body_behavioural_mayedit,3.0.4,60.08420741983443,
8,,,,,,,,,,0,8,8,8,0,0,0,0,,,,,,,,,,,,,,,,,space,533.9529315310065,space,1.4537751720054075,space,0.8032249619718641,,,,,,,,,,,,,,,,,,,,,060719_p1,001,2019_Jun_07_1232,body_behavioural_mayedit,3.0.4,60.08420741983443,
8,"Alex was a distracted, sweaty mess as he walked into the grocery store with Chloe; he was hoping that she wouldn't suspect that he was about to propose.",1,1,23.0,,,,,,0,8,8,8,,,,,0,0,0,0,,,,,,,,,,,,,,,,,,,9,7.786893355019856,,,,,,,,,,,,,,,,,,,060719_p1,001,2019_Jun_07_1232,body_behavioural_mayedit,3.0.4,60.08420741983443,
8,The grocery store was brightly lit with sunshine pouring in through glass walls at the front of the store.,1,1,None,,,,,,0,8,8,8,,,,,0,1,1,1,,,,,,,,,,,,,,,,,,,1,3.0199647219851613,,,,,,,,,,,,,,,,,,,060719_p1,001,2019_Jun_07_1232,body_behavioural_mayedit,3.0.4,60.08420741983443,
8,Also in the front area were large posters advertising thanksgiving promotions.,1,1,None,,,,,,0,8,8,8,,,,,0,2,2,2,,,,,,,,,,,,,,,,,,,1,29.638360906974413,,,,,,,,,,,,,,,,,,,060719_p1,001,2019_Jun_07_1232,body_behavioural_mayedit,3.0.4,60.08420741983443,
8,"The store was buzzing with activity because the next day was Thanksgiving, and most shoppers had carts piled high with turkey, stuffing, and pies.",1,1,None,,,,,,0,8,8,8,,,,,0,3,3,3,,,,,,,,,,,,,,,,,,,1,6.186783818004187,,,,,,,,,,,,,,,,,,,060719_p1,001,2019_Jun_07_1232,body_behavioural_mayedit,3.0.4,60.08420741983443,
8,Alex wanted to propose here because he knew Chloe would be wonderfully surprised. ,1,1,None,,,,,,0,8,8,8,,,,,0,4,4,4,,,,,,,,,,,,,,,,,,,1,4.886557894991711,,,,,,,,,,,,,,,,,,,060719_p1,001,2019_Jun_07_1232,body_behavioural_mayedit,3.0.4,60.08420741983443,
8,"After 23 months of dating, Alex knew one of the things Chloe loved most was surprises. ",1,1,None,,,,,,0,8,8,8,,,,,0,5,5,5,,,,,,,,,,,,,,,,,,,1,5.037030077015515,,,,,,,,,,,,,,,,,,,060719_p1,001,2019_Jun_07_1232,body_behavioural_mayedit,3.0.4,60.08420741983443,
8,"Chloe perused the canned goods aisle, and said, “Alex, we need a couple things.”",2,1,None,,,,,,0,8,8,8,,,,,0,6,6,6,,,,,,,,,,,,,,,,,,,9,5.870232935005333,,,,,,,,,,,,,,,,,,,060719_p1,001,2019_Jun_07_1232,body_behavioural_mayedit,3.0.4,60.08420741983443,
8,"He didn’t hear her and was fanning himself, and Chloe asked him if he was okay.",2,1,None,,,,,,0,8,8,8,,,,,0,7,7,7,,,,,,,,,,,,,,,,,,,1,2.8531905750278383,,,,,,,,,,,,,,,,,,,060719_p1,001,2019_Jun_07_1232,body_behavioural_mayedit,3.0.4,60.08420741983443,
8,"“Oh yeah, for sure,” he said, unconvincingly. ",2,1,None,,,,,,0,8,8,8,,,,,0,8,8,8,,,,,,,,,,,,,,,,,,,1,1.3196171519812196,,,,,,,,,,,,,,,,,,,060719_p1,001,2019_Jun_07_1232,body_behavioural_mayedit,3.0.4,60.08420741983443,
8,"She chuckled, “Alright, whatever you say.” ",2,1,None,,,,,,0,8,8,8,,,,,0,9,9,9,,,,,,,,,,,,,,,,,,,1,1.336380234977696,,,,,,,,,,,,,,,,,,,060719_p1,001,2019_Jun_07_1232,body_behavioural_mayedit,3.0.4,60.08420741983443,
8,"She had a can of pumpkin puree and a bottle of vinegar picked out, and she was now mulling over the different cans of cranberry sauce.",2,1,None,,,,,,0,8,8,8,,,,,0,10,10,10,,,,,,,,,,,,,,,,,,,1,6.519987321982626,,,,,,,,,,,,,,,,,,,060719_p1,001,2019_Jun_07_1232,body_behavioural_mayedit,3.0.4,60.08420741983443,
8,"Alex was guessing she would be a while, and he turned his back to her and pulled out the ring to look at it one more time. ",2,2,None,,,,,,0,8,8,8,,,,,0,11,11,11,,,,,,,,,,,,,,,,,,,1,7.070092556998134,,,,,,,,,,,,,,,,,,,060719_p1,001,2019_Jun_07_1232,body_behavioural_mayedit,3.0.4,60.08420741983443,
8,The ring a thin band with one white diamond that glittered excessively in the light. ,2,2,None,,,,,,0,8,8,8,,,,,0,12,12,12,,,,,,,,,,,,,,,,,,,1,6.120227649982553,,,,,,,,,,,,,,,,,,,060719_p1,001,2019_Jun_07_1232,body_behavioural_mayedit,3.0.4,60.08420741983443,
8,“Do we need anything else?” she called out to him. ,2,2,None,,,,,,0,8,8,8,,,,,0,13,13,13,,,,,,,,,,,,,,,,,,,1,1.8367562049534172,,,,,,,,,,,,,,,,,,,060719_p1,001,2019_Jun_07_1232,body_behavioural_mayedit,3.0.4,60.08420741983443,
8,"“Yeah I don’t know, honey,” he said back, still looking at the ring. ",2,2,None,,,,,,0,8,8,8,,,,,0,14,14,14,,,,,,,,,,,,,,,,,,,1,3.601076174993068,,,,,,,,,,,,,,,,,,,060719_p1,001,2019_Jun_07_1232,body_behavioural_mayedit,3.0.4,60.08420741983443,
8,"In the checkout area, there were 5 aisles open and they stepped in line for station 3. ",3,2,None,,,,,,0,8,8,8,,,,,0,15,15,15,,,,,,,,,,,,,,,,,,,9,3.400797721988056,,,,,,,,,,,,,,,,,,,060719_p1,001,2019_Jun_07_1232,body_behavioural_mayedit,3.0.4,60.08420741983443,
8,Alex was staring intensely off into the distance for most of the time and fidgeting with his wallet. ,3,2,None,,,,,,0,8,8,8,,,,,0,16,16,16,,,,,,,,,,,,,,,,,,,1,5.052952989994083,,,,,,,,,,,,,,,,,,,060719_p1,001,2019_Jun_07_1232,body_behavioural_mayedit,3.0.4,60.08420741983443,
8,"Chloe watched him trying to decide whether he looked scared or confused, and shrugged, pulling out her phone since she figured he’d talk about whatever was on his mind when he was ready. ",3,2,None,,,,,,0,8,8,8,,,,,0,17,17,17,,,,,,,,,,,,,,,,,,,1,9.819068623008206,,,,,,,,,,,,,,,,,,,060719_p1,001,2019_Jun_07_1232,body_behavioural_mayedit,3.0.4,60.08420741983443,
8,Alex looked over at their friends who were waiting by the entrance of the grocery store.,3,2,None,,,,,,0,8,8,8,,,,,0,18,18,18,,,,,,,,,,,,,,,,,,,9,4.703994187992066,,,,,,,,,,,,,,,,,,,060719_p1,001,2019_Jun_07_1232,body_behavioural_mayedit,3.0.4,60.08420741983443,
8,They walked over slowly. ,3,2,None,,,,,,0,8,8,8,,,,,0,19,19,19,,,,,,,,,,,,,,,,,,,1,1.3198673680308275,,,,,,,,,,,,,,,,,,,060719_p1,001,2019_Jun_07_1232,body_behavioural_mayedit,3.0.4,60.08420741983443,
8,"Seemingly out of nowhere, Alex took Chloe’s hand and he got down on one knee. ",3,3,None,,,,,,0,8,8,8,,,,,0,20,20,20,,,,,,,,,,,,,,,,,,,9,5.787524118961301,,,,,,,,,,,,,,,,,,,060719_p1,001,2019_Jun_07_1232,body_behavioural_mayedit,3.0.4,60.08420741983443,
8,Chloe gasped,3,3,None,,,,,,0,8,8,8,,,,,0,21,21,21,,,,,,,,,,,,,,,,,,,1,0.8363382020033896,,,,,,,,,,,,,,,,,,,060719_p1,001,2019_Jun_07_1232,body_behavioural_mayedit,3.0.4,60.08420741983443,
8,"“Chloe, I love you so much and I want to be with you forever, I can’t imagine a day without you.”",3,3,None,,,,,,0,8,8,8,,,,,0,22,22,22,,,,,,,,,,,,,,,,,,,1,3.2861435849918053,,,,,,,,,,,,,,,,,,,060719_p1,001,2019_Jun_07_1232,body_behavioural_mayedit,3.0.4,60.08420741983443,
8,"“Alex, me too,” she replied.",3,3,None,,,,,,0,8,8,8,,,,,0,23,23,23,,,,,,,,,,,,,,,,,,,1,1.517300105013419,,,,,,,,,,,,,,,,,,,060719_p1,001,2019_Jun_07_1232,body_behavioural_mayedit,3.0.4,60.08420741983443,
8,"The ring was in the crevice of his wallet, and he opened it.",3,3,None,,,,,,0,8,8,8,,,,,0,24,24,24,,,,,,,,,,,,,,,,,,,1,3.017486362019554,,,,,,,,,,,,,,,,,,,060719_p1,001,2019_Jun_07_1232,body_behavioural_mayedit,3.0.4,60.08420741983443,
8,“Will you marry me?”,3,3,None,,,,,,0,8,8,8,,,,,0,25,25,25,,,,,,,,,,,,,,,,,,,1,1.4529365749913268,,,,,,,,,,,,,,,,,,,060719_p1,001,2019_Jun_07_1232,body_behavioural_mayedit,3.0.4,60.08420741983443,
8,"The people in line around them realized what was happening, stepped back, and started taking pictures.",3,3,None,,,,,,0,8,8,8,,,,,0,26,26,26,,,,,,,,,,,,,,,,,,,9,4.119976839981973,,,,,,,,,,,,,,,,,,,060719_p1,001,2019_Jun_07_1232,body_behavioural_mayedit,3.0.4,60.08420741983443,
8,Their friends were no longer trying to hide and were videotaping and taking pictures too. ,3,3,None,,,,,,0,8,8,8,,,,,0,27,27,27,,,,,,,,,,,,,,,,,,,1,2.970437125011813,,,,,,,,,,,,,,,,,,,060719_p1,001,2019_Jun_07_1232,body_behavioural_mayedit,3.0.4,60.08420741983443,
8,"After a few moments of suspense she shouted,“Yes!”, and she jumped to embrace Alex in a hug. ",3,4,None,,,,,,0,8,8,8,,,,,0,28,28,28,,,,,,,,,,,,,,,,,,,1,4.070450444996823,,,,,,,,,,,,,,,,,,,060719_p1,001,2019_Jun_07_1232,body_behavioural_mayedit,3.0.4,60.08420741983443,
8,Everyone in line clapped and cheered. ,3,4,None,,,,,,0,8,8,8,,,,,0,29,29,29,,,,,,,,,,,,,,,,,,,1,1.0530858769780025,,,,,,,,,,,,,,,,,,,060719_p1,001,2019_Jun_07_1232,body_behavioural_mayedit,3.0.4,60.08420741983443,
8,"Alex put the ring on Chloe’s finger, who was nearly spinning in excitement.",3,4,None,,,,,,0,8,8,8,,,,,0,30,30,30,,,,,,,,,,,,,,,,,,,1,3.819727090012748,,,,,,,,,,,,,,,,,,,060719_p1,001,2019_Jun_07_1232,body_behavioural_mayedit,3.0.4,60.08420741983443,
8,“I love it!,3,4,None,,,,,,0,8,8,8,,,,,0,31,31,31,,,,,,,,,,,,,,,,,,,1,1.1519311800366268,,,,,,,,,,,,,,,,,,,060719_p1,001,2019_Jun_07_1232,body_behavioural_mayedit,3.0.4,60.08420741983443,
8,Oh my- it’s so glittery!,3,4,None,,,,,,0,8,8,8,,,,,0,32,32,32,,,,,,,,,,,,,,,,,,,1,1.4697258599917404,,,,,,,,,,,,,,,,,,,060719_p1,001,2019_Jun_07_1232,body_behavioural_mayedit,3.0.4,60.08420741983443,
8,Look at this!” she said as she shoved her hand in a stranger’s face.,3,4,None,,,,,,0,8,8,8,,,,,0,33,33,33,,,,,,,,,,,,,,,,,,,1,4.670063482015394,,,,,,,,,,,,,,,,,,,060719_p1,001,2019_Jun_07_1232,body_behavioural_mayedit,3.0.4,60.08420741983443,
8,Their friends came over and hugged them.,3,4,None,,,,,,0,8,8,8,,,,,0,34,34,34,,,,,,,,,,,,,,,,,,,9,2.3196582769742236,,,,,,,,,,,,,,,,,,,060719_p1,001,2019_Jun_07_1232,body_behavioural_mayedit,3.0.4,60.08420741983443,
8,The other people let them move up to the front of the checkout line. ,3,4,None,,,,,,0,8,8,8,,,,,0,35,35,35,,,,,,,,,,,,,,,,,,,1,3.1032491980004124,,,,,,,,,,,,,,,,,,,060719_p1,001,2019_Jun_07_1232,body_behavioural_mayedit,3.0.4,60.08420741983443,
8,Chloe immediately texted her mom a picture of her hand. ,3,4,None,,,,,,0,8,8,8,,,,,0,36,36,36,,,,,,,,,,,,,,,,,,,1,2.8363537400146015,,,,,,,,,,,,,,,,,,,060719_p1,001,2019_Jun_07_1232,body_behavioural_mayedit,3.0.4,60.08420741983443,
8,The cashier congratulated them and scanned their groceries. ,4,4,None,,,,,,0,8,8,8,,,,,0,37,37,37,,,,,,,,,,,,,,,,,,,1,2.9033113649929874,,,,,,,,,,,,,,,,,,,060719_p1,001,2019_Jun_07_1232,body_behavioural_mayedit,3.0.4,60.08420741983443,
8,The total came to $14 and Alex paid in cash while Chloe greeted their friends.,4,4,None,,,,,,0,8,8,8,,,,,0,38,38,38,,,,,,,,,,,,,,,,,,,1,5.853210010041948,,,,,,,,,,,,,,,,,,,060719_p1,001,2019_Jun_07_1232,body_behavioural_mayedit,3.0.4,60.08420741983443,
8,"Alex grabbed the bags, and they all walked out together working out where they’d go to celebrate.  ",4,4,None,,,,,,0,8,8,8,,,,,0,39,39,39,,,,,,,,,,,,,,,,,,,1,6.803622154984623,,,,,,,,,,,,,,,,,,,060719_p1,001,2019_Jun_07_1232,body_behavioural_mayedit,3.0.4,60.08420741983443,
8,,,,,,,,,,0,8,8,8,,,,,,,,,,,,,,,,,,,,,,,,,,,,,,,,,,,,,,,,,,,,,,,060719_p1,001,2019_Jun_07_1232,body_behavioural_mayedit,3.0.4,60.08420741983443,
9,,,,,,,,,,0,9,9,9,0,0,0,0,,,,,,,,,,,,,,,,,space,1.386363037978299,space,0.7196837619994767,space,0.8530764830065891,,,,,,,,,,,,,,,,,,,,,060719_p1,001,2019_Jun_07_1232,body_behavioural_mayedit,3.0.4,60.08420741983443,
9,"Charlie saw Alma as they walked into class, and he motioned for her to come sit in the back next to him because they had a deal to discuss.",1,1,34.0,,,,,,0,9,9,9,,,,,0,0,0,0,,,,,,,,,,,,,,,,,,,9,7.086912357015535,,,,,,,,,,,,,,,,,,,060719_p1,001,2019_Jun_07_1232,body_behavioural_mayedit,3.0.4,60.08420741983443,
9,Charlie and Alma were both history majors with entrepreneurial bents.,1,1,None,,,,,,0,9,9,9,,,,,0,1,1,1,,,,,,,,,,,,,,,,,,,1,3.7532658449490555,,,,,,,,,,,,,,,,,,,060719_p1,001,2019_Jun_07_1232,body_behavioural_mayedit,3.0.4,60.08420741983443,
9,They were also both very busy and happened to be in the same class.,1,1,None,,,,,,0,9,9,9,,,,,0,2,2,2,,,,,,,,,,,,,,,,,,,1,15.38753359002294,,,,,,,,,,,,,,,,,,,060719_p1,001,2019_Jun_07_1232,body_behavioural_mayedit,3.0.4,60.08420741983443,
9,"After talking at a party, Charlie had discovered that Alma was looking for financing for her web development company of which she was the founder and CEO.",1,1,None,,,,,,0,9,9,9,,,,,0,3,3,3,,,,,,,,,,,,,,,,,,,1,9.535191864997614,,,,,,,,,,,,,,,,,,,060719_p1,001,2019_Jun_07_1232,body_behavioural_mayedit,3.0.4,60.08420741983443,
9,It was serendipitous because he was an investment analyst for a student finance group on campus and he had been talking with other members of the group about making a new investment. ,1,1,None,,,,,,0,9,9,9,,,,,0,4,4,4,,,,,,,,,,,,,,,,,,,1,11.237139118020423,,,,,,,,,,,,,,,,,,,060719_p1,001,2019_Jun_07_1232,body_behavioural_mayedit,3.0.4,60.08420741983443,
9,"His financial group had come to a decision that morning about Alma’s startup, and he didn't want to wait until after class to discuss the proposal with her. ",1,1,None,,,,,,0,9,9,9,,,,,0,5,5,5,,,,,,,,,,,,,,,,,,,1,8.520404544949997,,,,,,,,,,,,,,,,,,,060719_p1,001,2019_Jun_07_1232,body_behavioural_mayedit,3.0.4,60.08420741983443,
9,The class was in a medium-sized auditorium which was brightly lit and very modern-looking. ,1,1,None,,,,,,0,9,9,9,,,,,0,6,6,6,,,,,,,,,,,,,,,,,,,1,5.13630924501922,,,,,,,,,,,,,,,,,,,060719_p1,001,2019_Jun_07_1232,body_behavioural_mayedit,3.0.4,60.08420741983443,
9,There were three projector screens in the front and each row of the audience had a table with power outlets and USB ports. ,1,1,None,,,,,,0,9,9,9,,,,,0,7,7,7,,,,,,,,,,,,,,,,,,,1,6.420109839993529,,,,,,,,,,,,,,,,,,,060719_p1,001,2019_Jun_07_1232,body_behavioural_mayedit,3.0.4,60.08420741983443,
9,“Here we are at Lecture Seven of Archaeology of Rome” said the professor. ,2,1,None,,,,,,0,9,9,9,,,,,0,8,8,8,,,,,,,,,,,,,,,,,,,9,2.7198551750043407,,,,,,,,,,,,,,,,,,,060719_p1,001,2019_Jun_07_1232,body_behavioural_mayedit,3.0.4,60.08420741983443,
9,"“The topic for today is Augustus, an incredibly important influence in Roman architecture.” ",2,1,None,,,,,,0,9,9,9,,,,,0,9,9,9,,,,,,,,,,,,,,,,,,,1,1.4197193270083517,,,,,,,,,,,,,,,,,,,060719_p1,001,2019_Jun_07_1232,body_behavioural_mayedit,3.0.4,60.08420741983443,
9,She went into some recap of the last lecture.,2,1,None,,,,,,0,9,9,9,,,,,0,10,10,10,,,,,,,,,,,,,,,,,,,1,2.4531958349980414,,,,,,,,,,,,,,,,,,,060719_p1,001,2019_Jun_07_1232,body_behavioural_mayedit,3.0.4,60.08420741983443,
9,"Charlie turned to Alma and said, “Okay, so I’ve been thinking about your startup, and I have talked about it with my fellow investors.",2,2,None,,,,,,0,9,9,9,,,,,0,11,11,11,,,,,,,,,,,,,,,,,,,9,5.587749567988794,,,,,,,,,,,,,,,,,,,060719_p1,001,2019_Jun_07_1232,body_behavioural_mayedit,3.0.4,60.08420741983443,
9,We’d like to invest half of what you originally suggested.,2,2,None,,,,,,0,9,9,9,,,,,0,12,12,12,,,,,,,,,,,,,,,,,,,1,3.453357589954976,,,,,,,,,,,,,,,,,,,060719_p1,001,2019_Jun_07_1232,body_behavioural_mayedit,3.0.4,60.08420741983443,
9,"So we propose we start with wiring you $28,000.",2,2,None,,,,,,0,9,9,9,,,,,0,13,13,13,,,,,,,,,,,,,,,,,,,1,5.503520625003148,,,,,,,,,,,,,,,,,,,060719_p1,001,2019_Jun_07_1232,body_behavioural_mayedit,3.0.4,60.08420741983443,
9,We would see how the company does and then invest the other half later.” ,2,2,None,,,,,,0,9,9,9,,,,,0,14,14,14,,,,,,,,,,,,,,,,,,,1,3.2533111679949798,,,,,,,,,,,,,,,,,,,060719_p1,001,2019_Jun_07_1232,body_behavioural_mayedit,3.0.4,60.08420741983443,
9,"The professor said, “The senate had conferred upon him the title of Augustus the sacred and revered one, the restorer of traditional values, the city’s new religious leader, the restorer of temples. ",3,2,None,,,,,,0,9,9,9,,,,,0,15,15,15,,,,,,,,,,,,,,,,,,,9,15.404031999991275,,,,,,,,,,,,,,,,,,,060719_p1,001,2019_Jun_07_1232,body_behavioural_mayedit,3.0.4,60.08420741983443,
9,"Augustus also sought to beautify Rome, make it into a new Athens, and dispel the criticisms of Rome as disorganized and ugly.”",3,2,None,,,,,,0,9,9,9,,,,,0,16,16,16,,,,,,,,,,,,,,,,,,,1,8.220707967004273,,,,,,,,,,,,,,,,,,,060719_p1,001,2019_Jun_07_1232,body_behavioural_mayedit,3.0.4,60.08420741983443,
9,"Alma turned to Charlie and offered her rebuttal, “I don’t know about that.",3,3,None,,,,,,0,9,9,9,,,,,0,17,17,17,,,,,,,,,,,,,,,,,,,1,2.4865716170170344,,,,,,,,,,,,,,,,,,,060719_p1,001,2019_Jun_07_1232,body_behavioural_mayedit,3.0.4,60.08420741983443,
