count,storyText,locationEvent,socialEvent,story,instructText,trials.thisRepN,trials.thisTrialN,trials.thisN,trials.thisIndex,trials_7.thisRepN,trials_7.thisTrialN,trials_7.thisN,trials_7.thisIndex,trials_2.thisRepN,trials_2.thisTrialN,trials_2.thisN,trials_2.thisIndex,trials_3.thisRepN,trials_3.thisTrialN,trials_3.thisN,trials_3.thisIndex,trials_4.thisRepN,trials_4.thisTrialN,trials_4.thisN,trials_4.thisIndex,trials_5.thisRepN,trials_5.thisTrialN,trials_5.thisN,trials_5.thisIndex,trials_6.thisRepN,trials_6.thisTrialN,trials_6.thisN,trials_6.thisIndex,trials_8.thisRepN,trials_8.thisTrialN,trials_8.thisN,trials_8.thisIndex,order of stories,order of perspectives,key_resp_8.keys,key_resp_8.rt,key_resp_5.keys,key_resp_5.rt,key_resp_7.keys,key_resp_7.rt,key_resp_15.keys,key_resp_15.rt,key_resp_14.keys,key_resp_14.rt,story_presses.keys,story_presses.rt,story time,key_resp_6.keys,key_resp_6.rt,key_resp_2.keys,key_resp_2.rt,key_resp_10.keys,key_resp_10.rt,recall,recall time,key_resp_12.keys,key_resp_12.rt,key_resp_3.keys,key_resp_3.rt,key_resp_11.keys,key_resp_11.rt,question1_answer,order of question,question2_answer,question3_answer,question4_answer,question5_answer,question6_answer,question7_answer,question8_answer,questions time,key_resp_13.keys,key_resp_13.rt,participant,session,date,expName,psychopyVersion,frameRate,
0,,,,,,0,0,0,0,0,0,0,0,,,,,,,,,,,,,,,,,,,,,,,,,[42 24 32 31 14 13 41 23],"['Location' 'Social' 'Social' 'Location' 'Location' 'Social' 'Social'
 'Location']",space,2.5337088300002506,space,1.620168695000757,space,1.0362998050040915,,,,,,,,,,,,,,,,,,,,,,,,,,,,,,,,,,062019_p3,001,2019_Jun_20_1731,body_behavioural,3.0.4,60.07321410882046,
0,David saw Anna for the first time when she burst into the airport frazzled with her half-zipped bag skidding behind her.,1,1,42.0,,0,0,0,0,,,,,0,0,0,0,,,,,,,,,,,,,,,,,,,,,,,,,,,,,space,1.6192612630038639,space,1.253109500001301,9,9.884732015001646,,,,,,,,,,,,,,,,,,,,,,,,,,,,062019_p3,001,2019_Jun_20_1731,body_behavioural,3.0.4,60.07321410882046,
0,"He had three hours until his flight and was reading a book on the laptop he was holding in the entrance to the airport, but she had only 35 minutes and was hoping to spend as little time in the entrance as possible. ",1,1,None,,0,0,0,0,,,,,0,1,1,1,,,,,,,,,,,,,,,,,,,,,,,,,,,,,,,,,9,9.370182614999067,,,,,,,,,,,,,,,,,,,,,,,,,,,,062019_p3,001,2019_Jun_20_1731,body_behavioural,3.0.4,60.07321410882046,
0,"Anna, a few strides into the airport, suddenly realized to her dismay that her shoes were untied, so she hunched over to tie them.",1,1,None,,0,0,0,0,,,,,0,2,2,2,,,,,,,,,,,,,,,,,,,,,,,,,,,,,,,,,1,8.134480009997787,,,,,,,,,,,,,,,,,,,,,,,,,,,,062019_p3,001,2019_Jun_20_1731,body_behavioural,3.0.4,60.07321410882046,
0,"David, who had been intrigued by Anna, observed that someone with a tall cart of luggage was heading straight for where she was kneeling and that both her and the person driving the cart were oblivious to the impeding collision. ",1,1,None,,0,0,0,0,,,,,0,3,3,3,,,,,,,,,,,,,,,,,,,,,,,,,,,,,,,,,1,10.986761934997048,,,,,,,,,,,,,,,,,,,,,,,,,,,,062019_p3,001,2019_Jun_20_1731,body_behavioural,3.0.4,60.07321410882046,
0,"After a few moment of deliberation, David decided to intervene, and he ran in front of the cart pushing her out of the way just in the nick of time, and they tumbled on the airport floor. ",1,2,None,,0,0,0,0,,,,,0,4,4,4,,,,,,,,,,,,,,,,,,,,,,,,,,,,,,,,,9,5.636651009997877,,,,,,,,,,,,,,,,,,,,,,,,,,,,062019_p3,001,2019_Jun_20_1731,body_behavioural,3.0.4,60.07321410882046,
0,"Anna, bewildered, looked up and saw the cart pass by and then looked at David. ",1,2,None,,0,0,0,0,,,,,0,5,5,5,,,,,,,,,,,,,,,,,,,,,,,,,,,,,,,,,1,4.219977690001542,,,,,,,,,,,,,,,,,,,,,,,,,,,,062019_p3,001,2019_Jun_20_1731,body_behavioural,3.0.4,60.07321410882046,
0,He flashed a smile.,1,2,None,,0,0,0,0,,,,,0,6,6,6,,,,,,,,,,,,,,,,,,,,,,,,,,,,,,,,,1,1.6364406749999034,,,,,,,,,,,,,,,,,,,,,,,,,,,,062019_p3,001,2019_Jun_20_1731,body_behavioural,3.0.4,60.07321410882046,
0,“Were you ever a gymnast?,1,2,None,,0,0,0,0,,,,,0,7,7,7,,,,,,,,,,,,,,,,,,,,,,,,,,,,,,,,,1,1.7173113050012034,,,,,,,,,,,,,,,,,,,,,,,,,,,,062019_p3,001,2019_Jun_20_1731,body_behavioural,3.0.4,60.07321410882046,
0," That was a nice tumble,” he said.",1,2,None,,0,0,0,0,,,,,0,8,8,8,,,,,,,,,,,,,,,,,,,,,,,,,,,,,,,,,1,1.536562405002769,,,,,,,,,,,,,,,,,,,,,,,,,,,,062019_p3,001,2019_Jun_20_1731,body_behavioural,3.0.4,60.07321410882046,
0,"She managed a chuckle and said, “Actually yes, but I’d say that deserved a score of zero.",1,2,None,,0,0,0,0,,,,,0,9,9,9,,,,,,,,,,,,,,,,,,,,,,,,,,,,,,,,,1,5.467703814996639,,,,,,,,,,,,,,,,,,,,,,,,,,,,062019_p3,001,2019_Jun_20_1731,body_behavioural,3.0.4,60.07321410882046,
0,Wow- I almost got smooshed by that cart.”,1,2,None,,0,0,0,0,,,,,0,10,10,10,,,,,,,,,,,,,,,,,,,,,,,,,,,,,,,,,1,1.0530451749946224,,,,,,,,,,,,,,,,,,,,,,,,,,,,062019_p3,001,2019_Jun_20_1731,body_behavioural,3.0.4,60.07321410882046,
0,Her head was still spinning as she stared at the handsome stranger who had saved her. ,1,2,None,,0,0,0,0,,,,,0,11,11,11,,,,,,,,,,,,,,,,,,,,,,,,,,,,,,,,,1,2.234004122998158,,,,,,,,,,,,,,,,,,,,,,,,,,,,062019_p3,001,2019_Jun_20_1731,body_behavioural,3.0.4,60.07321410882046,
0,David helped her up and had to keep holding on to her arms to steady her even once they were standing.,1,2,None,,0,0,0,0,,,,,0,12,12,12,,,,,,,,,,,,,,,,,,,,,,,,,,,,,,,,,9,3.10334927799704,,,,,,,,,,,,,,,,,,,,,,,,,,,,062019_p3,001,2019_Jun_20_1731,body_behavioural,3.0.4,60.07321410882046,
0,"“I’m really late for my flight,” she said. ",1,2,None,,0,0,0,0,,,,,0,13,13,13,,,,,,,,,,,,,,,,,,,,,,,,,,,,,,,,,1,1.6865473829966504,,,,,,,,,,,,,,,,,,,,,,,,,,,,062019_p3,001,2019_Jun_20_1731,body_behavioural,3.0.4,60.07321410882046,
0,"“Don't worry,” said David, "let me help you get to your gate." ",1,2,None,,0,0,0,0,,,,,0,14,14,14,,,,,,,,,,,,,,,,,,,,,,,,,,,,,,,,,1,1.419361599997501,,,,,,,,,,,,,,,,,,,,,,,,,,,,062019_p3,001,2019_Jun_20_1731,body_behavioural,3.0.4,60.07321410882046,
0,He waved off her half-hearted protests. ,1,2,None,,0,0,0,0,,,,,0,15,15,15,,,,,,,,,,,,,,,,,,,,,,,,,,,,,,,,,1,1.752849390002666,,,,,,,,,,,,,,,,,,,,,,,,,,,,062019_p3,001,2019_Jun_20_1731,body_behavioural,3.0.4,60.07321410882046,
0,“Really- I have plenty of time and nothing better to do.” he said. ,1,2,None,,0,0,0,0,,,,,0,16,16,16,,,,,,,,,,,,,,,,,,,,,,,,,,,,,,,,,1,2.819968832001905,,,,,,,,,,,,,,,,,,,,,,,,,,,,062019_p3,001,2019_Jun_20_1731,body_behavioural,3.0.4,60.07321410882046,
0,"At security, the line was not long, but since Anna’s flight was so soon the security guard allowed them to go to the front of the line.",2,2,None,,0,0,0,0,,,,,0,17,17,17,,,,,,,,,,,,,,,,,,,,,,,,,,,,,,,,,9,2.7031237429982866,,,,,,,,,,,,,,,,,,,,,,,,,,,,062019_p3,001,2019_Jun_20_1731,body_behavioural,3.0.4,60.07321410882046,
0,"They had to wait however, because there was a strange malfunction of the metal detector. ",2,2,None,,0,0,0,0,,,,,0,18,18,18,,,,,,,,,,,,,,,,,,,,,,,,,,,,,,,,,9,2.152786622995336,,,,,,,,,,,,,,,,,,,,,,,,,,,,062019_p3,001,2019_Jun_20_1731,body_behavioural,3.0.4,60.07321410882046,
0,"In this span of time, they managed to find out that they had gone to the same high school and that Anna had graduated 3 years before David. ",2,2,None,,0,0,0,0,,,,,0,19,19,19,,,,,,,,,,,,,,,,,,,,,,,,,,,,,,,,,1,3.8342592929984676,,,,,,,,,,,,,,,,,,,,,,,,,,,,062019_p3,001,2019_Jun_20_1731,body_behavioural,3.0.4,60.07321410882046,
0,They hurriedly took off their shoes and coats.,2,2,None,,0,0,0,0,,,,,0,20,20,20,,,,,,,,,,,,,,,,,,,,,,,,,,,,,,,,,1,1.553080969999428,,,,,,,,,,,,,,,,,,,,,,,,,,,,062019_p3,001,2019_Jun_20_1731,body_behavioural,3.0.4,60.07321410882046,
0,"Anna placed her purse and suitcase on the conveyor belt, and David put his backpack on the conveyor belt as well, with his laptop in a separate bin. ",2,2,None,,0,0,0,0,,,,,0,21,21,21,,,,,,,,,,,,,,,,,,,,,,,,,,,,,,,,,1,2.836171024995565,,,,,,,,,,,,,,,,,,,,,,,,,,,,062019_p3,001,2019_Jun_20_1731,body_behavioural,3.0.4,60.07321410882046,
0,Both of them went through the metal detector without any problems. ,2,2,None,,0,0,0,0,,,,,0,22,22,22,,,,,,,,,,,,,,,,,,,,,,,,,,,,,,,,,9,1.3200659779977286,,,,,,,,,,,,,,,,,,,,,,,,,,,,062019_p3,001,2019_Jun_20_1731,body_behavioural,3.0.4,60.07321410882046,
0,"As they were rushing to put their shoes and coats on, they shared when they were coming back. ",2,2,None,,0,0,0,0,,,,,0,23,23,23,,,,,,,,,,,,,,,,,,,,,,,,,,,,,,,,,9,4.453178648000176,,,,,,,,,,,,,,,,,,,,,,,,,,,,062019_p3,001,2019_Jun_20_1731,body_behavioural,3.0.4,60.07321410882046,
0,"In a moment of boldness, David asked, “When we're back in town next Tuesday, is there any chance you'd want to get dinner?",2,3,None,,0,0,0,0,,,,,0,24,24,24,,,,,,,,,,,,,,,,,,,,,,,,,,,,,,,,,1,2.550867614998424,,,,,,,,,,,,,,,,,,,,,,,,,,,,062019_p3,001,2019_Jun_20_1731,body_behavioural,3.0.4,60.07321410882046,
0,"I know we just met, but when life throws a luggage cart at you it seems like we should listen. “",2,3,None,,0,0,0,0,,,,,0,25,25,25,,,,,,,,,,,,,,,,,,,,,,,,,,,,,,,,,1,2.6197796630003722,,,,,,,,,,,,,,,,,,,,,,,,,,,,062019_p3,001,2019_Jun_20_1731,body_behavioural,3.0.4,60.07321410882046,
0,"She stopped packing, and said with a smile, “Yes I would love that.”",2,3,None,,0,0,0,0,,,,,0,26,26,26,,,,,,,,,,,,,,,,,,,,,,,,,,,,,,,,,1,0.8697001000036835,,,,,,,,,,,,,,,,,,,,,,,,,,,,062019_p3,001,2019_Jun_20_1731,body_behavioural,3.0.4,60.07321410882046,
0,"On the concourse, they were running to get to Anna’s gate, J37, which was at the end of the terminal. ",3,3,None,,0,0,0,0,,,,,0,27,27,27,,,,,,,,,,,,,,,,,,,,,,,,,,,,,,,,,9,1.736260334997496,,,,,,,,,,,,,,,,,,,,,,,,,,,,062019_p3,001,2019_Jun_20_1731,body_behavioural,3.0.4,60.07321410882046,
0,"David took her suitcase, grabbed her hand, and weaved crowd of people.",3,3,None,,0,0,0,0,,,,,0,28,28,28,,,,,,,,,,,,,,,,,,,,,,,,,,,,,,,,,9,2.417491845000768,,,,,,,,,,,,,,,,,,,,,,,,,,,,062019_p3,001,2019_Jun_20_1731,body_behavioural,3.0.4,60.07321410882046,
0,People passing them were giving them funny looks because Anna looked so bewildered.,3,3,None,,0,0,0,0,,,,,0,29,29,29,,,,,,,,,,,,,,,,,,,,,,,,,,,,,,,,,1,3.23656940300134,,,,,,,,,,,,,,,,,,,,,,,,,,,,062019_p3,001,2019_Jun_20_1731,body_behavioural,3.0.4,60.07321410882046,
0,"Before getting to the gate, explaining that she would sprint the rest of the way, Anna fished out a crumpled business card from her pocket and handed it to David, who handed her the suitcase.",3,4,None,,0,0,0,0,,,,,0,30,30,30,,,,,,,,,,,,,,,,,,,,,,,,,,,,,,,,,9,4.753283641999587,,,,,,,,,,,,,,,,,,,,,,,,,,,,062019_p3,001,2019_Jun_20_1731,body_behavioural,3.0.4,60.07321410882046,
0,"She gave him one last embarrassed smile, thanked him, and hurried away.",3,4,None,,0,0,0,0,,,,,0,31,31,31,,,,,,,,,,,,,,,,,,,,,,,,,,,,,,,,,1,1.1530141629991704,,,,,,,,,,,,,,,,,,,,,,,,,,,,062019_p3,001,2019_Jun_20_1731,body_behavioural,3.0.4,60.07321410882046,
0,"David looked at his watch which read 10:55 AM, 5 minutes before her flight was supposed to leave. ",3,4,None,,0,0,0,0,,,,,0,32,32,32,,,,,,,,,,,,,,,,,,,,,,,,,,,,,,,,,9,7.97036632700474,,,,,,,,,,,,,,,,,,,,,,,,,,,,062019_p3,001,2019_Jun_20_1731,body_behavioural,3.0.4,60.07321410882046,
0,"At the gate, Anna waved to the flight attendant who motioned for her to hurry and she boarded the plane. ",4,4,None,,0,0,0,0,,,,,0,33,33,33,,,,,,,,,,,,,,,,,,,,,,,,,,,,,,,,,9,2.4197427999970387,,,,,,,,,,,,,,,,,,,,,,,,,,,,062019_p3,001,2019_Jun_20_1731,body_behavioural,3.0.4,60.07321410882046,
0,"She slid into her window seat 7D in business class, and barely containing her glee, she hugged the plastic-wrapped blanket. ",4,4,None,,0,0,0,0,,,,,0,34,34,34,,,,,,,,,,,,,,,,,,,,,,,,,,,,,,,,,9,8.80356033499993,,,,,,,,,,,,,,,,,,,,,,,,,,,,062019_p3,001,2019_Jun_20_1731,body_behavioural,3.0.4,60.07321410882046,
0,"She was thankful that she had not only made it onto the plane in time, but also that she had been clumsy enough to forget to tie her shoes.",4,4,None,,0,0,0,0,,,,,0,35,35,35,,,,,,,,,,,,,,,,,,,,,,,,,,,,,,,,,1,2.2700832370028365,,,,,,,,,,,,,,,,,,,,,,,,,,,,062019_p3,001,2019_Jun_20_1731,body_behavioural,3.0.4,60.07321410882046,
0,,,,,,0,0,0,0,,,,,,,,,,,,,,,,,,,,,,,,,,,,,,,,,,,,,,,,,,,,,,,,,,,,,,,,,,,,,,,,,,,,,,062019_p3,001,2019_Jun_20_1731,body_behavioural,3.0.4,60.07321410882046,
1,,,,,,0,1,1,1,0,0,0,0,,,,,,,,,,,,,,,,,,,,,,,,,,,space,1.1362903469998855,space,0.7197585130052175,space,1.0700837160038645,,,,,,,,,,,,,,,,,,,,,,,,,,,,,,,,,,062019_p3,001,2019_Jun_20_1731,body_behavioural,3.0.4,60.07321410882046,
1,"Lana walked into lecture holding hands with her boyfriend, Aaron, who was trying to contain his excitement about proposing to Lana in this class.",1,1,24.0,,0,1,1,1,,,,,0,0,0,0,,,,,,,,,,,,,,,,,,,,,,,,,,,,,space,1.0196467450005002,space,1.517670122004347,9,10.437084919998597,,,,,,,,,,,,,,,,,,,,,,,,,,,,062019_p3,001,2019_Jun_20_1731,body_behavioural,3.0.4,60.07321410882046,
1,"Lana was lost in thought, puzzling over an integral on her problem set for another class.",1,1,None,,0,1,1,1,,,,,0,1,1,1,,,,,,,,,,,,,,,,,,,,,,,,,,,,,,,,,1,6.820141666998097,,,,,,,,,,,,,,,,,,,,,,,,,,,,062019_p3,001,2019_Jun_20_1731,body_behavioural,3.0.4,60.07321410882046,
1,"The lecture hall they had entered was the fanciest one at Princeton, with chandeliers, high ceilings, wood floors, and a large projector screen where chalkboards used to be. ",1,1,None,,0,1,1,1,,,,,0,2,2,2,,,,,,,,,,,,,,,,,,,,,,,,,,,,,,,,,9,2.302841545002593,,,,,,,,,,,,,,,,,,,,,,,,,,,,062019_p3,001,2019_Jun_20_1731,body_behavioural,3.0.4,60.07321410882046,
1,Aaron and Lana had met when they first started dating three years ago in freshman year.,1,1,None,,0,1,1,1,,,,,0,3,3,3,,,,,,,,,,,,,,,,,,,,,,,,,,,,,,,,,1,2.119690070001525,,,,,,,,,,,,,,,,,,,,,,,,,,,,062019_p3,001,2019_Jun_20_1731,body_behavioural,3.0.4,60.07321410882046,
1,They coincidentally had another class together in this same lecture hall. ,1,1,None,,0,1,1,1,,,,,0,4,4,4,,,,,,,,,,,,,,,,,,,,,,,,,,,,,,,,,1,7.301083133002976,,,,,,,,,,,,,,,,,,,,,,,,,,,,062019_p3,001,2019_Jun_20_1731,body_behavioural,3.0.4,60.07321410882046,
1,The professor caught Aaron's eye as he walked up to the front of the classroom and gave him a wink before the lecture began. ,1,1,None,,0,1,1,1,,,,,0,5,5,5,,,,,,,,,,,,,,,,,,,,,,,,,,,,,,,,,9,3.336426488000143,,,,,,,,,,,,,,,,,,,,,,,,,,,,062019_p3,001,2019_Jun_20_1731,body_behavioural,3.0.4,60.07321410882046,
1,Aaron flashed him a half-smile and nodded. ,1,1,None,,0,1,1,1,,,,,0,6,6,6,,,,,,,,,,,,,,,,,,,,,,,,,,,,,,,,,1,1.6842123349997564,,,,,,,,,,,,,,,,,,,,,,,,,,,,062019_p3,001,2019_Jun_20_1731,body_behavioural,3.0.4,60.07321410882046,
1,"The professor cleared his throat and said,“Alright, good afternoon, everyone!",2,1,None,,0,1,1,1,,,,,0,7,7,7,,,,,,,,,,,,,,,,,,,,,,,,,,,,,,,,,9,1.5841437480048626,,,,,,,,,,,,,,,,,,,,,,,,,,,,062019_p3,001,2019_Jun_20_1731,body_behavioural,3.0.4,60.07321410882046,
1,Welcome to another week of Introduction to Chemistry,2,1,None,,0,1,1,1,,,,,0,8,8,8,,,,,,,,,,,,,,,,,,,,,,,,,,,,,,,,,1,2.0008359579951502,,,,,,,,,,,,,,,,,,,,,,,,,,,,062019_p3,001,2019_Jun_20_1731,body_behavioural,3.0.4,60.07321410882046,
1,This week the topic is ions.,2,1,None,,0,1,1,1,,,,,0,9,9,9,,,,,,,,,,,,,,,,,,,,,,,,,,,,,,,,,1,0.8363731780045782,,,,,,,,,,,,,,,,,,,,,,,,,,,,062019_p3,001,2019_Jun_20_1731,body_behavioural,3.0.4,60.07321410882046,
1,"Now, let me get my computer set up, one moment, class.”",2,1,None,,0,1,1,1,,,,,0,10,10,10,,,,,,,,,,,,,,,,,,,,,,,,,,,,,,,,,1,1.8364977880046354,,,,,,,,,,,,,,,,,,,,,,,,,,,,062019_p3,001,2019_Jun_20_1731,body_behavioural,3.0.4,60.07321410882046,
1,Lana pulled out the problem set she was thinking about as Aaron unzipped the small pocket in his backpack and pulled out the ring.,2,2,None,,0,1,1,1,,,,,0,11,11,11,,,,,,,,,,,,,,,,,,,,,,,,,,,,,,,,,9,3.3698979320033686,,,,,,,,,,,,,,,,,,,,,,,,,,,,062019_p3,001,2019_Jun_20_1731,body_behavioural,3.0.4,60.07321410882046,
1,"Turning away from her, he looked it over yet again. ",2,2,None,,0,1,1,1,,,,,0,12,12,12,,,,,,,,,,,,,,,,,,,,,,,,,,,,,,,,,9,3.7864652930002194,,,,,,,,,,,,,,,,,,,,,,,,,,,,062019_p3,001,2019_Jun_20_1731,body_behavioural,3.0.4,60.07321410882046,
1,"Instead of one large diamond, there were 5 red diamonds embedded in a thick band. ",2,2,None,,0,1,1,1,,,,,0,13,13,13,,,,,,,,,,,,,,,,,,,,,,,,,,,,,,,,,1,6.103063910006313,,,,,,,,,,,,,,,,,,,,,,,,,,,,062019_p3,001,2019_Jun_20_1731,body_behavioural,3.0.4,60.07321410882046,
1,He knew Lana would like this because her style was more avant-garde than traditional.,2,2,None,,0,1,1,1,,,,,0,14,14,14,,,,,,,,,,,,,,,,,,,,,,,,,,,,,,,,,1,2.4697479530004784,,,,,,,,,,,,,,,,,,,,,,,,,,,,062019_p3,001,2019_Jun_20_1731,body_behavioural,3.0.4,60.07321410882046,
1,"The professor said, “Remember, class, that the number of protons determines the identity of the element. ",3,2,None,,0,1,1,1,,,,,0,15,15,15,,,,,,,,,,,,,,,,,,,,,,,,,,,,,,,,,9,2.9864253000050667,,,,,,,,,,,,,,,,,,,,,,,,,,,,062019_p3,001,2019_Jun_20_1731,body_behavioural,3.0.4,60.07321410882046,
1,"So for example, all atoms of sodium have 11 protons in the nucleus. ",3,2,None,,0,1,1,1,,,,,0,16,16,16,,,,,,,,,,,,,,,,,,,,,,,,,,,,,,,,,1,1.5531376670041936,,,,,,,,,,,,,,,,,,,,,,,,,,,,062019_p3,001,2019_Jun_20_1731,body_behavioural,3.0.4,60.07321410882046,
1,"And if you look on the periodic table, the atomic number for sodium, the symbol is Na, is eleven.",3,2,None,,0,1,1,1,,,,,0,17,17,17,,,,,,,,,,,,,,,,,,,,,,,,,,,,,,,,,1,0.9864305369992508,,,,,,,,,,,,,,,,,,,,,,,,,,,,062019_p3,001,2019_Jun_20_1731,body_behavioural,3.0.4,60.07321410882046,
1,"An ion retains the same number of protons despite losing electrons, and therefore keeps the same identity in the periodic table. ",3,2,None,,0,1,1,1,,,,,0,18,18,18,,,,,,,,,,,,,,,,,,,,,,,,,,,,,,,,,1,1.8864887700037798,,,,,,,,,,,,,,,,,,,,,,,,,,,,062019_p3,001,2019_Jun_20_1731,body_behavioural,3.0.4,60.07321410882046,
1,Lana and Aaron tried to take notes during the lecture.,3,2,None,,0,1,1,1,,,,,0,19,19,19,,,,,,,,,,,,,,,,,,,,,,,,,,,,,,,,,9,1.7685303360049147,,,,,,,,,,,,,,,,,,,,,,,,,,,,062019_p3,001,2019_Jun_20_1731,body_behavioural,3.0.4,60.07321410882046,
1,"Right after talking about how two ions bond into one stable molecule by covalent bonds, the professor stopped the lecture, gave another wink to Aaron, and asked Lana to come to the front of the class to do a demonstration. ",3,3,None,,0,1,1,1,,,,,0,20,20,20,,,,,,,,,,,,,,,,,,,,,,,,,,,,,,,,,9,7.57079710799735,,,,,,,,,,,,,,,,,,,,,,,,,,,,062019_p3,001,2019_Jun_20_1731,body_behavioural,3.0.4,60.07321410882046,
1,"She walked to the front of the class confused, and the professor asked her to stand in the middle of the stage.",3,3,None,,0,1,1,1,,,,,0,21,21,21,,,,,,,,,,,,,,,,,,,,,,,,,,,,,,,,,9,7.120108998002252,,,,,,,,,,,,,,,,,,,,,,,,,,,,062019_p3,001,2019_Jun_20_1731,body_behavioural,3.0.4,60.07321410882046,
1,"Then Aaron walked up and, taking Lana’s hand, got down on one knee. ",3,3,None,,0,1,1,1,,,,,0,22,22,22,,,,,,,,,,,,,,,,,,,,,,,,,,,,,,,,,9,4.303181412004051,,,,,,,,,,,,,,,,,,,,,,,,,,,,062019_p3,001,2019_Jun_20_1731,body_behavioural,3.0.4,60.07321410882046,
1,The professor quickly switched to the last slide on the powerpoint which was a photo collage Aaron had sent him of pictures of Aaron and Lana. ,3,3,None,,0,1,1,1,,,,,0,23,23,23,,,,,,,,,,,,,,,,,,,,,,,,,,,,,,,,,9,7.47015918300167,,,,,,,,,,,,,,,,,,,,,,,,,,,,062019_p3,001,2019_Jun_20_1731,body_behavioural,3.0.4,60.07321410882046,
1,"“It's time for us to make a bond of our own, Lana.”",3,3,None,,0,1,1,1,,,,,0,24,24,24,,,,,,,,,,,,,,,,,,,,,,,,,,,,,,,,,1,6.336456569995789,,,,,,,,,,,,,,,,,,,,,,,,,,,,062019_p3,001,2019_Jun_20_1731,body_behavioural,3.0.4,60.07321410882046,
1,He opened the small notebook he had in his hand and the ring was sitting on the page. ,3,3,None,,0,1,1,1,,,,,0,25,25,25,,,,,,,,,,,,,,,,,,,,,,,,,,,,,,,,,1,1.2018291610002052,,,,,,,,,,,,,,,,,,,,,,,,,,,,062019_p3,001,2019_Jun_20_1731,body_behavioural,3.0.4,60.07321410882046,
1,“Will you marry me?” ,3,3,None,,0,1,1,1,,,,,0,26,26,26,,,,,,,,,,,,,,,,,,,,,,,,,,,,,,,,,1,1.0693983699966338,,,,,,,,,,,,,,,,,,,,,,,,,,,,062019_p3,001,2019_Jun_20_1731,body_behavioural,3.0.4,60.07321410882046,
1,"Lana had put her hand over her mouth and tears were streaming down her face, but finally, she said, “Yes!”",3,4,None,,0,1,1,1,,,,,0,27,27,27,,,,,,,,,,,,,,,,,,,,,,,,,,,,,,,,,1,1.7033378199994331,,,,,,,,,,,,,,,,,,,,,,,,,,,,062019_p3,001,2019_Jun_20_1731,body_behavioural,3.0.4,60.07321410882046,
1,"Aaron put the ring on her finger, and they hugged while the whole class applauded and cheered. ",3,4,None,,0,1,1,1,,,,,0,28,28,28,,,,,,,,,,,,,,,,,,,,,,,,,,,,,,,,,9,1.6192577930050902,,,,,,,,,,,,,,,,,,,,,,,,,,,,062019_p3,001,2019_Jun_20_1731,body_behavioural,3.0.4,60.07321410882046,
1,Their friends who had been secretly waiting outside came into the class and hugged both of them.,3,4,None,,0,1,1,1,,,,,0,29,29,29,,,,,,,,,,,,,,,,,,,,,,,,,,,,,,,,,9,2.486060773000645,,,,,,,,,,,,,,,,,,,,,,,,,,,,062019_p3,001,2019_Jun_20_1731,body_behavioural,3.0.4,60.07321410882046,
1,The professor gave Aaron a celebratory handshake.,3,4,None,,0,1,1,1,,,,,0,30,30,30,,,,,,,,,,,,,,,,,,,,,,,,,,,,,,,,,1,1.8697732799992082,,,,,,,,,,,,,,,,,,,,,,,,,,,,062019_p3,001,2019_Jun_20_1731,body_behavioural,3.0.4,60.07321410882046,
1,"They made their way back to their seats, and Lana pulled out her phone to text her sister",3,4,None,,0,1,1,1,,,,,0,31,31,31,,,,,,,,,,,,,,,,,,,,,,,,,,,,,,,,,9,3.71954081000149,,,,,,,,,,,,,,,,,,,,,,,,,,,,062019_p3,001,2019_Jun_20_1731,body_behavioural,3.0.4,60.07321410882046,
1,"The professor dismissed the class, saying, “That was enough excitement for today!",4,4,None,,0,1,1,1,,,,,0,32,32,32,,,,,,,,,,,,,,,,,,,,,,,,,,,,,,,,,9,1.8031835529982345,,,,,,,,,,,,,,,,,,,,,,,,,,,,062019_p3,001,2019_Jun_20_1731,body_behavioural,3.0.4,60.07321410882046,
1,Don’t forget there’s a midterm exam next week on Monday on the material covered in the first 4 weeks of the semester.,4,4,None,,0,1,1,1,,,,,0,33,33,33,,,,,,,,,,,,,,,,,,,,,,,,,,,,,,,,,1,1.220303554997372,,,,,,,,,,,,,,,,,,,,,,,,,,,,062019_p3,001,2019_Jun_20_1731,body_behavioural,3.0.4,60.07321410882046,
1,"As everyone was packing up their notebooks and leaving, Lana and Aaron were surrounded by their friends eager to get a glimpse of the ring and congratulate them. ",4,4,None,,0,1,1,1,,,,,0,34,34,34,,,,,,,,,,,,,,,,,,,,,,,,,,,,,,,,,9,3.703049377996649,,,,,,,,,,,,,,,,,,,,,,,,,,,,062019_p3,001,2019_Jun_20_1731,body_behavioural,3.0.4,60.07321410882046,
1,,,,,,0,1,1,1,,,,,,,,,,,,,,,,,,,,,,,,,,,,,,,,,,,,,,,,,,,,,,,,,,,,,,,,,,,,,,,,,,,,,,062019_p3,001,2019_Jun_20_1731,body_behavioural,3.0.4,60.07321410882046,
2,,,,,,0,2,2,2,0,0,0,0,,,,,,,,,,,,,,,,,,,,,,,,,,,space,0.7340125199989416,space,0.4695254950056551,space,0.8339957369971671,,,,,,,,,,,,,,,,,,,,,,,,,,,,,,,,,,062019_p3,001,2019_Jun_20_1731,body_behavioural,3.0.4,60.07321410882046,
2,"Jeff, hoping that today would be a pivotal day for his company, had only been waiting inside the entrance of the airport for a few minutes when he saw William and eagerly waved him over. ",1,1,32.0,,0,2,2,2,,,,,0,0,0,0,,,,,,,,,,,,,,,,,,,,,,,,,,,,,space,0.6692563749966212,space,1.986431678000372,9,5.4537532050017035,,,,,,,,,,,,,,,,,,,,,,,,,,,,062019_p3,001,2019_Jun_20_1731,body_behavioural,3.0.4,60.07321410882046,
2,William checked his watch and was pleased to see that the two of them had two hours to discuss business before their flights left Boston.,1,1,None,,0,2,2,2,,,,,0,1,1,1,,,,,,,,,,,,,,,,,,,,,,,,,,,,,,,,,1,6.570324270003766,,,,,,,,,,,,,,,,,,,,,,,,,,,,062019_p3,001,2019_Jun_20_1731,body_behavioural,3.0.4,60.07321410882046,
2,Jeff and William had met the night before in line for the bathroom at a local bar. ,1,1,None,,0,2,2,2,,,,,0,2,2,2,,,,,,,,,,,,,,,,,,,,,,,,,,,,,,,,,9,2.8530446229997324,,,,,,,,,,,,,,,,,,,,,,,,,,,,062019_p3,001,2019_Jun_20_1731,body_behavioural,3.0.4,60.07321410882046,
2,Jeff had delivered some surprisingly-detailed complaints to William about the wine selection.,1,1,None,,0,2,2,2,,,,,0,3,3,3,,,,,,,,,,,,,,,,,,,,,,,,,,,,,,,,,1,2.886651940003503,,,,,,,,,,,,,,,,,,,,,,,,,,,,062019_p3,001,2019_Jun_20_1731,body_behavioural,3.0.4,60.07321410882046,
2,They quickly learned that they were both in the wine industry: Jeff was a sales associate for wine vineyards in the Northeast and William was a wine buyer for corporate events.,1,1,None,,0,2,2,2,,,,,0,4,4,4,,,,,,,,,,,,,,,,,,,,,,,,,,,,,,,,,1,2.903074720001314,,,,,,,,,,,,,,,,,,,,,,,,,,,,062019_p3,001,2019_Jun_20_1731,body_behavioural,3.0.4,60.07321410882046,
2,"Since they both had flights out of Boston at the same time, they had agreed to meet at the airport and talk about doing business together. ",1,1,None,,0,2,2,2,,,,,0,5,5,5,,,,,,,,,,,,,,,,,,,,,,,,,,,,,,,,,1,7.5200499429993215,,,,,,,,,,,,,,,,,,,,,,,,,,,,062019_p3,001,2019_Jun_20_1731,body_behavioural,3.0.4,60.07321410882046,
2,They waited in line at security.,2,1,None,,0,2,2,2,,,,,0,6,6,6,,,,,,,,,,,,,,,,,,,,,,,,,,,,,,,,,9,1.0529304500014405,,,,,,,,,,,,,,,,,,,,,,,,,,,,062019_p3,001,2019_Jun_20_1731,body_behavioural,3.0.4,60.07321410882046,
2,"“It’s crazy that we met last night,” William said.",2,1,None,,0,2,2,2,,,,,0,7,7,7,,,,,,,,,,,,,,,,,,,,,,,,,,,,,,,,,1,0.9697470370010706,,,,,,,,,,,,,,,,,,,,,,,,,,,,062019_p3,001,2019_Jun_20_1731,body_behavioural,3.0.4,60.07321410882046,
2,"“I am flying out right now to meet my boss, and was worried that I was going to show up empty handed without anything to show for the East Coast.” ",2,1,None,,0,2,2,2,,,,,0,8,8,8,,,,,,,,,,,,,,,,,,,,,,,,,,,,,,,,,1,1.9024834400042892,,,,,,,,,,,,,,,,,,,,,,,,,,,,062019_p3,001,2019_Jun_20_1731,body_behavioural,3.0.4,60.07321410882046,
2,"“I know, what are the chances, right?” Jeff replied.",2,1,None,,0,2,2,2,,,,,0,9,9,9,,,,,,,,,,,,,,,,,,,,,,,,,,,,,,,,,1,1.0030023049985175,,,,,,,,,,,,,,,,,,,,,,,,,,,,062019_p3,001,2019_Jun_20_1731,body_behavioural,3.0.4,60.07321410882046,
2,"William laughed and said, “I’m glad our complaining can come in handy.”",2,1,None,,0,2,2,2,,,,,0,10,10,10,,,,,,,,,,,,,,,,,,,,,,,,,,,,,,,,,1,0.8703219549934147,,,,,,,,,,,,,,,,,,,,,,,,,,,,062019_p3,001,2019_Jun_20_1731,body_behavioural,3.0.4,60.07321410882046,
2,"William got focused and, shifting gears, said, “I know this is fast, but I'd like to get right down to business since time is a limiting factor.",2,2,None,,0,2,2,2,,,,,0,11,11,11,,,,,,,,,,,,,,,,,,,,,,,,,,,,,,,,,9,7.50339718000032,,,,,,,,,,,,,,,,,,,,,,,,,,,,062019_p3,001,2019_Jun_20_1731,body_behavioural,3.0.4,60.07321410882046,
2,I'd really like to order a couple of sample shipments from you and present them to our clients: I think they’d really love to have some East Coast variety. ,2,2,None,,0,2,2,2,,,,,0,12,12,12,,,,,,,,,,,,,,,,,,,,,,,,,,,,,,,,,1,1.4673575080014416,,,,,,,,,,,,,,,,,,,,,,,,,,,,062019_p3,001,2019_Jun_20_1731,body_behavioural,3.0.4,60.07321410882046,
2,"Now, typically we expect to get these kinds of samples at a steep discount, at least half-off the label price.",2,2,None,,0,2,2,2,,,,,0,13,13,13,,,,,,,,,,,,,,,,,,,,,,,,,,,,,,,,,1,1.1005800329949125,,,,,,,,,,,,,,,,,,,,,,,,,,,,062019_p3,001,2019_Jun_20_1731,body_behavioural,3.0.4,60.07321410882046,
2,This small loss is well worth the profit you’d be making if even a single client makes a contract.,2,2,None,,0,2,2,2,,,,,0,14,14,14,,,,,,,,,,,,,,,,,,,,,,,,,,,,,,,,,1,1.953676577002625,,,,,,,,,,,,,,,,,,,,,,,,,,,,062019_p3,001,2019_Jun_20_1731,body_behavioural,3.0.4,60.07321410882046,
2,So I propose that you send us 5 barrels of your select wines for $800.”,2,2,None,,0,2,2,2,,,,,0,15,15,15,,,,,,,,,,,,,,,,,,,,,,,,,,,,,,,,,1,5.836416364996694,,,,,,,,,,,,,,,,,,,,,,,,,,,,062019_p3,001,2019_Jun_20_1731,body_behavioural,3.0.4,60.07321410882046,
2,"Before going through the metal detector, there was a pause in the security line to roll out the empty bin cart and roll in a filled one. ",2,2,None,,0,2,2,2,,,,,0,16,16,16,,,,,,,,,,,,,,,,,,,,,,,,,,,,,,,,,9,3.5197968400025275,,,,,,,,,,,,,,,,,,,,,,,,,,,,062019_p3,001,2019_Jun_20_1731,body_behavioural,3.0.4,60.07321410882046,
2,They placed everything in their bins. ,2,2,None,,0,2,2,2,,,,,0,17,17,17,,,,,,,,,,,,,,,,,,,,,,,,,,,,,,,,,1,1.7531587400007993,,,,,,,,,,,,,,,,,,,,,,,,,,,,062019_p3,001,2019_Jun_20_1731,body_behavioural,3.0.4,60.07321410882046,
2,"Jeff mulled over the offer, nodding noncommittally to William's pitch as they proceeded through the metal detector.",2,2,None,,0,2,2,2,,,,,0,18,18,18,,,,,,,,,,,,,,,,,,,,,,,,,,,,,,,,,9,3.536023530003149,,,,,,,,,,,,,,,,,,,,,,,,,,,,062019_p3,001,2019_Jun_20_1731,body_behavioural,3.0.4,60.07321410882046,
2,"Having recovered from the security check, they began to walk through the concourse toward Jeff’s gate, B8, and William handed some printed spreadsheets to Jeff.",3,2,None,,0,2,2,2,,,,,0,19,19,19,,,,,,,,,,,,,,,,,,,,,,,,,,,,,,,,,9,10.220268249999208,,,,,,,,,,,,,,,,,,,,,,,,,,,,062019_p3,001,2019_Jun_20_1731,body_behavioural,3.0.4,60.07321410882046,
2,"Jeff, weaving through the crowd of travelers, squinted at William's rosy projections of the number of bottles he would purchase in the future.",3,2,None,,0,2,2,2,,,,,0,20,20,20,,,,,,,,,,,,,,,,,,,,,,,,,,,,,,,,,9,5.235625863999303,,,,,,,,,,,,,,,,,,,,,,,,,,,,062019_p3,001,2019_Jun_20_1731,body_behavioural,3.0.4,60.07321410882046,
2,"After thinking for a couple minutes and walking past a number of coffee shops that William was eyeing, Jeff said, “I am not sure about this since we’re not coming a corporate vineyard and gambling with sample shipments is the kind of risk we can’t necessarily make. ",3,3,None,,0,2,2,2,,,,,0,21,21,21,,,,,,,,,,,,,,,,,,,,,,,,,,,,,,,,,9,5.936889484997664,,,,,,,,,,,,,,,,,,,,,,,,,,,,062019_p3,001,2019_Jun_20_1731,body_behavioural,3.0.4,60.07321410882046,
2,"These corporate purchases would have to be huge and practically guaranteed, to offset the loss from selling sample shipments at a price like you suggest.”",3,3,None,,0,2,2,2,,,,,0,22,22,22,,,,,,,,,,,,,,,,,,,,,,,,,,,,,,,,,1,1.203142032994947,,,,,,,,,,,,,,,,,,,,,,,,,,,,062019_p3,001,2019_Jun_20_1731,body_behavioural,3.0.4,60.07321410882046,
2,"William decided to tell Jeff that they had made the same offer to their competitor, Yankee Vines, who had refused and that they would make a better offer to Jeff and his company.",3,3,None,,0,2,2,2,,,,,0,23,23,23,,,,,,,,,,,,,,,,,,,,,,,,,,,,,,,,,9,3.6865961530056666,,,,,,,,,,,,,,,,,,,,,,,,,,,,062019_p3,001,2019_Jun_20_1731,body_behavioural,3.0.4,60.07321410882046,
2,"They walked to the gates very slowly, barely registering the hubbub of the airport.",3,3,None,,0,2,2,2,,,,,0,24,24,24,,,,,,,,,,,,,,,,,,,,,,,,,,,,,,,,,1,1.3525841449954896,,,,,,,,,,,,,,,,,,,,,,,,,,,,062019_p3,001,2019_Jun_20_1731,body_behavioural,3.0.4,60.07321410882046,
2,"William and Jeff came to an agreement on a compromise rate on the sample shipment, paying $400 for a $600 shipment of wine sample, and they finalized the deal with a handshake. ",3,4,None,,0,2,2,2,,,,,0,25,25,25,,,,,,,,,,,,,,,,,,,,,,,,,,,,,,,,,9,4.386614877999818,,,,,,,,,,,,,,,,,,,,,,,,,,,,062019_p3,001,2019_Jun_20_1731,body_behavioural,3.0.4,60.07321410882046,
2,"“Well, what a tremendous pleasure to do business with you and to have all this work out,” William said.",3,4,None,,0,2,2,2,,,,,0,26,26,26,,,,,,,,,,,,,,,,,,,,,,,,,,,,,,,,,1,1.4008170649976819,,,,,,,,,,,,,,,,,,,,,,,,,,,,062019_p3,001,2019_Jun_20_1731,body_behavioural,3.0.4,60.07321410882046,
2,"Jeff nodded enthusiastically, and responded, “Likewise- this has been great.  ",3,4,None,,0,2,2,2,,,,,0,27,27,27,,,,,,,,,,,,,,,,,,,,,,,,,,,,,,,,,1,1.0030966300037107,,,,,,,,,,,,,,,,,,,,,,,,,,,,062019_p3,001,2019_Jun_20_1731,body_behavioural,3.0.4,60.07321410882046,
2,I'll let you get to your gate.,3,4,None,,0,2,2,2,,,,,0,28,28,28,,,,,,,,,,,,,,,,,,,,,,,,,,,,,,,,,1,2.4197730229934677,,,,,,,,,,,,,,,,,,,,,,,,,,,,062019_p3,001,2019_Jun_20_1731,body_behavioural,3.0.4,60.07321410882046,
2,"Once we’re both back on the ground, we can work out all the official documentation and get this in the books.”",3,4,None,,0,2,2,2,,,,,0,29,29,29,,,,,,,,,,,,,,,,,,,,,,,,,,,,,,,,,1,1.8021943630010355,,,,,,,,,,,,,,,,,,,,,,,,,,,,062019_p3,001,2019_Jun_20_1731,body_behavioural,3.0.4,60.07321410882046,
2,"Jeff jogged to his gate, scanned his boarding pass, and walked onto the plane.",4,4,None,,0,2,2,2,,,,,0,30,30,30,,,,,,,,,,,,,,,,,,,,,,,,,,,,,,,,,9,2.7036674769988167,,,,,,,,,,,,,,,,,,,,,,,,,,,,062019_p3,001,2019_Jun_20_1731,body_behavioural,3.0.4,60.07321410882046,
2,He sat down in seat 4A in the business class section and  typed out a quick email on his phone letting the rest of his team know the good news. ,4,4,None,,0,2,2,2,,,,,0,31,31,31,,,,,,,,,,,,,,,,,,,,,,,,,,,,,,,,,1,1.8841875069992966,,,,,,,,,,,,,,,,,,,,,,,,,,,,062019_p3,001,2019_Jun_20_1731,body_behavioural,3.0.4,60.07321410882046,
2,"When the flight attendant came by, he ordered a glass of champagne to celebrate.",4,4,None,,0,2,2,2,,,,,0,32,32,32,,,,,,,,,,,,,,,,,,,,,,,,,,,,,,,,,1,2.4197204080046504,,,,,,,,,,,,,,,,,,,,,,,,,,,,062019_p3,001,2019_Jun_20_1731,body_behavioural,3.0.4,60.07321410882046,
2,,,,,,0,2,2,2,,,,,,,,,,,,,,,,,,,,,,,,,,,,,,,,,,,,,,,,,,,,,,,,,,,,,,,,,,,,,,,,,,,,,,062019_p3,001,2019_Jun_20_1731,body_behavioural,3.0.4,60.07321410882046,
3,,,,,,0,3,3,3,0,0,0,0,,,,,,,,,,,,,,,,,,,,,,,,,,,space,0.6863631029991666,space,0.552974024998548,space,0.6030107230035355,,,,,,,,,,,,,,,,,,,,,,,,,,,,,,,,,,062019_p3,001,2019_Jun_20_1731,body_behavioural,3.0.4,60.07321410882046,
3,Mr. Shelton and Mr. Gordon shook hands inside the waiting area of the restaurant: lunch today was about big business. ,1,1,31.0,,0,3,3,3,,,,,0,0,0,0,,,,,,,,,,,,,,,,,,,,,,,,,,,,,space,1.6195724189965404,space,0.6506760629999917,9,6.004039144994749,,,,,,,,,,,,,,,,,,,,,,,,,,,,062019_p3,001,2019_Jun_20_1731,body_behavioural,3.0.4,60.07321410882046,
3,They were both in the airplane manufacturing industry.,1,1,None,,0,3,3,3,,,,,0,1,1,1,,,,,,,,,,,,,,,,,,,,,,,,,,,,,,,,,1,2.4694503550053923,,,,,,,,,,,,,,,,,,,,,,,,,,,,062019_p3,001,2019_Jun_20_1731,body_behavioural,3.0.4,60.07321410882046,
3,"Mr. Shelton was the CFO of a larger, well-established company and had been in the aviation business for decades.",1,1,None,,0,3,3,3,,,,,0,2,2,2,,,,,,,,,,,,,,,,,,,,,,,,,,,,,,,,,1,1.3696557579969522,,,,,,,,,,,,,,,,,,,,,,,,,,,,062019_p3,001,2019_Jun_20_1731,body_behavioural,3.0.4,60.07321410882046,
3,Mr. Gordon was the CEO of a smaller but technologically-advanced company that was projected to disrupt the airplane manufacturing market. ,1,1,None,,0,3,3,3,,,,,0,3,3,3,,,,,,,,,,,,,,,,,,,,,,,,,,,,,,,,,1,2.069648254997446,,,,,,,,,,,,,,,,,,,,,,,,,,,,062019_p3,001,2019_Jun_20_1731,body_behavioural,3.0.4,60.07321410882046,
3,"They chose to meet at an old steakhouse with dark wood paneling on the floor and ceilings, taxidermy animals on the walls, and a candelabra on every table.",1,1,None,,0,3,3,3,,,,,0,4,4,4,,,,,,,,,,,,,,,,,,,,,,,,,,,,,,,,,9,4.803299413004424,,,,,,,,,,,,,,,,,,,,,,,,,,,,062019_p3,001,2019_Jun_20_1731,body_behavioural,3.0.4,60.07321410882046,
3,The waitress seated them at their table in the back. ,2,1,None,,0,3,3,3,,,,,0,5,5,5,,,,,,,,,,,,,,,,,,,,,,,,,,,,,,,,,9,6.553506454998569,,,,,,,,,,,,,,,,,,,,,,,,,,,,062019_p3,001,2019_Jun_20_1731,body_behavioural,3.0.4,60.07321410882046,
3,"She brought out the menus, and they briefly chatted about personal happenings. ",2,1,None,,0,3,3,3,,,,,0,6,6,6,,,,,,,,,,,,,,,,,,,,,,,,,,,,,,,,,9,3.6865125430049375,,,,,,,,,,,,,,,,,,,,,,,,,,,,062019_p3,001,2019_Jun_20_1731,body_behavioural,3.0.4,60.07321410882046,
3,"Mr. Gordon took out a picture of his daughter and talked about her recent engagement, and Mr. Gordon mentioned his purchase of a Tesla. ",2,1,None,,0,3,3,3,,,,,0,7,7,7,,,,,,,,,,,,,,,,,,,,,,,,,,,,,,,,,1,3.853336323001713,,,,,,,,,,,,,,,,,,,,,,,,,,,,062019_p3,001,2019_Jun_20_1731,body_behavioural,3.0.4,60.07321410882046,
3,They also looked over the menus which were heavy and covered in felt.,2,1,None,,0,3,3,3,,,,,0,8,8,8,,,,,,,,,,,,,,,,,,,,,,,,,,,,,,,,,9,2.4363945849981974,,,,,,,,,,,,,,,,,,,,,,,,,,,,062019_p3,001,2019_Jun_20_1731,body_behavioural,3.0.4,60.07321410882046,
3,Flipping to the back of the menu brought one to a lengthy drink selection.,2,1,None,,0,3,3,3,,,,,0,9,9,9,,,,,,,,,,,,,,,,,,,,,,,,,,,,,,,,,1,3.4024811159979436,,,,,,,,,,,,,,,,,,,,,,,,,,,,062019_p3,001,2019_Jun_20_1731,body_behavioural,3.0.4,60.07321410882046,
3,Mr. Shelton got serious and brought the conversation around to business.,2,2,None,,0,3,3,3,,,,,0,10,10,10,,,,,,,,,,,,,,,,,,,,,,,,,,,,,,,,,9,1.7202860079996753,,,,,,,,,,,,,,,,,,,,,,,,,,,,062019_p3,001,2019_Jun_20_1731,body_behavioural,3.0.4,60.07321410882046,
3,"“Mr. Gordon, we really admire what you’re doing at your company.",2,2,None,,0,3,3,3,,,,,0,11,11,11,,,,,,,,,,,,,,,,,,,,,,,,,,,,,,,,,1,0.8363960150018102,,,,,,,,,,,,,,,,,,,,,,,,,,,,062019_p3,001,2019_Jun_20_1731,body_behavioural,3.0.4,60.07321410882046,
3,We think it’s genius; we want to support your vision and make this tiny company of yours internationally known.,2,2,None,,0,3,3,3,,,,,0,12,12,12,,,,,,,,,,,,,,,,,,,,,,,,,,,,,,,,,1,1.1174536129983608,,,,,,,,,,,,,,,,,,,,,,,,,,,,062019_p3,001,2019_Jun_20_1731,body_behavioural,3.0.4,60.07321410882046,
3,"But honestly, your company doesn’t have the resources to reach international markets right now.",2,2,None,,0,3,3,3,,,,,0,13,13,13,,,,,,,,,,,,,,,,,,,,,,,,,,,,,,,,,1,0.9197015969984932,,,,,,,,,,,,,,,,,,,,,,,,,,,,062019_p3,001,2019_Jun_20_1731,body_behavioural,3.0.4,60.07321410882046,
3,"Maybe in a few years you could, but by that time, other companies may have already filled your niche.",2,2,None,,0,3,3,3,,,,,0,14,14,14,,,,,,,,,,,,,,,,,,,,,,,,,,,,,,,,,1,1.5361864649967174,,,,,,,,,,,,,,,,,,,,,,,,,,,,062019_p3,001,2019_Jun_20_1731,body_behavioural,3.0.4,60.07321410882046,
3,I think we should join forces.”,2,2,None,,0,3,3,3,,,,,0,15,15,15,,,,,,,,,,,,,,,,,,,,,,,,,,,,,,,,,1,0.9530126899990137,,,,,,,,,,,,,,,,,,,,,,,,,,,,062019_p3,001,2019_Jun_20_1731,body_behavioural,3.0.4,60.07321410882046,
3,The waitress arrived and asked if they were ready to order.,3,2,None,,0,3,3,3,,,,,0,16,16,16,,,,,,,,,,,,,,,,,,,,,,,,,,,,,,,,,9,1.6529633399986778,,,,,,,,,,,,,,,,,,,,,,,,,,,,062019_p3,001,2019_Jun_20_1731,body_behavioural,3.0.4,60.07321410882046,
3,"Mr. Gordon chose the medium-rare steak and a martini, and Mr. Shelton ordered the veal and a manhattan. ",3,2,None,,0,3,3,3,,,,,0,17,17,17,,,,,,,,,,,,,,,,,,,,,,,,,,,,,,,,,1,4.870443667998188,,,,,,,,,,,,,,,,,,,,,,,,,,,,062019_p3,001,2019_Jun_20_1731,body_behavioural,3.0.4,60.07321410882046,
3,"Then Mr. Shelton continued, “Look, I’ve talked to other members of the board, and we are prepared to offer $600 million to buy your company. ",3,2,None,,0,3,3,3,,,,,0,18,18,18,,,,,,,,,,,,,,,,,,,,,,,,,,,,,,,,,1,1.1197325350003666,,,,,,,,,,,,,,,,,,,,,,,,,,,,062019_p3,001,2019_Jun_20_1731,body_behavioural,3.0.4,60.07321410882046,
3,"We'd keep on all of your current employees, and you would join as the director of your company branch.” ",3,2,None,,0,3,3,3,,,,,0,19,19,19,,,,,,,,,,,,,,,,,,,,,,,,,,,,,,,,,1,1.01962746999925,,,,,,,,,,,,,,,,,,,,,,,,,,,,062019_p3,001,2019_Jun_20_1731,body_behavioural,3.0.4,60.07321410882046,
3,"Mr. Gordon looked at Mr. Shelton skeptically for a few moments considering his response until he said, “Mr. Shelton, I think that you make a compelling offer, but there are definitely some disadvantages to attaching our small, streamlined productions to a large company like yours.",3,3,None,,0,3,3,3,,,,,0,20,20,20,,,,,,,,,,,,,,,,,,,,,,,,,,,,,,,,,1,0.9030727599965758,,,,,,,,,,,,,,,,,,,,,,,,,,,,062019_p3,001,2019_Jun_20_1731,body_behavioural,3.0.4,60.07321410882046,
3,"We operate in a very different way than a large company, and the kind of administrative complexity that makes the scale of your productions possible would suffocate our business.",3,3,None,,0,3,3,3,,,,,0,21,21,21,,,,,,,,,,,,,,,,,,,,,,,,,,,,,,,,,1,1.069351641999674,,,,,,,,,,,,,,,,,,,,,,,,,,,,062019_p3,001,2019_Jun_20_1731,body_behavioural,3.0.4,60.07321410882046,
3,"With our product, scaling-up doesn’t necessarily make sense.” ",3,3,None,,0,3,3,3,,,,,0,22,22,22,,,,,,,,,,,,,,,,,,,,,,,,,,,,,,,,,1,0.8364093549971585,,,,,,,,,,,,,,,,,,,,,,,,,,,,062019_p3,001,2019_Jun_20_1731,body_behavioural,3.0.4,60.07321410882046,
3,Mr. Shelton had expected this response and had come prepared.,3,3,None,,0,3,3,3,,,,,0,23,23,23,,,,,,,,,,,,,,,,,,,,,,,,,,,,,,,,,1,1.1360996549992706,,,,,,,,,,,,,,,,,,,,,,,,,,,,062019_p3,001,2019_Jun_20_1731,body_behavioural,3.0.4,60.07321410882046,
3,He began laying out the details of how he had handled similar acquisitions successfully in the past.,3,3,None,,0,3,3,3,,,,,0,24,24,24,,,,,,,,,,,,,,,,,,,,,,,,,,,,,,,,,1,1.0363445399998454,,,,,,,,,,,,,,,,,,,,,,,,,,,,062019_p3,001,2019_Jun_20_1731,body_behavioural,3.0.4,60.07321410882046,
3,"He also played out projections of how Mr. Gordon’s company could out-compete their own main competitor in the industry, TechJet, by using the resources of a larger corporation. ",3,3,None,,0,3,3,3,,,,,0,25,25,25,,,,,,,,,,,,,,,,,,,,,,,,,,,,,,,,,1,0.9363549200061243,,,,,,,,,,,,,,,,,,,,,,,,,,,,062019_p3,001,2019_Jun_20_1731,body_behavioural,3.0.4,60.07321410882046,
3,"Mr. Gordon was impressed, and they went back and forth hashing out what the company configuration would look like post-merger. ",3,3,None,,0,3,3,3,,,,,0,26,26,26,,,,,,,,,,,,,,,,,,,,,,,,,,,,,,,,,1,0.7358941429993138,,,,,,,,,,,,,,,,,,,,,,,,,,,,062019_p3,001,2019_Jun_20_1731,body_behavioural,3.0.4,60.07321410882046,
3,The waitress brought out their food on a large tray.,4,3,None,,0,3,3,3,,,,,0,27,27,27,,,,,,,,,,,,,,,,,,,,,,,,,,,,,,,,,9,0.886245305002376,,,,,,,,,,,,,,,,,,,,,,,,,,,,062019_p3,001,2019_Jun_20_1731,body_behavioural,3.0.4,60.07321410882046,
3,“Oh this looks so good!” Mr. Gordon said. ,4,3,None,,0,3,3,3,,,,,0,28,28,28,,,,,,,,,,,,,,,,,,,,,,,,,,,,,,,,,1,0.8841335250035627,,,,,,,,,,,,,,,,,,,,,,,,,,,,062019_p3,001,2019_Jun_20_1731,body_behavioural,3.0.4,60.07321410882046,
3, “Can I get you anything else?” the waitress asked.,4,3,None,,0,3,3,3,,,,,0,29,29,29,,,,,,,,,,,,,,,,,,,,,,,,,,,,,,,,,1,0.7364694350035279,,,,,,,,,,,,,,,,,,,,,,,,,,,,062019_p3,001,2019_Jun_20_1731,body_behavioural,3.0.4,60.07321410882046,
3,They declined and began to eat. ,4,3,None,,0,3,3,3,,,,,0,30,30,30,,,,,,,,,,,,,,,,,,,,,,,,,,,,,,,,,1,0.8857988379968447,,,,,,,,,,,,,,,,,,,,,,,,,,,,062019_p3,001,2019_Jun_20_1731,body_behavioural,3.0.4,60.07321410882046,
3,The meal was subpar- they both found the meat to be a bit overcooked and dry. ,4,3,None,,0,3,3,3,,,,,0,31,31,31,,,,,,,,,,,,,,,,,,,,,,,,,,,,,,,,,9,1.6193919849974918,,,,,,,,,,,,,,,,,,,,,,,,,,,,062019_p3,001,2019_Jun_20_1731,body_behavioural,3.0.4,60.07321410882046,
3,"Mr. Gordon, after taking a contemplative bite and swallowing, said, “Mr. Shelton, I think we have a deal. ",4,4,None,,0,3,3,3,,,,,0,32,32,32,,,,,,,,,,,,,,,,,,,,,,,,,,,,,,,,,1,2.7196595950008486,,,,,,,,,,,,,,,,,,,,,,,,,,,,062019_p3,001,2019_Jun_20_1731,body_behavioural,3.0.4,60.07321410882046,
3,"If you can guarantee that I can still have the final say in the all the work done by my team, I think this could be beneficial for both of us.",4,4,None,,0,3,3,3,,,,,0,33,33,33,,,,,,,,,,,,,,,,,,,,,,,,,,,,,,,,,1,2.2860765080040437,,,,,,,,,,,,,,,,,,,,,,,,,,,,062019_p3,001,2019_Jun_20_1731,body_behavioural,3.0.4,60.07321410882046,
3,I propose a toast to the merging of our companies.”,4,4,None,,0,3,3,3,,,,,0,34,34,34,,,,,,,,,,,,,,,,,,,,,,,,,,,,,,,,,1,1.1528956149995793,,,,,,,,,,,,,,,,,,,,,,,,,,,,062019_p3,001,2019_Jun_20_1731,body_behavioural,3.0.4,60.07321410882046,
3,Mr. Shelton grinned and lifted his martini to clink glasses.,4,4,None,,0,3,3,3,,,,,0,35,35,35,,,,,,,,,,,,,,,,,,,,,,,,,,,,,,,,,9,2.5364235320012085,,,,,,,,,,,,,,,,,,,,,,,,,,,,062019_p3,001,2019_Jun_20_1731,body_behavioural,3.0.4,60.07321410882046,
3,"He said, “Cheers to a lifelong partnership and to the growth of our company.” ",4,4,None,,0,3,3,3,,,,,0,36,36,36,,,,,,,,,,,,,,,,,,,,,,,,,,,,,,,,,1,0.720207586993638,,,,,,,,,,,,,,,,,,,,,,,,,,,,062019_p3,001,2019_Jun_20_1731,body_behavioural,3.0.4,60.07321410882046,
3,,,,,,0,3,3,3,,,,,,,,,,,,,,,,,,,,,,,,,,,,,,,,,,,,,,,,,,,,,,,,,,,,,,,,,,,,,,,,,,,,,,062019_p3,001,2019_Jun_20_1731,body_behavioural,3.0.4,60.07321410882046,
4,,,,,,0,4,4,4,0,0,0,0,,,,,,,,,,,,,,,,,,,,,,,,,,,space,0.836286564997863,space,0.46968601499975193,space,0.636229853000259,,,,,,,,,,,,,,,,,,,,,,,,,,,,,,,,,,062019_p3,001,2019_Jun_20_1731,body_behavioural,3.0.4,60.07321410882046,
4,Henry walked into lecture with Maria who was mentally rehearsing what she should say to break up with him.,1,1,14.0,,0,4,4,4,,,,,0,0,0,0,,,,,,,,,,,,,,,,,,,,,,,,,,,,,space,0.46955668999726186,space,0.6528545180044603,9,14.354041487997165,,,,,,,,,,,,,,,,,,,,,,,,,,,,062019_p3,001,2019_Jun_20_1731,body_behavioural,3.0.4,60.07321410882046,
4,She had been putting it off with a growing sense of dread as she had been since she started to think about it a week ago.,1,1,None,,0,4,4,4,,,,,0,1,1,1,,,,,,,,,,,,,,,,,,,,,,,,,,,,,,,,,1,3.35332087000279,,,,,,,,,,,,,,,,,,,,,,,,,,,,062019_p3,001,2019_Jun_20_1731,body_behavioural,3.0.4,60.07321410882046,
4,Now this lecture was the last chance to do it. ,1,1,None,,0,4,4,4,,,,,0,2,2,2,,,,,,,,,,,,,,,,,,,,,,,,,,,,,,,,,1,2.669465005004895,,,,,,,,,,,,,,,,,,,,,,,,,,,,062019_p3,001,2019_Jun_20_1731,body_behavioural,3.0.4,60.07321410882046,
4,"The lecture hall was large, with a stage for the lecturer in the front of the room, and 15 tiered rows of desks. ",1,1,None,,0,4,4,4,,,,,0,3,3,3,,,,,,,,,,,,,,,,,,,,,,,,,,,,,,,,,9,2.8527035749939387,,,,,,,,,,,,,,,,,,,,,,,,,,,,062019_p3,001,2019_Jun_20_1731,body_behavioural,3.0.4,60.07321410882046,
4,Maria and Henry slid into neighboring seats near the back of the room.,1,1,None,,0,4,4,4,,,,,0,4,4,4,,,,,,,,,,,,,,,,,,,,,,,,,,,,,,,,,9,1.7700443619978614,,,,,,,,,,,,,,,,,,,,,,,,,,,,062019_p3,001,2019_Jun_20_1731,body_behavioural,3.0.4,60.07321410882046,
4,"The professor opened up the lecture with a hardy greeting, “Good afternoon, everybody.”",2,1,None,,0,4,4,4,,,,,0,5,5,5,,,,,,,,,,,,,,,,,,,,,,,,,,,,,,,,,1,1.219316898001125,,,,,,,,,,,,,,,,,,,,,,,,,,,,062019_p3,001,2019_Jun_20_1731,body_behavioural,3.0.4,60.07321410882046,
4,"As he fiddled with the cords to connect his laptop to the projector, he continued to say, “Welcome to Week 4 of Intro to Ancient Philosophy. ",2,1,None,,0,4,4,4,,,,,0,6,6,6,,,,,,,,,,,,,,,,,,,,,,,,,,,,,,,,,9,3.2365430450008716,,,,,,,,,,,,,,,,,,,,,,,,,,,,062019_p3,001,2019_Jun_20_1731,body_behavioural,3.0.4,60.07321410882046,
4,Today we are going to continue our lecture on Aristotelian Philosophy.”,2,1,None,,0,4,4,4,,,,,0,7,7,7,,,,,,,,,,,,,,,,,,,,,,,,,,,,,,,,,1,1.2507763230023556,,,,,,,,,,,,,,,,,,,,,,,,,,,,062019_p3,001,2019_Jun_20_1731,body_behavioural,3.0.4,60.07321410882046,
4,Mostly everyone in class was taking notes.,2,1,None,,0,4,4,4,,,,,0,8,8,8,,,,,,,,,,,,,,,,,,,,,,,,,,,,,,,,,1,4.686668168003962,,,,,,,,,,,,,,,,,,,,,,,,,,,,062019_p3,001,2019_Jun_20_1731,body_behavioural,3.0.4,60.07321410882046,
4,"Maria took a deep breath, decided to rip off the bandaid, and leaning into Henry’s desk, said, “Henry, I think we should- I think we should break up because I don’t think I can do long distance.",2,2,None,,0,4,4,4,,,,,0,9,9,9,,,,,,,,,,,,,,,,,,,,,,,,,,,,,,,,,1,2.303633921997971,,,,,,,,,,,,,,,,,,,,,,,,,,,,062019_p3,001,2019_Jun_20_1731,body_behavioural,3.0.4,60.07321410882046,
4,"I think what we have here is great, but I think it will be really hard when we are so far apart for so long during my study abroad.",2,2,None,,0,4,4,4,,,,,0,10,10,10,,,,,,,,,,,,,,,,,,,,,,,,,,,,,,,,,1,1.0529358799976762,,,,,,,,,,,,,,,,,,,,,,,,,,,,062019_p3,001,2019_Jun_20_1731,body_behavioural,3.0.4,60.07321410882046,
4,"I’m sorry I’m telling you now in lecture, but you know, I have to leave for the airport after class and this is really hard for me to tell you.",2,2,None,,0,4,4,4,,,,,0,11,11,11,,,,,,,,,,,,,,,,,,,,,,,,,,,,,,,,,1,0.6511834199991426,,,,,,,,,,,,,,,,,,,,,,,,,,,,062019_p3,001,2019_Jun_20_1731,body_behavioural,3.0.4,60.07321410882046,
4,I just know when I’m there I’m going to be so busy and I really want to be immersed in the life of the place I’m in.”,2,2,None,,0,4,4,4,,,,,0,12,12,12,,,,,,,,,,,,,,,,,,,,,,,,,,,,,,,,,1,0.6173328479999327,,,,,,,,,,,,,,,,,,,,,,,,,,,,062019_p3,001,2019_Jun_20_1731,body_behavioural,3.0.4,60.07321410882046,
4,"The professor said, “We will now talk about one of Aristotle’s works, The Categories.",3,2,None,,0,4,4,4,,,,,0,13,13,13,,,,,,,,,,,,,,,,,,,,,,,,,,,,,,,,,9,1.8197011829979601,,,,,,,,,,,,,,,,,,,,,,,,,,,,062019_p3,001,2019_Jun_20_1731,body_behavioural,3.0.4,60.07321410882046,
4,"This text, as you might have been able to guess, is about the kinds, or categories, of things that there are.",3,2,None,,0,4,4,4,,,,,0,14,14,14,,,,,,,,,,,,,,,,,,,,,,,,,,,,,,,,,1,3.002660352998646,,,,,,,,,,,,,,,,,,,,,,,,,,,,062019_p3,001,2019_Jun_20_1731,body_behavioural,3.0.4,60.07321410882046,
4,"In fact, our term category comes from this Aristotelian context.",3,2,None,,0,4,4,4,,,,,0,15,15,15,,,,,,,,,,,,,,,,,,,,,,,,,,,,,,,,,1,1.4507558629993582,,,,,,,,,,,,,,,,,,,,,,,,,,,,062019_p3,001,2019_Jun_20_1731,body_behavioural,3.0.4,60.07321410882046,
4,"The Categories, traditionally interpreted as an introduction to Aristotle’s logical work, divides all of  being into ten categories.” ",3,2,None,,0,4,4,4,,,,,0,16,16,16,,,,,,,,,,,,,,,,,,,,,,,,,,,,,,,,,1,2.2031240300057107,,,,,,,,,,,,,,,,,,,,,,,,,,,,062019_p3,001,2019_Jun_20_1731,body_behavioural,3.0.4,60.07321410882046,
4,"Henry felt horrible, like the wind had just been knocked out of him and he whispered back, “Maria, I don’t want to break up with you because I love you.",3,3,None,,0,4,4,4,,,,,0,17,17,17,,,,,,,,,,,,,,,,,,,,,,,,,,,,,,,,,1,1.8697789529978763,,,,,,,,,,,,,,,,,,,,,,,,,,,,062019_p3,001,2019_Jun_20_1731,body_behavioural,3.0.4,60.07321410882046,
4,I’ll come visit you and it will be fine.,3,3,None,,0,4,4,4,,,,,0,18,18,18,,,,,,,,,,,,,,,,,,,,,,,,,,,,,,,,,1,0.5359172750031576,,,,,,,,,,,,,,,,,,,,,,,,,,,,062019_p3,001,2019_Jun_20_1731,body_behavioural,3.0.4,60.07321410882046,
4,I don’t want to break up.”,3,3,None,,0,4,4,4,,,,,0,19,19,19,,,,,,,,,,,,,,,,,,,,,,,,,,,,,,,,,1,0.43404466500214767,,,,,,,,,,,,,,,,,,,,,,,,,,,,062019_p3,001,2019_Jun_20_1731,body_behavioural,3.0.4,60.07321410882046,
4,"Maria felt so guilty that she nearly gave in, but forced herself to hold her ground, knowing that this would make things much easier for both of them in the future.",3,3,None,,0,4,4,4,,,,,0,20,20,20,,,,,,,,,,,,,,,,,,,,,,,,,,,,,,,,,1,0.8362308319992735,,,,,,,,,,,,,,,,,,,,,,,,,,,,062019_p3,001,2019_Jun_20_1731,body_behavioural,3.0.4,60.07321410882046,
4,"She gave his hand a squeeze but shook her head sadly, before turning back to look at her empty desk. ",3,3,None,,0,4,4,4,,,,,0,21,21,21,,,,,,,,,,,,,,,,,,,,,,,,,,,,,,,,,1,0.6692783830003464,,,,,,,,,,,,,,,,,,,,,,,,,,,,062019_p3,001,2019_Jun_20_1731,body_behavioural,3.0.4,60.07321410882046,
4,"The professor wrapped up, “Alright, class, that’s all for today.",4,3,None,,0,4,4,4,,,,,0,22,22,22,,,,,,,,,,,,,,,,,,,,,,,,,,,,,,,,,1,1.7339795699954266,,,,,,,,,,,,,,,,,,,,,,,,,,,,062019_p3,001,2019_Jun_20_1731,body_behavioural,3.0.4,60.07321410882046,
4,"Remember the final exam is coming up next week on Tuesday on the Pre-Socratics, Plato, and Aristotle, so feel free to come by office hours to discuss if you have the inspiration.",4,3,None,,0,4,4,4,,,,,0,23,23,23,,,,,,,,,,,,,,,,,,,,,,,,,,,,,,,,,9,1.2196965650000493,,,,,,,,,,,,,,,,,,,,,,,,,,,,062019_p3,001,2019_Jun_20_1731,body_behavioural,3.0.4,60.07321410882046,
4,"If anyone has any conflicts with another exam, please email me so that we can figure out a time to reschedule it. ",4,3,None,,0,4,4,4,,,,,0,24,24,24,,,,,,,,,,,,,,,,,,,,,,,,,,,,,,,,,9,1.1528662400014582,,,,,,,,,,,,,,,,,,,,,,,,,,,,062019_p3,001,2019_Jun_20_1731,body_behavioural,3.0.4,60.07321410882046,
4,"Have a good day, folks.” ",4,3,None,,0,4,4,4,,,,,0,25,25,25,,,,,,,,,,,,,,,,,,,,,,,,,,,,,,,,,1,0.7696655229956377,,,,,,,,,,,,,,,,,,,,,,,,,,,,062019_p3,001,2019_Jun_20_1731,body_behavioural,3.0.4,60.07321410882046,
4,"Maria and Henry packed up hurriedly, and they hugged; both of them had tears. ",4,4,None,,0,4,4,4,,,,,0,26,26,26,,,,,,,,,,,,,,,,,,,,,,,,,,,,,,,,,1,0.9029550330014899,,,,,,,,,,,,,,,,,,,,,,,,,,,,062019_p3,001,2019_Jun_20_1731,body_behavioural,3.0.4,60.07321410882046,
4,"“Maria, I don’t want you to leave.",4,4,None,,0,4,4,4,,,,,0,27,27,27,,,,,,,,,,,,,,,,,,,,,,,,,,,,,,,,,1,0.9181508490000851,,,,,,,,,,,,,,,,,,,,,,,,,,,,062019_p3,001,2019_Jun_20_1731,body_behavioural,3.0.4,60.07321410882046,
4,I don’t want this to end. ,4,4,None,,0,4,4,4,,,,,0,28,28,28,,,,,,,,,,,,,,,,,,,,,,,,,,,,,,,,,1,0.6693345950043295,,,,,,,,,,,,,,,,,,,,,,,,,,,,062019_p3,001,2019_Jun_20_1731,body_behavioural,3.0.4,60.07321410882046,
4,"But if this is what you think is best, I can’t make it otherwise.” ",4,4,None,,0,4,4,4,,,,,0,29,29,29,,,,,,,,,,,,,,,,,,,,,,,,,,,,,,,,,1,0.6362842349990387,,,,,,,,,,,,,,,,,,,,,,,,,,,,062019_p3,001,2019_Jun_20_1731,body_behavioural,3.0.4,60.07321410882046,
4,"They hugged one last time, and then Maria remembered she had left her favorite Alpaca sweater in Henry’s room.",4,4,None,,0,4,4,4,,,,,0,30,30,30,,,,,,,,,,,,,,,,,,,,,,,,,,,,,,,,,1,4.084533777997422,,,,,,,,,,,,,,,,,,,,,,,,,,,,062019_p3,001,2019_Jun_20_1731,body_behavioural,3.0.4,60.07321410882046,
4,"“Henry, I’m so sorry to ask this now but could you grab my alpaca sweater from your dorm and meet me in front of the student center?”",4,4,None,,0,4,4,4,,,,,0,31,31,31,,,,,,,,,,,,,,,,,,,,,,,,,,,,,,,,,1,1.4530386300029932,,,,,,,,,,,,,,,,,,,,,,,,,,,,062019_p3,001,2019_Jun_20_1731,body_behavioural,3.0.4,60.07321410882046,
4,"He agreed, and she ran off to get her things from her dorm as he sadly watched her go. ",4,4,None,,0,4,4,4,,,,,0,32,32,32,,,,,,,,,,,,,,,,,,,,,,,,,,,,,,,,,1,0.6363529950031079,,,,,,,,,,,,,,,,,,,,,,,,,,,,062019_p3,001,2019_Jun_20_1731,body_behavioural,3.0.4,60.07321410882046,
4,,,,,,0,4,4,4,,,,,,,,,,,,,,,,,,,,,,,,,,,,,,,,,,,,,,,,,,,,,,,,,,,,,,,,,,,,,,,,,,,,,,062019_p3,001,2019_Jun_20_1731,body_behavioural,3.0.4,60.07321410882046,
5,,,,,,0,5,5,5,0,0,0,0,,,,,,,,,,,,,,,,,,,,,,,,,,,space,0.6859009999971022,space,0.5029405179957394,space,0.9529202919948148,,,,,,,,,,,,,,,,,,,,,,,,,,,,,,,,,,062019_p3,001,2019_Jun_20_1731,body_behavioural,3.0.4,60.07321410882046,
5,The grocery store was not the place Emmanuella and Liam wanted to be at the moment considering that they had been fighting to the point where Emmanuella was thinking of breaking up with Liam.,1.0,1.0,13.0,,0,5,5,5,,,,,0,0,0,0,,,,,,,,,,,,,,,,,,,,,,,,,,,,,space,1.0195994050009176,space,0.5862417250027647,9,3.55354218800494,,,,,,,,,,,,,,,,,,,,,,,,,,,,062019_p3,001,2019_Jun_20_1731,body_behavioural,3.0.4,60.07321410882046,
5,Emmanuella had been thinking of breaking up with Liam for the past 5 months.,None,None,None,,0,5,5,5,,,,,0,1,1,1,,,,,,,,,,,,,,,,,,,,,,,,,,,,,,,,,9,1.2196670780031127,,,,,,,,,,,,,,,,,,,,,,,,,,,,062019_p3,001,2019_Jun_20_1731,body_behavioural,3.0.4,60.07321410882046,
5,"Despite the current tension, they had to go grocery shopping because they were hosting a dinner party for friends that evening and had little at home with which to cook. ",1.0,1.0,None,,0,5,5,5,,,,,0,2,2,2,,,,,,,,,,,,,,,,,,,,,,,,,,,,,,,,,1,5.235677636002947,,,,,,,,,,,,,,,,,,,,,,,,,,,,062019_p3,001,2019_Jun_20_1731,body_behavioural,3.0.4,60.07321410882046,
5,"The grocery store smelled like lavender upon entering and was dimly lit with pine shelves in the entrance and obscure, organic products displayed on them.",1.0,1.0,None,,0,5,5,5,,,,,0,3,3,3,,,,,,,,,,,,,,,,,,,,,,,,,,,,,,,,,1,1.2187458660046104,,,,,,,,,,,,,,,,,,,,,,,,,,,,062019_p3,001,2019_Jun_20_1731,body_behavioural,3.0.4,60.07321410882046,
5,"In the pasta section, Emmanuella grabbed a few boxes of bow-tie pasta.",2.0,1.0,None,,0,5,5,5,,,,,0,4,4,4,,,,,,,,,,,,,,,,,,,,,,,,,,,,,,,,,1,1.5537069419951877,,,,,,,,,,,,,,,,,,,,,,,,,,,,062019_p3,001,2019_Jun_20_1731,body_behavioural,3.0.4,60.07321410882046,
5,"“I guess we are having a pasta dish tonight,” Liam said.",2.0,1.0,None,,0,5,5,5,,,,,0,5,5,5,,,,,,,,,,,,,,,,,,,,,,,,,,,,,,,,,1,0.9864726870000595,,,,,,,,,,,,,,,,,,,,,,,,,,,,062019_p3,001,2019_Jun_20_1731,body_behavioural,3.0.4,60.07321410882046,
5,"Emmanuella looked back at him and said, “Well if you were going to actually help cook, I would be fine with something else.”",2.0,1.0,None,,0,5,5,5,,,,,0,6,6,6,,,,,,,,,,,,,,,,,,,,,,,,,,,,,,,,,1,0.7197024829947622,,,,,,,,,,,,,,,,,,,,,,,,,,,,062019_p3,001,2019_Jun_20_1731,body_behavioural,3.0.4,60.07321410882046,
5,"Liam sighed, and finally said, “You know- you don’t want me to help.",2.0,1.0,None,,0,5,5,5,,,,,0,7,7,7,,,,,,,,,,,,,,,,,,,,,,,,,,,,,,,,,9,1.667470169995795,,,,,,,,,,,,,,,,,,,,,,,,,,,,062019_p3,001,2019_Jun_20_1731,body_behavioural,3.0.4,60.07321410882046,
5,"I try to, but it seems like I always get in the way!” ",2.0,1.0,None,,0,5,5,5,,,,,0,8,8,8,,,,,,,,,,,,,,,,,,,,,,,,,,,,,,,,,9,1.0196554729991476,,,,,,,,,,,,,,,,,,,,,,,,,,,,062019_p3,001,2019_Jun_20_1731,body_behavioural,3.0.4,60.07321410882046,
5,Emmanuella shook her head and dropped the pasta boxes in the basket she was holding.,2.0,1.0,None,,0,5,5,5,,,,,0,9,9,9,,,,,,,,,,,,,,,,,,,,,,,,,,,,,,,,,1,0.9530580479986384,,,,,,,,,,,,,,,,,,,,,,,,,,,,062019_p3,001,2019_Jun_20_1731,body_behavioural,3.0.4,60.07321410882046,
5," “Like you even try,” she mumbled to herself. ",2.0,1.0,None,,0,5,5,5,,,,,0,10,10,10,,,,,,,,,,,,,,,,,,,,,,,,,,,,,,,,,9,0.9861128679985995,,,,,,,,,,,,,,,,,,,,,,,,,,,,062019_p3,001,2019_Jun_20_1731,body_behavioural,3.0.4,60.07321410882046,
5,She continued down the aisle and studied a jar of vodka sauce and a can of olives before putting them in the basket as well. ,2.0,1.0,None,,0,5,5,5,,,,,0,11,11,11,,,,,,,,,,,,,,,,,,,,,,,,,,,,,,,,,1,1.0863679129979573,,,,,,,,,,,,,,,,,,,,,,,,,,,,062019_p3,001,2019_Jun_20_1731,body_behavioural,3.0.4,60.07321410882046,
5,"Emmanuella suddenly wrinkled her eyebrows, turned to Liam, and said, “I want to break up since I’m tired of the constant fighting. ",2.0,2.0,None,,0,5,5,5,,,,,0,12,12,12,,,,,,,,,,,,,,,,,,,,,,,,,,,,,,,,,9,1.6363697549968492,,,,,,,,,,,,,,,,,,,,,,,,,,,,062019_p3,001,2019_Jun_20_1731,body_behavioural,3.0.4,60.07321410882046,
5,"I was going to wait until after this horribly-timed dinner party tonight to talk about this, but I might as well say it now.",2.0,2.0,None,,0,5,5,5,,,,,0,13,13,13,,,,,,,,,,,,,,,,,,,,,,,,,,,,,,,,,9,3.553150262996496,,,,,,,,,,,,,,,,,,,,,,,,,,,,062019_p3,001,2019_Jun_20_1731,body_behavioural,3.0.4,60.07321410882046,
5,"I feel like when we try to do anything anymore it ends up unpleasant for the stupidest reasons, and I am just past trying to work things out.”",2.0,2.0,None,,0,5,5,5,,,,,0,14,14,14,,,,,,,,,,,,,,,,,,,,,,,,,,,,,,,,,9,1.8361204450047808,,,,,,,,,,,,,,,,,,,,,,,,,,,,062019_p3,001,2019_Jun_20_1731,body_behavioural,3.0.4,60.07321410882046,
5,Liam was nodding automatically.,2.0,2.0,None,,0,5,5,5,,,,,0,15,15,15,,,,,,,,,,,,,,,,,,,,,,,,,,,,,,,,,1,1.1529710729955696,,,,,,,,,,,,,,,,,,,,,,,,,,,,062019_p3,001,2019_Jun_20_1731,body_behavioural,3.0.4,60.07321410882046,
5,"In the checkout area, there was only one station open, Station 2, but it was not very crowded.",3.0,2.0,None,,0,5,5,5,,,,,0,16,16,16,,,,,,,,,,,,,,,,,,,,,,,,,,,,,,,,,1,1.0196463300017058,,,,,,,,,,,,,,,,,,,,,,,,,,,,062019_p3,001,2019_Jun_20_1731,body_behavioural,3.0.4,60.07321410882046,
5,They got in line.,3.0,2.0,None,,0,5,5,5,,,,,0,17,17,17,,,,,,,,,,,,,,,,,,,,,,,,,,,,,,,,,1,0.5362510019986075,,,,,,,,,,,,,,,,,,,,,,,,,,,,062019_p3,001,2019_Jun_20_1731,body_behavioural,3.0.4,60.07321410882046,
5,"Liam gazed in the direction of the magazines, but his eyes were glazed over as he was working things out in his head while Emmanuella scrutinized the pasta sauce again. ",3.0,2.0,None,,0,5,5,5,,,,,0,18,18,18,,,,,,,,,,,,,,,,,,,,,,,,,,,,,,,,,1,1.534184878000815,,,,,,,,,,,,,,,,,,,,,,,,,,,,062019_p3,001,2019_Jun_20_1731,body_behavioural,3.0.4,60.07321410882046,
5,"After a few minutes of thinking, Liam recollected himself, turned to her, and sighed, “Yes, I think the same thing.",3.0,3.0,None,,0,5,5,5,,,,,0,19,19,19,,,,,,,,,,,,,,,,,,,,,,,,,,,,,,,,,9,1.6870282669988228,,,,,,,,,,,,,,,,,,,,,,,,,,,,062019_p3,001,2019_Jun_20_1731,body_behavioural,3.0.4,60.07321410882046,
5,I think we should break up because we could definitely be happier with other people.” ,3.0,3.0,None,,0,5,5,5,,,,,0,20,20,20,,,,,,,,,,,,,,,,,,,,,,,,,,,,,,,,,9,1.1674118350056233,,,,,,,,,,,,,,,,,,,,,,,,,,,,062019_p3,001,2019_Jun_20_1731,body_behavioural,3.0.4,60.07321410882046,
5,Emmanuella nodded as she listened. ,3.0,3.0,None,,0,5,5,5,,,,,0,21,21,21,,,,,,,,,,,,,,,,,,,,,,,,,,,,,,,,,1,0.7527861150010722,,,,,,,,,,,,,,,,,,,,,,,,,,,,062019_p3,001,2019_Jun_20_1731,body_behavioural,3.0.4,60.07321410882046,
5,The cashier scanned their groceries.,4.0,3.0,None,,0,5,5,5,,,,,0,22,22,22,,,,,,,,,,,,,,,,,,,,,,,,,,,,,,,,,1,0.7363464829977602,,,,,,,,,,,,,,,,,,,,,,,,,,,,062019_p3,001,2019_Jun_20_1731,body_behavioural,3.0.4,60.07321410882046,
5,"The cost came to $30, and Emmanuella paid with her credit card.",4.0,3.0,None,,0,5,5,5,,,,,0,23,23,23,,,,,,,,,,,,,,,,,,,,,,,,,,,,,,,,,1,0.9701044999965234,,,,,,,,,,,,,,,,,,,,,,,,,,,,062019_p3,001,2019_Jun_20_1731,body_behavioural,3.0.4,60.07321410882046,
5,"She asked Liam politely to take the bags, and he obliged, following her to the exit. ",4.0,3.0,None,,0,5,5,5,,,,,0,24,24,24,,,,,,,,,,,,,,,,,,,,,,,,,,,,,,,,,1,0.6528091999934986,,,,,,,,,,,,,,,,,,,,,,,,,,,,062019_p3,001,2019_Jun_20_1731,body_behavioural,3.0.4,60.07321410882046,
5,"Filled with a sudden wave of sadness, Emmanuella said, “Liam, I think we are making the right decision- this is good.”",4.0,4.0,None,,0,5,5,5,,,,,0,25,25,25,,,,,,,,,,,,,,,,,,,,,,,,,,,,,,,,,9,2.2697997979994398,,,,,,,,,,,,,,,,,,,,,,,,,,,,062019_p3,001,2019_Jun_20_1731,body_behavioural,3.0.4,60.07321410882046,
5,"“I agree,” he said, relieved at the hope he was entertaining that they had just gotten through their last fight. ",4.0,4.0,None,,0,5,5,5,,,,,0,26,26,26,,,,,,,,,,,,,,,,,,,,,,,,,,,,,,,,,9,1.4197100250021322,,,,,,,,,,,,,,,,,,,,,,,,,,,,062019_p3,001,2019_Jun_20_1731,body_behavioural,3.0.4,60.07321410882046,
5,"“I think we can still host this dinner tonight, as long as you're still on board,” Emmanuella said.",4.0,4.0,None,,0,5,5,5,,,,,0,27,27,27,,,,,,,,,,,,,,,,,,,,,,,,,,,,,,,,,1,1.9203750329979812,,,,,,,,,,,,,,,,,,,,,,,,,,,,062019_p3,001,2019_Jun_20_1731,body_behavioural,3.0.4,60.07321410882046,
5,"Liam nodded, “Yes, let’s just not tell anyone we’ve broken up tonight.” ",4.0,4.0,None,,0,5,5,5,,,,,0,28,28,28,,,,,,,,,,,,,,,,,,,,,,,,,,,,,,,,,9,1.2530147049983498,,,,,,,,,,,,,,,,,,,,,,,,,,,,062019_p3,001,2019_Jun_20_1731,body_behavioural,3.0.4,60.07321410882046,
5,"Emmanuella laughed, “Whoever leaks it loses their right to the cat.”",4.0,4.0,None,,0,5,5,5,,,,,0,29,29,29,,,,,,,,,,,,,,,,,,,,,,,,,,,,,,,,,9,4.653189062999445,,,,,,,,,,,,,,,,,,,,,,,,,,,,062019_p3,001,2019_Jun_20_1731,body_behavioural,3.0.4,60.07321410882046,
5,"Liam chuckled and responded, “Hey!",4.0,4.0,None,,0,5,5,5,,,,,0,30,30,30,,,,,,,,,,,,,,,,,,,,,,,,,,,,,,,,,1,1.1030578200006858,,,,,,,,,,,,,,,,,,,,,,,,,,,,062019_p3,001,2019_Jun_20_1731,body_behavioural,3.0.4,60.07321410882046,
5,Luna is mine and I want her back.”,4.0,4.0,None,,0,5,5,5,,,,,0,31,31,31,,,,,,,,,,,,,,,,,,,,,,,,,,,,,,,,,9,0.8507197049984825,,,,,,,,,,,,,,,,,,,,,,,,,,,,062019_p3,001,2019_Jun_20_1731,body_behavioural,3.0.4,60.07321410882046,
5,"Emmanuella rolled her eyes, knowing the cat would be a whole other issue to sort out later.
",4.0,4.0,None,,0,5,5,5,,,,,0,32,32,32,,,,,,,,,,,,,,,,,,,,,,,,,,,,,,,,,9,2.0362608220020775,,,,,,,,,,,,,,,,,,,,,,,,,,,,062019_p3,001,2019_Jun_20_1731,body_behavioural,3.0.4,60.07321410882046,
5,,,,,,0,5,5,5,,,,,,,,,,,,,,,,,,,,,,,,,,,,,,,,,,,,,,,,,,,,,,,,,,,,,,,,,,,,,,,,,,,,,,062019_p3,001,2019_Jun_20_1731,body_behavioural,3.0.4,60.07321410882046,
6,,,,,,0,6,6,6,0,0,0,0,,,,,,,,,,,,,,,,,,,,,,,,,,,space,0.6696387580013834,space,0.4528339149983367,space,0.734211046998098,,,,,,,,,,,,,,,,,,,,,,,,,,,,,,,,,,062019_p3,001,2019_Jun_20_1731,body_behavioural,3.0.4,60.07321410882046,
6,,,,,,0,6,6,6,1,0,1,0,,,,,,,,,,,,,,,,,,,,,,,,,,,,,,,space,0.5841319800019846,,,,,,,,,,,,,,,,,,,,,,,,,,,,,,,,,,062019_p3,001,2019_Jun_20_1731,body_behavioural,3.0.4,60.07321410882046,
6,,,,,,0,6,6,6,2,0,2,0,,,,,,,,,,,,,,,,,,,,,,,,,,,,,,,space,0.38630353299959097,,,,,,,,,,,,,,,,,,,,,,,,,,,,,,,,,,062019_p3,001,2019_Jun_20_1731,body_behavioural,3.0.4,60.07321410882046,
6,"James noticed Teresa immediately as she walked into the restaurant - or, more accurately, as she attempted to walk into the restaurant. ",1,1,41.0,,0,6,6,6,,,,,0,0,0,0,,,,,,,,,,,,,,,,,,,,,,,,,,,,,space,0.6031580779963406,space,0.5368789650019608,9,4.169728092994774,,,,,,,,,,,,,,,,,,,,,,,,,,,,062019_p3,001,2019_Jun_20_1731,body_behavioural,3.0.4,60.07321410882046,
6,She was typing intently on her phone and ran straight into the restaurant’s glass door with a painful thud. ,1,1,None,,0,6,6,6,,,,,0,1,1,1,,,,,,,,,,,,,,,,,,,,,,,,,,,,,,,,,9,1.4866173529953812,,,,,,,,,,,,,,,,,,,,,,,,,,,,062019_p3,001,2019_Jun_20_1731,body_behavioural,3.0.4,60.07321410882046,
6,Everyone waiting around the cash register turned.,1,1,None,,0,6,6,6,,,,,0,2,2,2,,,,,,,,,,,,,,,,,,,,,,,,,,,,,,,,,1,2.4532791349993204,,,,,,,,,,,,,,,,,,,,,,,,,,,,062019_p3,001,2019_Jun_20_1731,body_behavioural,3.0.4,60.07321410882046,
6,Teresa rubbed her head and put her phone away. ,1,1,None,,0,6,6,6,,,,,0,3,3,3,,,,,,,,,,,,,,,,,,,,,,,,,,,,,,,,,9,1.5675387049996061,,,,,,,,,,,,,,,,,,,,,,,,,,,,062019_p3,001,2019_Jun_20_1731,body_behavioural,3.0.4,60.07321410882046,
6,She looked somewhat confused but primarily indignant that the door had been in her way. ,1,1,None,,0,6,6,6,,,,,0,4,4,4,,,,,,,,,,,,,,,,,,,,,,,,,,,,,,,,,1,1.3198473150041536,,,,,,,,,,,,,,,,,,,,,,,,,,,,062019_p3,001,2019_Jun_20_1731,body_behavioural,3.0.4,60.07321410882046,
6,"James found this quite charming and stole a couple glances at her, peeking up from the newspaper he was holding, until she noticed and wrinkled her eyebrows at him. ",1,1,None,,0,6,6,6,,,,,0,5,5,5,,,,,,,,,,,,,,,,,,,,,,,,,,,,,,,,,9,2.4197858619954786,,,,,,,,,,,,,,,,,,,,,,,,,,,,062019_p3,001,2019_Jun_20_1731,body_behavioural,3.0.4,60.07321410882046,
6,James and Teresa had both chosen the least busy time to try out Atlanta’s newest sushi restaurant.  ,1,1,None,,0,6,6,6,,,,,0,6,6,6,,,,,,,,,,,,,,,,,,,,,,,,,,,,,,,,,1,1.5860170550004113,,,,,,,,,,,,,,,,,,,,,,,,,,,,062019_p3,001,2019_Jun_20_1731,body_behavioural,3.0.4,60.07321410882046,
6,It was notable for both the food and the decor. ,1,1,None,,0,6,6,6,,,,,0,7,7,7,,,,,,,,,,,,,,,,,,,,,,,,,,,,,,,,,1,0.9186988250003196,,,,,,,,,,,,,,,,,,,,,,,,,,,,062019_p3,001,2019_Jun_20_1731,body_behavioural,3.0.4,60.07321410882046,
6,"There were pine wood countertops and chairs, plants all along the sides of the walls, and branch-looking structures hanging from the ceiling. ",1,1,None,,0,6,6,6,,,,,0,8,8,8,,,,,,,,,,,,,,,,,,,,,,,,,,,,,,,,,1,0.8862720129982335,,,,,,,,,,,,,,,,,,,,,,,,,,,,062019_p3,001,2019_Jun_20_1731,body_behavioural,3.0.4,60.07321410882046,
6,"The host sat James and Teresa, who were both dining alone, at the bar. ",2,1,None,,0,6,6,6,,,,,0,9,9,9,,,,,,,,,,,,,,,,,,,,,,,,,,,,,,,,,1,1.236382898001466,,,,,,,,,,,,,,,,,,,,,,,,,,,,062019_p3,001,2019_Jun_20_1731,body_behavioural,3.0.4,60.07321410882046,
6,They sat a seat apart from each other on the bench.,2,1,None,,0,6,6,6,,,,,0,10,10,10,,,,,,,,,,,,,,,,,,,,,,,,,,,,,,,,,1,0.869735110005422,,,,,,,,,,,,,,,,,,,,,,,,,,,,062019_p3,001,2019_Jun_20_1731,body_behavioural,3.0.4,60.07321410882046,
6,"The waitress behind the counter gave them bright neon menus that were filled with entrees in Japanese with small, English translations. ",2,1,None,,0,6,6,6,,,,,0,11,11,11,,,,,,,,,,,,,,,,,,,,,,,,,,,,,,,,,1,1.7530736429980607,,,,,,,,,,,,,,,,,,,,,,,,,,,,062019_p3,001,2019_Jun_20_1731,body_behavioural,3.0.4,60.07321410882046,
6,James quickly glanced through it while Teresa took a longer time. ,2,1,None,,0,6,6,6,,,,,0,12,12,12,,,,,,,,,,,,,,,,,,,,,,,,,,,,,,,,,1,1.2531805129983695,,,,,,,,,,,,,,,,,,,,,,,,,,,,062019_p3,001,2019_Jun_20_1731,body_behavioural,3.0.4,60.07321410882046,
6,"A few minutes passed before, James turned to Teresa and asked, “Is your forehead alright?”",2,2,None,,0,6,6,6,,,,,0,13,13,13,,,,,,,,,,,,,,,,,,,,,,,,,,,,,,,,,9,2.1172502350018476,,,,,,,,,,,,,,,,,,,,,,,,,,,,062019_p3,001,2019_Jun_20_1731,body_behavioural,3.0.4,60.07321410882046,
6,She turned to him and smirked.,2,2,None,,0,6,6,6,,,,,0,14,14,14,,,,,,,,,,,,,,,,,,,,,,,,,,,,,,,,,9,1.0535963100046501,,,,,,,,,,,,,,,,,,,,,,,,,,,,062019_p3,001,2019_Jun_20_1731,body_behavioural,3.0.4,60.07321410882046,
6,“Have you ever been stung by a scorpion?” she asked him.,2,2,None,,0,6,6,6,,,,,0,15,15,15,,,,,,,,,,,,,,,,,,,,,,,,,,,,,,,,,9,1.6528274800002691,,,,,,,,,,,,,,,,,,,,,,,,,,,,062019_p3,001,2019_Jun_20_1731,body_behavioural,3.0.4,60.07321410882046,
6,“What?” he responded confusedly.,2,2,None,,0,6,6,6,,,,,0,16,16,16,,,,,,,,,,,,,,,,,,,,,,,,,,,,,,,,,1,0.8167474420042709,,,,,,,,,,,,,,,,,,,,,,,,,,,,062019_p3,001,2019_Jun_20_1731,body_behavioural,3.0.4,60.07321410882046,
6, “A scorpion.”,2,2,None,,0,6,6,6,,,,,0,17,17,17,,,,,,,,,,,,,,,,,,,,,,,,,,,,,,,,,9,1.1339020419982262,,,,,,,,,,,,,,,,,,,,,,,,,,,,062019_p3,001,2019_Jun_20_1731,body_behavioural,3.0.4,60.07321410882046,
6,James began to worry that Teresa had possibly suffered a concussion in the door crash.,2,2,None,,0,6,6,6,,,,,0,18,18,18,,,,,,,,,,,,,,,,,,,,,,,,,,,,,,,,,9,2.270416658000613,,,,,,,,,,,,,,,,,,,,,,,,,,,,062019_p3,001,2019_Jun_20_1731,body_behavioural,3.0.4,60.07321410882046,
6,"“Uh no, why?” he asked.",2,2,None,,0,6,6,6,,,,,0,19,19,19,,,,,,,,,,,,,,,,,,,,,,,,,,,,,,,,,9,4.970227544996305,,,,,,,,,,,,,,,,,,,,,,,,,,,,062019_p3,001,2019_Jun_20_1731,body_behavioural,3.0.4,60.07321410882046,
6,"“Because I’ve been stung by one, and since then, things like bumping into doors seem like pretty small potatoes.” ",2,2,None,,0,6,6,6,,,,,0,20,20,20,,,,,,,,,,,,,,,,,,,,,,,,,,,,,,,,,9,1.3697582229942782,,,,,,,,,,,,,,,,,,,,,,,,,,,,062019_p3,001,2019_Jun_20_1731,body_behavioural,3.0.4,60.07321410882046,
6,"They carried on talking, and Teresa told him all about her encounter with a Deathstalker scorpion while she was studying abroad in Egypt.",2,2,None,,0,6,6,6,,,,,0,21,21,21,,,,,,,,,,,,,,,,,,,,,,,,,,,,,,,,,9,1.8194705749992863,,,,,,,,,,,,,,,,,,,,,,,,,,,,062019_p3,001,2019_Jun_20_1731,body_behavioural,3.0.4,60.07321410882046,
6,"The waitress behind the counter came up to them and asked, “Are you ready for your order?” ",3,2,None,,0,6,6,6,,,,,0,22,22,22,,,,,,,,,,,,,,,,,,,,,,,,,,,,,,,,,1,0.9530311150010675,,,,,,,,,,,,,,,,,,,,,,,,,,,,062019_p3,001,2019_Jun_20_1731,body_behavioural,3.0.4,60.07321410882046,
6,"She first looked at Teresa who answered, “Yes, I’ll have a salmon roll and a Japanese beer.”",3,2,None,,0,6,6,6,,,,,0,23,23,23,,,,,,,,,,,,,,,,,,,,,,,,,,,,,,,,,1,1.4697608850037795,,,,,,,,,,,,,,,,,,,,,,,,,,,,062019_p3,001,2019_Jun_20_1731,body_behavioural,3.0.4,60.07321410882046,
6,Then the waitress turned to James.,3,2,None,,0,6,6,6,,,,,0,24,24,24,,,,,,,,,,,,,,,,,,,,,,,,,,,,,,,,,1,0.785928295001213,,,,,,,,,,,,,,,,,,,,,,,,,,,,062019_p3,001,2019_Jun_20_1731,body_behavioural,3.0.4,60.07321410882046,
6,"He said, “I’ll have a tuna roll and a vegetable roll.” ",3,2,None,,0,6,6,6,,,,,0,25,25,25,,,,,,,,,,,,,,,,,,,,,,,,,,,,,,,,,1,0.6193646350002382,,,,,,,,,,,,,,,,,,,,,,,,,,,,062019_p3,001,2019_Jun_20_1731,body_behavioural,3.0.4,60.07321410882046,
6,"“Alright, thank you!” the waitress said.",3,2,None,,0,6,6,6,,,,,0,26,26,26,,,,,,,,,,,,,,,,,,,,,,,,,,,,,,,,,1,0.402923745001317,,,,,,,,,,,,,,,,,,,,,,,,,,,,062019_p3,001,2019_Jun_20_1731,body_behavioural,3.0.4,60.07321410882046,
6,"James and Teresa talked about a concert James was going to that night, and he suddenly and nervously invited her to come along.",3,3,None,,0,6,6,6,,,,,0,27,27,27,,,,,,,,,,,,,,,,,,,,,,,,,,,,,,,,,9,1.736440134998702,,,,,,,,,,,,,,,,,,,,,,,,,,,,062019_p3,001,2019_Jun_20_1731,body_behavioural,3.0.4,60.07321410882046,
6,He promised her that the concert would be indoors and absolutely free of venomous insects.,3,3,None,,0,6,6,6,,,,,0,28,28,28,,,,,,,,,,,,,,,,,,,,,,,,,,,,,,,,,1,1.2698514049989171,,,,,,,,,,,,,,,,,,,,,,,,,,,,062019_p3,001,2019_Jun_20_1731,body_behavioural,3.0.4,60.07321410882046,
6,"Teresa agreed, gave him her number, and they worked out that James would pick her up that evening before the concert and drive them there.",3,3,None,,0,6,6,6,,,,,0,29,29,29,,,,,,,,,,,,,,,,,,,,,,,,,,,,,,,,,9,1.0363592349967803,,,,,,,,,,,,,,,,,,,,,,,,,,,,062019_p3,001,2019_Jun_20_1731,body_behavioural,3.0.4,60.07321410882046,
6,"This was not what they had expected from their solitary lunch plans and were both excited, even though Teresa was doing a much better job of hiding it than James. ",3,3,None,,0,6,6,6,,,,,0,30,30,30,,,,,,,,,,,,,,,,,,,,,,,,,,,,,,,,,9,1.9692905449992395,,,,,,,,,,,,,,,,,,,,,,,,,,,,062019_p3,001,2019_Jun_20_1731,body_behavioural,3.0.4,60.07321410882046,
6,"The waitress brought out their food, placing the plates close to each other so James had to sit closer to Teresa on the bench. ",4,3,None,,0,6,6,6,,,,,0,31,31,31,,,,,,,,,,,,,,,,,,,,,,,,,,,,,,,,,1,1.102910730005533,,,,,,,,,,,,,,,,,,,,,,,,,,,,062019_p3,001,2019_Jun_20_1731,body_behavioural,3.0.4,60.07321410882046,
6,Teresa was happy to share the meal with James. ,4,3,None,,0,6,6,6,,,,,0,32,32,32,,,,,,,,,,,,,,,,,,,,,,,,,,,,,,,,,9,1.1697265399998287,,,,,,,,,,,,,,,,,,,,,,,,,,,,062019_p3,001,2019_Jun_20_1731,body_behavioural,3.0.4,60.07321410882046,
6,They really enjoyed their rolls because the fish tasted very fresh. ,4,3,None,,0,6,6,6,,,,,0,33,33,33,,,,,,,,,,,,,,,,,,,,,,,,,,,,,,,,,1,1.050343820003036,,,,,,,,,,,,,,,,,,,,,,,,,,,,062019_p3,001,2019_Jun_20_1731,body_behavioural,3.0.4,60.07321410882046,
6,"James looked at his watch and seeing that it was 3pm said, “I have to run- got to finish some errands before the show.”",4,4,None,,0,6,6,6,,,,,0,34,34,34,,,,,,,,,,,,,,,,,,,,,,,,,,,,,,,,,9,3.1692868399986764,,,,,,,,,,,,,,,,,,,,,,,,,,,,062019_p3,001,2019_Jun_20_1731,body_behavioural,3.0.4,60.07321410882046,
6,See you tonight and watch out for that door!”,4,4,None,,0,6,6,6,,,,,0,35,35,35,,,,,,,,,,,,,,,,,,,,,,,,,,,,,,,,,9,1.3863724449984147,,,,,,,,,,,,,,,,,,,,,,,,,,,,062019_p3,001,2019_Jun_20_1731,body_behavioural,3.0.4,60.07321410882046,
6,,,,,,0,6,6,6,,,,,,,,,,,,,,,,,,,,,,,,,,,,,,,,,,,,,,,,,,,,,,,,,,,,,,,,,,,,,,,,,,,,,,062019_p3,001,2019_Jun_20_1731,body_behavioural,3.0.4,60.07321410882046,
7,,,,,,0,7,7,7,0,0,0,0,,,,,,,,,,,,,,,,,,,,,,,,,,,space,0.5840364879986737,space,0.5362631129974034,space,0.6030029129979084,,,,,,,,,,,,,,,,,,,,,,,,,,,,,,,,,,062019_p3,001,2019_Jun_20_1731,body_behavioural,3.0.4,60.07321410882046,
7,"Alex was a distracted, sweaty mess as he walked into the grocery store with Chloe; he was hoping that she wouldn't suspect that he was about to propose.",1,1,23.0,,0,7,7,7,,,,,0,0,0,0,,,,,,,,,,,,,,,,,,,,,,,,,,,,,space,0.017259095002373215,space,0.7692797349955072,9,6.753440312997554,,,,,,,,,,,,,,,,,,,,,,,,,,,,062019_p3,001,2019_Jun_20_1731,body_behavioural,3.0.4,60.07321410882046,
7,The grocery store was brightly lit with sunshine pouring in through glass walls at the front of the store.,1,1,None,,0,7,7,7,,,,,0,1,1,1,,,,,,,,,,,,,,,,,,,,,,,,,,,,,,,,,9,1.6696636399938143,,,,,,,,,,,,,,,,,,,,,,,,,,,,062019_p3,001,2019_Jun_20_1731,body_behavioural,3.0.4,60.07321410882046,
7,Also in the front area were large posters advertising thanksgiving promotions.,1,1,None,,0,7,7,7,,,,,0,2,2,2,,,,,,,,,,,,,,,,,,,,,,,,,,,,,,,,,9,1.1696208299981663,,,,,,,,,,,,,,,,,,,,,,,,,,,,062019_p3,001,2019_Jun_20_1731,body_behavioural,3.0.4,60.07321410882046,
7,"The store was buzzing with activity because the next day was Thanksgiving, and most shoppers had carts piled high with turkey, stuffing, and pies.",1,1,None,,0,7,7,7,,,,,0,3,3,3,,,,,,,,,,,,,,,,,,,,,,,,,,,,,,,,,9,3.3531928500015056,,,,,,,,,,,,,,,,,,,,,,,,,,,,062019_p3,001,2019_Jun_20_1731,body_behavioural,3.0.4,60.07321410882046,
7,Alex wanted to propose here because he knew Chloe would be wonderfully surprised. ,1,1,None,,0,7,7,7,,,,,0,4,4,4,,,,,,,,,,,,,,,,,,,,,,,,,,,,,,,,,9,2.9531897630004096,,,,,,,,,,,,,,,,,,,,,,,,,,,,062019_p3,001,2019_Jun_20_1731,body_behavioural,3.0.4,60.07321410882046,
7,"After 23 months of dating, Alex knew one of the things Chloe loved most was surprises. ",1,1,None,,0,7,7,7,,,,,0,5,5,5,,,,,,,,,,,,,,,,,,,,,,,,,,,,,,,,,1,0.6196047949997592,,,,,,,,,,,,,,,,,,,,,,,,,,,,062019_p3,001,2019_Jun_20_1731,body_behavioural,3.0.4,60.07321410882046,
7,"Chloe perused the canned goods aisle, and said, “Alex, we need a couple things.”",2,1,None,,0,7,7,7,,,,,0,6,6,6,,,,,,,,,,,,,,,,,,,,,,,,,,,,,,,,,1,0.6870094629994128,,,,,,,,,,,,,,,,,,,,,,,,,,,,062019_p3,001,2019_Jun_20_1731,body_behavioural,3.0.4,60.07321410882046,
7,"He didn’t hear her and was fanning himself, and Chloe asked him if he was okay.",2,1,None,,0,7,7,7,,,,,0,7,7,7,,,,,,,,,,,,,,,,,,,,,,,,,,,,,,,,,1,0.7200702620029915,,,,,,,,,,,,,,,,,,,,,,,,,,,,062019_p3,001,2019_Jun_20_1731,body_behavioural,3.0.4,60.07321410882046,
7,"“Oh yeah, for sure,” he said, unconvincingly. ",2,1,None,,0,7,7,7,,,,,0,8,8,8,,,,,,,,,,,,,,,,,,,,,,,,,,,,,,,,,1,0.6505059730043286,,,,,,,,,,,,,,,,,,,,,,,,,,,,062019_p3,001,2019_Jun_20_1731,body_behavioural,3.0.4,60.07321410882046,
7,"She chuckled, “Alright, whatever you say.” ",2,1,None,,0,7,7,7,,,,,0,9,9,9,,,,,,,,,,,,,,,,,,,,,,,,,,,,,,,,,1,0.6030557200065232,,,,,,,,,,,,,,,,,,,,,,,,,,,,062019_p3,001,2019_Jun_20_1731,body_behavioural,3.0.4,60.07321410882046,
7,"She had a can of pumpkin puree and a bottle of vinegar picked out, and she was now mulling over the different cans of cranberry sauce.",2,1,None,,0,7,7,7,,,,,0,10,10,10,,,,,,,,,,,,,,,,,,,,,,,,,,,,,,,,,9,1.9006706900036079,,,,,,,,,,,,,,,,,,,,,,,,,,,,062019_p3,001,2019_Jun_20_1731,body_behavioural,3.0.4,60.07321410882046,
7,"Alex was guessing she would be a while, and he turned his back to her and pulled out the ring to look at it one more time. ",2,2,None,,0,7,7,7,,,,,0,11,11,11,,,,,,,,,,,,,,,,,,,,,,,,,,,,,,,,,1,1.8534522600020864,,,,,,,,,,,,,,,,,,,,,,,,,,,,062019_p3,001,2019_Jun_20_1731,body_behavioural,3.0.4,60.07321410882046,
7,The ring a thin band with one white diamond that glittered excessively in the light. ,2,2,None,,0,7,7,7,,,,,0,12,12,12,,,,,,,,,,,,,,,,,,,,,,,,,,,,,,,,,1,0.9863395880020107,,,,,,,,,,,,,,,,,,,,,,,,,,,,062019_p3,001,2019_Jun_20_1731,body_behavioural,3.0.4,60.07321410882046,
7,“Do we need anything else?” she called out to him. ,2,2,None,,0,7,7,7,,,,,0,13,13,13,,,,,,,,,,,,,,,,,,,,,,,,,,,,,,,,,1,1.6528324899991276,,,,,,,,,,,,,,,,,,,,,,,,,,,,062019_p3,001,2019_Jun_20_1731,body_behavioural,3.0.4,60.07321410882046,
7,"“Yeah I don’t know, honey,” he said back, still looking at the ring. ",2,2,None,,0,7,7,7,,,,,0,14,14,14,,,,,,,,,,,,,,,,,,,,,,,,,,,,,,,,,1,0.9530317379976623,,,,,,,,,,,,,,,,,,,,,,,,,,,,062019_p3,001,2019_Jun_20_1731,body_behavioural,3.0.4,60.07321410882046,
7,"In the checkout area, there were 5 aisles open and they stepped in line for station 3. ",3,2,None,,0,7,7,7,,,,,0,15,15,15,,,,,,,,,,,,,,,,,,,,,,,,,,,,,,,,,9,2.136352747998899,,,,,,,,,,,,,,,,,,,,,,,,,,,,062019_p3,001,2019_Jun_20_1731,body_behavioural,3.0.4,60.07321410882046,
7,Alex was staring intensely off into the distance for most of the time and fidgeting with his wallet. ,3,2,None,,0,7,7,7,,,,,0,16,16,16,,,,,,,,,,,,,,,,,,,,,,,,,,,,,,,,,1,2.7195036379998783,,,,,,,,,,,,,,,,,,,,,,,,,,,,062019_p3,001,2019_Jun_20_1731,body_behavioural,3.0.4,60.07321410882046,
7,"Chloe watched him trying to decide whether he looked scared or confused, and shrugged, pulling out her phone since she figured he’d talk about whatever was on his mind when he was ready. ",3,2,None,,0,7,7,7,,,,,0,17,17,17,,,,,,,,,,,,,,,,,,,,,,,,,,,,,,,,,1,2.4867660329982755,,,,,,,,,,,,,,,,,,,,,,,,,,,,062019_p3,001,2019_Jun_20_1731,body_behavioural,3.0.4,60.07321410882046,
7,Alex looked over at their friends who were waiting by the entrance of the grocery store.,3,2,None,,0,7,7,7,,,,,0,18,18,18,,,,,,,,,,,,,,,,,,,,,,,,,,,,,,,,,1,1.4698314830020536,,,,,,,,,,,,,,,,,,,,,,,,,,,,062019_p3,001,2019_Jun_20_1731,body_behavioural,3.0.4,60.07321410882046,
7,They walked over slowly. ,3,2,None,,0,7,7,7,,,,,0,19,19,19,,,,,,,,,,,,,,,,,,,,,,,,,,,,,,,,,1,0.7011221400025534,,,,,,,,,,,,,,,,,,,,,,,,,,,,062019_p3,001,2019_Jun_20_1731,body_behavioural,3.0.4,60.07321410882046,
7,"Seemingly out of nowhere, Alex took Chloe’s hand and he got down on one knee. ",3,3,None,,0,7,7,7,,,,,0,20,20,20,,,,,,,,,,,,,,,,,,,,,,,,,,,,,,,,,1,0.9530096699963906,,,,,,,,,,,,,,,,,,,,,,,,,,,,062019_p3,001,2019_Jun_20_1731,body_behavioural,3.0.4,60.07321410882046,
7,Chloe gasped,3,3,None,,0,7,7,7,,,,,0,21,21,21,,,,,,,,,,,,,,,,,,,,,,,,,,,,,,,,,1,1.3697212929982925,,,,,,,,,,,,,,,,,,,,,,,,,,,,062019_p3,001,2019_Jun_20_1731,body_behavioural,3.0.4,60.07321410882046,
7,"“Chloe, I love you so much and I want to be with you forever, I can’t imagine a day without you.”",3,3,None,,0,7,7,7,,,,,0,22,22,22,,,,,,,,,,,,,,,,,,,,,,,,,,,,,,,,,1,0.8031427099995199,,,,,,,,,,,,,,,,,,,,,,,,,,,,062019_p3,001,2019_Jun_20_1731,body_behavioural,3.0.4,60.07321410882046,
7,"“Alex, me too,” she replied.",3,3,None,,0,7,7,7,,,,,0,23,23,23,,,,,,,,,,,,,,,,,,,,,,,,,,,,,,,,,1,0.5196411829965655,,,,,,,,,,,,,,,,,,,,,,,,,,,,062019_p3,001,2019_Jun_20_1731,body_behavioural,3.0.4,60.07321410882046,
7,"The ring was in the crevice of his wallet, and he opened it.",3,3,None,,0,7,7,7,,,,,0,24,24,24,,,,,,,,,,,,,,,,,,,,,,,,,,,,,,,,,1,0.9701949729933403,,,,,,,,,,,,,,,,,,,,,,,,,,,,062019_p3,001,2019_Jun_20_1731,body_behavioural,3.0.4,60.07321410882046,
7,“Will you marry me?”,3,3,None,,0,7,7,7,,,,,0,25,25,25,,,,,,,,,,,,,,,,,,,,,,,,,,,,,,,,,1,0.7030285399960121,,,,,,,,,,,,,,,,,,,,,,,,,,,,062019_p3,001,2019_Jun_20_1731,body_behavioural,3.0.4,60.07321410882046,
7,"The people in line around them realized what was happening, stepped back, and started taking pictures.",3,3,None,,0,7,7,7,,,,,0,26,26,26,,,,,,,,,,,,,,,,,,,,,,,,,,,,,,,,,9,2.61982759500097,,,,,,,,,,,,,,,,,,,,,,,,,,,,062019_p3,001,2019_Jun_20_1731,body_behavioural,3.0.4,60.07321410882046,
7,Their friends were no longer trying to hide and were videotaping and taking pictures too. ,3,3,None,,0,7,7,7,,,,,0,27,27,27,,,,,,,,,,,,,,,,,,,,,,,,,,,,,,,,,1,1.6698995149999973,,,,,,,,,,,,,,,,,,,,,,,,,,,,062019_p3,001,2019_Jun_20_1731,body_behavioural,3.0.4,60.07321410882046,
7,"After a few moments of suspense she shouted,“Yes!”, and she jumped to embrace Alex in a hug. ",3,4,None,,0,7,7,7,,,,,0,28,28,28,,,,,,,,,,,,,,,,,,,,,,,,,,,,,,,,,1,2.6697501800008467,,,,,,,,,,,,,,,,,,,,,,,,,,,,062019_p3,001,2019_Jun_20_1731,body_behavioural,3.0.4,60.07321410882046,
7,Everyone in line clapped and cheered. ,3,4,None,,0,7,7,7,,,,,0,29,29,29,,,,,,,,,,,,,,,,,,,,,,,,,,,,,,,,,1,2.802909908001311,,,,,,,,,,,,,,,,,,,,,,,,,,,,062019_p3,001,2019_Jun_20_1731,body_behavioural,3.0.4,60.07321410882046,
7,"Alex put the ring on Chloe’s finger, who was nearly spinning in excitement.",3,4,None,,0,7,7,7,,,,,0,30,30,30,,,,,,,,,,,,,,,,,,,,,,,,,,,,,,,,,1,1.083958374998474,,,,,,,,,,,,,,,,,,,,,,,,,,,,062019_p3,001,2019_Jun_20_1731,body_behavioural,3.0.4,60.07321410882046,
7,“I love it!,3,4,None,,0,7,7,7,,,,,0,31,31,31,,,,,,,,,,,,,,,,,,,,,,,,,,,,,,,,,1,0.836430544994073,,,,,,,,,,,,,,,,,,,,,,,,,,,,062019_p3,001,2019_Jun_20_1731,body_behavioural,3.0.4,60.07321410882046,
7,Oh my- it’s so glittery!,3,4,None,,0,7,7,7,,,,,0,32,32,32,,,,,,,,,,,,,,,,,,,,,,,,,,,,,,,,,1,0.5858815850006067,,,,,,,,,,,,,,,,,,,,,,,,,,,,062019_p3,001,2019_Jun_20_1731,body_behavioural,3.0.4,60.07321410882046,
7,Look at this!” she said as she shoved her hand in a stranger’s face.,3,4,None,,0,7,7,7,,,,,0,33,33,33,,,,,,,,,,,,,,,,,,,,,,,,,,,,,,,,,1,0.9531468149943976,,,,,,,,,,,,,,,,,,,,,,,,,,,,062019_p3,001,2019_Jun_20_1731,body_behavioural,3.0.4,60.07321410882046,
7,Their friends came over and hugged them.,3,4,None,,0,7,7,7,,,,,0,34,34,34,,,,,,,,,,,,,,,,,,,,,,,,,,,,,,,,,1,0.6196098150030593,,,,,,,,,,,,,,,,,,,,,,,,,,,,062019_p3,001,2019_Jun_20_1731,body_behavioural,3.0.4,60.07321410882046,
7,The other people let them move up to the front of the checkout line. ,3,4,None,,0,7,7,7,,,,,0,35,35,35,,,,,,,,,,,,,,,,,,,,,,,,,,,,,,,,,9,1.0529921619963716,,,,,,,,,,,,,,,,,,,,,,,,,,,,062019_p3,001,2019_Jun_20_1731,body_behavioural,3.0.4,60.07321410882046,
7,Chloe immediately texted her mom a picture of her hand. ,3,4,None,,0,7,7,7,,,,,0,36,36,36,,,,,,,,,,,,,,,,,,,,,,,,,,,,,,,,,1,1.2529942100009066,,,,,,,,,,,,,,,,,,,,,,,,,,,,062019_p3,001,2019_Jun_20_1731,body_behavioural,3.0.4,60.07321410882046,
7,The cashier congratulated them and scanned their groceries. ,4,4,None,,0,7,7,7,,,,,0,37,37,37,,,,,,,,,,,,,,,,,,,,,,,,,,,,,,,,,9,1.136385429999791,,,,,,,,,,,,,,,,,,,,,,,,,,,,062019_p3,001,2019_Jun_20_1731,body_behavioural,3.0.4,60.07321410882046,
7,The total came to $14 and Alex paid in cash while Chloe greeted their friends.,4,4,None,,0,7,7,7,,,,,0,38,38,38,,,,,,,,,,,,,,,,,,,,,,,,,,,,,,,,,9,1.4701632950018393,,,,,,,,,,,,,,,,,,,,,,,,,,,,062019_p3,001,2019_Jun_20_1731,body_behavioural,3.0.4,60.07321410882046,
7,"Alex grabbed the bags, and they all walked out together working out where they’d go to celebrate.  ",4,4,None,,0,7,7,7,,,,,0,39,39,39,,,,,,,,,,,,,,,,,,,,,,,,,,,,,,,,,1,3.7031173479990684,,,,,,,,,,,,,,,,,,,,,,,,,,,,062019_p3,001,2019_Jun_20_1731,body_behavioural,3.0.4,60.07321410882046,
7,,,,,,0,7,7,7,,,,,,,,,,,,,,,,,,,,,,,,,,,,,,,,,,,,,,,,,,,,,,,,,,,,,,,,,,,,,,,,,,,,,,062019_p3,001,2019_Jun_20_1731,body_behavioural,3.0.4,60.07321410882046,
,,,,,,,,,,,,,,,,,,,,,,,,,,,,,,,,,,,,,,,,,,,,,,,,,,,,902.1869631129957,space,0.6862710579953273,,,,,,,,,,,,,,,,,,,,,,,,,062019_p3,001,2019_Jun_20_1731,body_behavioural,3.0.4,60.07321410882046,
,,,,,"In this next part of the experiment, please recall each story to the best of your ability.",,,,,,,,,,,,,0,0,0,0,,,,,,,,,,,,,,,,,,,,,,,,,,,,,,,,,,space,3.6704468950047158,,,,,,,,,,,,,,,,,,,,,,,062019_p3,001,2019_Jun_20_1731,body_behavioural,3.0.4,60.07321410882046,
,,,,,"You will be presented with the story title, names, the images, and a blank text box for each story.",,,,,,,,,,,,,0,1,1,1,,,,,,,,,,,,,,,,,,,,,,,,,,,,,,,,,,space,2.484219519996259,,,,,,,,,,,,,,,,,,,,,,,062019_p3,001,2019_Jun_20_1731,body_behavioural,3.0.4,60.07321410882046,
,,,,,Describe the story indicated with as many details as you can remember in the space provided. ,,,,,,,,,,,,,0,2,2,2,,,,,,,,,,,,,,,,,,,,,,,,,,,,,,,,,,space,1.5197240999987116,,,,,,,,,,,,,,,,,,,,,,,062019_p3,001,2019_Jun_20_1731,body_behavioural,3.0.4,60.07321410882046,
,,,,,"When you are finished recalling one story, to move onto the next one, press the ‘return’ key. ",,,,,,,,,,,,,0,3,3,3,,,,,,,,,,,,,,,,,,,,,,,,,,,,,,,,,,space,1.2697187670055428,,,,,,,,,,,,,,,,,,,,,,,062019_p3,001,2019_Jun_20_1731,body_behavioural,3.0.4,60.07321410882046,
,,,,,There is a 5 minute time limit to make your response. ,,,,,,,,,,,,,0,4,4,4,,,,,,,,,,,,,,,,,,,,,,,,,,,,,,,,,,space,1.2686152060050517,,,,,,,,,,,,,,,,,,,,,,,062019_p3,001,2019_Jun_20_1731,body_behavioural,3.0.4,60.07321410882046,
,,,,,Please note that you will not be able to capitalize any letters except for the first letter of your answer. This will not effect the scoring of your recall answer.,,,,,,,,,,,,,0,5,5,5,,,,,,,,,,,,,,,,,,,,,,,,,,,,,,,,,,space,4.170006035004917,,,,,,,,,,,,,,,,,,,,,,,062019_p3,001,2019_Jun_20_1731,body_behavioural,3.0.4,60.07321410882046,
0,,,,,,,,,,,,,,,,,,,,,,0,0,0,0,,,,,,,,,,,,,,,,,,,,,,,,,,,,,,,,space,1.1839939530036645,"Anna was bewildered upon arriving at the airport. she was running late to her flight and stopped to tie her shoe. david noticed that a luggage cart was flying towards her and he intervened to prevent the cart from hitting her. he struck a conversation with her and anna noticed that he was charming and handsome. david offered to escort her to her gate since she was running late and flustered about the situation with the luggage cart and meeting david. they get held up at security taking a long time to empty themselves, they run to anna's gate and they make it 5 minutes before her flight. she gets into her seat and is excited, holding the plastic blanket. ",,,,,,,,,,,,,,,,,,,,062019_p3,001,2019_Jun_20_1731,body_behavioural,3.0.4,60.07321410882046,
1,,,,,,,,,,,,,,,,,,,,,,0,1,1,1,,,,,,,,,,,,,,,,,,,,,,,,,,,,,,,,space,1.6536598220045562,"Aaron is hoping to propose to lana during their chemistry class. he is nervous and they begin taking notes. aaron and lana's professor know that he is going to propose so during the lectures the professor occasionally winks at him, building the excitment for aaron who is nervous. the professor calls up lana for a demonstration about the bond between protons and neutrons. aaron says, it's time for us to make our own bond lana. lana's style is more avant-garde so the ring has 5 red diamonds together rather than 1 diamond stone. the professor switches the powerpoint to a slideshow of pictures of them together and their family and friends are hurriedly waiting outside for them to celebrate. lana takes out her phone to text someone. ",,,,,,,,,,,,,,,,,,,,062019_p3,001,2019_Jun_20_1731,body_behavioural,3.0.4,60.07321410882046,
2,,,,,,,,,,,,,,,,,,,,,,0,2,2,2,,,,,,,,,,,,,,,,,,,,,,,,,,,,,,,,space,0.9030354429996805,"Jeff and william are hoping to make a business deal about selling wine. they are at an airport, ready to depart their ways, both of them are in the wine selling business. jeff tries to sell his wine for $600 and william declines. jeff agrees to seal the deal for $400 and they shake hands. he orders some champagne on his flight back.",,,,,,,,,,,,,,,,,,,,062019_p3,001,2019_Jun_20_1731,body_behavioural,3.0.4,60.07321410882046,
3,,,,,,,,,,,,,,,,,,,,,,0,3,3,3,,,,,,,,,,,,,,,,,,,,,,,,,,,,,,,,space,0.6869417599955341,"Mr. shelton and mr. gordon are eating at fancy restaurant with dark panels, oak floors. it is dimly lit, and has leather seating. they are seated at the back. the waitress hands them lengthy menus. after ordering they both remark to the waitress that their food was good and cheers with their martinis. ",,,,,,,,,,,,,,,,,,,,062019_p3,001,2019_Jun_20_1731,body_behavioural,3.0.4,60.07321410882046,
4,,,,,,,,,,,,,,,,,,,,,,0,4,4,4,,,,,,,,,,,,,,,,,,,,,,,,,,,,,,,,space,0.6028202079978655,Maria and henry are in lecture hall. the class they are in is a philosophy course where they will be learning about the categories described by aristotle. henry wants to propose to maria but he is nervous. he is able to propose to her. the professor mentions that there is a final exam coming up. ,,,,,,,,,,,,,,,,,,,,062019_p3,001,2019_Jun_20_1731,body_behavioural,3.0.4,60.07321410882046,
5,,,,,,,,,,,,,,,,,,,,,,0,5,5,5,,,,,,,,,,,,,,,,,,,,,,,,,,,,,,,,space,0.5693368229985936,I don't remember this one ,,,,,,,,,,,,,,,,,,,,062019_p3,001,2019_Jun_20_1731,body_behavioural,3.0.4,60.07321410882046,
6,,,,,,,,,,,,,,,,,,,,,,0,6,6,6,,,,,,,,,,,,,,,,,,,,,,,,,,,,,,,,space,0.6007018469972536,I don't remember this one either ,,,,,,,,,,,,,,,,,,,,062019_p3,001,2019_Jun_20_1731,body_behavioural,3.0.4,60.07321410882046,
7,,,,,,,,,,,,,,,,,,,,,,0,7,7,7,,,,,,,,,,,,,,,,,,,,,,,,,,,,,,,,space,0.6860649800000829,I don't remember this one either,,,,,,,,,,,,,,,,,,,,062019_p3,001,2019_Jun_20_1731,body_behavioural,3.0.4,60.07321410882046,
,,,,,,,,,,,,,,,,,,,,,,,,,,,,,,,,,,,,,,,,,,,,,,,,,,,,,,,,,,,,1733.5079791280004,space,1.0506814879990998,,,,,,,,,,,,,,,,,062019_p3,001,2019_Jun_20_1731,body_behavioural,3.0.4,60.07321410882046,
,,,,,"In this last part of the experiment, please answer 8 questions about each story.",,,,,,,,,,,,,,,,,,,,,0,0,0,0,,,,,,,,,,,,,,,,,,,,,,,,,,,,,,,,,,space,1.2861817999946652,,,,,,,,,,,,,,,062019_p3,001,2019_Jun_20_1731,body_behavioural,3.0.4,60.07321410882046,
,,,,,Some of the questions are not related to the perspective you were asked to assume.,,,,,,,,,,,,,,,,,,,,,0,1,1,1,,,,,,,,,,,,,,,,,,,,,,,,,,,,,,,,,,space,0.9507608049971168,,,,,,,,,,,,,,,062019_p3,001,2019_Jun_20_1731,body_behavioural,3.0.4,60.07321410882046,
,,,,,"We realize that we did not tell you to think of these questions during the story, but please do your best to answer them.",,,,,,,,,,,,,,,,,,,,,0,2,2,2,,,,,,,,,,,,,,,,,,,,,,,,,,,,,,,,,,space,2.4023775160021614,,,,,,,,,,,,,,,062019_p3,001,2019_Jun_20_1731,body_behavioural,3.0.4,60.07321410882046,
,,,,,"When you have finished typing your answer, hit ‘return’ to submit your answer and move onto the next question. ",,,,,,,,,,,,,,,,,,,,,0,3,3,3,,,,,,,,,,,,,,,,,,,,,,,,,,,,,,,,,,space,1.3368718950005132,,,,,,,,,,,,,,,062019_p3,001,2019_Jun_20_1731,body_behavioural,3.0.4,60.07321410882046,
0,,,,,,,,,,,,,,,,,,,,,,,,,,,,,,0,0,0,0,,,,,,,,,,,,,,,,,,,,,,,,,,Six fifty five,,,,,,space,0.6032248529954813,30 minutes,primed first,Metal detector goes off,Unsure,Unsure,Tying her shoe,Are you a gymnast,Business card for something ,Six fifty five,,,,062019_p3,001,2019_Jun_20_1731,body_behavioural,3.0.4,60.07321410882046,
1,,,,,,,,,,,,,,,,,,,,,,,,,,,,,,0,1,1,1,,,,,,,,,,,,,,,,,,,,,,,,,,Unsure,,,,,,space,0.8860252820013557,4,primed first,5 diamonds and red,"Box, unsure",Unsure,Unsure,Chemistry and protons/neutrons,The bond between protons and neutrons,Unsure,,,,062019_p3,001,2019_Jun_20_1731,body_behavioural,3.0.4,60.07321410882046,
2,,,,,,,,,,,,,,,,,,,,,,,,,,,,,,0,2,2,2,,,,,,,,,,,,,,,,,,,,,,,,,,Friendly handshake,,,,,,space,0.6864165649967617,Unsure,non-primed first,Unsure,Unsure,Unsure,Wine salespeople,600,"Wine america, unsure",Friendly handshake,,,,062019_p3,001,2019_Jun_20_1731,body_behavioural,3.0.4,60.07321410882046,
3,,,,,,,,,,,,,,,,,,,,,,,,,,,,,,0,3,3,3,,,,,,,,,,,,,,,,,,,,,,,,,,Very much,,,,,,space,0.6362360450002598,Unsure,non-primed first,Unsure,Unsure,Cheers with their glasses,"Dark and rich, with wood and oak paneling, leather",Lengthy,"Unsure, but martinis",Very much,,,,062019_p3,001,2019_Jun_20_1731,body_behavioural,3.0.4,60.07321410882046,
4,,,,,,,,,,,,,,,,,,,,,,,,,,,,,,0,4,4,4,,,,,,,,,,,,,,,,,,,,,,,,,,Unsure,,,,,,space,0.6029133019983419,Big ,primed first,"Philosophy, aristotle and it is at princeton, the nicest/fanciest lecture hall",Categories implemented by aristotle,Final exam next week,Unsure,Moving on,Henry does not but maria thinks its the best,Unsure,,,,062019_p3,001,2019_Jun_20_1731,body_behavioural,3.0.4,60.07321410882046,
5,,,,,,,,,,,,,,,,,,,,,,,,,,,,,,0,5,5,5,,,,,,,,,,,,,,,,,,,,,,,,,,Cat,,,,,,space,0.6363546120046522,Big ,non-primed first,"Stuff for dinner, vegetables",3 lanes are open and they step into lane 5 ,"Liam uses his wallet and cash $40, unsure",A while,Unsure,Both are mutual about the breakup,Cat,,,,062019_p3,001,2019_Jun_20_1731,body_behavioural,3.0.4,60.07321410882046,
6,,,,,,,,,,,,,,,,,,,,,,,,,,,,,,0,6,6,6,,,,,,,,,,,,,,,,,,,,,,,,,,Unsure,,,,,,space,0.6531395650017657,Unsure,non-primed first,Unsure,Unsure,Unsure,Unsure,Unsure,Unsure,Unsure,,,,062019_p3,001,2019_Jun_20_1731,body_behavioural,3.0.4,60.07321410882046,
7,,,,,,,,,,,,,,,,,,,,,,,,,,,,,,0,7,7,7,,,,,,,,,,,,,,,,,,,,,,,,,,Unsure,,,,,,space,0.569280563002394,Unsure,primed first,Unsure,Unsure,Unsure,Unsure,Unsure,Unsure,Unsure,,,,062019_p3,001,2019_Jun_20_1731,body_behavioural,3.0.4,60.07321410882046,
,,,,,,,,,,,,,,,,,,,,,,,,,,,,,,,,,,,,,,,,,,,,,,,,,,,,,,,,,,,,,,,,,,,,,,,,,,,,2080.665210839994,space,0.6198756399971899,062019_p3,001,2019_Jun_20_1731,body_behavioural,3.0.4,60.07321410882046,
,,,,,,,,,,,,,,,,,,,,,,,,,,,,,,,,,,0,0,0,0,,,,,,,,,,,,,,,,,,,,,,,,,,,,,,,,,,,,,,,,,,062019_p3,001,2019_Jun_20_1731,body_behavioural,3.0.4,60.07321410882046,
,,,,,,,,,,,,,,,,,,,,,,,,,,,,,,,,,,1,0,1,0,,,,,,,,,,,,,,,,,,,,,,,,,,,,,,,,,,,,,,,,,,062019_p3,001,2019_Jun_20_1731,body_behavioural,3.0.4,60.07321410882046,
,,,,,,,,,,,,,,,,,,,,,,,,,,,,,,,,,,2,0,2,0,,,,,,,,,,,,,,,,,,,,,,,,,,,,,,,,,,,,,,,,,,062019_p3,001,2019_Jun_20_1731,body_behavioural,3.0.4,60.07321410882046,
,,,,,,,,,,,,,,,,,,,,,,,,,,,,,,,,,,3,0,3,0,,,,,,,,,,,,,,,,,,,,,,,,,,,,,,,,,,,,,,,,,,062019_p3,001,2019_Jun_20_1731,body_behavioural,3.0.4,60.07321410882046,
,,,,,,,,,,,,,,,,,,,,,,,,,,,,,,,,,,4,0,4,0,,,,,,,,,,,,,,,,,,,,,,,,,,,,,,,,,,,,,,,,,,062019_p3,001,2019_Jun_20_1731,body_behavioural,3.0.4,60.07321410882046,
