instruct_text,rolePic,job,Q1,Q2,Q3,Q4,D1,D2,roleName,trials_2.thisRepN,trials_2.thisTrialN,trials_2.thisN,trials_2.thisIndex,trials_13.thisRepN,trials_13.thisTrialN,trials_13.thisN,trials_13.thisIndex,trials_9.thisRepN,trials_9.thisTrialN,trials_9.thisN,trials_9.thisIndex,trials_10.thisRepN,trials_10.thisTrialN,trials_10.thisN,trials_10.thisIndex,trials_11.thisRepN,trials_11.thisTrialN,trials_11.thisN,trials_11.thisIndex,trials_4.thisRepN,trials_4.thisTrialN,trials_4.thisN,trials_4.thisIndex,trials_12.thisRepN,trials_12.thisTrialN,trials_12.thisN,trials_12.thisIndex,trials_3.thisRepN,trials_3.thisTrialN,trials_3.thisN,trials_3.thisIndex,trials.thisRepN,trials.thisTrialN,trials.thisN,trials.thisIndex,trials_5.thisRepN,trials_5.thisTrialN,trials_5.thisN,trials_5.thisIndex,trials_7.thisRepN,trials_7.thisTrialN,trials_7.thisN,trials_7.thisIndex,trials_8.thisRepN,trials_8.thisTrialN,trials_8.thisN,trials_8.thisIndex,key_resp_9.keys,key_resp_9.rt,key_resp_8.keys,key_resp_8.rt,key_resp_19.keys,key_resp_19.rt,key_resp_20.keys,key_resp_20.rt,key_resp_21.keys,key_resp_21.rt,key_resp_15.keys,key_resp_15.rt,key_resp_16.keys,key_resp_16.rt,key_resp_17.keys,key_resp_17.rt,key_resp_2.keys,key_resp_2.rt,key_resp_14.keys,key_resp_14.rt,key_resp_10.keys,key_resp_10.rt,key_resp_11.keys,key_resp_11.rt,key_resp_12.keys,key_resp_12.rt,key_resp_13.keys,key_resp_13.rt,key_resp_4.keys,key_resp_4.rt,key_resp_3.keys,key_resp_3.rt,key_resp_7.keys,key_resp_7.rt,participant,session,date,expName,psychopyVersion,frameRate,
,,,,,,,,,,,,,,,,,,,,,,,,,,,,,,,,,,,,,,,,,,,,,,,,,,,,,,,,,,space,3.6052309600054286,,,,,,,,,,,,,,,,,,,,,,,,,,,,,,,,,062619_p1,001,2019_Jun_26_1711,part1_subjective_segmentation,3.0.4,59.71604222101696,
"In this experiment, you will be assuming the perspectives of various jobs while reading short stories.",,,,,,,,,,0,0,0,0,,,,,,,,,,,,,,,,,,,,,,,,,,,,,,,,,,,,,,,,,,,,,,,space,5.586953646998154,,,,,,,,,,,,,,,,,,,,,,,,,,,,,,,062619_p1,001,2019_Jun_26_1711,part1_subjective_segmentation,3.0.4,59.71604222101696,
"There are 4 parts of the experiment, and, before you begin, we'll give you a brief overview of all the parts. ",,,,,,,,,,0,1,1,1,,,,,,,,,,,,,,,,,,,,,,,,,,,,,,,,,,,,,,,,,,,,,,,space,5.967631248000544,,,,,,,,,,,,,,,,,,,,,,,,,,,,,,,062619_p1,001,2019_Jun_26_1711,part1_subjective_segmentation,3.0.4,59.71604222101696,
1,,,,,,,,,,0,2,2,2,,,,,,,,,,,,,,,,,,,,,,,,,,,,,,,,,,,,,,,,,,,,,,,space,0.8702400820038747,,,,,,,,,,,,,,,,,,,,,,,,,,,,,,,062619_p1,001,2019_Jun_26_1711,part1_subjective_segmentation,3.0.4,59.71604222101696,
"In the first part, you'll be introduced to the perspectives of 8 different jobs.",,,,,,,,,,0,3,3,3,,,,,,,,,,,,,,,,,,,,,,,,,,,,,,,,,,,,,,,,,,,,,,,space,3.0842141120228916,,,,,,,,,,,,,,,,,,,,,,,,,,,,,,,062619_p1,001,2019_Jun_26_1711,part1_subjective_segmentation,3.0.4,59.71604222101696,
"For each short story, you'll be assigned one of these perspectives to assume while you read it. ",,,,,,,,,,0,4,4,4,,,,,,,,,,,,,,,,,,,,,,,,,,,,,,,,,,,,,,,,,,,,,,,space,4.653340984979877,,,,,,,,,,,,,,,,,,,,,,,,,,,,,,,062619_p1,001,2019_Jun_26_1711,part1_subjective_segmentation,3.0.4,59.71604222101696,
,,,,,,,,,,,,,,,,,,,,,,,,,,,,,,,,,,,,,,,,,,,,,,,,,,,,,,,,,,,,,,space,5.153416375018423,,,,,,,,,,,,,,,,,,,,,,,,,,,,,062619_p1,001,2019_Jun_26_1711,part1_subjective_segmentation,3.0.4,59.71604222101696,
,,,,,,,,,,,,,,,,,,,,,,,,,,,,,,,,,,,,,,,,,,,,,,,,,,,,,,,,,,,,,,,,space,10.36976540798787,,,,,,,,,,,,,,,,,,,,,,,,,,,062619_p1,001,2019_Jun_26_1711,part1_subjective_segmentation,3.0.4,59.71604222101696,
,,,,,,,,,,,,,,,,,,,,,,,,,,,,,,,,,,,,,,,,,,,,,,,,,,,,,,,,,,,,,,,,,,space,18.671747651998885,,,,,,,,,,,,,,,,,,,,,,,,,062619_p1,001,2019_Jun_26_1711,part1_subjective_segmentation,3.0.4,59.71604222101696,
The 4 questions for each perspective are learned with quizzes. ,,,,,,,,,,,,,,0,0,0,0,,,,,,,,,,,,,,,,,,,,,,,,,,,,,,,,,,,,,,,,,,,space,4.686576681997394,,,,,,,,,,,,,,,,,,,,,,,,,,,,,,,062619_p1,001,2019_Jun_26_1711,part1_subjective_segmentation,3.0.4,59.71604222101696,
2,,,,,,,,,,,,,,0,1,1,1,,,,,,,,,,,,,,,,,,,,,,,,,,,,,,,,,,,,,,,,,,,space,4.186376147001283,,,,,,,,,,,,,,,,,,,,,,,,,,,,,,,062619_p1,001,2019_Jun_26_1711,part1_subjective_segmentation,3.0.4,59.71604222101696,
"In the second part of the experiment, you will read 8 short stories. ",,,,,,,,,,,,,,0,2,2,2,,,,,,,,,,,,,,,,,,,,,,,,,,,,,,,,,,,,,,,,,,,space,2.30328213001485,,,,,,,,,,,,,,,,,,,,,,,,,,,,,,,062619_p1,001,2019_Jun_26_1711,part1_subjective_segmentation,3.0.4,59.71604222101696,
,,,,,,,,,,,,,,,,,,,,,,,,,,,,,,,,,,,,,,,,,,,,,,,,,,,,,,,,,,,,,,,,,,,,space,11.452421747002518,,,,,,,,,,,,,,,,,,,,,,,062619_p1,001,2019_Jun_26_1711,part1_subjective_segmentation,3.0.4,59.71604222101696,
"Before each story, you will be assigned a perspective to take on while reading it. ",,,,,,,,,,,,,,,,,,0,0,0,0,,,,,,,,,,,,,,,,,,,,,,,,,,,,,,,,,,,,,,,space,4.5675283769960515,,,,,,,,,,,,,,,,,,,,,,,,,,,,,,,062619_p1,001,2019_Jun_26_1711,part1_subjective_segmentation,3.0.4,59.71604222101696,
You'll be given a quiz before the story for the 4 questions of the assigned perspective. ,,,,,,,,,,,,,,,,,,0,1,1,1,,,,,,,,,,,,,,,,,,,,,,,,,,,,,,,,,,,,,,,space,8.303434692992596,,,,,,,,,,,,,,,,,,,,,,,,,,,,,,,062619_p1,001,2019_Jun_26_1711,part1_subjective_segmentation,3.0.4,59.71604222101696,
You must pass this quiz to move onto the story. ,,,,,,,,,,,,,,,,,,0,2,2,2,,,,,,,,,,,,,,,,,,,,,,,,,,,,,,,,,,,,,,,space,3.2866561299888417,,,,,,,,,,,,,,,,,,,,,,,,,,,,,,,062619_p1,001,2019_Jun_26_1711,part1_subjective_segmentation,3.0.4,59.71604222101696,
3,,,,,,,,,,,,,,,,,,0,3,3,3,,,,,,,,,,,,,,,,,,,,,,,,,,,,,,,,,,,,,,,space,1.619760480010882,,,,,,,,,,,,,,,,,,,,,,,,,,,,,,,062619_p1,001,2019_Jun_26_1711,part1_subjective_segmentation,3.0.4,59.71604222101696,
,,,,,,,,,,,,,,,,,,,,,,,,,,,,,,,,,,,,,,,,,,,,,,,,,,,,,,,,,,,,,,,,,,,,,,space,15.403806146990974,,,,,,,,,,,,,,,,,,,,,062619_p1,001,2019_Jun_26_1711,part1_subjective_segmentation,3.0.4,59.71604222101696,
There is a 5 minute time limit for recalling each story. ,,,,,,,,,,,,,,,,,,,,,,0,0,0,0,,,,,,,,,,,,,,,,,,,,,,,,,,,,,,,,,,,space,2.5870347899908666,,,,,,,,,,,,,,,,,,,,,,,,,,,,,,,062619_p1,001,2019_Jun_26_1711,part1_subjective_segmentation,3.0.4,59.71604222101696,
4,,,,,,,,,,,,,,,,,,,,,,0,1,1,1,,,,,,,,,,,,,,,,,,,,,,,,,,,,,,,,,,,space,2.2532230719807558,,,,,,,,,,,,,,,,,,,,,,,,,,,,,,,062619_p1,001,2019_Jun_26_1711,part1_subjective_segmentation,3.0.4,59.71604222101696,
"In the fourth part of the experiment, you will be asked questions about each story. ",,,,,,,,,,,,,,,,,,,,,,0,2,2,2,,,,,,,,,,,,,,,,,,,,,,,,,,,,,,,,,,,space,3.019452890002867,,,,,,,,,,,,,,,,,,,,,,,,,,,,,,,062619_p1,001,2019_Jun_26_1711,part1_subjective_segmentation,3.0.4,59.71604222101696,
,,,,,,,,,,,,,,,,,,,,,,,,,,,,,,,,,,,,,,,,,,,,,,,,,,,,,,,,,,,,,,,,,,,,,,,,space,5.42006785000558,,,,,,,,,,,,,,,,,,,062619_p1,001,2019_Jun_26_1711,part1_subjective_segmentation,3.0.4,59.71604222101696,
Questions?,,,,,,,,,,,,,,,,,,,,,,,,,,0,0,0,0,,,,,,,,,,,,,,,,,,,,,,,,,,,,,,,space,2.9198804550105706,,,,,,,,,,,,,,,,,,,,,,,,,,,,,,,062619_p1,001,2019_Jun_26_1711,part1_subjective_segmentation,3.0.4,59.71604222101696,
Let's begin Part 1! ,,,,,,,,,,,,,,,,,,,,,,,,,,0,1,1,1,,,,,,,,,,,,,,,,,,,,,,,,,,,,,,,space,2.2698647399956826,,,,,,,,,,,,,,,,,,,,,,,,,,,,,,,062619_p1,001,2019_Jun_26_1711,part1_subjective_segmentation,3.0.4,59.71604222101696,
The 8 perspectives are as follows:,,,,,,,,,,,,,,,,,,,,,,,,,,0,2,2,2,,,,,,,,,,,,,,,,,,,,,,,,,,,,,,,space,5.136522394983331,,,,,,,,,,,,,,,,,,,,,,,,,,,,,,,062619_p1,001,2019_Jun_26_1711,part1_subjective_segmentation,3.0.4,59.71604222101696,
,jobphotos/couples.jpeg,"Couples Therapist
",,,,,,,,,,,,,,,,,,,,,,,,,,,,0,0,0,7,,,,,,,,,,,,,,,,,,,,,,,,,,,,,,,,,,,,,,,,,space,2.4174384950019885,,,,,,,,,,,,,,,,,062619_p1,001,2019_Jun_26_1711,part1_subjective_segmentation,3.0.4,59.71604222101696,
,jobphotos/matchmaker.jpg,Matchmaker,,,,,,,,,,,,,,,,,,,,,,,,,,,,0,1,1,2,,,,,,,,,,,,,,,,,,,,,,,,,,,,,,,,,,,,,,,,,space,2.4198607920261566,,,,,,,,,,,,,,,,,062619_p1,001,2019_Jun_26_1711,part1_subjective_segmentation,3.0.4,59.71604222101696,
,jobphotos/business_reporter.jpg,Business Reporter,,,,,,,,,,,,,,,,,,,,,,,,,,,,0,2,2,0,,,,,,,,,,,,,,,,,,,,,,,,,,,,,,,,,,,,,,,,,space,2.8027849700010847,,,,,,,,,,,,,,,,,062619_p1,001,2019_Jun_26_1711,part1_subjective_segmentation,3.0.4,59.71604222101696,
,jobphotos/restaurant_critic.jpg,Restaurant Critic,,,,,,,,,,,,,,,,,,,,,,,,,,,,0,3,3,1,,,,,,,,,,,,,,,,,,,,,,,,,,,,,,,,,,,,,,,,,space,2.002968332002638,,,,,,,,,,,,,,,,,062619_p1,001,2019_Jun_26_1711,part1_subjective_segmentation,3.0.4,59.71604222101696,
,jobphotos/acem.jpg,Airport Customer Experience Manager,,,,,,,,,,,,,,,,,,,,,,,,,,,,0,4,4,4,,,,,,,,,,,,,,,,,,,,,,,,,,,,,,,,,,,,,,,,,space,2.952746559982188,,,,,,,,,,,,,,,,,062619_p1,001,2019_Jun_26_1711,part1_subjective_segmentation,3.0.4,59.71604222101696,
,jobphotos/weddingplanner.jpg,Wedding Planner,,,,,,,,,,,,,,,,,,,,,,,,,,,,0,5,5,3,,,,,,,,,,,,,,,,,,,,,,,,,,,,,,,,,,,,,,,,,space,2.7032735550019424,,,,,,,,,,,,,,,,,062619_p1,001,2019_Jun_26_1711,part1_subjective_segmentation,3.0.4,59.71604222101696,
,jobphotos/gscem.jpg,"Grocery Store Customer Experience Manager
",,,,,,,,,,,,,,,,,,,,,,,,,,,,0,6,6,5,,,,,,,,,,,,,,,,,,,,,,,,,,,,,,,,,,,,,,,,,space,2.6698356050183065,,,,,,,,,,,,,,,,,062619_p1,001,2019_Jun_26_1711,part1_subjective_segmentation,3.0.4,59.71604222101696,
,jobphotos/dean.jpg,Dean of Academic Studies,,,,,,,,,,,,,,,,,,,,,,,,,,,,0,7,7,6,,,,,,,,,,,,,,,,,,,,,,,,,,,,,,,,,,,,,,,,,space,2.402972582000075,,,,,,,,,,,,,,,,,062619_p1,001,2019_Jun_26_1711,part1_subjective_segmentation,3.0.4,59.71604222101696,
You’ll become acquainted with these perspectives more in the following quizzes where you’ll learn the 4 questions associated with each perspective. ,,,,,,,,,,,,,,,,,,,,,,,,,,,,,,,,,,0,0,0,0,,,,,,,,,,,,,,,,,,,,,,,space,7.920302494982025,,,,,,,,,,,,,,,,,,,,,,,,,,,,,,,062619_p1,001,2019_Jun_26_1711,part1_subjective_segmentation,3.0.4,59.71604222101696,
"For each perspective, you'll go through all four questions in a sequence. ",,,,,,,,,,,,,,,,,,,,,,,,,,,,,,,,,,0,1,1,1,,,,,,,,,,,,,,,,,,,,,,,space,3.619247605005512,,,,,,,,,,,,,,,,,,,,,,,,,,,,,,,062619_p1,001,2019_Jun_26_1711,part1_subjective_segmentation,3.0.4,59.71604222101696,
Then you'll get the quiz and indicate which questions you saw in the order in which they appeared in the sequence. ,,,,,,,,,,,,,,,,,,,,,,,,,,,,,,,,,,0,2,2,2,,,,,,,,,,,,,,,,,,,,,,,space,6.537351782986661,,,,,,,,,,,,,,,,,,,,,,,,,,,,,,,062619_p1,001,2019_Jun_26_1711,part1_subjective_segmentation,3.0.4,59.71604222101696,
You'll indicate the question you select by pressing the number key corresponding to the number in front of the question. ,,,,,,,,,,,,,,,,,,,,,,,,,,,,,,,,,,0,3,3,3,,,,,,,,,,,,,,,,,,,,,,,space,6.920243125001434,,,,,,,,,,,,,,,,,,,,,,,,,,,,,,,062619_p1,001,2019_Jun_26_1711,part1_subjective_segmentation,3.0.4,59.71604222101696,
"If you indicate the wrong question during the quiz, you'll get the questions presented in the correct order again and restart the quiz. ",,,,,,,,,,,,,,,,,,,,,,,,,,,,,,,,,,0,4,4,4,,,,,,,,,,,,,,,,,,,,,,,space,9.37037598202005,,,,,,,,,,,,,,,,,,,,,,,,,,,,,,,062619_p1,001,2019_Jun_26_1711,part1_subjective_segmentation,3.0.4,59.71604222101696,
"After you've passed the quizzes for each perspective, you'll do all of the quizzes a final time but without seeing the correct order of the questions beforehand.",,,,,,,,,,,,,,,,,,,,,,,,,,,,,,,,,,0,5,5,5,,,,,,,,,,,,,,,,,,,,,,,space,5.25423505200888,,,,,,,,,,,,,,,,,,,,,,,,,,,,,,,062619_p1,001,2019_Jun_26_1711,part1_subjective_segmentation,3.0.4,59.71604222101696,
Press space to begin the quizzes!,,,,,,,,,,,,,,,,,,,,,,,,,,,,,,,,,,0,6,6,6,,,,,,,,,,,,,,,,,,,,,,,space,1.2364531800267287,,,,,,,,,,,,,,,,,,,,,,,,,,,,,,,062619_p1,001,2019_Jun_26_1711,part1_subjective_segmentation,3.0.4,59.71604222101696,
,jobphotos/acem.jpg,,"When the clients arrive at the airport, how much time do they have until their flight departs?
",What is the reason for the hold-up at security?,"Toward which gate are the clients walking?
","What section and seat does each client sit in on the plane?
",Are the security guards friendly or rude?,Are the airport restrooms clean?,Airport Customer Experience Manager,,,,,,,,,,,,,,,,,,,,,,,,,,,,,0,0,0,4,0,0,0,0,,,,,,,,,,,,,,,,,,,,,,,,,,,,,,,space,10.336585440003546,space,7.820904699008679,space,4.802567597012967,space,3.470721521996893,space,3.400950834999094,space,5.80185211499338,,,,,062619_p1,001,2019_Jun_26_1711,part1_subjective_segmentation,3.0.4,59.71604222101696,
,jobphotos/acem.jpg,,"When the clients arrive at the airport, how much time do they have until their flight departs?
",What is the reason for the hold-up at security?,"Toward which gate are the clients walking?
","What section and seat does each client sit in on the plane?
",Are the security guards friendly or rude?,Are the airport restrooms clean?,Airport Customer Experience Manager,,,,,,,,,,,,,,,,,,,,,,,,,,,,,0,0,0,4,,,,,,,,,,,,,,,,,,,,,,,,,,,,,,,,,,,,,,,,,,,,,,,,,,,062619_p1,001,2019_Jun_26_1711,part1_subjective_segmentation,3.0.4,59.71604222101696,
,jobphotos/restaurant_critic.jpg,,How is the restaurant decorated?,What are the menus like?,"What do the clients order?
",How do the clients like the food?,How old is the waiter?,What meal is being served?,Restaurant Critic,,,,,,,,,,,,,,,,,,,,,,,,,,,,,0,1,1,1,0,0,0,0,,,,,,,,,,,,,,,,,,,,,,,,,,,,,,,space,25.654806960985297,space,1.3866558999870904,space,1.4704444920062087,space,1.719408620003378,space,1.6526221480162349,space,1.0536913170071784,,,,,062619_p1,001,2019_Jun_26_1711,part1_subjective_segmentation,3.0.4,59.71604222101696,
,jobphotos/restaurant_critic.jpg,,How is the restaurant decorated?,What are the menus like?,"What do the clients order?
",How do the clients like the food?,How old is the waiter?,What meal is being served?,Restaurant Critic,,,,,,,,,,,,,,,,,,,,,,,,,,,,,0,1,1,1,,,,,,,,,,,,,,,,,,,,,,,,,,,,,,,,,,,,,,,,,,,,,,,,,,,062619_p1,001,2019_Jun_26_1711,part1_subjective_segmentation,3.0.4,59.71604222101696,
,jobphotos/dean.jpg,,"What is the lecture hall like?
","What class are the students in and what is the day’s lecture about?
","What is something taught in lecture?
",What is the next assessment/assignment in class and when is it scheduled/due?,Are the students paying attention?,Are the desks comfortable?,Dean of Academic Studies,,,,,,,,,,,,,,,,,,,,,,,,,,,,,0,2,2,6,0,0,0,0,,,,,,,,,,,,,,,,,,,,,,,,,,,,,,,space,1.0032788169919513,space,1.5862446269893553,space,3.6365941429976374,space,1.7530318700009957,space,2.036585243011359,space,1.31972975001554,,,,,062619_p1,001,2019_Jun_26_1711,part1_subjective_segmentation,3.0.4,59.71604222101696,
,jobphotos/dean.jpg,,"What is the lecture hall like?
","What class are the students in and what is the day’s lecture about?
","What is something taught in lecture?
",What is the next assessment/assignment in class and when is it scheduled/due?,Are the students paying attention?,Are the desks comfortable?,Dean of Academic Studies,,,,,,,,,,,,,,,,,,,,,,,,,,,,,0,2,2,6,,,,,,,,,,,,,,,,,,,,,,,,,,,,,,,,,,,,,,,,,,,,,,,,,,,062619_p1,001,2019_Jun_26_1711,part1_subjective_segmentation,3.0.4,59.71604222101696,
,jobphotos/gscem.jpg,,"What is the grocery store like upon entering?
","What items do the clients pick out?
","How many checkout lanes are open and which one do the clients step into?
","How much are the groceries and what method of payment do the clients use?
",How long does it take for the cashier to scan all of the customers’ groceries?,What type of grocery bags do the clients use?,"Grocery Store Customer Experience Manager
",,,,,,,,,,,,,,,,,,,,,,,,,,,,,0,3,3,5,0,0,0,0,,,,,,,,,,,,,,,,,,,,,,,,,,,,,,,space,2.9510127620014828,space,3.4866783850011416,space,1.2364065579895396,space,2.7531491720001213,space,1.6839875650184695,space,0.6863940299954265,,,,,062619_p1,001,2019_Jun_26_1711,part1_subjective_segmentation,3.0.4,59.71604222101696,
,jobphotos/gscem.jpg,,"What is the grocery store like upon entering?
","What items do the clients pick out?
","How many checkout lanes are open and which one do the clients step into?
","How much are the groceries and what method of payment do the clients use?
",How long does it take for the cashier to scan all of the customers’ groceries?,What type of grocery bags do the clients use?,"Grocery Store Customer Experience Manager
",,,,,,,,,,,,,,,,,,,,,,,,,,,,,0,3,3,5,,,,,,,,,,,,,,,,,,,,,,,,,,,,,,,,,,,,,,,,,,,,,,,,,,,062619_p1,001,2019_Jun_26_1711,part1_subjective_segmentation,3.0.4,59.71604222101696,
,jobphotos/couples.jpg,,For how long has the initiator of the breakup been thinking about breaking up with his/her partner?,"What is the initial reason stated by the initiator for why he/she is breaking up?
",Does the person who is being broken up with want to break up and what’s the reason stated by the person being broken up with that he/she does or does not want to break up?,What objects do either partner want back?,Does the person being broken up with expect that this is coming?,Who witnesses the breakup?,"Couples Therapist
",,,,,,,,,,,,,,,,,,,,,,,,,,,,,0,4,4,7,0,0,0,0,,,,,,,,,,,,,,,,,,,,,,,,,,,,,,,space,0.9506389549933374,space,5.303618201985955,space,3.669418589997804,space,7.352234917023452,space,3.353190927999094,space,0.6852047489956021,,,,,062619_p1,001,2019_Jun_26_1711,part1_subjective_segmentation,3.0.4,59.71604222101696,
,jobphotos/couples.jpg,,For how long has the initiator of the breakup been thinking about breaking up with his/her partner?,"What is the initial reason stated by the initiator for why he/she is breaking up?
",Does the person who is being broken up with want to break up and what’s the reason stated by the person being broken up with that he/she does or does not want to break up?,What objects do either partner want back?,Does the person being broken up with expect that this is coming?,Who witnesses the breakup?,"Couples Therapist
",,,,,,,,,,,,,,,,,,,,,,,,,,,,,0,4,4,7,,,,,,,,,,,,,,,,,,,,,,,,,,,,,,,,,,,,,,,,,,,,,,,,,,,062619_p1,001,2019_Jun_26_1711,part1_subjective_segmentation,3.0.4,59.71604222101696,
,jobphotos/matchmaker.jpg,,What object is the initiator of the interaction holding when he/she first notices the other person?,What is the initial question that begins the conversation between the couple?,When will be the next time the couple meets and for what occasion?,"What time is it when the couple parts?
",Is the couple going to get married?,Who shows more interest?,Matchmaker,,,,,,,,,,,,,,,,,,,,,,,,,,,,,0,5,5,2,0,0,0,0,,,,,,,,,,,,,,,,,,,,,,,,,,,,,,,space,0.9696404570131563,space,5.735717845003819,space,1.8173519199772272,space,1.369440807000501,space,2.469748859992251,space,0.8027541949995793,,,,,062619_p1,001,2019_Jun_26_1711,part1_subjective_segmentation,3.0.4,59.71604222101696,
,jobphotos/matchmaker.jpg,,What object is the initiator of the interaction holding when he/she first notices the other person?,What is the initial question that begins the conversation between the couple?,When will be the next time the couple meets and for what occasion?,"What time is it when the couple parts?
",Is the couple going to get married?,Who shows more interest?,Matchmaker,,,,,,,,,,,,,,,,,,,,,,,,,,,,,0,5,5,2,,,,,,,,,,,,,,,,,,,,,,,,,,,,,,,,,,,,,,,,,,,,,,,,,,,062619_p1,001,2019_Jun_26_1711,part1_subjective_segmentation,3.0.4,59.71604222101696,
,jobphotos/weddingplanner.jpg,,"For how many years has the couple been dating?
","How many diamonds are on the ring and what is the diamond color?
","In/on what item is the ring presented?
","Who does the new fiancee text first?
",Is anyone taking pictures of the proposal?,How long does the proposal take?,Wedding Planner,,,,,,,,,,,,,,,,,,,,,,,,,,,,,0,6,6,3,0,0,0,0,,,,,,,,,,,,,,,,,,,,,,,,,,,,,,,space,0.019320492981933057,space,1.8869989219820127,space,2.2031173130089883,space,4.720927440008381,space,8.07032672999776,space,0.9675767699955031,,,,,062619_p1,001,2019_Jun_26_1711,part1_subjective_segmentation,3.0.4,59.71604222101696,
,jobphotos/weddingplanner.jpg,,"For how many years has the couple been dating?
","How many diamonds are on the ring and what is the diamond color?
","In/on what item is the ring presented?
","Who does the new fiancee text first?
",Is anyone taking pictures of the proposal?,How long does the proposal take?,Wedding Planner,,,,,,,,,,,,,,,,,,,,,,,,,,,,,0,6,6,3,,,,,,,,,,,,,,,,,,,,,,,,,,,,,,,,,,,,,,,,,,,,,,,,,,,062619_p1,001,2019_Jun_26_1711,part1_subjective_segmentation,3.0.4,59.71604222101696,
,jobphotos/business_reporter.jpg,,"What are the job titles of both of the business people?
","How much money is at stake in the initial offer made?
",What is the name of the other industry competitor? ,With what gesture do the business partners secure the deal?,Is the deal fair?,How long does it take to make the deal?,Business Reporter,,,,,,,,,,,,,,,,,,,,,,,,,,,,,0,7,7,0,0,0,0,0,,,,,,,,,,,,,,,,,,,,,,,,,,,,,,,space,0.9363494550052565,space,4.370340424997266,space,1.7533344620023854,space,1.5200252079812344,space,4.119610086985631,space,0.7519774569955189,,,,,062619_p1,001,2019_Jun_26_1711,part1_subjective_segmentation,3.0.4,59.71604222101696,
,jobphotos/business_reporter.jpg,,"What are the job titles of both of the business people?
","How much money is at stake in the initial offer made?
",What is the name of the other industry competitor? ,With what gesture do the business partners secure the deal?,Is the deal fair?,How long does it take to make the deal?,Business Reporter,,,,,,,,,,,,,,,,,,,,,,,,,,,,,0,7,7,0,,,,,,,,,,,,,,,,,,,,,,,,,,,,,,,,,,,,,,,,,,,,,,,,,,,062619_p1,001,2019_Jun_26_1711,part1_subjective_segmentation,3.0.4,59.71604222101696,
,jobphotos/business_reporter.jpg,,"What are the job titles of both of the business people?
","How much money is at stake in the initial offer made?
",What is the name of the other industry competitor? ,With what gesture do the business partners secure the deal?,Is the deal fair?,How long does it take to make the deal?,Business Reporter,,,,,,,,,,,,,,,,,,,,,,,,,,,,,,,,,,,,,0,0,0,0,0,0,0,0,,,,,,,,,,,,,,,,,,,,,,,,,,,,,,,,,,,space,4.386332665977534,,,062619_p1,001,2019_Jun_26_1711,part1_subjective_segmentation,3.0.4,59.71604222101696,
,jobphotos/business_reporter.jpg,,"What are the job titles of both of the business people?
","How much money is at stake in the initial offer made?
",What is the name of the other industry competitor? ,With what gesture do the business partners secure the deal?,Is the deal fair?,How long does it take to make the deal?,Business Reporter,,,,,,,,,,,,,,,,,,,,,,,,,,,,,,,,,,,,,0,0,0,0,,,,,,,,,,,,,,,,,,,,,,,,,,,,,,,,,,,,,,,,,,,062619_p1,001,2019_Jun_26_1711,part1_subjective_segmentation,3.0.4,59.71604222101696,
,jobphotos/restaurant_critic.jpg,,How is the restaurant decorated?,What are the menus like?,"What do the clients order?
",How do the clients like the food?,How old is the waiter?,What meal is being served?,Restaurant Critic,,,,,,,,,,,,,,,,,,,,,,,,,,,,,,,,,,,,,0,1,1,1,0,0,0,0,,,,,,,,,,,,,,,,,,,,,,,,,,,,,,,,,,,space,1.7198527900036424,,,062619_p1,001,2019_Jun_26_1711,part1_subjective_segmentation,3.0.4,59.71604222101696,
,jobphotos/restaurant_critic.jpg,,How is the restaurant decorated?,What are the menus like?,"What do the clients order?
",How do the clients like the food?,How old is the waiter?,What meal is being served?,Restaurant Critic,,,,,,,,,,,,,,,,,,,,,,,,,,,,,,,,,,,,,0,1,1,1,,,,,,,,,,,,,,,,,,,,,,,,,,,,,,,,,,,,,,,,,,,062619_p1,001,2019_Jun_26_1711,part1_subjective_segmentation,3.0.4,59.71604222101696,
,jobphotos/matchmaker.jpg,,What object is the initiator of the interaction holding when he/she first notices the other person?,What is the initial question that begins the conversation between the couple?,When will be the next time the couple meets and for what occasion?,"What time is it when the couple parts?
",Is the couple going to get married?,Who shows more interest?,Matchmaker,,,,,,,,,,,,,,,,,,,,,,,,,,,,,,,,,,,,,0,2,2,2,0,0,0,0,,,,,,,,,,,,,,,,,,,,,,,,,,,,,,,,,,,space,1.002926857006969,,,062619_p1,001,2019_Jun_26_1711,part1_subjective_segmentation,3.0.4,59.71604222101696,
,jobphotos/matchmaker.jpg,,What object is the initiator of the interaction holding when he/she first notices the other person?,What is the initial question that begins the conversation between the couple?,When will be the next time the couple meets and for what occasion?,"What time is it when the couple parts?
",Is the couple going to get married?,Who shows more interest?,Matchmaker,,,,,,,,,,,,,,,,,,,,,,,,,,,,,,,,,,,,,0,2,2,2,,,,,,,,,,,,,,,,,,,,,,,,,,,,,,,,,,,,,,,,,,,062619_p1,001,2019_Jun_26_1711,part1_subjective_segmentation,3.0.4,59.71604222101696,
,jobphotos/weddingplanner.jpg,,"For how many years has the couple been dating?
","How many diamonds are on the ring and what is the diamond color?
","In/on what item is the ring presented?
","Who does the new fiancee text first?
",Is anyone taking pictures of the proposal?,How long does the proposal take?,Wedding Planner,,,,,,,,,,,,,,,,,,,,,,,,,,,,,,,,,,,,,0,3,3,3,0,0,0,0,,,,,,,,,,,,,,,,,,,,,,,,,,,,,,,,,,,space,1.9031751769944094,,,062619_p1,001,2019_Jun_26_1711,part1_subjective_segmentation,3.0.4,59.71604222101696,
,jobphotos/weddingplanner.jpg,,"For how many years has the couple been dating?
","How many diamonds are on the ring and what is the diamond color?
","In/on what item is the ring presented?
","Who does the new fiancee text first?
",Is anyone taking pictures of the proposal?,How long does the proposal take?,Wedding Planner,,,,,,,,,,,,,,,,,,,,,,,,,,,,,,,,,,,,,0,3,3,3,,,,,,,,,,,,,,,,,,,,,,,,,,,,,,,,,,,,,,,,,,,062619_p1,001,2019_Jun_26_1711,part1_subjective_segmentation,3.0.4,59.71604222101696,
,jobphotos/acem.jpg,,"When the clients arrive at the airport, how much time do they have until their flight departs?
",What is the reason for the hold-up at security?,"Toward which gate are the clients walking?
","What section and seat does each client sit in on the plane?
",Are the security guards friendly or rude?,Are the airport restrooms clean?,Airport Customer Experience Manager,,,,,,,,,,,,,,,,,,,,,,,,,,,,,,,,,,,,,0,4,4,4,0,0,0,0,,,,,,,,,,,,,,,,,,,,,,,,,,,,,,,,,,,space,2.069939279987011,,,062619_p1,001,2019_Jun_26_1711,part1_subjective_segmentation,3.0.4,59.71604222101696,
,jobphotos/acem.jpg,,"When the clients arrive at the airport, how much time do they have until their flight departs?
",What is the reason for the hold-up at security?,"Toward which gate are the clients walking?
","What section and seat does each client sit in on the plane?
",Are the security guards friendly or rude?,Are the airport restrooms clean?,Airport Customer Experience Manager,,,,,,,,,,,,,,,,,,,,,,,,,,,,,,,,,,,,,0,4,4,4,,,,,,,,,,,,,,,,,,,,,,,,,,,,,,,,,,,,,,,,,,,062619_p1,001,2019_Jun_26_1711,part1_subjective_segmentation,3.0.4,59.71604222101696,
,jobphotos/gscem.jpg,,"What is the grocery store like upon entering?
","What items do the clients pick out?
","How many checkout lanes are open and which one do the clients step into?
","How much are the groceries and what method of payment do the clients use?
",How long does it take for the cashier to scan all of the customers’ groceries?,What type of grocery bags do the clients use?,"Grocery Store Customer Experience Manager
",,,,,,,,,,,,,,,,,,,,,,,,,,,,,,,,,,,,,0,5,5,5,0,0,0,0,,,,,,,,,,,,,,,,,,,,,,,,,,,,,,,,,,,space,0.6002866550115868,,,062619_p1,001,2019_Jun_26_1711,part1_subjective_segmentation,3.0.4,59.71604222101696,
,jobphotos/gscem.jpg,,"What is the grocery store like upon entering?
","What items do the clients pick out?
","How many checkout lanes are open and which one do the clients step into?
","How much are the groceries and what method of payment do the clients use?
",How long does it take for the cashier to scan all of the customers’ groceries?,What type of grocery bags do the clients use?,"Grocery Store Customer Experience Manager
",,,,,,,,,,,,,,,,,,,,,,,,,,,,,,,,,,,,,0,5,5,5,,,,,,,,,,,,,,,,,,,,,,,,,,,,,,,,,,,,,,,,,,,062619_p1,001,2019_Jun_26_1711,part1_subjective_segmentation,3.0.4,59.71604222101696,
,jobphotos/dean.jpg,,"What is the lecture hall like?
","What class are the students in and what is the day’s lecture about?
","What is something taught in lecture?
",What is the next assessment/assignment in class and when is it scheduled/due?,Are the students paying attention?,Are the desks comfortable?,Dean of Academic Studies,,,,,,,,,,,,,,,,,,,,,,,,,,,,,,,,,,,,,0,6,6,6,0,0,0,0,,,,,,,,,,,,,,,,,,,,,,,,,,,,,,,,,,,space,1.1696833070018329,,,062619_p1,001,2019_Jun_26_1711,part1_subjective_segmentation,3.0.4,59.71604222101696,
,jobphotos/dean.jpg,,"What is the lecture hall like?
","What class are the students in and what is the day’s lecture about?
","What is something taught in lecture?
",What is the next assessment/assignment in class and when is it scheduled/due?,Are the students paying attention?,Are the desks comfortable?,Dean of Academic Studies,,,,,,,,,,,,,,,,,,,,,,,,,,,,,,,,,,,,,0,6,6,6,,,,,,,,,,,,,,,,,,,,,,,,,,,,,,,,,,,,,,,,,,,062619_p1,001,2019_Jun_26_1711,part1_subjective_segmentation,3.0.4,59.71604222101696,
,jobphotos/couples.jpg,,For how long has the initiator of the breakup been thinking about breaking up with his/her partner?,"What is the initial reason stated by the initiator for why he/she is breaking up?
",Does the person who is being broken up with want to break up and what’s the reason stated by the person being broken up with that he/she does or does not want to break up?,What objects do either partner want back?,Does the person being broken up with expect that this is coming?,Who witnesses the breakup?,"Couples Therapist
",,,,,,,,,,,,,,,,,,,,,,,,,,,,,,,,,,,,,0,7,7,7,0,0,0,0,,,,,,,,,,,,,,,,,,,,,,,,,,,,,,,,,,,space,0.9525308849988505,,,062619_p1,001,2019_Jun_26_1711,part1_subjective_segmentation,3.0.4,59.71604222101696,
,jobphotos/couples.jpg,,For how long has the initiator of the breakup been thinking about breaking up with his/her partner?,"What is the initial reason stated by the initiator for why he/she is breaking up?
",Does the person who is being broken up with want to break up and what’s the reason stated by the person being broken up with that he/she does or does not want to break up?,What objects do either partner want back?,Does the person being broken up with expect that this is coming?,Who witnesses the breakup?,"Couples Therapist
",,,,,,,,,,,,,,,,,,,,,,,,,,,,,,,,,,,,,0,7,7,7,,,,,,,,,,,,,,,,,,,,,,,,,,,,,,,,,,,,,,,,,,,062619_p1,001,2019_Jun_26_1711,part1_subjective_segmentation,3.0.4,59.71604222101696,
Great job! You’ve finished the quizzes and Part 1. Please notify the researcher that you have finished. ,,,,,,,,,,,,,,,,,,,,,,,,,,,,,,,,,,,,,,,,,,,,,,,,,,,,,,0,0,0,0,,,space,125.58562816199264,,,,,,,,,,,,,,,,,,,,,,,,,,,,,,,062619_p1,001,2019_Jun_26_1711,part1_subjective_segmentation,3.0.4,59.71604222101696,
Let's begin Part 2! ,,,,,,,,,,,,,,,,,,,,,,,,,,,,,,,,,,,,,,,,,,,,,,,,,,,,,,0,1,1,1,,,space,1.4530491069890559,,,,,,,,,,,,,,,,,,,,,,,,,,,,,,,062619_p1,001,2019_Jun_26_1711,part1_subjective_segmentation,3.0.4,59.71604222101696,
You are about to begin the second part of the experiment where you will read short stories. ,,,,,,,,,,,,,,,,,,,,,,,,,,,,,,,,,,,,,,,,,,,,,,,,,,,,,,0,2,2,2,,,space,3.9698766299989074,,,,,,,,,,,,,,,,,,,,,,,,,,,,,,,062619_p1,001,2019_Jun_26_1711,part1_subjective_segmentation,3.0.4,59.71604222101696,
"The stories will be presented to you sentence by sentence, such that each sentence is read individually. ",,,,,,,,,,,,,,,,,,,,,,,,,,,,,,,,,,,,,,,,,,,,,,,,,,,,,,0,3,3,3,,,space,6.002992867026478,,,,,,,,,,,,,,,,,,,,,,,,,,,,,,,062619_p1,001,2019_Jun_26_1711,part1_subjective_segmentation,3.0.4,59.71604222101696,
"As a reminder, you'll be assigned a perspective and given the corresponding quiz before each story. ",,,,,,,,,,,,,,,,,,,,,,,,,,,,,,,,,,,,,,,,,,,,,,,,,,,,,,0,4,4,4,,,space,5.836706375004724,,,,,,,,,,,,,,,,,,,,,,,,,,,,,,,062619_p1,001,2019_Jun_26_1711,part1_subjective_segmentation,3.0.4,59.71604222101696,
"IMPORTANT! While reading each story, you will additionally have to make a judgement about each sentence in order to advance to the next sentence. ",,,,,,,,,,,,,,,,,,,,,,,,,,,,,,,,,,,,,,,,,,,,,,,,,,,,,,0,5,5,5,,,space,8.553297684993595,,,,,,,,,,,,,,,,,,,,,,,,,,,,,,,062619_p1,001,2019_Jun_26_1711,part1_subjective_segmentation,3.0.4,59.71604222101696,
Some people feel that the stories have natural “parts.” We want you to make a judgement about when you think the story has transitioned from one “part” to another. ,,,,,,,,,,,,,,,,,,,,,,,,,,,,,,,,,,,,,,,,,,,,,,,,,,,,,,0,6,6,6,,,space,8.137439879006706,,,,,,,,,,,,,,,,,,,,,,,,,,,,,,,062619_p1,001,2019_Jun_26_1711,part1_subjective_segmentation,3.0.4,59.71604222101696,
Please press “9” if you think the sentence you are reading has begun a new “part” of the story. ,,,,,,,,,,,,,,,,,,,,,,,,,,,,,,,,,,,,,,,,,,,,,,,,,,,,,,0,7,7,7,,,space,6.219778947008308,,,,,,,,,,,,,,,,,,,,,,,,,,,,,,,062619_p1,001,2019_Jun_26_1711,part1_subjective_segmentation,3.0.4,59.71604222101696,
"For example, you should press “9” at the beginning of a story and when you think a different “part” in the story is beginning. ",,,,,,,,,,,,,,,,,,,,,,,,,,,,,,,,,,,,,,,,,,,,,,,,,,,,,,0,8,8,8,,,space,6.086515426984988,,,,,,,,,,,,,,,,,,,,,,,,,,,,,,,062619_p1,001,2019_Jun_26_1711,part1_subjective_segmentation,3.0.4,59.71604222101696,
Please press “1” if you think the sentence is in the same “part” as the sentence before. ,,,,,,,,,,,,,,,,,,,,,,,,,,,,,,,,,,,,,,,,,,,,,,,,,,,,,,0,9,9,9,,,space,5.42012252099812,,,,,,,,,,,,,,,,,,,,,,,,,,,,,,,062619_p1,001,2019_Jun_26_1711,part1_subjective_segmentation,3.0.4,59.71604222101696,
There are no “right” answers. We want to see what you think these transitions are. ,,,,,,,,,,,,,,,,,,,,,,,,,,,,,,,,,,,,,,,,,,,,,,,,,,,,,,0,10,10,10,,,space,4.0035288850194775,,,,,,,,,,,,,,,,,,,,,,,,,,,,,,,062619_p1,001,2019_Jun_26_1711,part1_subjective_segmentation,3.0.4,59.71604222101696,
"When you press "1" or "9", you will not be able to go back to previous sentences or change the judgement you made about a previous sentence. ",,,,,,,,,,,,,,,,,,,,,,,,,,,,,,,,,,,,,,,,,,,,,,,,,,,,,,0,11,11,11,,,space,7.136783439986175,,,,,,,,,,,,,,,,,,,,,,,,,,,,,,,062619_p1,001,2019_Jun_26_1711,part1_subjective_segmentation,3.0.4,59.71604222101696,
"Please use both index fingers during the story reading, with one resting on the “1” and the other on the “9.”",,,,,,,,,,,,,,,,,,,,,,,,,,,,,,,,,,,,,,,,,,,,,,,,,,,,,,0,12,12,12,,,space,6.719620649993885,,,,,,,,,,,,,,,,,,,,,,,,,,,,,,,062619_p1,001,2019_Jun_26_1711,part1_subjective_segmentation,3.0.4,59.71604222101696,
Questions?,,,,,,,,,,,,,,,,,,,,,,,,,,,,,,,,,,,,,,,,,,,,,,,,,,,,,,0,13,13,13,,,space,4.2863200930005405,,,,,,,,,,,,,,,,,,,,,,,,,,,,,,,062619_p1,001,2019_Jun_26_1711,part1_subjective_segmentation,3.0.4,59.71604222101696,
,,,,,,,,,,,,,,,,,,,,,,,,,,,,,,,,,,,,,,,,,,,,,,,,,,,,,,,,,,,,,,,,,,,,,,,,,,,,,,,,,,,,,,,,,,space,0.8861479549959768,062619_p1,001,2019_Jun_26_1711,part1_subjective_segmentation,3.0.4,59.71604222101696,
