count,storyText,locationEvent,socialEvent,story,locationEventSize,socialEventSize,socialAnswer,locationAnswer,instructText,trials.thisRepN,trials.thisTrialN,trials.thisN,trials.thisIndex,trials_7.thisRepN,trials_7.thisTrialN,trials_7.thisN,trials_7.thisIndex,trials_2.thisRepN,trials_2.thisTrialN,trials_2.thisN,trials_2.thisIndex,trials_3.thisRepN,trials_3.thisTrialN,trials_3.thisN,trials_3.thisIndex,trials_4.thisRepN,trials_4.thisTrialN,trials_4.thisN,trials_4.thisIndex,trials_5.thisRepN,trials_5.thisTrialN,trials_5.thisN,trials_5.thisIndex,trials_6.thisRepN,trials_6.thisTrialN,trials_6.thisN,trials_6.thisIndex,trials_8.thisRepN,trials_8.thisTrialN,trials_8.thisN,trials_8.thisIndex,order of stories,order of perspectives,participant 2 order - stories,participant 2 order  - schemas types,key_resp_8.keys,key_resp_8.rt,key_resp_5.keys,key_resp_5.rt,key_resp_7.keys,key_resp_7.rt,key_resp_15.keys,key_resp_15.rt,key_resp_14.keys,key_resp_14.rt,story_presses.keys,story_presses.rt,story time,key_resp_6.keys,key_resp_6.rt,key_resp_2.keys,key_resp_2.rt,key_resp_10.keys,key_resp_10.rt,recall,recall time,key_resp_12.keys,key_resp_12.rt,key_resp_3.keys,key_resp_3.rt,key_resp_11.keys,key_resp_11.rt,question1_answer,order of question,question2_answer,question3_answer,question4_answer,question5_answer,question6_answer,question7_answer,question8_answer,questions time,key_resp_13.keys,key_resp_13.rt,participant,session,date,expName,psychopyVersion,frameRate,
0,,,,,,,,,,0,0,0,0,0,0,0,0,,,,,,,,,,,,,,,,,,,,,,,,,[13 24 34 22 43 11 32 41 44 21 12 33 14 23 31 42],"['Social' 'Location' 'Social' 'Social' 'Location' 'Location' 'Location'
 'Social' 'Location' 'Social' 'Location' 'Social' 'Social' 'Location'
 'Location' 'Social']",[44 21 12 33 14 23 31 42],"['Location' 'Social' 'Location' 'Social' 'Social' 'Location' 'Location'
 'Social']",space,18.255281690042466,space,1.718966499029193,space,3.9359137110295705,,,,,,,,,,,,,,,,,,,,,,,,,,,,,,,,,,070119_p1,001,2019_Jul_01_1052,body_behavioural,3.0.4,59.998802913488205,
0,The grocery store was not the place Emmanuella and Liam wanted to be at the moment considering that they had been fighting to the point where Emmanuella was thinking of breaking up with Liam.,1,1,13.0,,,,,,0,0,0,0,,,,,0,0,0,0,,,,,,,,,,,,,,,,,,,,,,,,,,,,,,,space,1.9203102350002155,space,4.419408703048248,9,16.920908633968793,,,,,,,,,,,,,,,,,,,,,,,,,,,,070119_p1,001,2019_Jul_01_1052,body_behavioural,3.0.4,59.998802913488205,
0,Emmanuella had been thinking of breaking up with Liam for the past 5 months.,1,1,None,,,,,,0,0,0,0,,,,,0,1,1,1,,,,,,,,,,,,,,,,,,,,,,,,,,,,,,,,,,,1,9.486952854960691,,,,,,,,,,,,,,,,,,,,,,,,,,,,070119_p1,001,2019_Jul_01_1052,body_behavioural,3.0.4,59.998802913488205,
0,"Despite the current tension, they had to go grocery shopping because they were hosting a dinner party for friends that evening and had little at home with which to cook. ",1,1,None,,,,,,0,0,0,0,,,,,0,2,2,2,,,,,,,,,,,,,,,,,,,,,,,,,,,,,,,,,,,1,10.103806639963295,,,,,,,,,,,,,,,,,,,,,,,,,,,,070119_p1,001,2019_Jul_01_1052,body_behavioural,3.0.4,59.998802913488205,
0,"The grocery store smelled like lavender upon entering and was dimly lit with pine shelves in the entrance and obscure, organic products displayed on them.",1,1,None,,,,,,0,0,0,0,,,,,0,3,3,3,,,,,,,,,,,,,,,,,,,,,,,,,,,,,,,,,,,1,10.18709946697345,,,,,,,,,,,,,,,,,,,,,,,,,,,,070119_p1,001,2019_Jul_01_1052,body_behavioural,3.0.4,59.998802913488205,
0,"In the pasta section, Emmanuella grabbed a few boxes of bow-tie pasta.",2,1,None,,,,,,0,0,0,0,,,,,0,4,4,4,,,,,,,,,,,,,,,,,,,,,,,,,,,,,,,,,,,1,4.119601873040665,,,,,,,,,,,,,,,,,,,,,,,,,,,,070119_p1,001,2019_Jul_01_1052,body_behavioural,3.0.4,59.998802913488205,
0,"“I guess we are having a pasta dish tonight,” Liam said.",2,1,None,,,,,,0,0,0,0,,,,,0,5,5,5,,,,,,,,,,,,,,,,,,,,,,,,,,,,,,,,,,,1,3.4698807800305076,,,,,,,,,,,,,,,,,,,,,,,,,,,,070119_p1,001,2019_Jul_01_1052,body_behavioural,3.0.4,59.998802913488205,
0,"Emmanuella looked back at him and said, “Well if you were going to actually help cook, I would be fine with something else.”",2,1,None,,,,,,0,0,0,0,,,,,0,6,6,6,,,,,,,,,,,,,,,,,,,,,,,,,,,,,,,,,,,1,6.904373367957305,,,,,,,,,,,,,,,,,,,,,,,,,,,,070119_p1,001,2019_Jul_01_1052,body_behavioural,3.0.4,59.998802913488205,
0,"Liam sighed, and finally said, “You know- you don’t want me to help.",2,1,None,,,,,,0,0,0,0,,,,,0,7,7,7,,,,,,,,,,,,,,,,,,,,,,,,,,,,,,,,,,,1,3.8198058139532804,,,,,,,,,,,,,,,,,,,,,,,,,,,,070119_p1,001,2019_Jul_01_1052,body_behavioural,3.0.4,59.998802913488205,
0,"I try to, but it seems like I always get in the way!” ",2,1,None,,,,,,0,0,0,0,,,,,0,8,8,8,,,,,,,,,,,,,,,,,,,,,,,,,,,,,,,,,,,1,4.702466062968597,,,,,,,,,,,,,,,,,,,,,,,,,,,,070119_p1,001,2019_Jul_01_1052,body_behavioural,3.0.4,59.998802913488205,
0,Emmanuella shook her head and dropped the pasta boxes in the basket she was holding.,2,1,None,,,,,,0,0,0,0,,,,,0,9,9,9,,,,,,,,,,,,,,,,,,,,,,,,,,,,,,,,,,,1,3.5693589309812523,,,,,,,,,,,,,,,,,,,,,,,,,,,,070119_p1,001,2019_Jul_01_1052,body_behavioural,3.0.4,59.998802913488205,
0," “Like you even try,” she mumbled to herself. ",2,1,None,,,,,,0,0,0,0,,,,,0,10,10,10,,,,,,,,,,,,,,,,,,,,,,,,,,,,,,,,,,,1,3.6036099779885262,,,,,,,,,,,,,,,,,,,,,,,,,,,,070119_p1,001,2019_Jul_01_1052,body_behavioural,3.0.4,59.998802913488205,
0,She continued down the aisle and studied a jar of vodka sauce and a can of olives before putting them in the basket as well. ,2,1,None,,,,,,0,0,0,0,,,,,0,11,11,11,,,,,,,,,,,,,,,,,,,,,,,,,,,,,,,,,,,1,8.303840503038373,,,,,,,,,,,,,,,,,,,,,,,,,,,,070119_p1,001,2019_Jul_01_1052,body_behavioural,3.0.4,59.998802913488205,
0,"Emmanuella suddenly wrinkled her eyebrows, turned to Liam, and said, “I want to break up since I’m tired of the constant fighting. ",2,2,None,,,,,,0,0,0,0,,,,,0,12,12,12,,,,,,,,,,,,,,,,,,,,,,,,,,,,,,,,,,,1,7.220174121961463,,,,,,,,,,,,,,,,,,,,,,,,,,,,070119_p1,001,2019_Jul_01_1052,body_behavioural,3.0.4,59.998802913488205,
0,"I was going to wait until after this horribly-timed dinner party tonight to talk about this, but I might as well say it now.",2,2,None,,,,,,0,0,0,0,,,,,0,13,13,13,,,,,,,,,,,,,,,,,,,,,,,,,,,,,,,,,,,1,6.8367630969733,,,,,,,,,,,,,,,,,,,,,,,,,,,,070119_p1,001,2019_Jul_01_1052,body_behavioural,3.0.4,59.998802913488205,
0,"I feel like when we try to do anything anymore it ends up unpleasant for the stupidest reasons, and I am just past trying to work things out.”",2,2,None,,,,,,0,0,0,0,,,,,0,14,14,14,,,,,,,,,,,,,,,,,,,,,,,,,,,,,,,,,,,1,8.170353047025856,,,,,,,,,,,,,,,,,,,,,,,,,,,,070119_p1,001,2019_Jul_01_1052,body_behavioural,3.0.4,59.998802913488205,
0,Liam was nodding automatically.,2,2,None,,,,,,0,0,0,0,,,,,0,15,15,15,,,,,,,,,,,,,,,,,,,,,,,,,,,,,,,,,,,1,1.3201424140133895,,,,,,,,,,,,,,,,,,,,,,,,,,,,070119_p1,001,2019_Jul_01_1052,body_behavioural,3.0.4,59.998802913488205,
0,"In the checkout area, there was only one station open, Station 2, but it was not very crowded.",3,2,None,,,,,,0,0,0,0,,,,,0,16,16,16,,,,,,,,,,,,,,,,,,,,,,,,,,,,,,,,,,,1,6.320681264973246,,,,,,,,,,,,,,,,,,,,,,,,,,,,070119_p1,001,2019_Jul_01_1052,body_behavioural,3.0.4,59.998802913488205,
0,They got in line.,3,2,None,,,,,,0,0,0,0,,,,,0,17,17,17,,,,,,,,,,,,,,,,,,,,,,,,,,,,,,,,,,,1,1.3530861300532706,,,,,,,,,,,,,,,,,,,,,,,,,,,,070119_p1,001,2019_Jul_01_1052,body_behavioural,3.0.4,59.998802913488205,
0,"Liam gazed in the direction of the magazines, but his eyes were glazed over as he was working things out in his head while Emmanuella scrutinized the pasta sauce again. ",3,2,None,,,,,,0,0,0,0,,,,,0,18,18,18,,,,,,,,,,,,,,,,,,,,,,,,,,,,,,,,,,,1,7.719992930011358,,,,,,,,,,,,,,,,,,,,,,,,,,,,070119_p1,001,2019_Jul_01_1052,body_behavioural,3.0.4,59.998802913488205,
0,"After a few minutes of thinking, Liam recollected himself, turned to her, and sighed, “Yes, I think the same thing.",3,3,None,,,,,,0,0,0,0,,,,,0,19,19,19,,,,,,,,,,,,,,,,,,,,,,,,,,,,,,,,,,,1,4.820038510020822,,,,,,,,,,,,,,,,,,,,,,,,,,,,070119_p1,001,2019_Jul_01_1052,body_behavioural,3.0.4,59.998802913488205,
0,I think we should break up because we could definitely be happier with other people.” ,3,3,None,,,,,,0,0,0,0,,,,,0,20,20,20,,,,,,,,,,,,,,,,,,,,,,,,,,,,,,,,,,,1,3.4695806149975397,,,,,,,,,,,,,,,,,,,,,,,,,,,,070119_p1,001,2019_Jul_01_1052,body_behavioural,3.0.4,59.998802913488205,
0,Emmanuella nodded as she listened. ,3,3,None,,,,,,0,0,0,0,,,,,0,21,21,21,,,,,,,,,,,,,,,,,,,,,,,,,,,,,,,,,,,1,1.4029163820086978,,,,,,,,,,,,,,,,,,,,,,,,,,,,070119_p1,001,2019_Jul_01_1052,body_behavioural,3.0.4,59.998802913488205,
0,The cashier scanned their groceries.,4,3,None,,,,,,0,0,0,0,,,,,0,22,22,22,,,,,,,,,,,,,,,,,,,,,,,,,,,,,,,,,,,1,2.5864995979936793,,,,,,,,,,,,,,,,,,,,,,,,,,,,070119_p1,001,2019_Jul_01_1052,body_behavioural,3.0.4,59.998802913488205,
0,"The cost came to $30, and Emmanuella paid with her credit card.",4,3,None,,,,,,0,0,0,0,,,,,0,23,23,23,,,,,,,,,,,,,,,,,,,,,,,,,,,,,,,,,,,1,5.253264550003223,,,,,,,,,,,,,,,,,,,,,,,,,,,,070119_p1,001,2019_Jul_01_1052,body_behavioural,3.0.4,59.998802913488205,
0,"She asked Liam politely to take the bags, and he obliged, following her toward the exit. ",4,3,None,,,,,,0,0,0,0,,,,,0,24,24,24,,,,,,,,,,,,,,,,,,,,,,,,,,,,,,,,,,,1,4.769902944972273,,,,,,,,,,,,,,,,,,,,,,,,,,,,070119_p1,001,2019_Jul_01_1052,body_behavioural,3.0.4,59.998802913488205,
0,"Filled with a sudden wave of sadness, Emmanuella said, “Liam, I think we are making the right decision- this is good.”",4,4,None,,,,,,0,0,0,0,,,,,0,25,25,25,,,,,,,,,,,,,,,,,,,,,,,,,,,,,,,,,,,1,5.7867095450055785,,,,,,,,,,,,,,,,,,,,,,,,,,,,070119_p1,001,2019_Jul_01_1052,body_behavioural,3.0.4,59.998802913488205,
0,"“I agree,” he said, relieved at the hope he was entertaining that they had just gotten through their last fight. ",4,4,None,,,,,,0,0,0,0,,,,,0,26,26,26,,,,,,,,,,,,,,,,,,,,,,,,,,,,,,,,,,,1,14.389067427022383,,,,,,,,,,,,,,,,,,,,,,,,,,,,070119_p1,001,2019_Jul_01_1052,body_behavioural,3.0.4,59.998802913488205,
0,"“I think we can still host this dinner tonight, as long as you're still on board,” Emmanuella said.",4,4,None,,,,,,0,0,0,0,,,,,0,27,27,27,,,,,,,,,,,,,,,,,,,,,,,,,,,,,,,,,,,1,4.169903401983902,,,,,,,,,,,,,,,,,,,,,,,,,,,,070119_p1,001,2019_Jul_01_1052,body_behavioural,3.0.4,59.998802913488205,
0,"Liam nodded, “Yes, let’s just not tell anyone we’ve broken up tonight.” ",4,4,None,,,,,,0,0,0,0,,,,,0,28,28,28,,,,,,,,,,,,,,,,,,,,,,,,,,,,,,,,,,,1,4.234277792973444,,,,,,,,,,,,,,,,,,,,,,,,,,,,070119_p1,001,2019_Jul_01_1052,body_behavioural,3.0.4,59.998802913488205,
0,"Emmanuella laughed, “Whoever leaks it loses their right to the cat.”",4,4,None,,,,,,0,0,0,0,,,,,0,29,29,29,,,,,,,,,,,,,,,,,,,,,,,,,,,,,,,,,,,1,5.269608773989603,,,,,,,,,,,,,,,,,,,,,,,,,,,,070119_p1,001,2019_Jul_01_1052,body_behavioural,3.0.4,59.998802913488205,
0,"Liam chuckled and responded, “Hey!",4,4,None,,,,,,0,0,0,0,,,,,0,30,30,30,,,,,,,,,,,,,,,,,,,,,,,,,,,,,,,,,,,1,2.069890922983177,,,,,,,,,,,,,,,,,,,,,,,,,,,,070119_p1,001,2019_Jul_01_1052,body_behavioural,3.0.4,59.998802913488205,
0,Luna is mine and I want her back.”,4,4,None,,,,,,0,0,0,0,,,,,0,31,31,31,,,,,,,,,,,,,,,,,,,,,,,,,,,,,,,,,,,1,1.9029628459829837,,,,,,,,,,,,,,,,,,,,,,,,,,,,070119_p1,001,2019_Jul_01_1052,body_behavioural,3.0.4,59.998802913488205,
0,"Emmanuella rolled her eyes, knowing the cat would be a whole other issue to sort out later.
",4,4,None,,,,,,0,0,0,0,,,,,0,32,32,32,,,,,,,,,,,,,,,,,,,,,,,,,,,,,,,,,,,1,5.136659181967843,,,,,,,,,,,,,,,,,,,,,,,,,,,,070119_p1,001,2019_Jul_01_1052,body_behavioural,3.0.4,59.998802913488205,
0,,,,,,,,,,0,0,0,0,,,,,,,,,,,,,,,,,,,,,,,,,,,,,,,,,,,,,,,,,,,,,,,,,,,,,,,,,,,,,,,,,,,,,,,,070119_p1,001,2019_Jul_01_1052,body_behavioural,3.0.4,59.998802913488205,
1,,,,,,,,,,0,1,1,1,0,0,0,0,,,,,,,,,,,,,,,,,,,,,,,,,,,,,space,2.619820224994328,space,1.1363816070370376,space,1.0697089949971996,,,,,,,,,,,,,,,,,,,,,,,,,,,,,,,,,,070119_p1,001,2019_Jul_01_1052,body_behavioural,3.0.4,59.998802913488205,
1,"Lana walked into lecture holding hands with her boyfriend, Aaron, who was trying to contain his excitement about proposing to Lana in this class.",1,1,24.0,,,,,,0,1,1,1,,,,,0,0,0,0,,,,,,,,,,,,,,,,,,,,,,,,,,,,,,,space,0.5339211480459198,space,1.803167461999692,9,27.48821186396526,,,,,,,,,,,,,,,,,,,,,,,,,,,,070119_p1,001,2019_Jul_01_1052,body_behavioural,3.0.4,59.998802913488205,
1,"Lana was lost in thought, puzzling over an integral on her problem set for another class.",1,1,None,,,,,,0,1,1,1,,,,,0,1,1,1,,,,,,,,,,,,,,,,,,,,,,,,,,,,,,,,,,,1,7.203178646974266,,,,,,,,,,,,,,,,,,,,,,,,,,,,070119_p1,001,2019_Jul_01_1052,body_behavioural,3.0.4,59.998802913488205,
1,"The lecture hall they had entered was the fanciest one at Princeton, with chandeliers, high ceilings, wood floors, and a large projector screen where chalkboards used to be. ",1,1,None,,,,,,0,1,1,1,,,,,0,2,2,2,,,,,,,,,,,,,,,,,,,,,,,,,,,,,,,,,,,1,10.053725577017758,,,,,,,,,,,,,,,,,,,,,,,,,,,,070119_p1,001,2019_Jul_01_1052,body_behavioural,3.0.4,59.998802913488205,
1,Aaron and Lana had met when they first started dating three years ago in freshman year.,1,1,None,,,,,,0,1,1,1,,,,,0,3,3,3,,,,,,,,,,,,,,,,,,,,,,,,,,,,,,,,,,,1,6.10310731100617,,,,,,,,,,,,,,,,,,,,,,,,,,,,070119_p1,001,2019_Jul_01_1052,body_behavioural,3.0.4,59.998802913488205,
1,They coincidentally had another class together in this same lecture hall. ,1,1,None,,,,,,0,1,1,1,,,,,0,4,4,4,,,,,,,,,,,,,,,,,,,,,,,,,,,,,,,,,,,1,6.703418019984383,,,,,,,,,,,,,,,,,,,,,,,,,,,,070119_p1,001,2019_Jul_01_1052,body_behavioural,3.0.4,59.998802913488205,
1,The professor caught Aaron's eye as he walked up to the front of the classroom and gave him a wink before the lecture began. ,1,1,None,,,,,,0,1,1,1,,,,,0,5,5,5,,,,,,,,,,,,,,,,,,,,,,,,,,,,,,,,,,,1,9.670355812995695,,,,,,,,,,,,,,,,,,,,,,,,,,,,070119_p1,001,2019_Jul_01_1052,body_behavioural,3.0.4,59.998802913488205,
1,Aaron flashed him a half-smile and nodded. ,1,1,None,,,,,,0,1,1,1,,,,,0,6,6,6,,,,,,,,,,,,,,,,,,,,,,,,,,,,,,,,,,,1,2.052812621986959,,,,,,,,,,,,,,,,,,,,,,,,,,,,070119_p1,001,2019_Jul_01_1052,body_behavioural,3.0.4,59.998802913488205,
1,"The professor cleared his throat and said,“Alright, good afternoon, everyone!",2,1,None,,,,,,0,1,1,1,,,,,0,7,7,7,,,,,,,,,,,,,,,,,,,,,,,,,,,,,,,,,,,1,3.253154314996209,,,,,,,,,,,,,,,,,,,,,,,,,,,,070119_p1,001,2019_Jul_01_1052,body_behavioural,3.0.4,59.998802913488205,
1,Welcome to another week of Introduction to Chemistry,2,1,None,,,,,,0,1,1,1,,,,,0,8,8,8,,,,,,,,,,,,,,,,,,,,,,,,,,,,,,,,,,,1,2.286321758001577,,,,,,,,,,,,,,,,,,,,,,,,,,,,070119_p1,001,2019_Jul_01_1052,body_behavioural,3.0.4,59.998802913488205,
1,This week the topic is ions.,2,1,None,,,,,,0,1,1,1,,,,,0,9,9,9,,,,,,,,,,,,,,,,,,,,,,,,,,,,,,,,,,,1,1.4855512870126404,,,,,,,,,,,,,,,,,,,,,,,,,,,,070119_p1,001,2019_Jul_01_1052,body_behavioural,3.0.4,59.998802913488205,
1,"Now, let me get my computer set up, and while I do that, does anyone want to tell me what makes elements definitionally distinct from one another.”",2,1,None,,,,,,0,1,1,1,,,,,0,10,10,10,,,,,,,,,,,,,,,,,,,,,,,,,,,,,,,,,,,1,8.770190959970932,,,,,,,,,,,,,,,,,,,,,,,,,,,,070119_p1,001,2019_Jul_01_1052,body_behavioural,3.0.4,59.998802913488205,
1,Lana pulled out the problem set she was thinking about as Aaron unzipped the small pocket in his backpack and pulled out the ring.,2,2,None,,,,,,0,1,1,1,,,,,0,11,11,11,,,,,,,,,,,,,,,,,,,,,,,,,,,,,,,,,,,1,7.370133568998426,,,,,,,,,,,,,,,,,,,,,,,,,,,,070119_p1,001,2019_Jul_01_1052,body_behavioural,3.0.4,59.998802913488205,
1,"Turning away from her, he looked it over yet again. ",2,2,None,,,,,,0,1,1,1,,,,,0,12,12,12,,,,,,,,,,,,,,,,,,,,,,,,,,,,,,,,,,,1,2.920970770996064,,,,,,,,,,,,,,,,,,,,,,,,,,,,070119_p1,001,2019_Jul_01_1052,body_behavioural,3.0.4,59.998802913488205,
1,"Instead of one large diamond, there were 5 red diamonds embedded in a thick band. ",2,2,None,,,,,,0,1,1,1,,,,,0,13,13,13,,,,,,,,,,,,,,,,,,,,,,,,,,,,,,,,,,,1,4.450895232963376,,,,,,,,,,,,,,,,,,,,,,,,,,,,070119_p1,001,2019_Jul_01_1052,body_behavioural,3.0.4,59.998802913488205,
1,He knew Lana would like this because her style was more avant-garde than traditional.,2,2,None,,,,,,0,1,1,1,,,,,0,14,14,14,,,,,,,,,,,,,,,,,,,,,,,,,,,,,,,,,,,1,5.420051731984131,,,,,,,,,,,,,,,,,,,,,,,,,,,,070119_p1,001,2019_Jul_01_1052,body_behavioural,3.0.4,59.998802913488205,
1,"The professor said, “Remember, class, that the number of protons determines the identity of the element. ",3,2,None,,,,,,0,1,1,1,,,,,0,15,15,15,,,,,,,,,,,,,,,,,,,,,,,,,,,,,,,,,,,1,8.003554593014996,,,,,,,,,,,,,,,,,,,,,,,,,,,,070119_p1,001,2019_Jul_01_1052,body_behavioural,3.0.4,59.998802913488205,
1,"So for example, all atoms of sodium have 11 protons in the nucleus. ",3,2,None,,,,,,0,1,1,1,,,,,0,16,16,16,,,,,,,,,,,,,,,,,,,,,,,,,,,,,,,,,,,1,4.869996764988173,,,,,,,,,,,,,,,,,,,,,,,,,,,,070119_p1,001,2019_Jul_01_1052,body_behavioural,3.0.4,59.998802913488205,
1,"And if you look on the periodic table, the atomic number for sodium, the symbol is Na, is eleven.",3,2,None,,,,,,0,1,1,1,,,,,0,17,17,17,,,,,,,,,,,,,,,,,,,,,,,,,,,,,,,,,,,1,7.769955250027124,,,,,,,,,,,,,,,,,,,,,,,,,,,,070119_p1,001,2019_Jul_01_1052,body_behavioural,3.0.4,59.998802913488205,
1,"An ion retains the same number of protons despite losing electrons, and therefore keeps the same identity in the periodic table. ",3,2,None,,,,,,0,1,1,1,,,,,0,18,18,18,,,,,,,,,,,,,,,,,,,,,,,,,,,,,,,,,,,1,7.203377021010965,,,,,,,,,,,,,,,,,,,,,,,,,,,,070119_p1,001,2019_Jul_01_1052,body_behavioural,3.0.4,59.998802913488205,
1,Lana and Aaron tried to take notes during the lecture.,3,2,None,,,,,,0,1,1,1,,,,,0,19,19,19,,,,,,,,,,,,,,,,,,,,,,,,,,,,,,,,,,,1,5.502946197986603,,,,,,,,,,,,,,,,,,,,,,,,,,,,070119_p1,001,2019_Jul_01_1052,body_behavioural,3.0.4,59.998802913488205,
1,"Right after talking about how two ions bond into one stable molecule by covalent bonds, the professor stopped the lecture, gave another wink to Aaron, and asked Lana to come to the front of the class to do a demonstration. ",3,3,None,,,,,,0,1,1,1,,,,,0,20,20,20,,,,,,,,,,,,,,,,,,,,,,,,,,,,,,,,,,,9,17.6708307780209,,,,,,,,,,,,,,,,,,,,,,,,,,,,070119_p1,001,2019_Jul_01_1052,body_behavioural,3.0.4,59.998802913488205,
1,"She walked to the front of the class confused, and the professor asked her to stand in the middle of the stage.",3,3,None,,,,,,0,1,1,1,,,,,0,21,21,21,,,,,,,,,,,,,,,,,,,,,,,,,,,,,,,,,,,1,5.069988242990803,,,,,,,,,,,,,,,,,,,,,,,,,,,,070119_p1,001,2019_Jul_01_1052,body_behavioural,3.0.4,59.998802913488205,
1,"Then Aaron walked up and, taking Lana’s hand, got down on one knee. ",3,3,None,,,,,,0,1,1,1,,,,,0,22,22,22,,,,,,,,,,,,,,,,,,,,,,,,,,,,,,,,,,,1,3.2199108480126597,,,,,,,,,,,,,,,,,,,,,,,,,,,,070119_p1,001,2019_Jul_01_1052,body_behavioural,3.0.4,59.998802913488205,
1,The professor quickly switched to the last slide on the powerpoint which was a photo collage Aaron had sent him of pictures of Aaron and Lana. ,3,3,None,,,,,,0,1,1,1,,,,,0,23,23,23,,,,,,,,,,,,,,,,,,,,,,,,,,,,,,,,,,,1,5.334287028003018,,,,,,,,,,,,,,,,,,,,,,,,,,,,070119_p1,001,2019_Jul_01_1052,body_behavioural,3.0.4,59.998802913488205,
1,"“It's time for us to make a bond of our own, Lana.”",3,3,None,,,,,,0,1,1,1,,,,,0,24,24,24,,,,,,,,,,,,,,,,,,,,,,,,,,,,,,,,,,,1,3.8194037040229887,,,,,,,,,,,,,,,,,,,,,,,,,,,,070119_p1,001,2019_Jul_01_1052,body_behavioural,3.0.4,59.998802913488205,
1,He opened the small notebook he had in his hand and the ring was sitting on the page. ,3,3,None,,,,,,0,1,1,1,,,,,0,25,25,25,,,,,,,,,,,,,,,,,,,,,,,,,,,,,,,,,,,1,4.85322615300538,,,,,,,,,,,,,,,,,,,,,,,,,,,,070119_p1,001,2019_Jul_01_1052,body_behavioural,3.0.4,59.998802913488205,
1,“Will you marry me?” ,3,3,None,,,,,,0,1,1,1,,,,,0,26,26,26,,,,,,,,,,,,,,,,,,,,,,,,,,,,,,,,,,,1,1.3523946810164489,,,,,,,,,,,,,,,,,,,,,,,,,,,,070119_p1,001,2019_Jul_01_1052,body_behavioural,3.0.4,59.998802913488205,
1,"Lana had put her hand over her mouth and tears were streaming down her face, but finally, she said, “Yes!”",3,4,None,,,,,,0,1,1,1,,,,,0,27,27,27,,,,,,,,,,,,,,,,,,,,,,,,,,,,,,,,,,,1,7.470316965016536,,,,,,,,,,,,,,,,,,,,,,,,,,,,070119_p1,001,2019_Jul_01_1052,body_behavioural,3.0.4,59.998802913488205,
1,"Aaron put the ring on her finger, and they hugged while the whole class applauded and cheered. ",3,4,None,,,,,,0,1,1,1,,,,,0,28,28,28,,,,,,,,,,,,,,,,,,,,,,,,,,,,,,,,,,,1,5.15334321197588,,,,,,,,,,,,,,,,,,,,,,,,,,,,070119_p1,001,2019_Jul_01_1052,body_behavioural,3.0.4,59.998802913488205,
1,"Their friends, who had been secretly waiting outside, came into the class and embraced both of them.",3,4,None,,,,,,0,1,1,1,,,,,0,29,29,29,,,,,,,,,,,,,,,,,,,,,,,,,,,,,,,,,,,1,5.45097760198405,,,,,,,,,,,,,,,,,,,,,,,,,,,,070119_p1,001,2019_Jul_01_1052,body_behavioural,3.0.4,59.998802913488205,
1,The professor gave Aaron a celebratory handshake.,3,4,None,,,,,,0,1,1,1,,,,,0,30,30,30,,,,,,,,,,,,,,,,,,,,,,,,,,,,,,,,,,,1,1.836109680996742,,,,,,,,,,,,,,,,,,,,,,,,,,,,070119_p1,001,2019_Jul_01_1052,body_behavioural,3.0.4,59.998802913488205,
1,"They made their way back to their seats, and Lana pulled out her phone to text her sister",3,4,None,,,,,,0,1,1,1,,,,,0,31,31,31,,,,,,,,,,,,,,,,,,,,,,,,,,,,,,,,,,,1,7.770184730004985,,,,,,,,,,,,,,,,,,,,,,,,,,,,070119_p1,001,2019_Jul_01_1052,body_behavioural,3.0.4,59.998802913488205,
1,"The professor dismissed the class, saying, “That was enough excitement for today!",4,4,None,,,,,,0,1,1,1,,,,,0,32,32,32,,,,,,,,,,,,,,,,,,,,,,,,,,,,,,,,,,,9,4.767595926998183,,,,,,,,,,,,,,,,,,,,,,,,,,,,070119_p1,001,2019_Jul_01_1052,body_behavioural,3.0.4,59.998802913488205,
1,Don’t forget there’s a midterm exam next week on Monday on the material covered in the first 4 weeks of the semester.,4,4,None,,,,,,0,1,1,1,,,,,0,33,33,33,,,,,,,,,,,,,,,,,,,,,,,,,,,,,,,,,,,1,3.6696847599814646,,,,,,,,,,,,,,,,,,,,,,,,,,,,070119_p1,001,2019_Jul_01_1052,body_behavioural,3.0.4,59.998802913488205,
1,"As everyone was packing up their notebooks and leaving, Lana and Aaron were surrounded by their friends eager to get a glimpse of the ring and congratulate them. ",4,4,None,,,,,,0,1,1,1,,,,,0,34,34,34,,,,,,,,,,,,,,,,,,,,,,,,,,,,,,,,,,,1,7.95335144904675,,,,,,,,,,,,,,,,,,,,,,,,,,,,070119_p1,001,2019_Jul_01_1052,body_behavioural,3.0.4,59.998802913488205,
1,,,,,,,,,,0,1,1,1,,,,,,,,,,,,,,,,,,,,,,,,,,,,,,,,,,,,,,,,,,,,,,,,,,,,,,,,,,,,,,,,,,,,,,,,070119_p1,001,2019_Jul_01_1052,body_behavioural,3.0.4,59.998802913488205,
2,,,,,,,,,,0,2,2,2,0,0,0,0,,,,,,,,,,,,,,,,,,,,,,,,,,,,,space,1.2362508620135486,space,0.9362662660423666,space,6.63645347597776,,,,,,,,,,,,,,,,,,,,,,,,,,,,,,,,,,070119_p1,001,2019_Jul_01_1052,body_behavioural,3.0.4,59.998802913488205,
2,"Charlie saw Alma as they walked into class, and he motioned for her to come sit in the back next to him because they had a deal to discuss.",1,1,34.0,,,,,,0,2,2,2,,,,,0,0,0,0,,,,,,,,,,,,,,,,,,,,,,,,,,,,,,,space,1.4526869420078583,space,1.686083808017429,9,23.788773181964643,,,,,,,,,,,,,,,,,,,,,,,,,,,,070119_p1,001,2019_Jul_01_1052,body_behavioural,3.0.4,59.998802913488205,
2,Charlie and Alma were both history majors with entrepreneurial bents.,1,1,None,,,,,,0,2,2,2,,,,,0,1,1,1,,,,,,,,,,,,,,,,,,,,,,,,,,,,,,,,,,,1,3.1030224220012315,,,,,,,,,,,,,,,,,,,,,,,,,,,,070119_p1,001,2019_Jul_01_1052,body_behavioural,3.0.4,59.998802913488205,
2,They were also both very busy and happened to be in the same class.,1,1,None,,,,,,0,2,2,2,,,,,0,2,2,2,,,,,,,,,,,,,,,,,,,,,,,,,,,,,,,,,,,1,3.85358868498588,,,,,,,,,,,,,,,,,,,,,,,,,,,,070119_p1,001,2019_Jul_01_1052,body_behavioural,3.0.4,59.998802913488205,
2,"After talking at a party, Charlie had discovered that Alma was looking for financing for her web development company of which she was the founder and CEO.",1,1,None,,,,,,0,2,2,2,,,,,0,3,3,3,,,,,,,,,,,,,,,,,,,,,,,,,,,,,,,,,,,1,4.9366360969725065,,,,,,,,,,,,,,,,,,,,,,,,,,,,070119_p1,001,2019_Jul_01_1052,body_behavioural,3.0.4,59.998802913488205,
2,"It was serendipitous because he was an investment analyst for a student finance group on campus, and he had just been talking with other members of the group about making a new investment. ",1,1,None,,,,,,0,2,2,2,,,,,0,4,4,4,,,,,,,,,,,,,,,,,,,,,,,,,,,,,,,,,,,1,10.05308329500258,,,,,,,,,,,,,,,,,,,,,,,,,,,,070119_p1,001,2019_Jul_01_1052,body_behavioural,3.0.4,59.998802913488205,
2,"His financial group had come to a decision that morning about Alma’s startup, and he didn't want to wait until after class to discuss the proposal with her. ",1,1,None,,,,,,0,2,2,2,,,,,0,5,5,5,,,,,,,,,,,,,,,,,,,,,,,,,,,,,,,,,,,1,11.80355974304257,,,,,,,,,,,,,,,,,,,,,,,,,,,,070119_p1,001,2019_Jul_01_1052,body_behavioural,3.0.4,59.998802913488205,
2,The class was in a medium-sized auditorium which was brightly lit and very modern-looking. ,1,1,None,,,,,,0,2,2,2,,,,,0,6,6,6,,,,,,,,,,,,,,,,,,,,,,,,,,,,,,,,,,,1,8.653540111961775,,,,,,,,,,,,,,,,,,,,,,,,,,,,070119_p1,001,2019_Jul_01_1052,body_behavioural,3.0.4,59.998802913488205,
2,There were three projector screens in the front and each row of the audience which had a table with power outlets and USB ports. ,1,1,None,,,,,,0,2,2,2,,,,,0,7,7,7,,,,,,,,,,,,,,,,,,,,,,,,,,,,,,,,,,,1,12.370776069990825,,,,,,,,,,,,,,,,,,,,,,,,,,,,070119_p1,001,2019_Jul_01_1052,body_behavioural,3.0.4,59.998802913488205,
2,"“Here we are at Lecture Seven of Archaeology of Rome,” said the professor. ",2,1,None,,,,,,0,2,2,2,,,,,0,8,8,8,,,,,,,,,,,,,,,,,,,,,,,,,,,,,,,,,,,1,5.103190125955734,,,,,,,,,,,,,,,,,,,,,,,,,,,,070119_p1,001,2019_Jul_01_1052,body_behavioural,3.0.4,59.998802913488205,
2,"“The topic for today is Augustus, an incredibly important influence in Roman architecture.” ",2,1,None,,,,,,0,2,2,2,,,,,0,9,9,9,,,,,,,,,,,,,,,,,,,,,,,,,,,,,,,,,,,1,3.1864798499736935,,,,,,,,,,,,,,,,,,,,,,,,,,,,070119_p1,001,2019_Jul_01_1052,body_behavioural,3.0.4,59.998802913488205,
2,She went into some recap of the last lecture.,2,1,None,,,,,,0,2,2,2,,,,,0,10,10,10,,,,,,,,,,,,,,,,,,,,,,,,,,,,,,,,,,,9,5.336623991956003,,,,,,,,,,,,,,,,,,,,,,,,,,,,070119_p1,001,2019_Jul_01_1052,body_behavioural,3.0.4,59.998802913488205,
2,"Charlie turned to Alma and said, “Okay, so I’ve been thinking about your startup, and I have talked about it with my fellow investors.",2,2,None,,,,,,0,2,2,2,,,,,0,11,11,11,,,,,,,,,,,,,,,,,,,,,,,,,,,,,,,,,,,1,7.1198846839834005,,,,,,,,,,,,,,,,,,,,,,,,,,,,070119_p1,001,2019_Jul_01_1052,body_behavioural,3.0.4,59.998802913488205,
2,We’d like to invest half of what you originally suggested.,2,2,None,,,,,,0,2,2,2,,,,,0,12,12,12,,,,,,,,,,,,,,,,,,,,,,,,,,,,,,,,,,,1,2.78649128502002,,,,,,,,,,,,,,,,,,,,,,,,,,,,070119_p1,001,2019_Jul_01_1052,body_behavioural,3.0.4,59.998802913488205,
2,"So we propose we start with wiring you $28,000.",2,2,None,,,,,,0,2,2,2,,,,,0,13,13,13,,,,,,,,,,,,,,,,,,,,,,,,,,,,,,,,,,,1,8.62017696001567,,,,,,,,,,,,,,,,,,,,,,,,,,,,070119_p1,001,2019_Jul_01_1052,body_behavioural,3.0.4,59.998802913488205,
2,We would see how the company does and then invest the other half.” ,2,2,None,,,,,,0,2,2,2,,,,,0,14,14,14,,,,,,,,,,,,,,,,,,,,,,,,,,,,,,,,,,,1,5.336658752989024,,,,,,,,,,,,,,,,,,,,,,,,,,,,070119_p1,001,2019_Jul_01_1052,body_behavioural,3.0.4,59.998802913488205,
2,"The professor said, “The senate had conferred upon him the title of Augustus, the sacred and revered one, the restorer of traditional values, the city’s new religious leader, the restorer of temples. ",3,2,None,,,,,,0,2,2,2,,,,,0,15,15,15,,,,,,,,,,,,,,,,,,,,,,,,,,,,,,,,,,,1,14.451798378955573,,,,,,,,,,,,,,,,,,,,,,,,,,,,070119_p1,001,2019_Jul_01_1052,body_behavioural,3.0.4,59.998802913488205,
2,"Augustus also sought to beautify Rome, make it into a new Athens, and dispel the criticisms of Rome as disorganized and ugly.”",3,2,None,,,,,,0,2,2,2,,,,,0,16,16,16,,,,,,,,,,,,,,,,,,,,,,,,,,,,,,,,,,,1,10.42052818700904,,,,,,,,,,,,,,,,,,,,,,,,,,,,070119_p1,001,2019_Jul_01_1052,body_behavioural,3.0.4,59.998802913488205,
2,"Alma turned to Charlie and offered her rebuttal, “I don’t know about that.",3,3,None,,,,,,0,2,2,2,,,,,0,17,17,17,,,,,,,,,,,,,,,,,,,,,,,,,,,,,,,,,,,1,5.503370705002453,,,,,,,,,,,,,,,,,,,,,,,,,,,,070119_p1,001,2019_Jul_01_1052,body_behavioural,3.0.4,59.998802913488205,
2,It’s not going to be possible to implement our ideas effectively unless the project is fully funded. ,3,3,None,,,,,,0,2,2,2,,,,,0,18,18,18,,,,,,,,,,,,,,,,,,,,,,,,,,,,,,,,,,,1,5.536565591988619,,,,,,,,,,,,,,,,,,,,,,,,,,,,070119_p1,001,2019_Jul_01_1052,body_behavioural,3.0.4,59.998802913488205,
2,"We would have to find other investors like your competitor on campus, Churchill Capital Group, and that would set us back in our timeline. ",3,3,None,,,,,,0,2,2,2,,,,,0,19,19,19,,,,,,,,,,,,,,,,,,,,,,,,,,,,,,,,,,,1,14.421030829951633,,,,,,,,,,,,,,,,,,,,,,,,,,,,070119_p1,001,2019_Jul_01_1052,body_behavioural,3.0.4,59.998802913488205,
2,"Our profit projections assumed we'd be starting relatively soon, not months down the line.” ",3,3,None,,,,,,0,2,2,2,,,,,0,20,20,20,,,,,,,,,,,,,,,,,,,,,,,,,,,,,,,,,,,1,13.904460625024512,,,,,,,,,,,,,,,,,,,,,,,,,,,,070119_p1,001,2019_Jul_01_1052,body_behavioural,3.0.4,59.998802913488205,
2,They whispered back and forth during the entire class working out a compromise. ,3,3,None,,,,,,0,2,2,2,,,,,0,21,21,21,,,,,,,,,,,,,,,,,,,,,,,,,,,,,,,,,,,1,7.786759724025615,,,,,,,,,,,,,,,,,,,,,,,,,,,,070119_p1,001,2019_Jul_01_1052,body_behavioural,3.0.4,59.998802913488205,
2,The professor dismissed the students with a reminder that the midterm paper was due on Thursday and that they should email their papers to the TA.,4,3,None,,,,,,0,2,2,2,,,,,0,22,22,22,,,,,,,,,,,,,,,,,,,,,,,,,,,,,,,,,,,1,13.97015588299837,,,,,,,,,,,,,,,,,,,,,,,,,,,,070119_p1,001,2019_Jul_01_1052,body_behavioural,3.0.4,59.998802913488205,
2,"Everyone, except Charlie and Alma, packed up their things and headed out of the lecture hall. ",4,3,None,,,,,,0,2,2,2,,,,,0,23,23,23,,,,,,,,,,,,,,,,,,,,,,,,,,,,,,,,,,,1,5.03680144296959,,,,,,,,,,,,,,,,,,,,,,,,,,,,070119_p1,001,2019_Jul_01_1052,body_behavioural,3.0.4,59.998802913488205,
2,"“Alright, so we’ll have the $30,000 wired to you by tomorrow,” Charlie said. ",4,4,None,,,,,,0,2,2,2,,,,,0,24,24,24,,,,,,,,,,,,,,,,,,,,,,,,,,,,,,,,,,,1,6.519638710014988,,,,,,,,,,,,,,,,,,,,,,,,,,,,070119_p1,001,2019_Jul_01_1052,body_behavioural,3.0.4,59.998802913488205,
2,"This wasn't ideal for Charlie, but Alma had refused to budge, and his investment group had told him they were willing to pay the full amount if necessary. ",4,4,None,,,,,,0,2,2,2,,,,,0,25,25,25,,,,,,,,,,,,,,,,,,,,,,,,,,,,,,,,,,,9,22.521177052985877,,,,,,,,,,,,,,,,,,,,,,,,,,,,070119_p1,001,2019_Jul_01_1052,body_behavioural,3.0.4,59.998802913488205,
2,They got up and hugged in confirmation of the deal and made plans to sign the official paperwork the next day. ,4,4,None,,,,,,0,2,2,2,,,,,0,26,26,26,,,,,,,,,,,,,,,,,,,,,,,,,,,,,,,,,,,1,5.2035940299974754,,,,,,,,,,,,,,,,,,,,,,,,,,,,070119_p1,001,2019_Jul_01_1052,body_behavioural,3.0.4,59.998802913488205,
2,,,,,,,,,,0,2,2,2,,,,,,,,,,,,,,,,,,,,,,,,,,,,,,,,,,,,,,,,,,,,,,,,,,,,,,,,,,,,,,,,,,,,,,,,070119_p1,001,2019_Jul_01_1052,body_behavioural,3.0.4,59.998802913488205,
3,,,,,,,,,,0,3,3,3,0,0,0,0,,,,,,,,,,,,,,,,,,,,,,,,,,,,,space,1.03669975703815,space,3.3698097600135952,space,1.0029921669629402,,,,,,,,,,,,,,,,,,,,,,,,,,,,,,,,,,070119_p1,001,2019_Jul_01_1052,body_behavioural,3.0.4,59.998802913488205,
3,"Sven and Isabel walked hurriedly from the cab into the Barcelona Airport after an incredible week with Isabel’s family, and this had wiped away any doubts Sven had had about his decision to propose. ",1,1,22.0,,,,,,0,3,3,3,,,,,0,0,0,0,,,,,,,,,,,,,,,,,,,,,,,,,,,,,,,space,1.119755539984908,space,1.5532016329816543,9,24.67123564396752,,,,,,,,,,,,,,,,,,,,,,,,,,,,070119_p1,001,2019_Jul_01_1052,body_behavioural,3.0.4,59.998802913488205,
3,They had only been dating for 11 months and this had been the first time he had met her family. ,1,1,None,,,,,,0,3,3,3,,,,,0,1,1,1,,,,,,,,,,,,,,,,,,,,,,,,,,,,,,,,,,,1,10.269789200974628,,,,,,,,,,,,,,,,,,,,,,,,,,,,070119_p1,001,2019_Jul_01_1052,body_behavioural,3.0.4,59.998802913488205,
3,"They were pressed for time at the airport with only an hour and 15 minutes until their flight would take off to go back to the US, but they already had their online boarding passes and were without checked luggage. ",1,1,None,,,,,,0,3,3,3,,,,,0,2,2,2,,,,,,,,,,,,,,,,,,,,,,,,,,,,,,,,,,,9,19.771019987994805,,,,,,,,,,,,,,,,,,,,,,,,,,,,070119_p1,001,2019_Jul_01_1052,body_behavioural,3.0.4,59.998802913488205,
3,"Isabel stopped to rummage through her purse to look for her phone, and, meanwhile, Sven turned his back to her and took the velvet box out of his backpack, opening it to look at the ring he had bought her.",1,2,None,,,,,,0,3,3,3,,,,,0,3,3,3,,,,,,,,,,,,,,,,,,,,,,,,,,,,,,,,,,,1,11.518019854964223,,,,,,,,,,,,,,,,,,,,,,,,,,,,070119_p1,001,2019_Jul_01_1052,body_behavioural,3.0.4,59.998802913488205,
3,"He had received her parents’ blessing during the trip, and he was almost giddy with excitement. ",1,2,None,,,,,,0,3,3,3,,,,,0,4,4,4,,,,,,,,,,,,,,,,,,,,,,,,,,,,,,,,,,,1,7.604024170024786,,,,,,,,,,,,,,,,,,,,,,,,,,,,070119_p1,001,2019_Jul_01_1052,body_behavioural,3.0.4,59.998802913488205,
3,He tilted the ring backward and forward for a careful examination despite having already studied the ring daily since purchasing it a few weeks ago. ,1,2,None,,,,,,0,3,3,3,,,,,0,5,5,5,,,,,,,,,,,,,,,,,,,,,,,,,,,,,,,,,,,1,13.536962801998015,,,,,,,,,,,,,,,,,,,,,,,,,,,,070119_p1,001,2019_Jul_01_1052,body_behavioural,3.0.4,59.998802913488205,
3,It was a simple design: two pink diamonds on a silver band.,1,2,None,,,,,,0,3,3,3,,,,,0,6,6,6,,,,,,,,,,,,,,,,,,,,,,,,,,,,,,,,,,,1,8.553646319021937,,,,,,,,,,,,,,,,,,,,,,,,,,,,070119_p1,001,2019_Jul_01_1052,body_behavioural,3.0.4,59.998802913488205,
3,"“Sven, I’m ready,” Isabel said. ",1,2,None,,,,,,0,3,3,3,,,,,0,7,7,7,,,,,,,,,,,,,,,,,,,,,,,,,,,,,,,,,,,1,2.0039357260102406,,,,,,,,,,,,,,,,,,,,,,,,,,,,070119_p1,001,2019_Jul_01_1052,body_behavioural,3.0.4,59.998802913488205,
3,Sven closed the box and discretely put it in his pocket.,1,2,None,,,,,,0,3,3,3,,,,,0,8,8,8,,,,,,,,,,,,,,,,,,,,,,,,,,,,,,,,,,,1,2.7874191789887846,,,,,,,,,,,,,,,,,,,,,,,,,,,,070119_p1,001,2019_Jul_01_1052,body_behavioural,3.0.4,59.998802913488205,
3,"They entered the security line, weaving through the roped walkways to the front. ",2,2,None,,,,,,0,3,3,3,,,,,0,9,9,9,,,,,,,,,,,,,,,,,,,,,,,,,,,,,,,,,,,1,7.9846255159936845,,,,,,,,,,,,,,,,,,,,,,,,,,,,070119_p1,001,2019_Jul_01_1052,body_behavioural,3.0.4,59.998802913488205,
3,"When it was their turn to deposit their things onto the belt, Isabel realized her laptop was buried somewhere in her duffle bag. ",2,2,None,,,,,,0,3,3,3,,,,,0,10,10,10,,,,,,,,,,,,,,,,,,,,,,,,,,,,,,,,,,,1,5.135890437988564,,,,,,,,,,,,,,,,,,,,,,,,,,,,070119_p1,001,2019_Jul_01_1052,body_behavioural,3.0.4,59.998802913488205,
3,"Luckily, at the same time, there was a stall in the line because someone ahead of them had a suspicious amount of metal pieces on his person. ",2,2,None,,,,,,0,3,3,3,,,,,0,11,11,11,,,,,,,,,,,,,,,,,,,,,,,,,,,,,,,,,,,1,5.266872095002327,,,,,,,,,,,,,,,,,,,,,,,,,,,,070119_p1,001,2019_Jul_01_1052,body_behavioural,3.0.4,59.998802913488205,
3,Sven had to hold the growing mound of objects Isabel pulled from her bag until she unearthed the laptop and set it in a bin.,2,2,None,,,,,,0,3,3,3,,,,,0,12,12,12,,,,,,,,,,,,,,,,,,,,,,,,,,,,,,,,,,,1,8.050817621988244,,,,,,,,,,,,,,,,,,,,,,,,,,,,070119_p1,001,2019_Jul_01_1052,body_behavioural,3.0.4,59.998802913488205,
3,"She then gave her bag to Sven, unstrapped her heels, and took the bag back from Sven.",2,2,None,,,,,,0,3,3,3,,,,,0,13,13,13,,,,,,,,,,,,,,,,,,,,,,,,,,,,,,,,,,,1,11.153781131957658,,,,,,,,,,,,,,,,,,,,,,,,,,,,070119_p1,001,2019_Jul_01_1052,body_behavioural,3.0.4,59.998802913488205,
3,"Sven, relieved of his holding duties, hurriedly deposited his own backpack on the belt, and took off his shoes. ",2,2,None,,,,,,0,3,3,3,,,,,0,14,14,14,,,,,,,,,,,,,,,,,,,,,,,,,,,,,,,,,,,1,5.286535504972562,,,,,,,,,,,,,,,,,,,,,,,,,,,,070119_p1,001,2019_Jul_01_1052,body_behavioural,3.0.4,59.998802913488205,
3,"Sven went into the millimeter wave scanner after Isabel, put his hands up, and looked at Isabel as the metal bars whirled around him.",2,2,None,,,,,,0,3,3,3,,,,,0,15,15,15,,,,,,,,,,,,,,,,,,,,,,,,,,,,,,,,,,,1,16.3377143900143,,,,,,,,,,,,,,,,,,,,,,,,,,,,070119_p1,001,2019_Jul_01_1052,body_behavioural,3.0.4,59.998802913488205,
3,The security guard asked Sven to wait. ,2,2,None,,,,,,0,3,3,3,,,,,0,16,16,16,,,,,,,,,,,,,,,,,,,,,,,,,,,,,,,,,,,1,1.6535014500259422,,,,,,,,,,,,,,,,,,,,,,,,,,,,070119_p1,001,2019_Jul_01_1052,body_behavioural,3.0.4,59.998802913488205,
3,"After looking at the monitor, the security guard said, “Sir, please empty your pockets,”.",2,2,None,,,,,,0,3,3,3,,,,,0,17,17,17,,,,,,,,,,,,,,,,,,,,,,,,,,,,,,,,,,,1,3.153758177009877,,,,,,,,,,,,,,,,,,,,,,,,,,,,070119_p1,001,2019_Jul_01_1052,body_behavioural,3.0.4,59.998802913488205,
3,"Isabel, shoeless and wrinkling her eyebrows at Sven, looked at him expectantly.",2,2,None,,,,,,0,3,3,3,,,,,0,18,18,18,,,,,,,,,,,,,,,,,,,,,,,,,,,,,,,,,,,1,2.869963210017886,,,,,,,,,,,,,,,,,,,,,,,,,,,,070119_p1,001,2019_Jul_01_1052,body_behavioural,3.0.4,59.998802913488205,
3,"Realizing that he had forgotten the ring in his pocket, he grabbed Isabel’s hand, got down on one knee, and opening the velvet box, said, “Isabel, this isn't quite how I'd planned this, but - will you marry me?”",2,3,None,,,,,,0,3,3,3,,,,,0,19,19,19,,,,,,,,,,,,,,,,,,,,,,,,,,,,,,,,,,,1,8.853631911973935,,,,,,,,,,,,,,,,,,,,,,,,,,,,070119_p1,001,2019_Jul_01_1052,body_behavioural,3.0.4,59.998802913488205,
3,He held the ring up to her. ,2,3,None,,,,,,0,3,3,3,,,,,0,20,20,20,,,,,,,,,,,,,,,,,,,,,,,,,,,,,,,,,,,1,1.4710312890238129,,,,,,,,,,,,,,,,,,,,,,,,,,,,070119_p1,001,2019_Jul_01_1052,body_behavioural,3.0.4,59.998802913488205,
3,The security guard stood shocked.,2,3,None,,,,,,0,3,3,3,,,,,0,21,21,21,,,,,,,,,,,,,,,,,,,,,,,,,,,,,,,,,,,1,1.603159557969775,,,,,,,,,,,,,,,,,,,,,,,,,,,,070119_p1,001,2019_Jul_01_1052,body_behavioural,3.0.4,59.998802913488205,
3,All the people who were putting their shoes back on and gathering their belongings stopped and walked closer to the couple.,2,3,None,,,,,,0,3,3,3,,,,,0,22,22,22,,,,,,,,,,,,,,,,,,,,,,,,,,,,,,,,,,,1,5.103183021012228,,,,,,,,,,,,,,,,,,,,,,,,,,,,070119_p1,001,2019_Jul_01_1052,body_behavioural,3.0.4,59.998802913488205,
3,Isabel didn’t know what to do since she was far too shy to respond in front of all the people around.,2,3,None,,,,,,0,3,3,3,,,,,0,23,23,23,,,,,,,,,,,,,,,,,,,,,,,,,,,,,,,,,,,1,12.85410076304106,,,,,,,,,,,,,,,,,,,,,,,,,,,,070119_p1,001,2019_Jul_01_1052,body_behavioural,3.0.4,59.998802913488205,
3,"Without responding to Sven, she frantically grabbed her and Sven’s shoes, leaving Sven to retrieve the rest, and she quickly walked onto the concourse.",3,3,None,,,,,,0,3,3,3,,,,,0,24,24,24,,,,,,,,,,,,,,,,,,,,,,,,,,,,,,,,,,,1,5.8534108370076865,,,,,,,,,,,,,,,,,,,,,,,,,,,,070119_p1,001,2019_Jul_01_1052,body_behavioural,3.0.4,59.998802913488205,
3,"Sven, terrified, grabbed everything and hurried after Isabel onto the concourse shoeless.",3,3,None,,,,,,0,3,3,3,,,,,0,25,25,25,,,,,,,,,,,,,,,,,,,,,,,,,,,,,,,,,,,1,3.3201243699877523,,,,,,,,,,,,,,,,,,,,,,,,,,,,070119_p1,001,2019_Jul_01_1052,body_behavioural,3.0.4,59.998802913488205,
3,Sven eventually caught up to her with their bags and the open ring box.,3,3,None,,,,,,0,3,3,3,,,,,0,26,26,26,,,,,,,,,,,,,,,,,,,,,,,,,,,,,,,,,,,1,4.987102600047365,,,,,,,,,,,,,,,,,,,,,,,,,,,,070119_p1,001,2019_Jul_01_1052,body_behavioural,3.0.4,59.998802913488205,
3,"She stopped and with wide, excited eyes, shouted, “Of course yes, Sven!” ",3,4,None,,,,,,0,3,3,3,,,,,0,27,27,27,,,,,,,,,,,,,,,,,,,,,,,,,,,,,,,,,,,1,14.103989472030662,,,,,,,,,,,,,,,,,,,,,,,,,,,,070119_p1,001,2019_Jul_01_1052,body_behavioural,3.0.4,59.998802913488205,
3,"They dropped their belongings and hugged, and Sven put the ring onto Isabel’s finger. ",3,4,None,,,,,,0,3,3,3,,,,,0,28,28,28,,,,,,,,,,,,,,,,,,,,,,,,,,,,,,,,,,,1,10.90372619999107,,,,,,,,,,,,,,,,,,,,,,,,,,,,070119_p1,001,2019_Jul_01_1052,body_behavioural,3.0.4,59.998802913488205,
3,"“Isabel, you scared me!” he said. ",3,4,None,,,,,,0,3,3,3,,,,,0,29,29,29,,,,,,,,,,,,,,,,,,,,,,,,,,,,,,,,,,,1,2.969976607011631,,,,,,,,,,,,,,,,,,,,,,,,,,,,070119_p1,001,2019_Jul_01_1052,body_behavioural,3.0.4,59.998802913488205,
3,"After getting their shoes back on, they practically floated to gate C40.",3,4,None,,,,,,0,3,3,3,,,,,0,30,30,30,,,,,,,,,,,,,,,,,,,,,,,,,,,,,,,,,,,1,6.186312345031183,,,,,,,,,,,,,,,,,,,,,,,,,,,,070119_p1,001,2019_Jul_01_1052,body_behavioural,3.0.4,59.998802913488205,
3,Sven was so happy he even high-fived a confused shoe-shine attendant as they passed.,3,4,None,,,,,,0,3,3,3,,,,,0,31,31,31,,,,,,,,,,,,,,,,,,,,,,,,,,,,,,,,,,,1,7.103539806965273,,,,,,,,,,,,,,,,,,,,,,,,,,,,070119_p1,001,2019_Jul_01_1052,body_behavioural,3.0.4,59.998802913488205,
3,Isabel texted her best friend telling her the news as they walked. ,3,4,None,,,,,,0,3,3,3,,,,,0,32,32,32,,,,,,,,,,,,,,,,,,,,,,,,,,,,,,,,,,,1,6.887000497023109,,,,,,,,,,,,,,,,,,,,,,,,,,,,070119_p1,001,2019_Jul_01_1052,body_behavioural,3.0.4,59.998802913488205,
3,"Having arrived at their gate, they waited, until the attendant called for passengers, and they scanned their tickets to board the plane.",4,4,None,,,,,,0,3,3,3,,,,,0,33,33,33,,,,,,,,,,,,,,,,,,,,,,,,,,,,,,,,,,,1,7.770259975048248,,,,,,,,,,,,,,,,,,,,,,,,,,,,070119_p1,001,2019_Jul_01_1052,body_behavioural,3.0.4,59.998802913488205,
3,"They walked through the connecting tunnel to the plane and sat together in first class, in seats 2A and 2B.",4,4,None,,,,,,0,3,3,3,,,,,0,34,34,34,,,,,,,,,,,,,,,,,,,,,,,,,,,,,,,,,,,1,3.319940723013133,,,,,,,,,,,,,,,,,,,,,,,,,,,,070119_p1,001,2019_Jul_01_1052,body_behavioural,3.0.4,59.998802913488205,
3,"Some of their neighboring passengers who had witnessed the proposal at security congratulated them, and a woman next to them showed them that she had been live-tweeting the whole event and that it was already going viral online.",4,4,None,,,,,,0,3,3,3,,,,,0,35,35,35,,,,,,,,,,,,,,,,,,,,,,,,,,,,,,,,,,,1,28.93833795201499,,,,,,,,,,,,,,,,,,,,,,,,,,,,070119_p1,001,2019_Jul_01_1052,body_behavioural,3.0.4,59.998802913488205,
3,"Isabel slid down in her seat with her hands over her face, embarrassed and overjoyed at the same time.
",4,4,None,,,,,,0,3,3,3,,,,,0,36,36,36,,,,,,,,,,,,,,,,,,,,,,,,,,,,,,,,,,,1,4.335970128013287,,,,,,,,,,,,,,,,,,,,,,,,,,,,070119_p1,001,2019_Jul_01_1052,body_behavioural,3.0.4,59.998802913488205,
3,,,,,,,,,,0,3,3,3,,,,,,,,,,,,,,,,,,,,,,,,,,,,,,,,,,,,,,,,,,,,,,,,,,,,,,,,,,,,,,,,,,,,,,,,070119_p1,001,2019_Jul_01_1052,body_behavioural,3.0.4,59.998802913488205,
4,,,,,,,,,,0,4,4,4,0,0,0,0,,,,,,,,,,,,,,,,,,,,,,,,,,,,,space,0.9856882650055923,space,0.9837062750011683,space,2.6863756380043924,,,,,,,,,,,,,,,,,,,,,,,,,,,,,,,,,,070119_p1,001,2019_Jul_01_1052,body_behavioural,3.0.4,59.998802913488205,
4,"Carina and Simon, both distracted in thought, nearly ran into each other as they walked into the grocery store. ",1,1,43.0,,,,,,0,4,4,4,,,,,0,0,0,0,,,,,,,,,,,,,,,,,,,,,,,,,,,,,,,space,0.9860962210223079,space,1.2534488700330257,9,19.737707898020744,,,,,,,,,,,,,,,,,,,,,,,,,,,,070119_p1,001,2019_Jul_01_1052,body_behavioural,3.0.4,59.998802913488205,
4,She almost dropped the keys she was holding. ,1,1,None,,,,,,0,4,4,4,,,,,0,1,1,1,,,,,,,,,,,,,,,,,,,,,,,,,,,,,,,,,,,1,2.168038225034252,,,,,,,,,,,,,,,,,,,,,,,,,,,,070119_p1,001,2019_Jul_01_1052,body_behavioural,3.0.4,59.998802913488205,
4,"The store they had entered looked like a warehouse, with high, black ceilings, industrial lights, and large packages of food. ",1,1,None,,,,,,0,4,4,4,,,,,0,2,2,2,,,,,,,,,,,,,,,,,,,,,,,,,,,,,,,,,,,1,4.887221293000039,,,,,,,,,,,,,,,,,,,,,,,,,,,,070119_p1,001,2019_Jul_01_1052,body_behavioural,3.0.4,59.998802913488205,
4,"In the meat section, Carina and Simon were looking over the same cuts of meat, because they were both preparing for barbecues.",2,1,None,,,,,,0,4,4,4,,,,,0,3,3,3,,,,,,,,,,,,,,,,,,,,,,,,,,,,,,,,,,,1,19.588578695023898,,,,,,,,,,,,,,,,,,,,,,,,,,,,070119_p1,001,2019_Jul_01_1052,body_behavioural,3.0.4,59.998802913488205,
4,"Simon had wanted to talk to Carina, and Carina had wanted to say something to Simon, but they felt embarrassed striking up a conversation with a stranger.",2,1,None,,,,,,0,4,4,4,,,,,0,4,4,4,,,,,,,,,,,,,,,,,,,,,,,,,,,,,,,,,,,1,10.937817285011988,,,,,,,,,,,,,,,,,,,,,,,,,,,,070119_p1,001,2019_Jul_01_1052,body_behavioural,3.0.4,59.998802913488205,
4,"Carina mustered the courage, turned to Simon and, pointing at a Cornish hen, asked, “Isn’t this meat cute?”",2,2,None,,,,,,0,4,4,4,,,,,0,5,5,5,,,,,,,,,,,,,,,,,,,,,,,,,,,,,,,,,,,1,13.087845545029268,,,,,,,,,,,,,,,,,,,,,,,,,,,,070119_p1,001,2019_Jul_01_1052,body_behavioural,3.0.4,59.998802913488205,
4,"He laughed, and said, “It is very cute.",2,2,None,,,,,,0,4,4,4,,,,,0,6,6,6,,,,,,,,,,,,,,,,,,,,,,,,,,,,,,,,,,,1,1.7357666929601692,,,,,,,,,,,,,,,,,,,,,,,,,,,,070119_p1,001,2019_Jul_01_1052,body_behavioural,3.0.4,59.998802913488205,
4,"Probably the younger brother of this guy,” and he picked up a regular-sized chicken.",2,2,None,,,,,,0,4,4,4,,,,,0,7,7,7,,,,,,,,,,,,,,,,,,,,,,,,,,,,,,,,,,,1,3.0196501780301332,,,,,,,,,,,,,,,,,,,,,,,,,,,,070119_p1,001,2019_Jul_01_1052,body_behavioural,3.0.4,59.998802913488205,
4,"“Unlucky family,” she responded as she shook her head. ",2,2,None,,,,,,0,4,4,4,,,,,0,8,8,8,,,,,,,,,,,,,,,,,,,,,,,,,,,,,,,,,,,1,3.920066680002492,,,,,,,,,,,,,,,,,,,,,,,,,,,,070119_p1,001,2019_Jul_01_1052,body_behavioural,3.0.4,59.998802913488205,
4,They chatted as they picked out a few last-minute groceries.,2,2,None,,,,,,0,4,4,4,,,,,0,9,9,9,,,,,,,,,,,,,,,,,,,,,,,,,,,,,,,,,,,1,2.753173430042807,,,,,,,,,,,,,,,,,,,,,,,,,,,,070119_p1,001,2019_Jul_01_1052,body_behavioural,3.0.4,59.998802913488205,
4,"Simon helped Carina select the best ribs and his personal favorite barbecue sauce, and she helped him choose red peppers and spices for a vegetable kabob she recommended.",2,2,None,,,,,,0,4,4,4,,,,,0,10,10,10,,,,,,,,,,,,,,,,,,,,,,,,,,,,,,,,,,,1,9.369728696008679,,,,,,,,,,,,,,,,,,,,,,,,,,,,070119_p1,001,2019_Jul_01_1052,body_behavioural,3.0.4,59.998802913488205,
4,"In the checkout area, there were three lines open, and they went to the one labeled “8.”",3,2,None,,,,,,0,4,4,4,,,,,0,11,11,11,,,,,,,,,,,,,,,,,,,,,,,,,,,,,,,,,,,1,7.284446906996891,,,,,,,,,,,,,,,,,,,,,,,,,,,,070119_p1,001,2019_Jul_01_1052,body_behavioural,3.0.4,59.998802913488205,
4,"Carina and Simon made jokes about the magazine covers while waiting in line, and they were laughing so hard their stomachs hurt. ",3,2,None,,,,,,0,4,4,4,,,,,0,12,12,12,,,,,,,,,,,,,,,,,,,,,,,,,,,,,,,,,,,1,10.904112992982846,,,,,,,,,,,,,,,,,,,,,,,,,,,,070119_p1,001,2019_Jul_01_1052,body_behavioural,3.0.4,59.998802913488205,
4,"Simon turned to face Carina and, while looking at her straight in the eyes, asked, “Would you like to go out to dinner with me?",3,3,None,,,,,,0,4,4,4,,,,,0,13,13,13,,,,,,,,,,,,,,,,,,,,,,,,,,,,,,,,,,,1,7.086317419016268,,,,,,,,,,,,,,,,,,,,,,,,,,,,070119_p1,001,2019_Jul_01_1052,body_behavioural,3.0.4,59.998802913488205,
4,Next Saturday we could tour around Harvard Square and get something to eat.,3,3,None,,,,,,0,4,4,4,,,,,0,14,14,14,,,,,,,,,,,,,,,,,,,,,,,,,,,,,,,,,,,1,14.735015359998215,,,,,,,,,,,,,,,,,,,,,,,,,,,,070119_p1,001,2019_Jul_01_1052,body_behavioural,3.0.4,59.998802913488205,
4,"There are a lot of great places around there, and it’s really nice during the summer.”",3,3,None,,,,,,0,4,4,4,,,,,0,15,15,15,,,,,,,,,,,,,,,,,,,,,,,,,,,,,,,,,,,1,9.37040330999298,,,,,,,,,,,,,,,,,,,,,,,,,,,,070119_p1,001,2019_Jul_01_1052,body_behavioural,3.0.4,59.998802913488205,
4,"Carina smiled, “I’d love to.",3,3,None,,,,,,0,4,4,4,,,,,0,16,16,16,,,,,,,,,,,,,,,,,,,,,,,,,,,,,,,,,,,1,1.336302865005564,,,,,,,,,,,,,,,,,,,,,,,,,,,,070119_p1,001,2019_Jul_01_1052,body_behavioural,3.0.4,59.998802913488205,
4,That sounds great!”,3,3,None,,,,,,0,4,4,4,,,,,0,17,17,17,,,,,,,,,,,,,,,,,,,,,,,,,,,,,,,,,,,1,1.269710126973223,,,,,,,,,,,,,,,,,,,,,,,,,,,,070119_p1,001,2019_Jul_01_1052,body_behavioural,3.0.4,59.998802913488205,
4,The cashier scanned Carina’s groceries.,4,3,None,,,,,,0,4,4,4,,,,,0,18,18,18,,,,,,,,,,,,,,,,,,,,,,,,,,,,,,,,,,,1,3.070112693007104,,,,,,,,,,,,,,,,,,,,,,,,,,,,070119_p1,001,2019_Jul_01_1052,body_behavioural,3.0.4,59.998802913488205,
4,"Simon lifted up the divider on the conveyor belt and said to the cashier, “Actually, these are together.",4,3,None,,,,,,0,4,4,4,,,,,0,19,19,19,,,,,,,,,,,,,,,,,,,,,,,,,,,,,,,,,,,1,5.901115149958059,,,,,,,,,,,,,,,,,,,,,,,,,,,,070119_p1,001,2019_Jul_01_1052,body_behavioural,3.0.4,59.998802913488205,
4,"Carina, I’ve got it.",4,3,None,,,,,,0,4,4,4,,,,,0,20,20,20,,,,,,,,,,,,,,,,,,,,,,,,,,,,,,,,,,,1,1.3695441659656353,,,,,,,,,,,,,,,,,,,,,,,,,,,,070119_p1,001,2019_Jul_01_1052,body_behavioural,3.0.4,59.998802913488205,
4,This was kind-of a date today.”,4,3,None,,,,,,0,4,4,4,,,,,0,21,21,21,,,,,,,,,,,,,,,,,,,,,,,,,,,,,,,,,,,1,3.3027114190044813,,,,,,,,,,,,,,,,,,,,,,,,,,,,070119_p1,001,2019_Jul_01_1052,body_behavioural,3.0.4,59.998802913488205,
4,Carina blushed and laughed; she thought this was ridiculous but also very sweet. ,4,3,None,,,,,,0,4,4,4,,,,,0,22,22,22,,,,,,,,,,,,,,,,,,,,,,,,,,,,,,,,,,,1,22.004756426031236,,,,,,,,,,,,,,,,,,,,,,,,,,,,070119_p1,001,2019_Jul_01_1052,body_behavioural,3.0.4,59.998802913488205,
4,"The cashier rolled her eyes when they weren’t looking, and she scanned the rest of his items. ",4,3,None,,,,,,0,4,4,4,,,,,0,23,23,23,,,,,,,,,,,,,,,,,,,,,,,,,,,,,,,,,,,1,5.567832110042218,,,,,,,,,,,,,,,,,,,,,,,,,,,,070119_p1,001,2019_Jul_01_1052,body_behavioural,3.0.4,59.998802913488205,
4,"The total came to $52, and he paid with his credit card.",4,3,None,,,,,,0,4,4,4,,,,,0,24,24,24,,,,,,,,,,,,,,,,,,,,,,,,,,,,,,,,,,,1,3.1200084049487486,,,,,,,,,,,,,,,,,,,,,,,,,,,,070119_p1,001,2019_Jul_01_1052,body_behavioural,3.0.4,59.998802913488205,
4,"Seeing that it was 4:30 PM on her phone, Carina gasped because she realized she was late for her own barbecue. ",4,4,None,,,,,,0,4,4,4,,,,,0,25,25,25,,,,,,,,,,,,,,,,,,,,,,,,,,,,,,,,,,,1,12.385215227957815,,,,,,,,,,,,,,,,,,,,,,,,,,,,070119_p1,001,2019_Jul_01_1052,body_behavioural,3.0.4,59.998802913488205,
4,Carina thanked Simon and took her groceries and ran. ,4,4,None,,,,,,0,4,4,4,,,,,0,26,26,26,,,,,,,,,,,,,,,,,,,,,,,,,,,,,,,,,,,1,4.052295280969702,,,,,,,,,,,,,,,,,,,,,,,,,,,,070119_p1,001,2019_Jul_01_1052,body_behavioural,3.0.4,59.998802913488205,
4,"“I hope her guests aren’t hungry,” the cashier remarked.",4,4,None,,,,,,0,4,4,4,,,,,0,27,27,27,,,,,,,,,,,,,,,,,,,,,,,,,,,,,,,,,,,1,5.235957613040227,,,,,,,,,,,,,,,,,,,,,,,,,,,,070119_p1,001,2019_Jul_01_1052,body_behavioural,3.0.4,59.998802913488205,
4,Simon was thoroughly charmed and barely heard the comment as he watched her go. ,4,4,None,,,,,,0,4,4,4,,,,,0,28,28,28,,,,,,,,,,,,,,,,,,,,,,,,,,,,,,,,,,,1,15.654031897021923,,,,,,,,,,,,,,,,,,,,,,,,,,,,070119_p1,001,2019_Jul_01_1052,body_behavioural,3.0.4,59.998802913488205,
4,,,,,,,,,,0,4,4,4,,,,,,,,,,,,,,,,,,,,,,,,,,,,,,,,,,,,,,,,,,,,,,,,,,,,,,,,,,,,,,,,,,,,,,,,070119_p1,001,2019_Jul_01_1052,body_behavioural,3.0.4,59.998802913488205,
5,,,,,,,,,,0,5,5,5,0,0,0,0,,,,,,,,,,,,,,,,,,,,,,,,,,,,,space,2.6704120750073344,space,0.9030394169967622,space,2.2028120969771408,,,,,,,,,,,,,,,,,,,,,,,,,,,,,,,,,,070119_p1,001,2019_Jul_01_1052,body_behavioural,3.0.4,59.998802913488205,
5,"Thomas, dreading the approaching breakup conversation he was about to start, got to Annika’s Finer Diner late but Sadie, his girlfriend, was not there yet.",1,1,11.0,None,None,None,None,,0,5,5,5,,,,,0,0,0,0,,,,,,,,,,,,,,,,,,,,,,,,,,,,,,,space,1.4530654179980047,space,1.1030156899942085,9,27.402834170032293,,,,,,,,,,,,,,,,,,,,,,,,,,,,070119_p1,001,2019_Jul_01_1052,body_behavioural,3.0.4,59.998802913488205,
5,Thomas had been thinking about breaking up with her for 2 months now.,1,1,None,None,None,1.0,None,,0,5,5,5,,,,,0,1,1,1,,,,,,,,,,,,,,,,,,,,,,,,,,,,,,,,,,,1,11.887274551030714,,,,,,,,,,,,,,,,,,,,,,,,,,,,070119_p1,001,2019_Jul_01_1052,body_behavioural,3.0.4,59.998802913488205,
5,"The restaurant he had chosen to meet at was reminiscent of a diner from the 70’s with black and white checkerboard tiling on the floor, a long bar in the front, and booths and stools with red, leather upholstery. ",1,1,None,None,None,None,1.0,,0,5,5,5,,,,,0,2,2,2,,,,,,,,,,,,,,,,,,,,,,,,,,,,,,,,,,,1,12.304030057042837,,,,,,,,,,,,,,,,,,,,,,,,,,,,070119_p1,001,2019_Jul_01_1052,body_behavioural,3.0.4,59.998802913488205,
5,"A bell chimed as the door swung open, and Sadie entered to find Thomas ruminating at the bar.",1,1,None,None,None,None,None,,0,5,5,5,,,,,0,3,3,3,,,,,,,,,,,,,,,,,,,,,,,,,,,,,,,,,,,1,6.053070680005476,,,,,,,,,,,,,,,,,,,,,,,,,,,,070119_p1,001,2019_Jul_01_1052,body_behavioural,3.0.4,59.998802913488205,
5,"He stood up and gave her a side hug, asking quickly, “How was your day?”",1,1,None,None,None,None,None,,0,5,5,5,,,,,0,4,4,4,,,,,,,,,,,,,,,,,,,,,,,,,,,,,,,,,,,1,4.236031404987443,,,,,,,,,,,,,,,,,,,,,,,,,,,,070119_p1,001,2019_Jul_01_1052,body_behavioural,3.0.4,59.998802913488205,
5,"She clung onto him, “It was okay- I missed you today.”",1,1,None,None,None,None,None,,0,5,5,5,,,,,0,5,5,5,,,,,,,,,,,,,,,,,,,,,,,,,,,,,,,,,,,1,6.753779809980188,,,,,,,,,,,,,,,,,,,,,,,,,,,,070119_p1,001,2019_Jul_01_1052,body_behavioural,3.0.4,59.998802913488205,
5,"He looked away and addressed the hostess coming towards them, “Can we have a booth in the back?”",1,1,None,None,None,None,None,,0,5,5,5,,,,,0,6,6,6,,,,,,,,,,,,,,,,,,,,,,,,,,,,,,,,,,,1,6.7195844880188815,,,,,,,,,,,,,,,,,,,,,,,,,,,,070119_p1,001,2019_Jul_01_1052,body_behavioural,3.0.4,59.998802913488205,
5,"She shrugged and after loudly popping her bubblegum replied, “Sure, honey.”",1,1,None,9.0,None,None,None,,0,5,5,5,,,,,0,7,7,7,,,,,,,,,,,,,,,,,,,,,,,,,,,,,,,,,,,1,8.070682052988559,,,,,,,,,,,,,,,,,,,,,,,,,,,,070119_p1,001,2019_Jul_01_1052,body_behavioural,3.0.4,59.998802913488205,
5,She seated them at a booth in the back corner of the diner.  ,2,1,None,None,None,None,None,,0,5,5,5,,,,,0,8,8,8,,,,,,,,,,,,,,,,,,,,,,,,,,,,,,,,,,,1,9.437026979983784,,,,,,,,,,,,,,,,,,,,,,,,,,,,070119_p1,001,2019_Jul_01_1052,body_behavioural,3.0.4,59.998802913488205,
5,Sadie slipped into the cushioned seat and grabbed Thomas’ hand.,2,1,None,None,None,None,None,,0,5,5,5,,,,,0,9,9,9,,,,,,,,,,,,,,,,,,,,,,,,,,,,,,,,,,,1,3.0699169620056637,,,,,,,,,,,,,,,,,,,,,,,,,,,,070119_p1,001,2019_Jul_01_1052,body_behavioural,3.0.4,59.998802913488205,
5,“Tell me about your day!” she sang.,2,1,None,None,None,None,None,,0,5,5,5,,,,,0,10,10,10,,,,,,,,,,,,,,,,,,,,,,,,,,,,,,,,,,,1,1.4030664919991978,,,,,,,,,,,,,,,,,,,,,,,,,,,,070119_p1,001,2019_Jul_01_1052,body_behavioural,3.0.4,59.998802913488205,
5,He looked at her silently and pulled his hand slowly from hers as a puzzled look grew on Sadie’s face. ,2,1,None,None,None,None,None,,0,5,5,5,,,,,0,11,11,11,,,,,,,,,,,,,,,,,,,,,,,,,,,,,,,,,,,1,7.20343763002893,,,,,,,,,,,,,,,,,,,,,,,,,,,,070119_p1,001,2019_Jul_01_1052,body_behavioural,3.0.4,59.998802913488205,
5,Thomas looked away and took a deep breath. ,2,1,None,None,None,None,None,,0,5,5,5,,,,,0,12,12,12,,,,,,,,,,,,,,,,,,,,,,,,,,,,,,,,,,,1,1.9864814429893158,,,,,,,,,,,,,,,,,,,,,,,,,,,,070119_p1,001,2019_Jul_01_1052,body_behavioural,3.0.4,59.998802913488205,
5,"Sadie asked, “What’s wrong?” ",2,1,None,None,None,None,None,,0,5,5,5,,,,,0,13,13,13,,,,,,,,,,,,,,,,,,,,,,,,,,,,,,,,,,,1,1.8537459549843334,,,,,,,,,,,,,,,,,,,,,,,,,,,,070119_p1,001,2019_Jul_01_1052,body_behavioural,3.0.4,59.998802913488205,
5,Thomas picked at his fingernails.,2,1,None,None,22.0,None,None,,0,5,5,5,,,,,0,14,14,14,,,,,,,,,,,,,,,,,,,,,,,,,,,,,,,,,,,1,1.768911854014732,,,,,,,,,,,,,,,,,,,,,,,,,,,,070119_p1,001,2019_Jul_01_1052,body_behavioural,3.0.4,59.998802913488205,
5,"After a few moments, Thomas let out a deep breath and said, “Sadie, I’ve been thinking, and I need a break from this relationship because I need to figure out my career path on my own.”",2,2,None,None,None,None,None,,0,5,5,5,,,,,0,15,15,15,,,,,,,,,,,,,,,,,,,,,,,,,,,,,,,,,,,1,10.103371119999792,,,,,,,,,,,,,,,,,,,,,,,,,,,,070119_p1,001,2019_Jul_01_1052,body_behavioural,3.0.4,59.998802913488205,
5,Sadie sat back in her seat.,2,2,None,None,None,None,None,,0,5,5,5,,,,,0,16,16,16,,,,,,,,,,,,,,,,,,,,,,,,,,,,,,,,,,,1,1.786299142986536,,,,,,,,,,,,,,,,,,,,,,,,,,,,070119_p1,001,2019_Jul_01_1052,body_behavioural,3.0.4,59.998802913488205,
5,"Thomas continued, “Things have been really picking up at work, and I’m not sure that this is the job I want to do anymore.",2,2,None,None,None,None,None,,0,5,5,5,,,,,0,17,17,17,,,,,,,,,,,,,,,,,,,,,,,,,,,,,,,,,,,1,3.8860949290101416,,,,,,,,,,,,,,,,,,,,,,,,,,,,070119_p1,001,2019_Jul_01_1052,body_behavioural,3.0.4,59.998802913488205,
5,"Plus, it’s been really overwhelming between working and figuring out if I should change careers, and I really feel like I need more time to figure it out.” ",2,2,None,17.0,None,None,None,,0,5,5,5,,,,,0,18,18,18,,,,,,,,,,,,,,,,,,,,,,,,,,,,,,,,,,,1,12.10375304997433,,,,,,,,,,,,,,,,,,,,,,,,,,,,070119_p1,001,2019_Jul_01_1052,body_behavioural,3.0.4,59.998802913488205,
5,"The waiter appeared and cheerily asked, “Have you decided what you would like?”",3,2,None,None,None,None,None,,0,5,5,5,,,,,0,19,19,19,,,,,,,,,,,,,,,,,,,,,,,,,,,,,,,,,,,1,8.086182019964326,,,,,,,,,,,,,,,,,,,,,,,,,,,,070119_p1,001,2019_Jul_01_1052,body_behavioural,3.0.4,59.998802913488205,
5,"Thomas and Sadie realized there were menus on the table, and they glanced at them quickly.",3,2,None,None,None,None,None,,0,5,5,5,,,,,0,20,20,20,,,,,,,,,,,,,,,,,,,,,,,,,,,,,,,,,,,1,3.4027588550234213,,,,,,,,,,,,,,,,,,,,,,,,,,,,070119_p1,001,2019_Jul_01_1052,body_behavioural,3.0.4,59.998802913488205,
5,"The menus were laminated posters with silly names for all the foods, and since they didn’t want to read through each item description, they settled on familiar orders.",3,2,None,None,None,None,None,,0,5,5,5,,,,,0,21,21,21,,,,,,,,,,,,,,,,,,,,,,,,,,,,,,,,,,,1,7.903609473025426,,,,,,,,,,,,,,,,,,,,,,,,,,,,070119_p1,001,2019_Jul_01_1052,body_behavioural,3.0.4,59.998802913488205,
5,"“I’ll have a burger, no tomatoes,” Thomas said.",3,2,None,None,None,None,None,,0,5,5,5,,,,,0,22,22,22,,,,,,,,,,,,,,,,,,,,,,,,,,,,,,,,,,,1,3.2698286660015583,,,,,,,,,,,,,,,,,,,,,,,,,,,,070119_p1,001,2019_Jul_01_1052,body_behavioural,3.0.4,59.998802913488205,
5,"Sadie asked about the reuben, and the waiter told her it was excellent.",3,2,None,None,None,None,None,,0,5,5,5,,,,,0,23,23,23,,,,,,,,,,,,,,,,,,,,,,,,,,,,,,,,,,,1,4.503316177986562,,,,,,,,,,,,,,,,,,,,,,,,,,,,070119_p1,001,2019_Jul_01_1052,body_behavioural,3.0.4,59.998802913488205,
5,"Confirming that that was all they’d like, the waiter walked away. ",3,2,None,None,None,None,None,,0,5,5,5,,,,,0,24,24,24,,,,,,,,,,,,,,,,,,,,,,,,,,,,,,,,,,,1,6.3200481600360945,,,,,,,,,,,,,,,,,,,,,,,,,,,,070119_p1,001,2019_Jul_01_1052,body_behavioural,3.0.4,59.998802913488205,
5,Sadie- not so quietly- burst into tears. ,3,3,None,None,None,None,None,,0,5,5,5,,,,,0,25,25,25,,,,,,,,,,,,,,,,,,,,,,,,,,,,,,,,,,,1,4.2698442149558105,,,,,,,,,,,,,,,,,,,,,,,,,,,,070119_p1,001,2019_Jul_01_1052,body_behavioural,3.0.4,59.998802913488205,
5,People sitting at the bar looked over and quickly averted their gaze when they figured what was happening. ,3,3,None,None,None,None,None,,0,5,5,5,,,,,0,26,26,26,,,,,,,,,,,,,,,,,,,,,,,,,,,,,,,,,,,1,9.553633991978131,,,,,,,,,,,,,,,,,,,,,,,,,,,,070119_p1,001,2019_Jul_01_1052,body_behavioural,3.0.4,59.998802913488205,
5,"She whispered, “Is this really what you want?",3,3,None,None,None,None,None,,0,5,5,5,,,,,0,27,27,27,,,,,,,,,,,,,,,,,,,,,,,,,,,,,,,,,,,1,4.870344278984703,,,,,,,,,,,,,,,,,,,,,,,,,,,,070119_p1,001,2019_Jul_01_1052,body_behavioural,3.0.4,59.998802913488205,
5,"I don’t understand- things were fine, I thought. ",3,3,None,None,None,None,None,,0,5,5,5,,,,,0,28,28,28,,,,,,,,,,,,,,,,,,,,,,,,,,,,,,,,,,,1,6.853293534019031,,,,,,,,,,,,,,,,,,,,,,,,,,,,070119_p1,001,2019_Jul_01_1052,body_behavioural,3.0.4,59.998802913488205,
5,I think we should stay together because we can change how much we hang out. ,3,3,None,None,None,None,None,,0,5,5,5,,,,,0,29,29,29,,,,,,,,,,,,,,,,,,,,,,,,,,,,,,,,,,,1,7.387327173026279,,,,,,,,,,,,,,,,,,,,,,,,,,,,070119_p1,001,2019_Jul_01_1052,body_behavioural,3.0.4,59.998802913488205,
5,"We don’t have to hang out all the time, or as much as we do now.”",3,3,None,None,None,None,None,,0,5,5,5,,,,,0,30,30,30,,,,,,,,,,,,,,,,,,,,,,,,,,,,,,,,,,,1,5.036982879973948,,,,,,,,,,,,,,,,,,,,,,,,,,,,070119_p1,001,2019_Jul_01_1052,body_behavioural,3.0.4,59.998802913488205,
5,Thomas chewed on his bottom lip and picked at his now bleeding hangnail. ,3,3,None,20.0,None,None,None,,0,5,5,5,,,,,0,31,31,31,,,,,,,,,,,,,,,,,,,,,,,,,,,,,,,,,,,1,3.9357980160275474,,,,,,,,,,,,,,,,,,,,,,,,,,,,070119_p1,001,2019_Jul_01_1052,body_behavioural,3.0.4,59.998802913488205,
5,The waiter appeared with the burger and reuben and set them in front of them.,4,3,None,None,None,None,None,,0,5,5,5,,,,,0,32,32,32,,,,,,,,,,,,,,,,,,,,,,,,,,,,,,,,,,,1,4.503844007034786,,,,,,,,,,,,,,,,,,,,,,,,,,,,070119_p1,001,2019_Jul_01_1052,body_behavioural,3.0.4,59.998802913488205,
5,“Is there anything else I can get for you two?,4,3,None,None,None,None,None,,0,5,5,5,,,,,0,33,33,33,,,,,,,,,,,,,,,,,,,,,,,,,,,,,,,,,,,1,2.06677423795918,,,,,,,,,,,,,,,,,,,,,,,,,,,,070119_p1,001,2019_Jul_01_1052,body_behavioural,3.0.4,59.998802913488205,
5,Will you be getting dessert tonight?” he asked.,4,3,None,None,None,None,None,,0,5,5,5,,,,,0,34,34,34,,,,,,,,,,,,,,,,,,,,,,,,,,,,,,,,,,,1,3.1369796629878692,,,,,,,,,,,,,,,,,,,,,,,,,,,,070119_p1,001,2019_Jul_01_1052,body_behavioural,3.0.4,59.998802913488205,
5,"“Oh no, we’re good, thanks,” Thomas said blankly.",4,3,None,None,None,None,None,,0,5,5,5,,,,,0,35,35,35,,,,,,,,,,,,,,,,,,,,,,,,,,,,,,,,,,,1,2.7508928200113587,,,,,,,,,,,,,,,,,,,,,,,,,,,,070119_p1,001,2019_Jul_01_1052,body_behavioural,3.0.4,59.998802913488205,
5," With the waiter gone, Sadie suddenly stood up, grabbed half of the reuben, and shook it at him as she growled, “Don’t follow me, and don’t talk to me anymore!",4,4,None,None,None,None,None,,0,5,5,5,,,,,0,36,36,36,,,,,,,,,,,,,,,,,,,,,,,,,,,,,,,,,,,1,13.319957175990567,,,,,,,,,,,,,,,,,,,,,,,,,,,,070119_p1,001,2019_Jul_01_1052,body_behavioural,3.0.4,59.998802913488205,
5,"Also, I want my polaroid camera and Beatles poster back!”",4,4,None,None,None,None,None,,0,5,5,5,,,,,0,37,37,37,,,,,,,,,,,,,,,,,,,,,,,,,,,,,,,,,,,1,3.8031776400166564,,,,,,,,,,,,,,,,,,,,,,,,,,,,070119_p1,001,2019_Jul_01_1052,body_behavioural,3.0.4,59.998802913488205,
5,"She stormed off, and the bell above the door jingled cheerfully as the door closed behind her.",4,4,None,None,None,None,None,,0,5,5,5,,,,,0,38,38,38,,,,,,,,,,,,,,,,,,,,,,,,,,,,,,,,,,,1,4.552551185013726,,,,,,,,,,,,,,,,,,,,,,,,,,,,070119_p1,001,2019_Jul_01_1052,body_behavioural,3.0.4,59.998802913488205,
5,Thomas sat there for awhile surprised at how quickly everything had transpired. ,4,4,None,None,None,None,None,,0,5,5,5,,,,,0,39,39,39,,,,,,,,,,,,,,,,,,,,,,,,,,,,,,,,,,,1,7.237433565023821,,,,,,,,,,,,,,,,,,,,,,,,,,,,070119_p1,001,2019_Jul_01_1052,body_behavioural,3.0.4,59.998802913488205,
5,"He grabbed his burger and took a bite of it, which created a dry and fishy taste in his mouth.",4,4,None,None,None,None,None,,0,5,5,5,,,,,0,40,40,40,,,,,,,,,,,,,,,,,,,,,,,,,,,,,,,,,,,1,13.187529827002436,,,,,,,,,,,,,,,,,,,,,,,,,,,,070119_p1,001,2019_Jul_01_1052,body_behavioural,3.0.4,59.998802913488205,
5,He dropped it back on his plate and wondered if the restaurant was responsible for the foul taste. ,4,4,None,13.0,5.0,None,None,,0,5,5,5,,,,,0,41,41,41,,,,,,,,,,,,,,,,,,,,,,,,,,,,,,,,,,,1,6.753471992968116,,,,,,,,,,,,,,,,,,,,,,,,,,,,070119_p1,001,2019_Jul_01_1052,body_behavioural,3.0.4,59.998802913488205,
5,,,,,,,,,,0,5,5,5,,,,,,,,,,,,,,,,,,,,,,,,,,,,,,,,,,,,,,,,,,,,,,,,,,,,,,,,,,,,,,,,,,,,,,,,070119_p1,001,2019_Jul_01_1052,body_behavioural,3.0.4,59.998802913488205,
6,,,,,,,,,,0,6,6,6,0,0,0,0,,,,,,,,,,,,,,,,,,,,,,,,,,,,,space,1.319900233997032,space,0.8871002279920503,space,2.7698327590478584,,,,,,,,,,,,,,,,,,,,,,,,,,,,,,,,,,070119_p1,001,2019_Jul_01_1052,body_behavioural,3.0.4,59.998802913488205,
6,"Jeff, hoping that today would be a pivotal day for his company, had only been waiting inside the entrance of the airport for a few minutes when he saw William and eagerly waved him over. ",1,1,32.0,,,,,,0,6,6,6,,,,,0,0,0,0,,,,,,,,,,,,,,,,,,,,,,,,,,,,,,,space,1.369559369981289,space,1.1859542849706486,9,17.40387640998233,,,,,,,,,,,,,,,,,,,,,,,,,,,,070119_p1,001,2019_Jul_01_1052,body_behavioural,3.0.4,59.998802913488205,
6,William checked his watch and was pleased to see that the two of them had two hours to discuss business before their flights left Boston.,1,1,None,,,,,,0,6,6,6,,,,,0,1,1,1,,,,,,,,,,,,,,,,,,,,,,,,,,,,,,,,,,,1,9.369972496002447,,,,,,,,,,,,,,,,,,,,,,,,,,,,070119_p1,001,2019_Jul_01_1052,body_behavioural,3.0.4,59.998802913488205,
6,Jeff and William had met the night before in line for the bathroom at a local bar. ,1,1,None,,,,,,0,6,6,6,,,,,0,2,2,2,,,,,,,,,,,,,,,,,,,,,,,,,,,,,,,,,,,9,11.090898077993188,,,,,,,,,,,,,,,,,,,,,,,,,,,,070119_p1,001,2019_Jul_01_1052,body_behavioural,3.0.4,59.998802913488205,
6,Jeff had delivered some surprisingly-detailed complaints to William about the wine selection.,1,1,None,,,,,,0,6,6,6,,,,,0,3,3,3,,,,,,,,,,,,,,,,,,,,,,,,,,,,,,,,,,,1,5.587106571998447,,,,,,,,,,,,,,,,,,,,,,,,,,,,070119_p1,001,2019_Jul_01_1052,body_behavioural,3.0.4,59.998802913488205,
6,"They quickly learned that they were both in the wine industry: Jeff was a sales associate for wine vineyards in the Northeast, and William was a wine buyer for corporate events.",1,1,None,,,,,,0,6,6,6,,,,,0,4,4,4,,,,,,,,,,,,,,,,,,,,,,,,,,,,,,,,,,,1,9.238211796036921,,,,,,,,,,,,,,,,,,,,,,,,,,,,070119_p1,001,2019_Jul_01_1052,body_behavioural,3.0.4,59.998802913488205,
6,"Since they both had flights out of Boston at the same time, they had agreed to meet at the airport and talk about doing business together. ",1,1,None,,,,,,0,6,6,6,,,,,0,5,5,5,,,,,,,,,,,,,,,,,,,,,,,,,,,,,,,,,,,1,6.253353592008352,,,,,,,,,,,,,,,,,,,,,,,,,,,,070119_p1,001,2019_Jul_01_1052,body_behavioural,3.0.4,59.998802913488205,
6,They waited in line at security.,2,1,None,,,,,,0,6,6,6,,,,,0,6,6,6,,,,,,,,,,,,,,,,,,,,,,,,,,,,,,,,,,,9,2.300694889971055,,,,,,,,,,,,,,,,,,,,,,,,,,,,070119_p1,001,2019_Jul_01_1052,body_behavioural,3.0.4,59.998802913488205,
6,"“It’s crazy that we met last night,” William said.",2,1,None,,,,,,0,6,6,6,,,,,0,7,7,7,,,,,,,,,,,,,,,,,,,,,,,,,,,,,,,,,,,1,5.654654935002327,,,,,,,,,,,,,,,,,,,,,,,,,,,,070119_p1,001,2019_Jul_01_1052,body_behavioural,3.0.4,59.998802913488205,
6,"“I am flying out right now to meet my boss, and was worried that I was going to show up empty handed without anything to show for the East Coast.” ",2,1,None,,,,,,0,6,6,6,,,,,0,8,8,8,,,,,,,,,,,,,,,,,,,,,,,,,,,,,,,,,,,1,7.136770568031352,,,,,,,,,,,,,,,,,,,,,,,,,,,,070119_p1,001,2019_Jul_01_1052,body_behavioural,3.0.4,59.998802913488205,
6,"“I know, what are the chances, right?” Jeff replied.",2,1,None,,,,,,0,6,6,6,,,,,0,9,9,9,,,,,,,,,,,,,,,,,,,,,,,,,,,,,,,,,,,1,5.000929075002205,,,,,,,,,,,,,,,,,,,,,,,,,,,,070119_p1,001,2019_Jul_01_1052,body_behavioural,3.0.4,59.998802913488205,
6,"William laughed and said, “I’m glad our complaining can come in handy.”",2,1,None,,,,,,0,6,6,6,,,,,0,10,10,10,,,,,,,,,,,,,,,,,,,,,,,,,,,,,,,,,,,1,5.450941407994833,,,,,,,,,,,,,,,,,,,,,,,,,,,,070119_p1,001,2019_Jul_01_1052,body_behavioural,3.0.4,59.998802913488205,
6,"William got focused and, shifting gears, said, “I know this is fast, but I'd like to get right down to business since time is a limiting factor.",2,2,None,,,,,,0,6,6,6,,,,,0,11,11,11,,,,,,,,,,,,,,,,,,,,,,,,,,,,,,,,,,,1,6.236725875001866,,,,,,,,,,,,,,,,,,,,,,,,,,,,070119_p1,001,2019_Jul_01_1052,body_behavioural,3.0.4,59.998802913488205,
6,I'd really like to order a couple of sample shipments from you and present them to our clients: I think they’d really love to have some East Coast variety. ,2,2,None,,,,,,0,6,6,6,,,,,0,12,12,12,,,,,,,,,,,,,,,,,,,,,,,,,,,,,,,,,,,1,9.251443365006708,,,,,,,,,,,,,,,,,,,,,,,,,,,,070119_p1,001,2019_Jul_01_1052,body_behavioural,3.0.4,59.998802913488205,
6,"Now, typically we expect to get these kinds of samples at a steep discount, at least half-off the label price.",2,2,None,,,,,,0,6,6,6,,,,,0,13,13,13,,,,,,,,,,,,,,,,,,,,,,,,,,,,,,,,,,,1,6.2033660669694655,,,,,,,,,,,,,,,,,,,,,,,,,,,,070119_p1,001,2019_Jul_01_1052,body_behavioural,3.0.4,59.998802913488205,
6,This small loss is well worth the profit you’d be making if even a single client makes a contract.,2,2,None,,,,,,0,6,6,6,,,,,0,14,14,14,,,,,,,,,,,,,,,,,,,,,,,,,,,,,,,,,,,1,5.985677496995777,,,,,,,,,,,,,,,,,,,,,,,,,,,,070119_p1,001,2019_Jul_01_1052,body_behavioural,3.0.4,59.998802913488205,
6,"So, I propose that you send us 5 crates of your select wines for $800.”",2,2,None,,,,,,0,6,6,6,,,,,0,15,15,15,,,,,,,,,,,,,,,,,,,,,,,,,,,,,,,,,,,1,5.869897342985496,,,,,,,,,,,,,,,,,,,,,,,,,,,,070119_p1,001,2019_Jul_01_1052,body_behavioural,3.0.4,59.998802913488205,
6,"Before going through the metal detector, there was a pause in the security line to roll out the empty bin cart and roll in a filled one. ",2,2,None,,,,,,0,6,6,6,,,,,0,16,16,16,,,,,,,,,,,,,,,,,,,,,,,,,,,,,,,,,,,9,7.720023019996006,,,,,,,,,,,,,,,,,,,,,,,,,,,,070119_p1,001,2019_Jul_01_1052,body_behavioural,3.0.4,59.998802913488205,
6,They placed everything in their bins. ,2,2,None,,,,,,0,6,6,6,,,,,0,17,17,17,,,,,,,,,,,,,,,,,,,,,,,,,,,,,,,,,,,1,1.15312198799802,,,,,,,,,,,,,,,,,,,,,,,,,,,,070119_p1,001,2019_Jul_01_1052,body_behavioural,3.0.4,59.998802913488205,
6,"Jeff mulled over the offer, nodding noncommittally to William's pitch as they proceeded through the metal detector.",2,2,None,,,,,,0,6,6,6,,,,,0,18,18,18,,,,,,,,,,,,,,,,,,,,,,,,,,,,,,,,,,,1,7.053000426036306,,,,,,,,,,,,,,,,,,,,,,,,,,,,070119_p1,001,2019_Jul_01_1052,body_behavioural,3.0.4,59.998802913488205,
6,"Having recovered from the security check, they began to walk through the concourse toward Jeff’s gate, B8, and William handed some printed spreadsheets to Jeff.",3,2,None,,,,,,0,6,6,6,,,,,0,19,19,19,,,,,,,,,,,,,,,,,,,,,,,,,,,,,,,,,,,1,7.669120246951934,,,,,,,,,,,,,,,,,,,,,,,,,,,,070119_p1,001,2019_Jul_01_1052,body_behavioural,3.0.4,59.998802913488205,
6,"Jeff, weaving through the crowd of travelers, squinted at William's rosy projections of the number of bottles he would purchase in the future.",3,2,None,,,,,,0,6,6,6,,,,,0,20,20,20,,,,,,,,,,,,,,,,,,,,,,,,,,,,,,,,,,,1,35.55545355996583,,,,,,,,,,,,,,,,,,,,,,,,,,,,070119_p1,001,2019_Jul_01_1052,body_behavioural,3.0.4,59.998802913488205,
6,"After thinking for a couple minutes, Jeff said, “I am not sure about this since we’re not coming from a corporate vineyard and gambling with sample shipments at this rate is the kind of risk we can’t necessarily make. ",3,3,None,,,,,,0,6,6,6,,,,,0,21,21,21,,,,,,,,,,,,,,,,,,,,,,,,,,,,,,,,,,,1,9.287632920022588,,,,,,,,,,,,,,,,,,,,,,,,,,,,070119_p1,001,2019_Jul_01_1052,body_behavioural,3.0.4,59.998802913488205,
6,These corporate purchases would have to be huge and practically guaranteed to offset the loss from selling sample shipments at a price like you suggest.”,3,3,None,,,,,,0,6,6,6,,,,,0,22,22,22,,,,,,,,,,,,,,,,,,,,,,,,,,,,,,,,,,,1,8.80377449002117,,,,,,,,,,,,,,,,,,,,,,,,,,,,070119_p1,001,2019_Jul_01_1052,body_behavioural,3.0.4,59.998802913488205,
6,"William told Jeff that they had made the same offer to their competitor, Yankee Vines, who had refused and that they would make a better offer to Jeff and his company.",3,3,None,,,,,,0,6,6,6,,,,,0,23,23,23,,,,,,,,,,,,,,,,,,,,,,,,,,,,,,,,,,,1,10.25128909299383,,,,,,,,,,,,,,,,,,,,,,,,,,,,070119_p1,001,2019_Jul_01_1052,body_behavioural,3.0.4,59.998802913488205,
6,"They walked to the gates very slowly, barely registering the hubbub of the airport.",3,3,None,,,,,,0,6,6,6,,,,,0,24,24,24,,,,,,,,,,,,,,,,,,,,,,,,,,,,,,,,,,,1,3.735905100009404,,,,,,,,,,,,,,,,,,,,,,,,,,,,070119_p1,001,2019_Jul_01_1052,body_behavioural,3.0.4,59.998802913488205,
6,"William and Jeff came to an agreement on a compromise rate on the sample shipment, paying $400 for a $600 shipment of wine samples, and they finalized the deal with a handshake. ",3,4,None,,,,,,0,6,6,6,,,,,0,25,25,25,,,,,,,,,,,,,,,,,,,,,,,,,,,,,,,,,,,1,7.705060680047609,,,,,,,,,,,,,,,,,,,,,,,,,,,,070119_p1,001,2019_Jul_01_1052,body_behavioural,3.0.4,59.998802913488205,
6,"“Well, what a tremendous pleasure to do business with you and to have all this work out,” William said.",3,4,None,,,,,,0,6,6,6,,,,,0,26,26,26,,,,,,,,,,,,,,,,,,,,,,,,,,,,,,,,,,,1,4.420052964997012,,,,,,,,,,,,,,,,,,,,,,,,,,,,070119_p1,001,2019_Jul_01_1052,body_behavioural,3.0.4,59.998802913488205,
6,"Jeff nodded enthusiastically, and responded, “Likewise- this has been great.  ",3,4,None,,,,,,0,6,6,6,,,,,0,27,27,27,,,,,,,,,,,,,,,,,,,,,,,,,,,,,,,,,,,1,2.453145832987502,,,,,,,,,,,,,,,,,,,,,,,,,,,,070119_p1,001,2019_Jul_01_1052,body_behavioural,3.0.4,59.998802913488205,
6,I'll let you get to your gate.,3,4,None,,,,,,0,6,6,6,,,,,0,28,28,28,,,,,,,,,,,,,,,,,,,,,,,,,,,,,,,,,,,1,1.5207721049664542,,,,,,,,,,,,,,,,,,,,,,,,,,,,070119_p1,001,2019_Jul_01_1052,body_behavioural,3.0.4,59.998802913488205,
6,"Once we’re both back on the ground, we can work out all the official documentation and get this in the books.”",3,4,None,,,,,,0,6,6,6,,,,,0,29,29,29,,,,,,,,,,,,,,,,,,,,,,,,,,,,,,,,,,,1,4.386974080989603,,,,,,,,,,,,,,,,,,,,,,,,,,,,070119_p1,001,2019_Jul_01_1052,body_behavioural,3.0.4,59.998802913488205,
6,"Jeff jogged to his gate, scanned his boarding pass, and walked onto the plane.",4,4,None,,,,,,0,6,6,6,,,,,0,30,30,30,,,,,,,,,,,,,,,,,,,,,,,,,,,,,,,,,,,1,5.920349107997026,,,,,,,,,,,,,,,,,,,,,,,,,,,,070119_p1,001,2019_Jul_01_1052,body_behavioural,3.0.4,59.998802913488205,
6,He sat down in seat 4A in the business class section and typed out a quick email on his phone letting the rest of his team know the good news. ,4,4,None,,,,,,0,6,6,6,,,,,0,31,31,31,,,,,,,,,,,,,,,,,,,,,,,,,,,,,,,,,,,9,8.119797092978843,,,,,,,,,,,,,,,,,,,,,,,,,,,,070119_p1,001,2019_Jul_01_1052,body_behavioural,3.0.4,59.998802913488205,
6,"When the flight attendant came by, he ordered a glass of champagne to celebrate.",4,4,None,,,,,,0,6,6,6,,,,,0,32,32,32,,,,,,,,,,,,,,,,,,,,,,,,,,,,,,,,,,,1,2.7196662039496005,,,,,,,,,,,,,,,,,,,,,,,,,,,,070119_p1,001,2019_Jul_01_1052,body_behavioural,3.0.4,59.998802913488205,
6,,,,,,,,,,0,6,6,6,,,,,,,,,,,,,,,,,,,,,,,,,,,,,,,,,,,,,,,,,,,,,,,,,,,,,,,,,,,,,,,,,,,,,,,,070119_p1,001,2019_Jul_01_1052,body_behavioural,3.0.4,59.998802913488205,
7,,,,,,,,,,0,7,7,7,0,0,0,0,,,,,,,,,,,,,,,,,,,,,,,,,,,,,space,0.9362844050046988,space,1.1531612169928849,space,1.1032060729921795,,,,,,,,,,,,,,,,,,,,,,,,,,,,,,,,,,070119_p1,001,2019_Jul_01_1052,body_behavioural,3.0.4,59.998802913488205,
7,,,,,,,,,,0,7,7,7,1,0,1,0,,,,,,,,,,,,,,,,,,,,,,,,,,,,,,,,,space,0.7524189690011553,,,,,,,,,,,,,,,,,,,,,,,,,,,,,,,,,,070119_p1,001,2019_Jul_01_1052,body_behavioural,3.0.4,59.998802913488205,
7,"James noticed Teresa immediately as she walked into the restaurant- or, more accurately, as she attempted to walk into the restaurant. ",1,1,41.0,,,,,,0,7,7,7,,,,,0,0,0,0,,,,,,,,,,,,,,,,,,,,,,,,,,,,,,,space,0.7859671780024655,space,1.4522683480172418,9,10.853820112009998,,,,,,,,,,,,,,,,,,,,,,,,,,,,070119_p1,001,2019_Jul_01_1052,body_behavioural,3.0.4,59.998802913488205,
7,She was typing intently on her phone and ran straight into the restaurant’s glass door with a painful thud. ,1,1,None,,,,,,0,7,7,7,,,,,0,1,1,1,,,,,,,,,,,,,,,,,,,,,,,,,,,,,,,,,,,1,8.086509307962842,,,,,,,,,,,,,,,,,,,,,,,,,,,,070119_p1,001,2019_Jul_01_1052,body_behavioural,3.0.4,59.998802913488205,
7,Everyone waiting around the cash register turned.,1,1,None,,,,,,0,7,7,7,,,,,0,2,2,2,,,,,,,,,,,,,,,,,,,,,,,,,,,,,,,,,,,1,2.653242553002201,,,,,,,,,,,,,,,,,,,,,,,,,,,,070119_p1,001,2019_Jul_01_1052,body_behavioural,3.0.4,59.998802913488205,
7,Teresa rubbed her head and put her phone away. ,1,1,None,,,,,,0,7,7,7,,,,,0,3,3,3,,,,,,,,,,,,,,,,,,,,,,,,,,,,,,,,,,,1,1.8698947519878857,,,,,,,,,,,,,,,,,,,,,,,,,,,,070119_p1,001,2019_Jul_01_1052,body_behavioural,3.0.4,59.998802913488205,
7,She looked somewhat confused but primarily indignant that the door had been in her way. ,1,1,None,,,,,,0,7,7,7,,,,,0,4,4,4,,,,,,,,,,,,,,,,,,,,,,,,,,,,,,,,,,,1,3.536299297993537,,,,,,,,,,,,,,,,,,,,,,,,,,,,070119_p1,001,2019_Jul_01_1052,body_behavioural,3.0.4,59.998802913488205,
7,"James found this quite charming and stole a couple glances at her, peeking up from the newspaper he was holding, until she noticed and wrinkled her eyebrows at him. ",1,1,None,,,,,,0,7,7,7,,,,,0,5,5,5,,,,,,,,,,,,,,,,,,,,,,,,,,,,,,,,,,,1,14.703745316015556,,,,,,,,,,,,,,,,,,,,,,,,,,,,070119_p1,001,2019_Jul_01_1052,body_behavioural,3.0.4,59.998802913488205,
7,James and Teresa had both chosen the least busy time to try out Atlanta’s newest sushi restaurant.  ,1,1,None,,,,,,0,7,7,7,,,,,0,6,6,6,,,,,,,,,,,,,,,,,,,,,,,,,,,,,,,,,,,1,7.367553126998246,,,,,,,,,,,,,,,,,,,,,,,,,,,,070119_p1,001,2019_Jul_01_1052,body_behavioural,3.0.4,59.998802913488205,
7,It was notable for both the food and the decor. ,1,1,None,,,,,,0,7,7,7,,,,,0,7,7,7,,,,,,,,,,,,,,,,,,,,,,,,,,,,,,,,,,,1,6.900990198017098,,,,,,,,,,,,,,,,,,,,,,,,,,,,070119_p1,001,2019_Jul_01_1052,body_behavioural,3.0.4,59.998802913488205,
7,"There were pine wood countertops and chairs, plants all along the walls, and branch-looking structures hanging from the ceiling. ",1,1,None,,,,,,0,7,7,7,,,,,0,8,8,8,,,,,,,,,,,,,,,,,,,,,,,,,,,,,,,,,,,1,6.136493141995743,,,,,,,,,,,,,,,,,,,,,,,,,,,,070119_p1,001,2019_Jul_01_1052,body_behavioural,3.0.4,59.998802913488205,
7,"The host sat James and Teresa, who were both dining alone, at the bar. ",2,1,None,,,,,,0,7,7,7,,,,,0,9,9,9,,,,,,,,,,,,,,,,,,,,,,,,,,,,,,,,,,,1,5.653053958027158,,,,,,,,,,,,,,,,,,,,,,,,,,,,070119_p1,001,2019_Jul_01_1052,body_behavioural,3.0.4,59.998802913488205,
7,They sat a seat apart from each other on the bench.,2,1,None,,,,,,0,7,7,7,,,,,0,10,10,10,,,,,,,,,,,,,,,,,,,,,,,,,,,,,,,,,,,1,2.9524171269731596,,,,,,,,,,,,,,,,,,,,,,,,,,,,070119_p1,001,2019_Jul_01_1052,body_behavioural,3.0.4,59.998802913488205,
7,"The waitress behind the counter gave them bright neon menus that were filled with entrees in Japanese with small, English translations. ",2,1,None,,,,,,0,7,7,7,,,,,0,11,11,11,,,,,,,,,,,,,,,,,,,,,,,,,,,,,,,,,,,1,7.453679407015443,,,,,,,,,,,,,,,,,,,,,,,,,,,,070119_p1,001,2019_Jul_01_1052,body_behavioural,3.0.4,59.998802913488205,
7,James quickly glanced through it while Teresa took a longer time. ,2,1,None,,,,,,0,7,7,7,,,,,0,12,12,12,,,,,,,,,,,,,,,,,,,,,,,,,,,,,,,,,,,1,15.45462003297871,,,,,,,,,,,,,,,,,,,,,,,,,,,,070119_p1,001,2019_Jul_01_1052,body_behavioural,3.0.4,59.998802913488205,
7,"A few minutes passed before, James turned to Teresa and asked, “Is your forehead alright?”",2,2,None,,,,,,0,7,7,7,,,,,0,13,13,13,,,,,,,,,,,,,,,,,,,,,,,,,,,,,,,,,,,9,11.020487591973506,,,,,,,,,,,,,,,,,,,,,,,,,,,,070119_p1,001,2019_Jul_01_1052,body_behavioural,3.0.4,59.998802913488205,
7,She turned to him and smirked.,2,2,None,,,,,,0,7,7,7,,,,,0,14,14,14,,,,,,,,,,,,,,,,,,,,,,,,,,,,,,,,,,,1,3.803627184010111,,,,,,,,,,,,,,,,,,,,,,,,,,,,070119_p1,001,2019_Jul_01_1052,body_behavioural,3.0.4,59.998802913488205,
7,“Have you ever been stung by a scorpion?” she asked him.,2,2,None,,,,,,0,7,7,7,,,,,0,15,15,15,,,,,,,,,,,,,,,,,,,,,,,,,,,,,,,,,,,1,3.0864073850098066,,,,,,,,,,,,,,,,,,,,,,,,,,,,070119_p1,001,2019_Jul_01_1052,body_behavioural,3.0.4,59.998802913488205,
7,“What?” he responded confusedly.,2,2,None,,,,,,0,7,7,7,,,,,0,16,16,16,,,,,,,,,,,,,,,,,,,,,,,,,,,,,,,,,,,1,1.2699087650398724,,,,,,,,,,,,,,,,,,,,,,,,,,,,070119_p1,001,2019_Jul_01_1052,body_behavioural,3.0.4,59.998802913488205,
7, “A scorpion.”,2,2,None,,,,,,0,7,7,7,,,,,0,17,17,17,,,,,,,,,,,,,,,,,,,,,,,,,,,,,,,,,,,1,0.8678143399883993,,,,,,,,,,,,,,,,,,,,,,,,,,,,070119_p1,001,2019_Jul_01_1052,body_behavioural,3.0.4,59.998802913488205,
7,James began to worry that Teresa had possibly suffered a concussion in the door crash.,2,2,None,,,,,,0,7,7,7,,,,,0,18,18,18,,,,,,,,,,,,,,,,,,,,,,,,,,,,,,,,,,,1,5.887291874969378,,,,,,,,,,,,,,,,,,,,,,,,,,,,070119_p1,001,2019_Jul_01_1052,body_behavioural,3.0.4,59.998802913488205,
7,"“Uh no, why?” he asked.",2,2,None,,,,,,0,7,7,7,,,,,0,19,19,19,,,,,,,,,,,,,,,,,,,,,,,,,,,,,,,,,,,1,1.669259799993597,,,,,,,,,,,,,,,,,,,,,,,,,,,,070119_p1,001,2019_Jul_01_1052,body_behavioural,3.0.4,59.998802913488205,
7,"“Because I’ve been stung by one, and since then, things like bumping into doors seem like pretty small potatoes.” ",2,2,None,,,,,,0,7,7,7,,,,,0,20,20,20,,,,,,,,,,,,,,,,,,,,,,,,,,,,,,,,,,,1,5.41837203502655,,,,,,,,,,,,,,,,,,,,,,,,,,,,070119_p1,001,2019_Jul_01_1052,body_behavioural,3.0.4,59.998802913488205,
7,"They carried on talking, and Teresa told him all about her encounter with a Deathstalker scorpion while she was studying abroad in Egypt.",2,2,None,,,,,,0,7,7,7,,,,,0,21,21,21,,,,,,,,,,,,,,,,,,,,,,,,,,,,,,,,,,,1,11.737365250010043,,,,,,,,,,,,,,,,,,,,,,,,,,,,070119_p1,001,2019_Jul_01_1052,body_behavioural,3.0.4,59.998802913488205,
7,"The waitress behind the counter came up to them and asked, “Are you ready for your order?” ",3,2,None,,,,,,0,7,7,7,,,,,0,22,22,22,,,,,,,,,,,,,,,,,,,,,,,,,,,,,,,,,,,1,3.817451209994033,,,,,,,,,,,,,,,,,,,,,,,,,,,,070119_p1,001,2019_Jul_01_1052,body_behavioural,3.0.4,59.998802913488205,
7,"She first looked at Teresa who answered, “Yes, I’ll have a salmon roll and a Japanese beer.”",3,2,None,,,,,,0,7,7,7,,,,,0,23,23,23,,,,,,,,,,,,,,,,,,,,,,,,,,,,,,,,,,,1,5.753231348004192,,,,,,,,,,,,,,,,,,,,,,,,,,,,070119_p1,001,2019_Jul_01_1052,body_behavioural,3.0.4,59.998802913488205,
7,Then the waitress turned to James.,3,2,None,,,,,,0,7,7,7,,,,,0,24,24,24,,,,,,,,,,,,,,,,,,,,,,,,,,,,,,,,,,,1,3.8008438399992883,,,,,,,,,,,,,,,,,,,,,,,,,,,,070119_p1,001,2019_Jul_01_1052,body_behavioural,3.0.4,59.998802913488205,
7,"He said, “I’ll have a tuna roll and a vegetable roll.” ",3,2,None,,,,,,0,7,7,7,,,,,0,25,25,25,,,,,,,,,,,,,,,,,,,,,,,,,,,,,,,,,,,1,3.2342333929846063,,,,,,,,,,,,,,,,,,,,,,,,,,,,070119_p1,001,2019_Jul_01_1052,body_behavioural,3.0.4,59.998802913488205,
7,"“Alright, thank you!” the waitress said.",3,2,None,,,,,,0,7,7,7,,,,,0,26,26,26,,,,,,,,,,,,,,,,,,,,,,,,,,,,,,,,,,,1,3.469805800006725,,,,,,,,,,,,,,,,,,,,,,,,,,,,070119_p1,001,2019_Jul_01_1052,body_behavioural,3.0.4,59.998802913488205,
7,"James and Teresa talked about a concert James was going to that night, and he suddenly and nervously invited her to come along.",3,3,None,,,,,,0,7,7,7,,,,,0,27,27,27,,,,,,,,,,,,,,,,,,,,,,,,,,,,,,,,,,,9,15.069951893994585,,,,,,,,,,,,,,,,,,,,,,,,,,,,070119_p1,001,2019_Jul_01_1052,body_behavioural,3.0.4,59.998802913488205,
7,He promised her that the concert would be indoors and absolutely free of venomous insects.,3,3,None,,,,,,0,7,7,7,,,,,0,28,28,28,,,,,,,,,,,,,,,,,,,,,,,,,,,,,,,,,,,1,4.787170590017922,,,,,,,,,,,,,,,,,,,,,,,,,,,,070119_p1,001,2019_Jul_01_1052,body_behavioural,3.0.4,59.998802913488205,
7,"Teresa agreed, gave him her number, and they worked out that James would pick her up that evening before the concert and drive them there.",3,3,None,,,,,,0,7,7,7,,,,,0,29,29,29,,,,,,,,,,,,,,,,,,,,,,,,,,,,,,,,,,,1,9.037054974993225,,,,,,,,,,,,,,,,,,,,,,,,,,,,070119_p1,001,2019_Jul_01_1052,body_behavioural,3.0.4,59.998802913488205,
7,"This was not what they had expected from their solitary lunch plans and were both excited, even though Teresa was doing a much better job of hiding it than James. ",3,3,None,,,,,,0,7,7,7,,,,,0,30,30,30,,,,,,,,,,,,,,,,,,,,,,,,,,,,,,,,,,,1,15.754131534951739,,,,,,,,,,,,,,,,,,,,,,,,,,,,070119_p1,001,2019_Jul_01_1052,body_behavioural,3.0.4,59.998802913488205,
7,"The waitress brought out their food, placing the plates close to each other so James had to sit closer to Teresa on the bench. ",4,3,None,,,,,,0,7,7,7,,,,,0,31,31,31,,,,,,,,,,,,,,,,,,,,,,,,,,,,,,,,,,,1,8.736632482963614,,,,,,,,,,,,,,,,,,,,,,,,,,,,070119_p1,001,2019_Jul_01_1052,body_behavioural,3.0.4,59.998802913488205,
7,Teresa was happy to share the meal with James. ,4,3,None,,,,,,0,7,7,7,,,,,0,32,32,32,,,,,,,,,,,,,,,,,,,,,,,,,,,,,,,,,,,1,1.66968726599589,,,,,,,,,,,,,,,,,,,,,,,,,,,,070119_p1,001,2019_Jul_01_1052,body_behavioural,3.0.4,59.998802913488205,
7,They really enjoyed their rolls because the fish tasted very fresh. ,4,3,None,,,,,,0,7,7,7,,,,,0,33,33,33,,,,,,,,,,,,,,,,,,,,,,,,,,,,,,,,,,,1,2.919655590027105,,,,,,,,,,,,,,,,,,,,,,,,,,,,070119_p1,001,2019_Jul_01_1052,body_behavioural,3.0.4,59.998802913488205,
7,"James looked at his watch and seeing that it was 3pm said, “I have to run- got to finish some errands before the show.”",4,4,None,,,,,,0,7,7,7,,,,,0,34,34,34,,,,,,,,,,,,,,,,,,,,,,,,,,,,,,,,,,,1,5.551029394962825,,,,,,,,,,,,,,,,,,,,,,,,,,,,070119_p1,001,2019_Jul_01_1052,body_behavioural,3.0.4,59.998802913488205,
7,See you tonight and watch out for that door!”,4,4,None,,,,,,0,7,7,7,,,,,0,35,35,35,,,,,,,,,,,,,,,,,,,,,,,,,,,,,,,,,,,1,9.086866215977352,,,,,,,,,,,,,,,,,,,,,,,,,,,,070119_p1,001,2019_Jul_01_1052,body_behavioural,3.0.4,59.998802913488205,
7,,,,,,,,,,0,7,7,7,,,,,,,,,,,,,,,,,,,,,,,,,,,,,,,,,,,,,,,,,,,,,,,,,,,,,,,,,,,,,,,,,,,,,,,,070119_p1,001,2019_Jul_01_1052,body_behavioural,3.0.4,59.998802913488205,
,,,,,,,,,,,,,,,,,,,,,,,,,,,,,,,,,,,,,,,,,,,,,,,,,,,,,,,,,,2366.03220567503,space,0.8195617439923808,,,,,,,,,,,,,,,,,,,,,,,,,070119_p1,001,2019_Jul_01_1052,body_behavioural,3.0.4,59.998802913488205,
,,,,,,,,,"In this next part of the experiment, please recall each story to the best of your ability.",,,,,,,,,,,,,0,0,0,0,,,,,,,,,,,,,,,,,,,,,,,,,,,,,,,,,,,,space,12.370567719975952,,,,,,,,,,,,,,,,,,,,,,,070119_p1,001,2019_Jul_01_1052,body_behavioural,3.0.4,59.998802913488205,
,,,,,,,,,"You will be presented with the story title, names, the images, and a blank text box for each story.",,,,,,,,,,,,,0,1,1,1,,,,,,,,,,,,,,,,,,,,,,,,,,,,,,,,,,,,space,6.270059676957317,,,,,,,,,,,,,,,,,,,,,,,070119_p1,001,2019_Jul_01_1052,body_behavioural,3.0.4,59.998802913488205,
,,,,,,,,,Describe the story indicated with as many details as you can remember in the space provided. ,,,,,,,,,,,,,0,2,2,2,,,,,,,,,,,,,,,,,,,,,,,,,,,,,,,,,,,,space,3.55083157698391,,,,,,,,,,,,,,,,,,,,,,,070119_p1,001,2019_Jul_01_1052,body_behavioural,3.0.4,59.998802913488205,
,,,,,,,,,"When you are finished recalling one story, to move onto the next one, press the ‘return’ key. ",,,,,,,,,,,,,0,3,3,3,,,,,,,,,,,,,,,,,,,,,,,,,,,,,,,,,,,,space,6.787463908025529,,,,,,,,,,,,,,,,,,,,,,,070119_p1,001,2019_Jul_01_1052,body_behavioural,3.0.4,59.998802913488205,
,,,,,,,,,There is a 5 minute time limit to make your response. ,,,,,,,,,,,,,0,4,4,4,,,,,,,,,,,,,,,,,,,,,,,,,,,,,,,,,,,,space,4.6198176659527235,,,,,,,,,,,,,,,,,,,,,,,070119_p1,001,2019_Jul_01_1052,body_behavioural,3.0.4,59.998802913488205,
,,,,,,,,,Please note that you will not be able to capitalize any letters except for the first letter of your answer. This will not effect the scoring of your recall answer.,,,,,,,,,,,,,0,5,5,5,,,,,,,,,,,,,,,,,,,,,,,,,,,,,,,,,,,,space,10.603497411007993,,,,,,,,,,,,,,,,,,,,,,,070119_p1,001,2019_Jul_01_1052,body_behavioural,3.0.4,59.998802913488205,
0,,,,,,,,,,,,,,,,,,,,,,,,,,0,0,0,0,,,,,,,,,,,,,,,,,,,,,,,,,,,,,,,,,,space,2.8529688389971852,"Emanuella and liam are in a grocery store because they need to buy things for their dinner invitation that same night. they feel uncomfortabel as they have been unhappy in their relationship for a while. emmanuella has been thinking about breaking up for wuite a while and decides to do it right there in the supermarket. liam reacts thoughtfully, first thinking about emanuellas decision by himself before he aggrees with her that they would probably be happier with other people. they check out and talk in a more relaxed mood, deciding that they wouldn",,,,,,,,,,,,,,,,,,,,070119_p1,001,2019_Jul_01_1052,body_behavioural,3.0.4,59.998802913488205,
1,,,,,,,,,,,,,,,,,,,,,,,,,,0,1,1,1,,,,,,,,,,,,,,,,,,,,,,,,,,,,,,,,,,space,12.254310126998462,"Aaron wants to propose to lana and has discussed his plans with his professor who thus knows  about his plans to propose that day in class. it is a chemistry class and lana does not expecting anything. she takes notes. at one point, the professor and aaron communicate via face contact and aaron steps to the front of the class room and prepares for the proposal. the professor calls lana to the front to help with something for the lecture. lana steps forward and aaron proposes to her. first, lana bursts out in tears of joy, then she says yes. ",,,,,,,,,,,,,,,,,,,,070119_p1,001,2019_Jul_01_1052,body_behavioural,3.0.4,59.998802913488205,
2,,,,,,,,,,,,,,,,,,,,,,,,,,0,2,2,2,,,,,,,,,,,,,,,,,,,,,,,,,,,,,,,,,,space,1.3031240879790857,Charlie and alma are attending an archeology class but they do not really listen to what the professor says as they are discussing a business deal between alma's start up and charlie's investment business. charlie offers alma to wire half the amount of money she needs for the project ideas of her start-up. alma negotiates a better deal but still not the full package her start-up would need. the professor announces something concerning assignments and the class ends. charlie and alma are the last ones to leave the classroom.,,,,,,,,,,,,,,,,,,,,070119_p1,001,2019_Jul_01_1052,body_behavioural,3.0.4,59.998802913488205,
3,,,,,,,,,,,,,,,,,,,,,,,,,,0,3,3,3,,,,,,,,,,,,,,,,,,,,,,,,,,,,,,,,,,space,1.3355602049850859,"Sven has spent his holidays with isabel's family where he got to know her parents for the first time. the vacation has strengthened his wish to marry her. thus, he has bought a ring that he now carries in his pockets. they are at the airport and about to enter security. sven wants to propose to isabel but does not do it before the security check. in the millimeter scan, the ring is detected and sven publicly proposes to isabel even though he did not plan it that way. isabel is embarrassed and quickly takes their stuff to leave for the gate. in the concourse, she says yes, happy to have fled all the people watching them curiously in the security scan. ",,,,,,,,,,,,,,,,,,,,070119_p1,001,2019_Jul_01_1052,body_behavioural,3.0.4,59.998802913488205,
4,,,,,,,,,,,,,,,,,,,,,,,,,,0,4,4,4,,,,,,,,,,,,,,,,,,,,,,,,,,,,,,,,,,space,0.9676016680314206,"Simon and carina meet in the grocery store coincidentally and their encounter turns into a spontaneous date. they help each other with the groceries - he helps her choose meat and she helps him with some herbs. at the cashiers, he pays for her shopping and asks her out for another real date. she is late for her own barbecue. the woman at the counter is a little grumpy.",,,,,,,,,,,,,,,,,,,,070119_p1,001,2019_Jul_01_1052,body_behavioural,3.0.4,59.998802913488205,
5,,,,,,,,,,,,,,,,,,,,,,,,,,0,5,5,5,,,,,,,,,,,,,,,,,,,,,,,,,,,,,,,,,,space,0.9867168830242008,"Thomas and sadie have a date for a diner. thomas wants to break up. he waits for sadie and upon her arrival, he asks the waitress to be seated in the back corner. sadie has been missing thomas and shows him affection. he retreats from her and tells her that he wants to break up in order to be better able to concentrate on his career. they order food and when it is delivered, sadie suddenly breaks out with anger and childishly takes her food and throws it onto thomas, requesting her belongings back from him - a beatles poster amongst other things.",,,,,,,,,,,,,,,,,,,,070119_p1,001,2019_Jul_01_1052,body_behavioural,3.0.4,59.998802913488205,
6,,,,,,,,,,,,,,,,,,,,,,,,,,0,6,6,6,,,,,,,,,,,,,,,,,,,,,,,,,,,,,,,,,,space,1.0529396450147033,"Jeff and william meet at the airport. they go through security together, happy to have met again after their encounter at some hotel the night before where they had recognized that they work in the same, namely wine, business. they now discuss a concrete business plan that is first too risky for jeff but then they agree on a deal. they proceed to their gates.",,,,,,,,,,,,,,,,,,,,070119_p1,001,2019_Jul_01_1052,body_behavioural,3.0.4,59.998802913488205,
7,,,,,,,,,,,,,,,,,,,,,,,,,,0,7,7,7,,,,,,,,,,,,,,,,,,,,,,,,,,,,,,,,,,space,1.0357445100089535,"James is at a sushi restaurant, reading a newspaper, ready to order. teresa comes in and bumps into the door, which draws people's attention. james thinks her clumsyness cute and as they both sit at the bar, he engages her in a conversation, asking her if she was fine. she tells him about her painful experience with a scorpion, that is worse than any small everyday injury as she argues. james asks her out for a date, which makes both of them happy as they had not expected such a pleasurable encounter in their lunch break. they had fish rolls which they enjoyed and sat very close to on another.",,,,,,,,,,,,,,,,,,,,070119_p1,001,2019_Jul_01_1052,body_behavioural,3.0.4,59.998802913488205,
,,,,,,,,,,,,,,,,,,,,,,,,,,,,,,,,,,,,,,,,,,,,,,,,,,,,,,,,,,,,,,,,,,3923.6211325690383,space,1.1363452770165168,,,,,,,,,,,,,,,,,070119_p1,001,2019_Jul_01_1052,body_behavioural,3.0.4,59.998802913488205,
,,,,,,,,,"In this last part of the experiment, please answer 8 questions about each story.",,,,,,,,,,,,,,,,,,,,,0,0,0,0,,,,,,,,,,,,,,,,,,,,,,,,,,,,,,,,,,,,space,3.0528480199864134,,,,,,,,,,,,,,,070119_p1,001,2019_Jul_01_1052,body_behavioural,3.0.4,59.998802913488205,
,,,,,,,,,Some of the questions are not related to the perspective you were asked to assume.,,,,,,,,,,,,,,,,,,,,,0,1,1,1,,,,,,,,,,,,,,,,,,,,,,,,,,,,,,,,,,,,space,3.1704583920072764,,,,,,,,,,,,,,,070119_p1,001,2019_Jul_01_1052,body_behavioural,3.0.4,59.998802913488205,
,,,,,,,,,"We realize that we did not tell you to think of these questions during the story, but please do your best to answer them.",,,,,,,,,,,,,,,,,,,,,0,2,2,2,,,,,,,,,,,,,,,,,,,,,,,,,,,,,,,,,,,,space,11.303795323008671,,,,,,,,,,,,,,,070119_p1,001,2019_Jul_01_1052,body_behavioural,3.0.4,59.998802913488205,
,,,,,,,,,"When you have finished typing your answer, hit ‘return’ to submit your answer and move onto the next question. ",,,,,,,,,,,,,,,,,,,,,0,3,3,3,,,,,,,,,,,,,,,,,,,,,,,,,,,,,,,,,,,,space,4.7532831659773365,,,,,,,,,,,,,,,070119_p1,001,2019_Jul_01_1052,body_behavioural,3.0.4,59.998802913488205,
0,,,,,,,,,,,,,,,,,,,,,,,,,,,,,,,,,,0,0,0,0,,,,,,,,,,,,,,,,,,,,,,,,,,,,A cat,,,,,,space,1.6506353229633532,Orderly,non-primed first,"Pasta, vodka sauce","8, 3",20 $ and credit card,5 months,Constant fighting,Yes he also wants to break up and thinks that they would be happier with other people,A cat,,,,070119_p1,001,2019_Jul_01_1052,body_behavioural,3.0.4,59.998802913488205,
1,,,,,,,,,,,,,,,,,,,,,,,,,,,,,,,,,,0,1,1,1,,,,,,,,,,,,,,,,,,,,,,,,,,,,Not sure,,,,,,space,0.9870787619729526,2,non-primed first,5 in pink instead of 1 blue,In a box,Her friend,"Beautiful, in princeton",Chemistry,Ions,Not sure,,,,070119_p1,001,2019_Jul_01_1052,body_behavioural,3.0.4,59.998802913488205,
2,,,,,,,,,,,,,,,,,,,,,,,,,,,,,,,,,,0,2,2,2,,,,,,,,,,,,,,,,,,,,,,,,,,,,An essay,,,,,,space,0.820213480037637,Start up manager and financial investor,primed first,About 50 000 $,Not sure,Hand shake,Pretty,Archeology,Not sure,An essay,,,,070119_p1,001,2019_Jul_01_1052,body_behavioural,3.0.4,59.998802913488205,
3,,,,,,,,,,,,,,,,,,,,,,,,,,,,,,,,,,0,3,3,3,,,,,,,,,,,,,,,,,,,,,,,,,,,,2a and 2b,,,,,,space,0.8858676920062862,Some years ,primed first,1 not sure which color,In a box,Not sure,Not much,The ring,Not sure,2a and 2b,,,,070119_p1,001,2019_Jul_01_1052,body_behavioural,3.0.4,59.998802913488205,
4,,,,,,,,,,,,,,,,,,,,,,,,,,,,,,,,,,0,4,4,4,,,,,,,,,,,,,,,,,,,,,,,,,,,,4.30,,,,,,space,1.08625051000854,Chaotic,primed first,Meat and herbs amongst other things ,Not sure,"50 $, simon pays with his card",Meat,Not sure,For a dinner date,4.30,,,,070119_p1,001,2019_Jul_01_1052,body_behavioural,3.0.4,59.998802913488205,
5,,,,,,,,,,,,,,,,,,,,,,,,,,,,,,,,,,0,5,5,5,,,,,,,,,,,,,,,,,,,,,,,,,,,,A beatles poster and something else,,,,,,space,0.9029671500320546,It is a traditional diner with black and white tiles,primed first,They are laminated and with funny symbols,Burger and sth else,They like it,A whilebackslash,His career,No,A beatles poster and something else,,,,070119_p1,001,2019_Jul_01_1052,body_behavioural,3.0.4,59.998802913488205,
6,,,,,,,,,,,,,,,,,,,,,,,,,,,,,,,,,,0,6,6,6,,,,,,,,,,,,,,,,,,,,,,,,,,,,Not sure,,,,,,space,0.7360501170041971,Wine seller and wine distributer,non-primed first,800 $,Not sure,Hand shake,Still a little,Not sure,Different ones,Not sure,,,,070119_p1,001,2019_Jul_01_1052,body_behavioural,3.0.4,59.998802913488205,
7,,,,,,,,,,,,,,,,,,,,,,,,,,,,,,,,,,0,7,7,7,,,,,,,,,,,,,,,,,,,,,,,,,,,,3 pm,,,,,,space,0.8030073000118136,It is a fancy modern sushi place,non-primed first,With japanese words,"Fish rolls , tuna and salomn",They like it,Phone in hand that captures all her attention,Her bumping into the door,Not sure,3 pm,,,,070119_p1,001,2019_Jul_01_1052,body_behavioural,3.0.4,59.998802913488205,
,,,,,,,,,,,,,,,,,,,,,,,,,,,,,,,,,,,,,,,,,,,,,,,,,,,,,,,,,,,,,,,,,,,,,,,,,,,,,,,,,,4451.857255051029,space,0.9199198800488375,070119_p1,001,2019_Jul_01_1052,body_behavioural,3.0.4,59.998802913488205,
,,,,,,,,,,,,,,,,,,,,,,,,,,,,,,,,,,,,,,0,0,0,0,,,,,,,,,,,,,,,,,,,,,,,,,,,,,,,,,,,,,,,,,,,,070119_p1,001,2019_Jul_01_1052,body_behavioural,3.0.4,59.998802913488205,
,,,,,,,,,,,,,,,,,,,,,,,,,,,,,,,,,,,,,,1,0,1,0,,,,,,,,,,,,,,,,,,,,,,,,,,,,,,,,,,,,,,,,,,,,070119_p1,001,2019_Jul_01_1052,body_behavioural,3.0.4,59.998802913488205,
,,,,,,,,,,,,,,,,,,,,,,,,,,,,,,,,,,,,,,2,0,2,0,,,,,,,,,,,,,,,,,,,,,,,,,,,,,,,,,,,,,,,,,,,,070119_p1,001,2019_Jul_01_1052,body_behavioural,3.0.4,59.998802913488205,
,,,,,,,,,,,,,,,,,,,,,,,,,,,,,,,,,,,,,,3,0,3,0,,,,,,,,,,,,,,,,,,,,,,,,,,,,,,,,,,,,,,,,,,,,070119_p1,001,2019_Jul_01_1052,body_behavioural,3.0.4,59.998802913488205,
,,,,,,,,,,,,,,,,,,,,,,,,,,,,,,,,,,,,,,4,0,4,0,,,,,,,,,,,,,,,,,,,,,,,,,,,,,,,,,,,,,,,,,,,,070119_p1,001,2019_Jul_01_1052,body_behavioural,3.0.4,59.998802913488205,
