count,storyText,locationEvent,socialEvent,story,locationEventSize,socialEventSize,socialAnswer,locationAnswer,instructText,trials.thisRepN,trials.thisTrialN,trials.thisN,trials.thisIndex,trials_7.thisRepN,trials_7.thisTrialN,trials_7.thisN,trials_7.thisIndex,trials_2.thisRepN,trials_2.thisTrialN,trials_2.thisN,trials_2.thisIndex,trials_3.thisRepN,trials_3.thisTrialN,trials_3.thisN,trials_3.thisIndex,trials_4.thisRepN,trials_4.thisTrialN,trials_4.thisN,trials_4.thisIndex,trials_5.thisRepN,trials_5.thisTrialN,trials_5.thisN,trials_5.thisIndex,trials_6.thisRepN,trials_6.thisTrialN,trials_6.thisN,trials_6.thisIndex,trials_8.thisRepN,trials_8.thisTrialN,trials_8.thisN,trials_8.thisIndex,order of stories,order of perspectives,participant 2 order - stories,participant 2 order  - schemas types,key_resp_8.keys,key_resp_8.rt,key_resp_5.keys,key_resp_5.rt,key_resp_7.keys,key_resp_7.rt,key_resp_15.keys,key_resp_15.rt,key_resp_14.keys,key_resp_14.rt,story_presses.keys,story_presses.rt,story time,key_resp_6.keys,key_resp_6.rt,key_resp_2.keys,key_resp_2.rt,key_resp_10.keys,key_resp_10.rt,recall time,key_resp_12.keys,key_resp_12.rt,key_resp_3.keys,key_resp_3.rt,key_resp_11.keys,key_resp_11.rt,recall,question1_answer,order of question,question2_answer,question3_answer,question4_answer,question5_answer,question6_answer,question7_answer,question8_answer,questions time,key_resp_13.keys,key_resp_13.rt,participant,session,date,expName,psychopyVersion,frameRate,
0,,,,,,,,,,0,0,0,0,0,0,0,0,,,,,,,,,,,,,,,,,,,,,,,,,[32 12 44 43 11 24 31 23 34 42 41 21 14 13 22 33],"['Social' 'Location' 'Location' 'Social' 'Social' 'Social' 'Location'
 'Location' 'Social' 'Location' 'Social' 'Location' 'Location' 'Social'
 'Social' 'Location']",[34 42 41 21 14 13 22 33],"['Social' 'Location' 'Social' 'Location' 'Location' 'Social' 'Social'
 'Location']",space,16.101798927003983,space,1.9193713340209797,space,2.000721315969713,,,,,,,,,,,,,,,,,,,,,,,,,,,,,,,,,,070219_p2,001,2019_Jul_02_1148,body_behavioural,3.0.4,59.9683365958585,
0,,,,,,,,,,0,0,0,0,1,0,1,0,,,,,,,,,,,,,,,,,,,,,,,,,,,,,,,,,space,0.583850616007112,,,,,,,,,,,,,,,,,,,,,,,,,,,,,,,,,,070219_p2,001,2019_Jul_02_1148,body_behavioural,3.0.4,59.9683365958585,
0,"Jeff, hoping that today would be a pivotal day for his company, had only been waiting inside the entrance of the airport for a few minutes when he saw William and eagerly waved him over. ",1,1,32.0,,,,,,0,0,0,0,,,,,0,0,0,0,,,,,,,,,,,,,,,,,,,,,,,,,,,,,,,space,0.6699077149969526,space,2.753226899949368,9,15.434659702004865,,,,,,,,,,,,,,,,,,,,,,,,,,,,070219_p2,001,2019_Jul_02_1148,body_behavioural,3.0.4,59.9683365958585,
0,William checked his watch and was pleased to see that the two of them had two hours to discuss business before their flights left Boston.,1,1,None,,,,,,0,0,0,0,,,,,0,1,1,1,,,,,,,,,,,,,,,,,,,,,,,,,,,,,,,,,,,1,12.501398402964696,,,,,,,,,,,,,,,,,,,,,,,,,,,,070219_p2,001,2019_Jul_02_1148,body_behavioural,3.0.4,59.9683365958585,
0,Jeff and William had met the night before in line for the bathroom at a local bar. ,1,1,None,,,,,,0,0,0,0,,,,,0,2,2,2,,,,,,,,,,,,,,,,,,,,,,,,,,,,,,,,,,,9,11.034761559974868,,,,,,,,,,,,,,,,,,,,,,,,,,,,070219_p2,001,2019_Jul_02_1148,body_behavioural,3.0.4,59.9683365958585,
0,Jeff had delivered some surprisingly-detailed complaints to William about the wine selection.,1,1,None,,,,,,0,0,0,0,,,,,0,3,3,3,,,,,,,,,,,,,,,,,,,,,,,,,,,,,,,,,,,1,8.053577770013362,,,,,,,,,,,,,,,,,,,,,,,,,,,,070219_p2,001,2019_Jul_02_1148,body_behavioural,3.0.4,59.9683365958585,
0,"They quickly learned that they were both in the wine industry: Jeff was a sales associate for wine vineyards in the Northeast, and William was a wine buyer for corporate events.",1,1,None,,,,,,0,0,0,0,,,,,0,4,4,4,,,,,,,,,,,,,,,,,,,,,,,,,,,,,,,,,,,1,11.387761207995936,,,,,,,,,,,,,,,,,,,,,,,,,,,,070219_p2,001,2019_Jul_02_1148,body_behavioural,3.0.4,59.9683365958585,
0,"Since they both had flights out of Boston at the same time, they had agreed to meet at the airport and talk about doing business together. ",1,1,None,,,,,,0,0,0,0,,,,,0,5,5,5,,,,,,,,,,,,,,,,,,,,,,,,,,,,,,,,,,,1,5.786671109963208,,,,,,,,,,,,,,,,,,,,,,,,,,,,070219_p2,001,2019_Jul_02_1148,body_behavioural,3.0.4,59.9683365958585,
0,They waited in line at security.,2,1,None,,,,,,0,0,0,0,,,,,0,6,6,6,,,,,,,,,,,,,,,,,,,,,,,,,,,,,,,,,,,1,2.453503897006158,,,,,,,,,,,,,,,,,,,,,,,,,,,,070219_p2,001,2019_Jul_02_1148,body_behavioural,3.0.4,59.9683365958585,
0,"“It’s crazy that we met last night,” William said.",2,1,None,,,,,,0,0,0,0,,,,,0,7,7,7,,,,,,,,,,,,,,,,,,,,,,,,,,,,,,,,,,,1,2.8693989930325188,,,,,,,,,,,,,,,,,,,,,,,,,,,,070219_p2,001,2019_Jul_02_1148,body_behavioural,3.0.4,59.9683365958585,
0,"“I am flying out right now to meet my boss, and was worried that I was going to show up empty handed without anything to show for the East Coast.” ",2,1,None,,,,,,0,0,0,0,,,,,0,8,8,8,,,,,,,,,,,,,,,,,,,,,,,,,,,,,,,,,,,1,5.570072715985589,,,,,,,,,,,,,,,,,,,,,,,,,,,,070219_p2,001,2019_Jul_02_1148,body_behavioural,3.0.4,59.9683365958585,
0,"“I know, what are the chances, right?” Jeff replied.",2,1,None,,,,,,0,0,0,0,,,,,0,9,9,9,,,,,,,,,,,,,,,,,,,,,,,,,,,,,,,,,,,1,2.853204242011998,,,,,,,,,,,,,,,,,,,,,,,,,,,,070219_p2,001,2019_Jul_02_1148,body_behavioural,3.0.4,59.9683365958585,
0,"William laughed and said, “I’m glad our complaining can come in handy.”",2,1,None,,,,,,0,0,0,0,,,,,0,10,10,10,,,,,,,,,,,,,,,,,,,,,,,,,,,,,,,,,,,1,3.1865559649886563,,,,,,,,,,,,,,,,,,,,,,,,,,,,070219_p2,001,2019_Jul_02_1148,body_behavioural,3.0.4,59.9683365958585,
0,"William got focused and, shifting gears, said, “I know this is fast, but I'd like to get right down to business since time is a limiting factor.",2,2,None,,,,,,0,0,0,0,,,,,0,11,11,11,,,,,,,,,,,,,,,,,,,,,,,,,,,,,,,,,,,1,7.503384743002243,,,,,,,,,,,,,,,,,,,,,,,,,,,,070219_p2,001,2019_Jul_02_1148,body_behavioural,3.0.4,59.9683365958585,
0,I'd really like to order a couple of sample shipments from you and present them to our clients: I think they’d really love to have some East Coast variety. ,2,2,None,,,,,,0,0,0,0,,,,,0,12,12,12,,,,,,,,,,,,,,,,,,,,,,,,,,,,,,,,,,,1,6.970301807974465,,,,,,,,,,,,,,,,,,,,,,,,,,,,070219_p2,001,2019_Jul_02_1148,body_behavioural,3.0.4,59.9683365958585,
0,"Now, typically we expect to get these kinds of samples at a steep discount, at least half-off the label price.",2,2,None,,,,,,0,0,0,0,,,,,0,13,13,13,,,,,,,,,,,,,,,,,,,,,,,,,,,,,,,,,,,1,5.836780638026539,,,,,,,,,,,,,,,,,,,,,,,,,,,,070219_p2,001,2019_Jul_02_1148,body_behavioural,3.0.4,59.9683365958585,
0,This small loss is well worth the profit you’d be making if even a single client makes a contract.,2,2,None,,,,,,0,0,0,0,,,,,0,14,14,14,,,,,,,,,,,,,,,,,,,,,,,,,,,,,,,,,,,1,4.817810626002029,,,,,,,,,,,,,,,,,,,,,,,,,,,,070219_p2,001,2019_Jul_02_1148,body_behavioural,3.0.4,59.9683365958585,
0,"So, I propose that you send us 5 crates of your select wines for $800.”",2,2,None,,,,,,0,0,0,0,,,,,0,15,15,15,,,,,,,,,,,,,,,,,,,,,,,,,,,,,,,,,,,1,4.734223612991627,,,,,,,,,,,,,,,,,,,,,,,,,,,,070219_p2,001,2019_Jul_02_1148,body_behavioural,3.0.4,59.9683365958585,
0,"Before going through the metal detector, there was a pause in the security line to roll out the empty bin cart and roll in a filled one. ",2,2,None,,,,,,0,0,0,0,,,,,0,16,16,16,,,,,,,,,,,,,,,,,,,,,,,,,,,,,,,,,,,9,7.169981034996454,,,,,,,,,,,,,,,,,,,,,,,,,,,,070219_p2,001,2019_Jul_02_1148,body_behavioural,3.0.4,59.9683365958585,
0,They placed everything in their bins. ,2,2,None,,,,,,0,0,0,0,,,,,0,17,17,17,,,,,,,,,,,,,,,,,,,,,,,,,,,,,,,,,,,1,3.2528721669805236,,,,,,,,,,,,,,,,,,,,,,,,,,,,070219_p2,001,2019_Jul_02_1148,body_behavioural,3.0.4,59.9683365958585,
0,"Jeff mulled over the offer, nodding noncommittally to William's pitch as they proceeded through the metal detector.",2,2,None,,,,,,0,0,0,0,,,,,0,18,18,18,,,,,,,,,,,,,,,,,,,,,,,,,,,,,,,,,,,1,4.319958815001883,,,,,,,,,,,,,,,,,,,,,,,,,,,,070219_p2,001,2019_Jul_02_1148,body_behavioural,3.0.4,59.9683365958585,
0,"Having recovered from the security check, they began to walk through the concourse toward Jeff’s gate, B8, and William handed some printed spreadsheets to Jeff.",3,2,None,,,,,,0,0,0,0,,,,,0,19,19,19,,,,,,,,,,,,,,,,,,,,,,,,,,,,,,,,,,,1,5.653359768970404,,,,,,,,,,,,,,,,,,,,,,,,,,,,070219_p2,001,2019_Jul_02_1148,body_behavioural,3.0.4,59.9683365958585,
0,"Jeff, weaving through the crowd of travelers, squinted at William's rosy projections of the number of bottles he would purchase in the future.",3,2,None,,,,,,0,0,0,0,,,,,0,20,20,20,,,,,,,,,,,,,,,,,,,,,,,,,,,,,,,,,,,1,5.5201193850371055,,,,,,,,,,,,,,,,,,,,,,,,,,,,070219_p2,001,2019_Jul_02_1148,body_behavioural,3.0.4,59.9683365958585,
0,"After thinking for a couple minutes, Jeff said, “I am not sure about this since we’re not coming from a corporate vineyard and gambling with sample shipments at this rate is the kind of risk we can’t necessarily make. ",3,3,None,,,,,,0,0,0,0,,,,,0,21,21,21,,,,,,,,,,,,,,,,,,,,,,,,,,,,,,,,,,,1,9.903738870983943,,,,,,,,,,,,,,,,,,,,,,,,,,,,070219_p2,001,2019_Jul_02_1148,body_behavioural,3.0.4,59.9683365958585,
0,These corporate purchases would have to be huge and practically guaranteed to offset the loss from selling sample shipments at a price like you suggest.”,3,3,None,,,,,,0,0,0,0,,,,,0,22,22,22,,,,,,,,,,,,,,,,,,,,,,,,,,,,,,,,,,,1,7.087226574018132,,,,,,,,,,,,,,,,,,,,,,,,,,,,070219_p2,001,2019_Jul_02_1148,body_behavioural,3.0.4,59.9683365958585,
0,"William told Jeff that they had made the same offer to their competitor, Yankee Vines, who had refused and that they would make a better offer to Jeff and his company.",3,3,None,,,,,,0,0,0,0,,,,,0,23,23,23,,,,,,,,,,,,,,,,,,,,,,,,,,,,,,,,,,,1,6.503252867027186,,,,,,,,,,,,,,,,,,,,,,,,,,,,070219_p2,001,2019_Jul_02_1148,body_behavioural,3.0.4,59.9683365958585,
0,"They walked to the gates very slowly, barely registering the hubbub of the airport.",3,3,None,,,,,,0,0,0,0,,,,,0,24,24,24,,,,,,,,,,,,,,,,,,,,,,,,,,,,,,,,,,,1,3.2007027200306766,,,,,,,,,,,,,,,,,,,,,,,,,,,,070219_p2,001,2019_Jul_02_1148,body_behavioural,3.0.4,59.9683365958585,
0,"William and Jeff came to an agreement on a compromise rate on the sample shipment, paying $400 for a $600 shipment of wine samples, and they finalized the deal with a handshake. ",3,4,None,,,,,,0,0,0,0,,,,,0,25,25,25,,,,,,,,,,,,,,,,,,,,,,,,,,,,,,,,,,,1,8.553441533993464,,,,,,,,,,,,,,,,,,,,,,,,,,,,070219_p2,001,2019_Jul_02_1148,body_behavioural,3.0.4,59.9683365958585,
0,"“Well, what a tremendous pleasure to do business with you and to have all this work out,” William said.",3,4,None,,,,,,0,0,0,0,,,,,0,26,26,26,,,,,,,,,,,,,,,,,,,,,,,,,,,,,,,,,,,1,3.7534826429910026,,,,,,,,,,,,,,,,,,,,,,,,,,,,070219_p2,001,2019_Jul_02_1148,body_behavioural,3.0.4,59.9683365958585,
0,"Jeff nodded enthusiastically, and responded, “Likewise- this has been great.  ",3,4,None,,,,,,0,0,0,0,,,,,0,27,27,27,,,,,,,,,,,,,,,,,,,,,,,,,,,,,,,,,,,1,3.603803813981358,,,,,,,,,,,,,,,,,,,,,,,,,,,,070219_p2,001,2019_Jul_02_1148,body_behavioural,3.0.4,59.9683365958585,
0,I'll let you get to your gate.,3,4,None,,,,,,0,0,0,0,,,,,0,28,28,28,,,,,,,,,,,,,,,,,,,,,,,,,,,,,,,,,,,1,1.1697561019682325,,,,,,,,,,,,,,,,,,,,,,,,,,,,070219_p2,001,2019_Jul_02_1148,body_behavioural,3.0.4,59.9683365958585,
0,"Once we’re both back on the ground, we can work out all the official documentation and get this in the books.”",3,4,None,,,,,,0,0,0,0,,,,,0,29,29,29,,,,,,,,,,,,,,,,,,,,,,,,,,,,,,,,,,,1,4.954425609961618,,,,,,,,,,,,,,,,,,,,,,,,,,,,070219_p2,001,2019_Jul_02_1148,body_behavioural,3.0.4,59.9683365958585,
0,"Jeff jogged to his gate, scanned his boarding pass, and walked onto the plane.",4,4,None,,,,,,0,0,0,0,,,,,0,30,30,30,,,,,,,,,,,,,,,,,,,,,,,,,,,,,,,,,,,1,2.286342032952234,,,,,,,,,,,,,,,,,,,,,,,,,,,,070219_p2,001,2019_Jul_02_1148,body_behavioural,3.0.4,59.9683365958585,
0,He sat down in seat 4A in the business class section and typed out a quick email on his phone letting the rest of his team know the good news. ,4,4,None,,,,,,0,0,0,0,,,,,0,31,31,31,,,,,,,,,,,,,,,,,,,,,,,,,,,,,,,,,,,1,4.253788342990447,,,,,,,,,,,,,,,,,,,,,,,,,,,,070219_p2,001,2019_Jul_02_1148,body_behavioural,3.0.4,59.9683365958585,
0,"When the flight attendant came by, he ordered a glass of champagne to celebrate.",4,4,None,,,,,,0,0,0,0,,,,,0,32,32,32,,,,,,,,,,,,,,,,,,,,,,,,,,,,,,,,,,,1,1.9532480019843206,,,,,,,,,,,,,,,,,,,,,,,,,,,,070219_p2,001,2019_Jul_02_1148,body_behavioural,3.0.4,59.9683365958585,
0,,,,,,,,,,0,0,0,0,,,,,,,,,,,,,,,,,,,,,,,,,,,,,,,,,,,,,,,,,,,,,,,,,,,,,,,,,,,,,,,,,,,,,,,,070219_p2,001,2019_Jul_02_1148,body_behavioural,3.0.4,59.9683365958585,
1,,,,,,,,,,0,1,1,1,0,0,0,0,,,,,,,,,,,,,,,,,,,,,,,,,,,,,space,2.136334293987602,space,1.0527851909864694,space,2.119370438042097,,,,,,,,,,,,,,,,,,,,,,,,,,,,,,,,,,070219_p2,001,2019_Jul_02_1148,body_behavioural,3.0.4,59.9683365958585,
1,"It didn’t help the situation that Calvin and Jessie were running late to the airport, since Jessie had already been fuming at Calvin and preparing to end the relationship with him.",1,1,12.0,,,,,,0,1,1,1,,,,,0,0,0,0,,,,,,,,,,,,,,,,,,,,,,,,,,,,,,,space,1.186340661952272,space,1.169475179980509,9,6.47026656800881,,,,,,,,,,,,,,,,,,,,,,,,,,,,070219_p2,001,2019_Jul_02_1148,body_behavioural,3.0.4,59.9683365958585,
1,"Upon arriving at their terminal, they only had 45 minutes until their international flight would depart from Jamaica for the US.",1,1,None,,,,,,0,1,1,1,,,,,0,1,1,1,,,,,,,,,,,,,,,,,,,,,,,,,,,,,,,,,,,1,5.3033953250269406,,,,,,,,,,,,,,,,,,,,,,,,,,,,070219_p2,001,2019_Jul_02_1148,body_behavioural,3.0.4,59.9683365958585,
1,"It had been a tough vacation, which was planned well before Jessie began to think of breaking up with Calvin 6 weeks ago.  ",1,1,None,,,,,,0,1,1,1,,,,,0,2,2,2,,,,,,,,,,,,,,,,,,,,,,,,,,,,,,,,,,,1,5.120104643981904,,,,,,,,,,,,,,,,,,,,,,,,,,,,070219_p2,001,2019_Jul_02_1148,body_behavioural,3.0.4,59.9683365958585,
1,"Calvin knew that Jessie was upset, but wasn't sure what to do besides attempt to carry on as normal.",1,1,None,,,,,,0,1,1,1,,,,,0,3,3,3,,,,,,,,,,,,,,,,,,,,,,,,,,,,,,,,,,,1,2.936888632015325,,,,,,,,,,,,,,,,,,,,,,,,,,,,070219_p2,001,2019_Jul_02_1148,body_behavioural,3.0.4,59.9683365958585,
1,"The security line was very short, and once the online boarding passes were scanned, they put their bags on the conveyor belt.",2,1,None,,,,,,0,1,1,1,,,,,0,4,4,4,,,,,,,,,,,,,,,,,,,,,,,,,,,,,,,,,,,1,3.0029521829565056,,,,,,,,,,,,,,,,,,,,,,,,,,,,070219_p2,001,2019_Jul_02_1148,body_behavioural,3.0.4,59.9683365958585,
1,Calvin also took off his belt and watch.,2,1,None,,,,,,0,1,1,1,,,,,0,5,5,5,,,,,,,,,,,,,,,,,,,,,,,,,,,,,,,,,,,1,1.5340327680460177,,,,,,,,,,,,,,,,,,,,,,,,,,,,070219_p2,001,2019_Jul_02_1148,body_behavioural,3.0.4,59.9683365958585,
1,"There was a short halt in security proceedings so that the security guards could change shifts, but, once everything was back in order, they were ushered quickly through the metal detector. ",2,1,None,,,,,,0,1,1,1,,,,,0,6,6,6,,,,,,,,,,,,,,,,,,,,,,,,,,,,,,,,,,,1,4.386244796041865,,,,,,,,,,,,,,,,,,,,,,,,,,,,070219_p2,001,2019_Jul_02_1148,body_behavioural,3.0.4,59.9683365958585,
1,"“The infrastructure of this airport is really quite poor," said Calvin as they waited for their bags to emerge from the x-ray machine.",2,1,None,,,,,,0,1,1,1,,,,,0,7,7,7,,,,,,,,,,,,,,,,,,,,,,,,,,,,,,,,,,,1,2.9196150610223413,,,,,,,,,,,,,,,,,,,,,,,,,,,,070219_p2,001,2019_Jul_02_1148,body_behavioural,3.0.4,59.9683365958585,
1,“I could've hidden something in my shoes easily.” ,2,1,None,,,,,,0,1,1,1,,,,,0,8,8,8,,,,,,,,,,,,,,,,,,,,,,,,,,,,,,,,,,,1,1.4359196780133061,,,,,,,,,,,,,,,,,,,,,,,,,,,,070219_p2,001,2019_Jul_02_1148,body_behavioural,3.0.4,59.9683365958585,
1,"Jessie, exasperated, scowled at the conveyor belt.",2,1,None,,,,,,0,1,1,1,,,,,0,9,9,9,,,,,,,,,,,,,,,,,,,,,,,,,,,,,,,,,,,1,2.200755450001452,,,,,,,,,,,,,,,,,,,,,,,,,,,,070219_p2,001,2019_Jul_02_1148,body_behavioural,3.0.4,59.9683365958585,
1,“What?” he asked.,2,1,None,,,,,,0,1,1,1,,,,,0,10,10,10,,,,,,,,,,,,,,,,,,,,,,,,,,,,,,,,,,,1,0.7029780439916067,,,,,,,,,,,,,,,,,,,,,,,,,,,,070219_p2,001,2019_Jul_02_1148,body_behavioural,3.0.4,59.9683365958585,
1,"Balling up her fists and turning to him angrily, she said, “Calvin, I really don’t think I can do this anymore because I don’t think our personalities are compatible. ",2,2,None,,,,,,0,1,1,1,,,,,0,11,11,11,,,,,,,,,,,,,,,,,,,,,,,,,,,,,,,,,,,1,5.18657570501091,,,,,,,,,,,,,,,,,,,,,,,,,,,,070219_p2,001,2019_Jul_02_1148,body_behavioural,3.0.4,59.9683365958585,
1,I think it’s best that once we get to the States we part ways for good.” ,2,2,None,,,,,,0,1,1,1,,,,,0,12,12,12,,,,,,,,,,,,,,,,,,,,,,,,,,,,,,,,,,,1,4.653220135020092,,,,,,,,,,,,,,,,,,,,,,,,,,,,070219_p2,001,2019_Jul_02_1148,body_behavioural,3.0.4,59.9683365958585,
1,Calvin said nothing as he grabbed his bag and walked down the concourse.,3,2,None,,,,,,0,1,1,1,,,,,0,13,13,13,,,,,,,,,,,,,,,,,,,,,,,,,,,,,,,,,,,1,2.120518448005896,,,,,,,,,,,,,,,,,,,,,,,,,,,,070219_p2,001,2019_Jul_02_1148,body_behavioural,3.0.4,59.9683365958585,
1,Jessie trailed behind him as they hurried their way quickly toward gate A28.,3,2,None,,,,,,0,1,1,1,,,,,0,14,14,14,,,,,,,,,,,,,,,,,,,,,,,,,,,,,,,,,,,1,2.1030703780124895,,,,,,,,,,,,,,,,,,,,,,,,,,,,070219_p2,001,2019_Jul_02_1148,body_behavioural,3.0.4,59.9683365958585,
1,“So now you have nothing to say?” Jessie said. ,3,2,None,,,,,,0,1,1,1,,,,,0,15,15,15,,,,,,,,,,,,,,,,,,,,,,,,,,,,,,,,,,,1,1.4673810550011694,,,,,,,,,,,,,,,,,,,,,,,,,,,,070219_p2,001,2019_Jul_02_1148,body_behavioural,3.0.4,59.9683365958585,
1,"Calvin didn't answer, gritting his teeth and staring straight ahead. ",3,2,None,,,,,,0,1,1,1,,,,,0,16,16,16,,,,,,,,,,,,,,,,,,,,,,,,,,,,,,,,,,,1,0.9359607390360907,,,,,,,,,,,,,,,,,,,,,,,,,,,,070219_p2,001,2019_Jul_02_1148,body_behavioural,3.0.4,59.9683365958585,
1,"He was very frustrated that he felt he had been trying to appease Jessie for the entirety of the vacation, and it seemed to be completed unappreciated. ",3,2,None,,,,,,0,1,1,1,,,,,0,17,17,17,,,,,,,,,,,,,,,,,,,,,,,,,,,,,,,,,,,1,3.953061059000902,,,,,,,,,,,,,,,,,,,,,,,,,,,,070219_p2,001,2019_Jul_02_1148,body_behavioural,3.0.4,59.9683365958585,
1,"Their silence was punctuated only by the rapid, rhythmic clacking of their suitcase wheels over the tile floor as they continued power-walking through the terminal. ",3,2,None,,,,,,0,1,1,1,,,,,0,18,18,18,,,,,,,,,,,,,,,,,,,,,,,,,,,,,,,,,,,1,3.219933547952678,,,,,,,,,,,,,,,,,,,,,,,,,,,,070219_p2,001,2019_Jul_02_1148,body_behavioural,3.0.4,59.9683365958585,
1,"Calvin finally turned to address her as they continued walking: “Jessie, this makes perfect sense. ",3,3,None,,,,,,0,1,1,1,,,,,0,19,19,19,,,,,,,,,,,,,,,,,,,,,,,,,,,,,,,,,,,1,3.936431063048076,,,,,,,,,,,,,,,,,,,,,,,,,,,,070219_p2,001,2019_Jul_02_1148,body_behavioural,3.0.4,59.9683365958585,
1,"If you feel this way, then I think we should break up because I don’t want to keep boring you.",3,3,None,,,,,,0,1,1,1,,,,,0,20,20,20,,,,,,,,,,,,,,,,,,,,,,,,,,,,,,,,,,,1,2.2533157580182888,,,,,,,,,,,,,,,,,,,,,,,,,,,,070219_p2,001,2019_Jul_02_1148,body_behavioural,3.0.4,59.9683365958585,
1,"I agree, let’s part ways once we make it back.",3,3,None,,,,,,0,1,1,1,,,,,0,21,21,21,,,,,,,,,,,,,,,,,,,,,,,,,,,,,,,,,,,1,1.8697350950096734,,,,,,,,,,,,,,,,,,,,,,,,,,,,070219_p2,001,2019_Jul_02_1148,body_behavioural,3.0.4,59.9683365958585,
1,You should’ve spoken up about my apparent intolerability before you decided to plan this vacation.”,3,3,None,,,,,,0,1,1,1,,,,,0,22,22,22,,,,,,,,,,,,,,,,,,,,,,,,,,,,,,,,,,,1,3.7704134130035527,,,,,,,,,,,,,,,,,,,,,,,,,,,,070219_p2,001,2019_Jul_02_1148,body_behavioural,3.0.4,59.9683365958585,
1,"He was very hurt, even though he didn’t want to show it. ",3,3,None,,,,,,0,1,1,1,,,,,0,23,23,23,,,,,,,,,,,,,,,,,,,,,,,,,,,,,,,,,,,1,2.0862999689998105,,,,,,,,,,,,,,,,,,,,,,,,,,,,070219_p2,001,2019_Jul_02_1148,body_behavioural,3.0.4,59.9683365958585,
1,"Having made it to their gate, they scanned their tickets, and the annoyed flight attendant shooed them onto the jet bridge and then closed the plane door behind them.",4,3,None,,,,,,0,1,1,1,,,,,0,24,24,24,,,,,,,,,,,,,,,,,,,,,,,,,,,,,,,,,,,1,5.103785456973128,,,,,,,,,,,,,,,,,,,,,,,,,,,,070219_p2,001,2019_Jul_02_1148,body_behavioural,3.0.4,59.9683365958585,
1,"Luckily, they had forgotten to arrange seats next to each other on the flight back.",4,3,None,,,,,,0,1,1,1,,,,,0,25,25,25,,,,,,,,,,,,,,,,,,,,,,,,,,,,,,,,,,,1,5.4029828339698724,,,,,,,,,,,,,,,,,,,,,,,,,,,,070219_p2,001,2019_Jul_02_1148,body_behavioural,3.0.4,59.9683365958585,
1,"They were both in economy, but Jessie was headed for seat 33A while Calvin's seat was 33F. ",4,3,None,,,,,,0,1,1,1,,,,,0,26,26,26,,,,,,,,,,,,,,,,,,,,,,,,,,,,,,,,,,,1,3.2174598750425503,,,,,,,,,,,,,,,,,,,,,,,,,,,,070219_p2,001,2019_Jul_02_1148,body_behavioural,3.0.4,59.9683365958585,
1,"Before Jessie sat down, she took a deep breath, calmed her emotions, and then awkwardly shook Calvin’s hand, mumbling, “Have a nice flight. ",4,4,None,,,,,,0,1,1,1,,,,,0,27,27,27,,,,,,,,,,,,,,,,,,,,,,,,,,,,,,,,,,,1,3.187481081986334,,,,,,,,,,,,,,,,,,,,,,,,,,,,070219_p2,001,2019_Jul_02_1148,body_behavioural,3.0.4,59.9683365958585,
1,"Oh, and when you get a chance, could you send me back all the philosophy books I lent you?”",4,4,None,,,,,,0,1,1,1,,,,,0,28,28,28,,,,,,,,,,,,,,,,,,,,,,,,,,,,,,,,,,,1,2.7865795249817893,,,,,,,,,,,,,,,,,,,,,,,,,,,,070219_p2,001,2019_Jul_02_1148,body_behavioural,3.0.4,59.9683365958585,
1,He laughed in disbelief and walked to his window seat three rows back to get ready for takeoff.,4,4,None,,,,,,0,1,1,1,,,,,0,29,29,29,,,,,,,,,,,,,,,,,,,,,,,,,,,,,,,,,,,1,2.8360789159778506,,,,,,,,,,,,,,,,,,,,,,,,,,,,070219_p2,001,2019_Jul_02_1148,body_behavioural,3.0.4,59.9683365958585,
1,Both were upset but glad that they would have this flight in solitude.,4,4,None,,,,,,0,1,1,1,,,,,0,30,30,30,,,,,,,,,,,,,,,,,,,,,,,,,,,,,,,,,,,1,2.1702717080479488,,,,,,,,,,,,,,,,,,,,,,,,,,,,070219_p2,001,2019_Jul_02_1148,body_behavioural,3.0.4,59.9683365958585,
1,,,,,,,,,,0,1,1,1,,,,,,,,,,,,,,,,,,,,,,,,,,,,,,,,,,,,,,,,,,,,,,,,,,,,,,,,,,,,,,,,,,,,,,,,070219_p2,001,2019_Jul_02_1148,body_behavioural,3.0.4,59.9683365958585,
2,,,,,,,,,,0,2,2,2,0,0,0,0,,,,,,,,,,,,,,,,,,,,,,,,,,,,,space,1.4696543399477378,space,1.1363618050236255,space,0.8195224170340225,,,,,,,,,,,,,,,,,,,,,,,,,,,,,,,,,,070219_p2,001,2019_Jul_02_1148,body_behavioural,3.0.4,59.9683365958585,
2,"Ariana hurried into the classroom, and Leon did a double-take when he saw her, almost dropping the eraser he had in his hand. ",1.0,1.0,44.0,,,,,,0,2,2,2,,,,,0,0,0,0,,,,,,,,,,,,,,,,,,,,,,,,,,,,,,,space,0.51968357199803,space,1.0524905000347644,9,10.08708096499322,,,,,,,,,,,,,,,,,,,,,,,,,,,,070219_p2,001,2019_Jul_02_1148,body_behavioural,3.0.4,59.9683365958585,
2,"This was his first day in college, and he had assumed that he wouldn’t know anyone on campus, but he had a strong feeling that he had seen her somewhere before. ",1.0,1.0,None,,,,,,0,2,2,2,,,,,0,1,1,1,,,,,,,,,,,,,,,,,,,,,,,,,,,,,,,,,,,1,6.253425344009884,,,,,,,,,,,,,,,,,,,,,,,,,,,,070219_p2,001,2019_Jul_02_1148,body_behavioural,3.0.4,59.9683365958585,
2,They were in a small classroom with rows of chairs with foldable desks.,1.0,1.0,None,,,,,,0,2,2,2,,,,,0,2,2,2,,,,,,,,,,,,,,,,,,,,,,,,,,,,,,,,,,,1,2.253435062011704,,,,,,,,,,,,,,,,,,,,,,,,,,,,070219_p2,001,2019_Jul_02_1148,body_behavioural,3.0.4,59.9683365958585,
2,These faced the speaker’s podium and a blackboard on wheels. ,None,None,None,,,,,,0,2,2,2,,,,,0,3,3,3,,,,,,,,,,,,,,,,,,,,,,,,,,,,,,,,,,,1,2.152528286969755,,,,,,,,,,,,,,,,,,,,,,,,,,,,070219_p2,001,2019_Jul_02_1148,body_behavioural,3.0.4,59.9683365958585,
2,"There were no windows in the room, since they were down in the basement of the History Department.",1.0,1.0,None,,,,,,0,2,2,2,,,,,0,4,4,4,,,,,,,,,,,,,,,,,,,,,,,,,,,,,,,,,,,1,7.752279146981891,,,,,,,,,,,,,,,,,,,,,,,,,,,,070219_p2,001,2019_Jul_02_1148,body_behavioural,3.0.4,59.9683365958585,
2,"Leon, trying to figure out where he had seen her before, could not stop looking over at Ariana.",1.0,1.0,None,,,,,,0,2,2,2,,,,,0,5,5,5,,,,,,,,,,,,,,,,,,,,,,,,,,,,,,,,,,,1,6.653581434045918,,,,,,,,,,,,,,,,,,,,,,,,,,,,070219_p2,001,2019_Jul_02_1148,body_behavioural,3.0.4,59.9683365958585,
2,Ariana was oblivious to Leon’s gaze and was only focused on getting ready for class. ,1.0,1.0,None,,,,,,0,2,2,2,,,,,0,6,6,6,,,,,,,,,,,,,,,,,,,,,,,,,,,,,,,,,,,1,2.902699821977876,,,,,,,,,,,,,,,,,,,,,,,,,,,,070219_p2,001,2019_Jul_02_1148,body_behavioural,3.0.4,59.9683365958585,
2,"“Good morning, everyone,” the professor began.",2.0,1.0,None,,,,,,0,2,2,2,,,,,0,7,7,7,,,,,,,,,,,,,,,,,,,,,,,,,,,,,,,,,,,1,1.619976210000459,,,,,,,,,,,,,,,,,,,,,,,,,,,,070219_p2,001,2019_Jul_02_1148,body_behavioural,3.0.4,59.9683365958585,
2,“Welcome to History of Egypt. ,2.0,1.0,None,,,,,,0,2,2,2,,,,,0,8,8,8,,,,,,,,,,,,,,,,,,,,,,,,,,,,,,,,,,,1,2.3360523199662566,,,,,,,,,,,,,,,,,,,,,,,,,,,,070219_p2,001,2019_Jul_02_1148,body_behavioural,3.0.4,59.9683365958585,
2,"Today we will be talking about mummification, one of the most famous and often misunderstood customs in ancient Egyptian society.”",2.0,1.0,None,,,,,,0,2,2,2,,,,,0,9,9,9,,,,,,,,,,,,,,,,,,,,,,,,,,,,,,,,,,,1,2.55318777798675,,,,,,,,,,,,,,,,,,,,,,,,,,,,070219_p2,001,2019_Jul_02_1148,body_behavioural,3.0.4,59.9683365958585,
2,Leon and Ariana began taking notes. ,2.0,1.0,None,,,,,,0,2,2,2,,,,,0,10,10,10,,,,,,,,,,,,,,,,,,,,,,,,,,,,,,,,,,,1,1.2028628150001168,,,,,,,,,,,,,,,,,,,,,,,,,,,,070219_p2,001,2019_Jul_02_1148,body_behavioural,3.0.4,59.9683365958585,
2,"Within a few minutes, though, Leon found his attention wandering from the lecture and back to Ariana, and he decided to do something about it by putting a note on her desk.",2.0,2.0,None,,,,,,0,2,2,2,,,,,0,11,11,11,,,,,,,,,,,,,,,,,,,,,,,,,,,,,,,,,,,1,4.036431379034184,,,,,,,,,,,,,,,,,,,,,,,,,,,,070219_p2,001,2019_Jul_02_1148,body_behavioural,3.0.4,59.9683365958585,
2,"“Are you from LA?” it read, “Sorry to distract you from mummies, but you look really familiar.”",2.0,2.0,None,,,,,,0,2,2,2,,,,,0,12,12,12,,,,,,,,,,,,,,,,,,,,,,,,,,,,,,,,,,,1,2.6698210000176914,,,,,,,,,,,,,,,,,,,,,,,,,,,,070219_p2,001,2019_Jul_02_1148,body_behavioural,3.0.4,59.9683365958585,
2,"She looked at the note with surprise, and then turned to notice Leon for the first time. ",2.0,2.0,None,,,,,,0,2,2,2,,,,,0,13,13,13,,,,,,,,,,,,,,,,,,,,,,,,,,,,,,,,,,,1,2.4531311750179157,,,,,,,,,,,,,,,,,,,,,,,,,,,,070219_p2,001,2019_Jul_02_1148,body_behavioural,3.0.4,59.9683365958585,
2,She instantly liked him when she saw him.,2.0,2.0,None,,,,,,0,2,2,2,,,,,0,14,14,14,,,,,,,,,,,,,,,,,,,,,,,,,,,,,,,,,,,1,1.4361501749954186,,,,,,,,,,,,,,,,,,,,,,,,,,,,070219_p2,001,2019_Jul_02_1148,body_behavioural,3.0.4,59.9683365958585,
2,She thought he looked trustworthy and genuine.,2.0,2.0,None,,,,,,0,2,2,2,,,,,0,15,15,15,,,,,,,,,,,,,,,,,,,,,,,,,,,,,,,,,,,1,1.7531902019982226,,,,,,,,,,,,,,,,,,,,,,,,,,,,070219_p2,001,2019_Jul_02_1148,body_behavioural,3.0.4,59.9683365958585,
2,"Ariana passed the note back to Leon, and she had replied, “No, but maybe my twin and I were separated at birth.”",2.0,2.0,None,,,,,,0,2,2,2,,,,,0,16,16,16,,,,,,,,,,,,,,,,,,,,,,,,,,,,,,,,,,,1,4.98668919201009,,,,,,,,,,,,,,,,,,,,,,,,,,,,070219_p2,001,2019_Jul_02_1148,body_behavioural,3.0.4,59.9683365958585,
2,"The professor continued, “One may well question why the ancient Egyptians spent so much time and effort on their funerary practices.",3.0,2.0,None,,,,,,0,2,2,2,,,,,0,17,17,17,,,,,,,,,,,,,,,,,,,,,,,,,,,,,,,,,,,1,3.2698665060452186,,,,,,,,,,,,,,,,,,,,,,,,,,,,070219_p2,001,2019_Jul_02_1148,body_behavioural,3.0.4,59.9683365958585,
2,"Not only was the mummification process itself a complicated affair, but there were also elaborate rituals before, during, and after death.",3.0,2.0,None,,,,,,0,2,2,2,,,,,0,18,18,18,,,,,,,,,,,,,,,,,,,,,,,,,,,,,,,,,,,1,2.77062600600766,,,,,,,,,,,,,,,,,,,,,,,,,,,,070219_p2,001,2019_Jul_02_1148,body_behavioural,3.0.4,59.9683365958585,
2,The practice required teams of experts with years of training and took a total of 70 days to complete.” ,3.0,2.0,None,,,,,,0,2,2,2,,,,,0,19,19,19,,,,,,,,,,,,,,,,,,,,,,,,,,,,,,,,,,,1,2.269702569989022,,,,,,,,,,,,,,,,,,,,,,,,,,,,070219_p2,001,2019_Jul_02_1148,body_behavioural,3.0.4,59.9683365958585,
2,"They passed notes back and forth the whole class like they were in high school, and Leon wrote in one, “Would you like to go on a walk this evening?”",3.0,3.0,None,,,,,,0,2,2,2,,,,,0,20,20,20,,,,,,,,,,,,,,,,,,,,,,,,,,,,,,,,,,,1,2.7364313100115396,,,,,,,,,,,,,,,,,,,,,,,,,,,,070219_p2,001,2019_Jul_02_1148,body_behavioural,3.0.4,59.9683365958585,
2,"When Ariana read this, she looked at him and nodded her head",3.0,3.0,None,,,,,,0,2,2,2,,,,,0,21,21,21,,,,,,,,,,,,,,,,,,,,,,,,,,,,,,,,,,,1,1.3359991629840806,,,,,,,,,,,,,,,,,,,,,,,,,,,,070219_p2,001,2019_Jul_02_1148,body_behavioural,3.0.4,59.9683365958585,
2,"She wrote back on the slip of paper, “Let’s meet at 8 in front of my dorm, Patton Hall.”",3.0,3.0,None,,,,,,0,2,2,2,,,,,0,22,22,22,,,,,,,,,,,,,,,,,,,,,,,,,,,,,,,,,,,1,2.6032218519831076,,,,,,,,,,,,,,,,,,,,,,,,,,,,070219_p2,001,2019_Jul_02_1148,body_behavioural,3.0.4,59.9683365958585,
2,The professor ended the lecture and announced to the class that they would have their first quiz next class on Friday on mummification. ,4.0,3.0,None,,,,,,0,2,2,2,,,,,0,23,23,23,,,,,,,,,,,,,,,,,,,,,,,,,,,,,,,,,,,1,3.5507837350014597,,,,,,,,,,,,,,,,,,,,,,,,,,,,070219_p2,001,2019_Jul_02_1148,body_behavioural,3.0.4,59.9683365958585,
2,Everyone packed up and filed out of the classroom except for Ariana and Leon. ,4.0,3.0,None,,,,,,0,2,2,2,,,,,0,24,24,24,,,,,,,,,,,,,,,,,,,,,,,,,,,,,,,,,,,1,1.4196352349827066,,,,,,,,,,,,,,,,,,,,,,,,,,,,070219_p2,001,2019_Jul_02_1148,body_behavioural,3.0.4,59.9683365958585,
2,"Ariana spoke first, “I have to go to my next class.”",4.0,4.0,None,,,,,,0,2,2,2,,,,,0,25,25,25,,,,,,,,,,,,,,,,,,,,,,,,,,,,,,,,,,,1,1.9526052169967443,,,,,,,,,,,,,,,,,,,,,,,,,,,,070219_p2,001,2019_Jul_02_1148,body_behavioural,3.0.4,59.9683365958585,
2,"She looked at the clock which read noon and headed for the door saying, “I should run, but I’ll see you later tonight!” ",4.0,4.0,None,,,,,,0,2,2,2,,,,,0,26,26,26,,,,,,,,,,,,,,,,,,,,,,,,,,,,,,,,,,,1,4.234224544954486,,,,,,,,,,,,,,,,,,,,,,,,,,,,070219_p2,001,2019_Jul_02_1148,body_behavioural,3.0.4,59.9683365958585,
2,"She waved as she ran out the door, and Leon was still pondering where he had met her before, even more convinced of his conviction that they had previously met after hearing her voice.",4.0,4.0,None,,,,,,0,2,2,2,,,,,0,27,27,27,,,,,,,,,,,,,,,,,,,,,,,,,,,,,,,,,,,1,4.936834377993364,,,,,,,,,,,,,,,,,,,,,,,,,,,,070219_p2,001,2019_Jul_02_1148,body_behavioural,3.0.4,59.9683365958585,
2,,,,,,,,,,0,2,2,2,,,,,,,,,,,,,,,,,,,,,,,,,,,,,,,,,,,,,,,,,,,,,,,,,,,,,,,,,,,,,,,,,,,,,,,,070219_p2,001,2019_Jul_02_1148,body_behavioural,3.0.4,59.9683365958585,
3,,,,,,,,,,0,3,3,3,0,0,0,0,,,,,,,,,,,,,,,,,,,,,,,,,,,,,space,1.86979855800746,space,1.1359221800230443,space,0.9029158750199713,,,,,,,,,,,,,,,,,,,,,,,,,,,,,,,,,,070219_p2,001,2019_Jul_02_1148,body_behavioural,3.0.4,59.9683365958585,
3,"Carina and Simon, both distracted in thought, nearly ran into each other as they walked into the grocery store. ",1,1,43.0,,,,,,0,3,3,3,,,,,0,0,0,0,,,,,,,,,,,,,,,,,,,,,,,,,,,,,,,space,0.38622688001487404,space,0.9864425500272773,9,4.220138819946442,,,,,,,,,,,,,,,,,,,,,,,,,,,,070219_p2,001,2019_Jul_02_1148,body_behavioural,3.0.4,59.9683365958585,
3,She almost dropped the keys she was holding. ,1,1,None,,,,,,0,3,3,3,,,,,0,1,1,1,,,,,,,,,,,,,,,,,,,,,,,,,,,,,,,,,,,1,8.253527569992002,,,,,,,,,,,,,,,,,,,,,,,,,,,,070219_p2,001,2019_Jul_02_1148,body_behavioural,3.0.4,59.9683365958585,
3,"The store they had entered looked like a warehouse, with high, black ceilings, industrial lights, and large packages of food. ",1,1,None,,,,,,0,3,3,3,,,,,0,2,2,2,,,,,,,,,,,,,,,,,,,,,,,,,,,,,,,,,,,1,2.0199280030210502,,,,,,,,,,,,,,,,,,,,,,,,,,,,070219_p2,001,2019_Jul_02_1148,body_behavioural,3.0.4,59.9683365958585,
3,"In the meat section, Carina and Simon were looking over the same cuts of meat, because they were both preparing for barbecues.",2,1,None,,,,,,0,3,3,3,,,,,0,3,3,3,,,,,,,,,,,,,,,,,,,,,,,,,,,,,,,,,,,9,4.670035406947136,,,,,,,,,,,,,,,,,,,,,,,,,,,,070219_p2,001,2019_Jul_02_1148,body_behavioural,3.0.4,59.9683365958585,
3,"Simon had wanted to talk to Carina, and Carina had wanted to say something to Simon, but they felt embarrassed striking up a conversation with a stranger.",2,1,None,,,,,,0,3,3,3,,,,,0,4,4,4,,,,,,,,,,,,,,,,,,,,,,,,,,,,,,,,,,,1,3.75293141201837,,,,,,,,,,,,,,,,,,,,,,,,,,,,070219_p2,001,2019_Jul_02_1148,body_behavioural,3.0.4,59.9683365958585,
3,"Carina mustered the courage, turned to Simon and, pointing at a Cornish hen, asked, “Isn’t this meat cute?”",2,2,None,,,,,,0,3,3,3,,,,,0,5,5,5,,,,,,,,,,,,,,,,,,,,,,,,,,,,,,,,,,,1,2.3532542110187933,,,,,,,,,,,,,,,,,,,,,,,,,,,,070219_p2,001,2019_Jul_02_1148,body_behavioural,3.0.4,59.9683365958585,
3,"He laughed, and said, “It is very cute.",2,2,None,,,,,,0,3,3,3,,,,,0,6,6,6,,,,,,,,,,,,,,,,,,,,,,,,,,,,,,,,,,,1,1.0690030510304496,,,,,,,,,,,,,,,,,,,,,,,,,,,,070219_p2,001,2019_Jul_02_1148,body_behavioural,3.0.4,59.9683365958585,
3,"Probably the younger brother of this guy,” and he picked up a regular-sized chicken.",2,2,None,,,,,,0,3,3,3,,,,,0,7,7,7,,,,,,,,,,,,,,,,,,,,,,,,,,,,,,,,,,,1,1.269823879993055,,,,,,,,,,,,,,,,,,,,,,,,,,,,070219_p2,001,2019_Jul_02_1148,body_behavioural,3.0.4,59.9683365958585,
3,"“Unlucky family,” she responded as she shook her head. ",2,2,None,,,,,,0,3,3,3,,,,,0,8,8,8,,,,,,,,,,,,,,,,,,,,,,,,,,,,,,,,,,,1,1.786132198991254,,,,,,,,,,,,,,,,,,,,,,,,,,,,070219_p2,001,2019_Jul_02_1148,body_behavioural,3.0.4,59.9683365958585,
3,They chatted as they picked out a few last-minute groceries.,2,2,None,,,,,,0,3,3,3,,,,,0,9,9,9,,,,,,,,,,,,,,,,,,,,,,,,,,,,,,,,,,,1,1.9696798080112785,,,,,,,,,,,,,,,,,,,,,,,,,,,,070219_p2,001,2019_Jul_02_1148,body_behavioural,3.0.4,59.9683365958585,
3,"Simon helped Carina select the best ribs and his personal favorite barbecue sauce, and she helped him choose red peppers and spices for a vegetable kabob she recommended.",2,2,None,,,,,,0,3,3,3,,,,,0,10,10,10,,,,,,,,,,,,,,,,,,,,,,,,,,,,,,,,,,,1,5.580255115986802,,,,,,,,,,,,,,,,,,,,,,,,,,,,070219_p2,001,2019_Jul_02_1148,body_behavioural,3.0.4,59.9683365958585,
3,"In the checkout area, there were three lines open, and they went to the one labeled “8.”",3,2,None,,,,,,0,3,3,3,,,,,0,11,11,11,,,,,,,,,,,,,,,,,,,,,,,,,,,,,,,,,,,1,3.6045315980445594,,,,,,,,,,,,,,,,,,,,,,,,,,,,070219_p2,001,2019_Jul_02_1148,body_behavioural,3.0.4,59.9683365958585,
3,"Carina and Simon made jokes about the magazine covers while waiting in line, and they were laughing so hard their stomachs hurt. ",3,2,None,,,,,,0,3,3,3,,,,,0,12,12,12,,,,,,,,,,,,,,,,,,,,,,,,,,,,,,,,,,,1,3.5212187170400284,,,,,,,,,,,,,,,,,,,,,,,,,,,,070219_p2,001,2019_Jul_02_1148,body_behavioural,3.0.4,59.9683365958585,
3,"Simon turned to face Carina and, while looking at her straight in the eyes, asked, “Would you like to go out to dinner with me?",3,3,None,,,,,,0,3,3,3,,,,,0,13,13,13,,,,,,,,,,,,,,,,,,,,,,,,,,,,,,,,,,,1,2.38928337499965,,,,,,,,,,,,,,,,,,,,,,,,,,,,070219_p2,001,2019_Jul_02_1148,body_behavioural,3.0.4,59.9683365958585,
3,Next Saturday we could tour around Harvard Square and get something to eat.,3,3,None,,,,,,0,3,3,3,,,,,0,14,14,14,,,,,,,,,,,,,,,,,,,,,,,,,,,,,,,,,,,1,2.4881812799721956,,,,,,,,,,,,,,,,,,,,,,,,,,,,070219_p2,001,2019_Jul_02_1148,body_behavioural,3.0.4,59.9683365958585,
3,"There are a lot of great places around there, and it’s really nice during the summer.”",3,3,None,,,,,,0,3,3,3,,,,,0,15,15,15,,,,,,,,,,,,,,,,,,,,,,,,,,,,,,,,,,,1,1.5877869009855203,,,,,,,,,,,,,,,,,,,,,,,,,,,,070219_p2,001,2019_Jul_02_1148,body_behavioural,3.0.4,59.9683365958585,
3,"Carina smiled, “I’d love to.",3,3,None,,,,,,0,3,3,3,,,,,0,16,16,16,,,,,,,,,,,,,,,,,,,,,,,,,,,,,,,,,,,1,0.9214426220278256,,,,,,,,,,,,,,,,,,,,,,,,,,,,070219_p2,001,2019_Jul_02_1148,body_behavioural,3.0.4,59.9683365958585,
3,That sounds great!”,3,3,None,,,,,,0,3,3,3,,,,,0,17,17,17,,,,,,,,,,,,,,,,,,,,,,,,,,,,,,,,,,,1,0.5543822480249219,,,,,,,,,,,,,,,,,,,,,,,,,,,,070219_p2,001,2019_Jul_02_1148,body_behavioural,3.0.4,59.9683365958585,
3,The cashier scanned Carina’s groceries.,4,3,None,,,,,,0,3,3,3,,,,,0,18,18,18,,,,,,,,,,,,,,,,,,,,,,,,,,,,,,,,,,,1,1.3367584039806388,,,,,,,,,,,,,,,,,,,,,,,,,,,,070219_p2,001,2019_Jul_02_1148,body_behavioural,3.0.4,59.9683365958585,
3,"Simon lifted up the divider on the conveyor belt and said to the cashier, “Actually, these are together.",4,3,None,,,,,,0,3,3,3,,,,,0,19,19,19,,,,,,,,,,,,,,,,,,,,,,,,,,,,,,,,,,,1,2.7882654099958017,,,,,,,,,,,,,,,,,,,,,,,,,,,,070219_p2,001,2019_Jul_02_1148,body_behavioural,3.0.4,59.9683365958585,
3,"Carina, I’ve got it.",4,3,None,,,,,,0,3,3,3,,,,,0,20,20,20,,,,,,,,,,,,,,,,,,,,,,,,,,,,,,,,,,,1,1.2540258429944515,,,,,,,,,,,,,,,,,,,,,,,,,,,,070219_p2,001,2019_Jul_02_1148,body_behavioural,3.0.4,59.9683365958585,
3,This was kind-of a date today.”,4,3,None,,,,,,0,3,3,3,,,,,0,21,21,21,,,,,,,,,,,,,,,,,,,,,,,,,,,,,,,,,,,1,2.8845030600205064,,,,,,,,,,,,,,,,,,,,,,,,,,,,070219_p2,001,2019_Jul_02_1148,body_behavioural,3.0.4,59.9683365958585,
3,Carina blushed and laughed; she thought this was ridiculous but also very sweet. ,4,3,None,,,,,,0,3,3,3,,,,,0,22,22,22,,,,,,,,,,,,,,,,,,,,,,,,,,,,,,,,,,,1,2.1209943090216257,,,,,,,,,,,,,,,,,,,,,,,,,,,,070219_p2,001,2019_Jul_02_1148,body_behavioural,3.0.4,59.9683365958585,
3,"The cashier rolled her eyes when they weren’t looking, and she scanned the rest of his items. ",4,3,None,,,,,,0,3,3,3,,,,,0,23,23,23,,,,,,,,,,,,,,,,,,,,,,,,,,,,,,,,,,,1,2.556120426976122,,,,,,,,,,,,,,,,,,,,,,,,,,,,070219_p2,001,2019_Jul_02_1148,body_behavioural,3.0.4,59.9683365958585,
3,"The total came to $52, and he paid with his credit card.",4,3,None,,,,,,0,3,3,3,,,,,0,24,24,24,,,,,,,,,,,,,,,,,,,,,,,,,,,,,,,,,,,1,1.704094588989392,,,,,,,,,,,,,,,,,,,,,,,,,,,,070219_p2,001,2019_Jul_02_1148,body_behavioural,3.0.4,59.9683365958585,
3,"Seeing that it was 4:30 PM on her phone, Carina gasped because she realized she was late for her own barbecue. ",4,4,None,,,,,,0,3,3,3,,,,,0,25,25,25,,,,,,,,,,,,,,,,,,,,,,,,,,,,,,,,,,,1,3.371123766992241,,,,,,,,,,,,,,,,,,,,,,,,,,,,070219_p2,001,2019_Jul_02_1148,body_behavioural,3.0.4,59.9683365958585,
3,Carina thanked Simon and took her groceries and ran. ,4,4,None,,,,,,0,3,3,3,,,,,0,26,26,26,,,,,,,,,,,,,,,,,,,,,,,,,,,,,,,,,,,1,1.721568607026711,,,,,,,,,,,,,,,,,,,,,,,,,,,,070219_p2,001,2019_Jul_02_1148,body_behavioural,3.0.4,59.9683365958585,
3,"“I hope her guests aren’t hungry,” the cashier remarked.",4,4,None,,,,,,0,3,3,3,,,,,0,27,27,27,,,,,,,,,,,,,,,,,,,,,,,,,,,,,,,,,,,1,2.1379125470411964,,,,,,,,,,,,,,,,,,,,,,,,,,,,070219_p2,001,2019_Jul_02_1148,body_behavioural,3.0.4,59.9683365958585,
3,Simon was thoroughly charmed and barely heard the comment as he watched her go. ,4,4,None,,,,,,0,3,3,3,,,,,0,28,28,28,,,,,,,,,,,,,,,,,,,,,,,,,,,,,,,,,,,1,2.5559381479979493,,,,,,,,,,,,,,,,,,,,,,,,,,,,070219_p2,001,2019_Jul_02_1148,body_behavioural,3.0.4,59.9683365958585,
3,,,,,,,,,,0,3,3,3,,,,,,,,,,,,,,,,,,,,,,,,,,,,,,,,,,,,,,,,,,,,,,,,,,,,,,,,,,,,,,,,,,,,,,,,070219_p2,001,2019_Jul_02_1148,body_behavioural,3.0.4,59.9683365958585,
4,,,,,,,,,,0,4,4,4,0,0,0,0,,,,,,,,,,,,,,,,,,,,,,,,,,,,,space,1.3551872100215405,space,0.6220845910138451,space,0.8372467799927108,,,,,,,,,,,,,,,,,,,,,,,,,,,,,,,,,,070219_p2,001,2019_Jul_02_1148,body_behavioural,3.0.4,59.9683365958585,
4,"Thomas, dreading the approaching breakup conversation he was about to start, got to Annika’s Finer Diner late but Sadie, his girlfriend, was not there yet.",1,1,11.0,None,None,None,None,,0,4,4,4,,,,,0,0,0,0,,,,,,,,,,,,,,,,,,,,,,,,,,,,,,,space,0.9545490450109355,space,1.2721525799715891,9,21.006403305043932,,,,,,,,,,,,,,,,,,,,,,,,,,,,070219_p2,001,2019_Jul_02_1148,body_behavioural,3.0.4,59.9683365958585,
4,Thomas had been thinking about breaking up with her for 2 months now.,1,1,None,None,None,1.0,None,,0,4,4,4,,,,,0,1,1,1,,,,,,,,,,,,,,,,,,,,,,,,,,,,,,,,,,,1,7.166972064995207,,,,,,,,,,,,,,,,,,,,,,,,,,,,070219_p2,001,2019_Jul_02_1148,body_behavioural,3.0.4,59.9683365958585,
4,"The restaurant he had chosen to meet at was reminiscent of a diner from the 70’s with black and white checkerboard tiling on the floor, a long bar in the front, and booths and stools with red, leather upholstery. ",1,1,None,None,None,None,1.0,,0,4,4,4,,,,,0,2,2,2,,,,,,,,,,,,,,,,,,,,,,,,,,,,,,,,,,,1,3.872181369981263,,,,,,,,,,,,,,,,,,,,,,,,,,,,070219_p2,001,2019_Jul_02_1148,body_behavioural,3.0.4,59.9683365958585,
4,"A bell chimed as the door swung open, and Sadie entered to find Thomas ruminating at the bar.",1,1,None,None,None,None,None,,0,4,4,4,,,,,0,3,3,3,,,,,,,,,,,,,,,,,,,,,,,,,,,,,,,,,,,1,2.537160378007684,,,,,,,,,,,,,,,,,,,,,,,,,,,,070219_p2,001,2019_Jul_02_1148,body_behavioural,3.0.4,59.9683365958585,
4,"He stood up and gave her a side hug, asking quickly, “How was your day?”",1,1,None,None,None,None,None,,0,4,4,4,,,,,0,4,4,4,,,,,,,,,,,,,,,,,,,,,,,,,,,,,,,,,,,1,2.0875329760019667,,,,,,,,,,,,,,,,,,,,,,,,,,,,070219_p2,001,2019_Jul_02_1148,body_behavioural,3.0.4,59.9683365958585,
4,"She clung onto him, “It was okay- I missed you today.”",1,1,None,None,None,None,None,,0,4,4,4,,,,,0,5,5,5,,,,,,,,,,,,,,,,,,,,,,,,,,,,,,,,,,,1,1.7712599549558945,,,,,,,,,,,,,,,,,,,,,,,,,,,,070219_p2,001,2019_Jul_02_1148,body_behavioural,3.0.4,59.9683365958585,
4,"He looked away and addressed the hostess coming towards them, “Can we have a booth in the back?”",1,1,None,None,None,None,None,,0,4,4,4,,,,,0,6,6,6,,,,,,,,,,,,,,,,,,,,,,,,,,,,,,,,,,,1,3.353668683033902,,,,,,,,,,,,,,,,,,,,,,,,,,,,070219_p2,001,2019_Jul_02_1148,body_behavioural,3.0.4,59.9683365958585,
4,"She shrugged and after loudly popping her bubblegum replied, “Sure, honey.”",1,1,None,9.0,None,None,None,,0,4,4,4,,,,,0,7,7,7,,,,,,,,,,,,,,,,,,,,,,,,,,,,,,,,,,,1,2.4042666319874115,,,,,,,,,,,,,,,,,,,,,,,,,,,,070219_p2,001,2019_Jul_02_1148,body_behavioural,3.0.4,59.9683365958585,
4,She seated them at a booth in the back corner of the diner.  ,2,1,None,None,None,None,None,,0,4,4,4,,,,,0,8,8,8,,,,,,,,,,,,,,,,,,,,,,,,,,,,,,,,,,,1,2.6882411979604512,,,,,,,,,,,,,,,,,,,,,,,,,,,,070219_p2,001,2019_Jul_02_1148,body_behavioural,3.0.4,59.9683365958585,
4,Sadie slipped into the cushioned seat and grabbed Thomas’ hand.,2,1,None,None,None,None,None,,0,4,4,4,,,,,0,9,9,9,,,,,,,,,,,,,,,,,,,,,,,,,,,,,,,,,,,1,4.587980574986432,,,,,,,,,,,,,,,,,,,,,,,,,,,,070219_p2,001,2019_Jul_02_1148,body_behavioural,3.0.4,59.9683365958585,
4,“Tell me about your day!” she sang.,2,1,None,None,None,None,None,,0,4,4,4,,,,,0,10,10,10,,,,,,,,,,,,,,,,,,,,,,,,,,,,,,,,,,,1,3.405597007018514,,,,,,,,,,,,,,,,,,,,,,,,,,,,070219_p2,001,2019_Jul_02_1148,body_behavioural,3.0.4,59.9683365958585,
4,He looked at her silently and pulled his hand slowly from hers as a puzzled look grew on Sadie’s face. ,2,1,None,None,None,None,None,,0,4,4,4,,,,,0,11,11,11,,,,,,,,,,,,,,,,,,,,,,,,,,,,,,,,,,,1,2.6883108480251394,,,,,,,,,,,,,,,,,,,,,,,,,,,,070219_p2,001,2019_Jul_02_1148,body_behavioural,3.0.4,59.9683365958585,
4,Thomas looked away and took a deep breath. ,2,1,None,None,None,None,None,,0,4,4,4,,,,,0,12,12,12,,,,,,,,,,,,,,,,,,,,,,,,,,,,,,,,,,,1,2.504800978000276,,,,,,,,,,,,,,,,,,,,,,,,,,,,070219_p2,001,2019_Jul_02_1148,body_behavioural,3.0.4,59.9683365958585,
4,"Sadie asked, “What’s wrong?” ",2,1,None,None,None,None,None,,0,4,4,4,,,,,0,13,13,13,,,,,,,,,,,,,,,,,,,,,,,,,,,,,,,,,,,1,2.1047446969896555,,,,,,,,,,,,,,,,,,,,,,,,,,,,070219_p2,001,2019_Jul_02_1148,body_behavioural,3.0.4,59.9683365958585,
4,Thomas picked at his fingernails.,2,1,None,None,22.0,None,None,,0,4,4,4,,,,,0,14,14,14,,,,,,,,,,,,,,,,,,,,,,,,,,,,,,,,,,,1,2.270670155005064,,,,,,,,,,,,,,,,,,,,,,,,,,,,070219_p2,001,2019_Jul_02_1148,body_behavioural,3.0.4,59.9683365958585,
4,"After a few moments, Thomas let out a deep breath and said, “Sadie, I’ve been thinking, and I need a break from this relationship because I need to figure out my career path on my own.”",2,2,None,None,None,None,None,,0,4,4,4,,,,,0,15,15,15,,,,,,,,,,,,,,,,,,,,,,,,,,,,,,,,,,,1,2.754853043006733,,,,,,,,,,,,,,,,,,,,,,,,,,,,070219_p2,001,2019_Jul_02_1148,body_behavioural,3.0.4,59.9683365958585,
4,Sadie sat back in her seat.,2,2,None,None,None,None,None,,0,4,4,4,,,,,0,16,16,16,,,,,,,,,,,,,,,,,,,,,,,,,,,,,,,,,,,1,1.1880236379802227,,,,,,,,,,,,,,,,,,,,,,,,,,,,070219_p2,001,2019_Jul_02_1148,body_behavioural,3.0.4,59.9683365958585,
4,"Thomas continued, “Things have been really picking up at work, and I’m not sure that this is the job I want to do anymore.",2,2,None,None,None,None,None,,0,4,4,4,,,,,0,17,17,17,,,,,,,,,,,,,,,,,,,,,,,,,,,,,,,,,,,1,4.471856763993856,,,,,,,,,,,,,,,,,,,,,,,,,,,,070219_p2,001,2019_Jul_02_1148,body_behavioural,3.0.4,59.9683365958585,
4,"Plus, it’s been really overwhelming between working and figuring out if I should change careers, and I really feel like I need more time to figure it out.” ",2,2,None,17.0,None,None,None,,0,4,4,4,,,,,0,18,18,18,,,,,,,,,,,,,,,,,,,,,,,,,,,,,,,,,,,1,3.888063579041045,,,,,,,,,,,,,,,,,,,,,,,,,,,,070219_p2,001,2019_Jul_02_1148,body_behavioural,3.0.4,59.9683365958585,
4,"The waiter appeared and cheerily asked, “Have you decided what you would like?”",3,2,None,None,None,None,None,,0,4,4,4,,,,,0,19,19,19,,,,,,,,,,,,,,,,,,,,,,,,,,,,,,,,,,,1,1.7707406400004402,,,,,,,,,,,,,,,,,,,,,,,,,,,,070219_p2,001,2019_Jul_02_1148,body_behavioural,3.0.4,59.9683365958585,
4,"Thomas and Sadie realized there were menus on the table, and they glanced at them quickly.",3,2,None,None,None,None,None,,0,4,4,4,,,,,0,20,20,20,,,,,,,,,,,,,,,,,,,,,,,,,,,,,,,,,,,1,2.4041211070143618,,,,,,,,,,,,,,,,,,,,,,,,,,,,070219_p2,001,2019_Jul_02_1148,body_behavioural,3.0.4,59.9683365958585,
4,"The menus were laminated posters with silly names for all the foods, and since they didn’t want to read through each item description, they settled on familiar orders.",3,2,None,None,None,None,None,,0,4,4,4,,,,,0,21,21,21,,,,,,,,,,,,,,,,,,,,,,,,,,,,,,,,,,,1,5.554647726006806,,,,,,,,,,,,,,,,,,,,,,,,,,,,070219_p2,001,2019_Jul_02_1148,body_behavioural,3.0.4,59.9683365958585,
4,"“I’ll have a burger, no tomatoes,” Thomas said.",3,2,None,None,None,None,None,,0,4,4,4,,,,,0,22,22,22,,,,,,,,,,,,,,,,,,,,,,,,,,,,,,,,,,,1,1.6379635899793357,,,,,,,,,,,,,,,,,,,,,,,,,,,,070219_p2,001,2019_Jul_02_1148,body_behavioural,3.0.4,59.9683365958585,
4,"Sadie asked about the reuben, and the waiter told her it was excellent.",3,2,None,None,None,None,None,,0,4,4,4,,,,,0,23,23,23,,,,,,,,,,,,,,,,,,,,,,,,,,,,,,,,,,,1,1.8547206069924869,,,,,,,,,,,,,,,,,,,,,,,,,,,,070219_p2,001,2019_Jul_02_1148,body_behavioural,3.0.4,59.9683365958585,
4,"Confirming that that was all they’d like, the waiter walked away. ",3,2,None,None,None,None,None,,0,4,4,4,,,,,0,24,24,24,,,,,,,,,,,,,,,,,,,,,,,,,,,,,,,,,,,1,1.6505824470077641,,,,,,,,,,,,,,,,,,,,,,,,,,,,070219_p2,001,2019_Jul_02_1148,body_behavioural,3.0.4,59.9683365958585,
4,Sadie- not so quietly- burst into tears. ,3,3,None,None,None,None,None,,0,4,4,4,,,,,0,25,25,25,,,,,,,,,,,,,,,,,,,,,,,,,,,,,,,,,,,1,1.0042122439481318,,,,,,,,,,,,,,,,,,,,,,,,,,,,070219_p2,001,2019_Jul_02_1148,body_behavioural,3.0.4,59.9683365958585,
4,People sitting at the bar looked over and quickly averted their gaze when they figured what was happening. ,3,3,None,None,None,None,None,,0,4,4,4,,,,,0,26,26,26,,,,,,,,,,,,,,,,,,,,,,,,,,,,,,,,,,,1,3.0882164270151407,,,,,,,,,,,,,,,,,,,,,,,,,,,,070219_p2,001,2019_Jul_02_1148,body_behavioural,3.0.4,59.9683365958585,
4,"She whispered, “Is this really what you want?",3,3,None,None,None,None,None,,0,4,4,4,,,,,0,27,27,27,,,,,,,,,,,,,,,,,,,,,,,,,,,,,,,,,,,1,2.0208675150061026,,,,,,,,,,,,,,,,,,,,,,,,,,,,070219_p2,001,2019_Jul_02_1148,body_behavioural,3.0.4,59.9683365958585,
4,"I don’t understand- things were fine, I thought. ",3,3,None,None,None,None,None,,0,4,4,4,,,,,0,28,28,28,,,,,,,,,,,,,,,,,,,,,,,,,,,,,,,,,,,1,1.470724913990125,,,,,,,,,,,,,,,,,,,,,,,,,,,,070219_p2,001,2019_Jul_02_1148,body_behavioural,3.0.4,59.9683365958585,
4,I think we should stay together because we can change how much we hang out. ,3,3,None,None,None,None,None,,0,4,4,4,,,,,0,29,29,29,,,,,,,,,,,,,,,,,,,,,,,,,,,,,,,,,,,1,2.3551658790092915,,,,,,,,,,,,,,,,,,,,,,,,,,,,070219_p2,001,2019_Jul_02_1148,body_behavioural,3.0.4,59.9683365958585,
4,"We don’t have to hang out all the time, or as much as we do now.”",3,3,None,None,None,None,None,,0,4,4,4,,,,,0,30,30,30,,,,,,,,,,,,,,,,,,,,,,,,,,,,,,,,,,,1,2.5382078669499606,,,,,,,,,,,,,,,,,,,,,,,,,,,,070219_p2,001,2019_Jul_02_1148,body_behavioural,3.0.4,59.9683365958585,
4,Thomas chewed on his bottom lip and picked at his now bleeding hangnail. ,3,3,None,20.0,None,None,None,,0,4,4,4,,,,,0,31,31,31,,,,,,,,,,,,,,,,,,,,,,,,,,,,,,,,,,,1,1.8840110000455752,,,,,,,,,,,,,,,,,,,,,,,,,,,,070219_p2,001,2019_Jul_02_1148,body_behavioural,3.0.4,59.9683365958585,
4,The waiter appeared with the burger and reuben and set them in front of them.,4,3,None,None,None,None,None,,0,4,4,4,,,,,0,32,32,32,,,,,,,,,,,,,,,,,,,,,,,,,,,,,,,,,,,1,2.638253277982585,,,,,,,,,,,,,,,,,,,,,,,,,,,,070219_p2,001,2019_Jul_02_1148,body_behavioural,3.0.4,59.9683365958585,
4,“Is there anything else I can get for you two?,4,3,None,None,None,None,None,,0,4,4,4,,,,,0,33,33,33,,,,,,,,,,,,,,,,,,,,,,,,,,,,,,,,,,,1,1.1207079369924031,,,,,,,,,,,,,,,,,,,,,,,,,,,,070219_p2,001,2019_Jul_02_1148,body_behavioural,3.0.4,59.9683365958585,
4,Will you be getting dessert tonight?” he asked.,4,3,None,None,None,None,None,,0,4,4,4,,,,,0,34,34,34,,,,,,,,,,,,,,,,,,,,,,,,,,,,,,,,,,,1,1.5702833849936724,,,,,,,,,,,,,,,,,,,,,,,,,,,,070219_p2,001,2019_Jul_02_1148,body_behavioural,3.0.4,59.9683365958585,
4,"“Oh no, we’re good, thanks,” Thomas said blankly.",4,3,None,None,None,None,None,,0,4,4,4,,,,,0,35,35,35,,,,,,,,,,,,,,,,,,,,,,,,,,,,,,,,,,,1,1.5378851169953123,,,,,,,,,,,,,,,,,,,,,,,,,,,,070219_p2,001,2019_Jul_02_1148,body_behavioural,3.0.4,59.9683365958585,
4," With the waiter gone, Sadie suddenly stood up, grabbed half of the reuben, and shook it at him as she growled, “Don’t follow me, and don’t talk to me anymore!",4,4,None,None,None,None,None,,0,4,4,4,,,,,0,36,36,36,,,,,,,,,,,,,,,,,,,,,,,,,,,,,,,,,,,1,4.521636048972141,,,,,,,,,,,,,,,,,,,,,,,,,,,,070219_p2,001,2019_Jul_02_1148,body_behavioural,3.0.4,59.9683365958585,
4,"Also, I want my polaroid camera and Beatles poster back!”",4,4,None,None,None,None,None,,0,4,4,4,,,,,0,37,37,37,,,,,,,,,,,,,,,,,,,,,,,,,,,,,,,,,,,1,1.9374894800130278,,,,,,,,,,,,,,,,,,,,,,,,,,,,070219_p2,001,2019_Jul_02_1148,body_behavioural,3.0.4,59.9683365958585,
4,"She stormed off, and the bell above the door jingled cheerfully as the door closed behind her.",4,4,None,None,None,None,None,,0,4,4,4,,,,,0,38,38,38,,,,,,,,,,,,,,,,,,,,,,,,,,,,,,,,,,,1,2.088334097992629,,,,,,,,,,,,,,,,,,,,,,,,,,,,070219_p2,001,2019_Jul_02_1148,body_behavioural,3.0.4,59.9683365958585,
4,Thomas sat there for awhile surprised at how quickly everything had transpired. ,4,4,None,None,None,None,None,,0,4,4,4,,,,,0,39,39,39,,,,,,,,,,,,,,,,,,,,,,,,,,,,,,,,,,,1,1.237565640010871,,,,,,,,,,,,,,,,,,,,,,,,,,,,070219_p2,001,2019_Jul_02_1148,body_behavioural,3.0.4,59.9683365958585,
4,"He grabbed his burger and took a bite of it, which created a dry and fishy taste in his mouth.",4,4,None,None,None,None,None,,0,4,4,4,,,,,0,40,40,40,,,,,,,,,,,,,,,,,,,,,,,,,,,,,,,,,,,1,3.221891058026813,,,,,,,,,,,,,,,,,,,,,,,,,,,,070219_p2,001,2019_Jul_02_1148,body_behavioural,3.0.4,59.9683365958585,
4,He dropped it back on his plate and wondered if the restaurant was responsible for the foul taste. ,4,4,None,13.0,5.0,None,None,,0,4,4,4,,,,,0,41,41,41,,,,,,,,,,,,,,,,,,,,,,,,,,,,,,,,,,,1,2.6209080169792287,,,,,,,,,,,,,,,,,,,,,,,,,,,,070219_p2,001,2019_Jul_02_1148,body_behavioural,3.0.4,59.9683365958585,
4,,,,,,,,,,0,4,4,4,,,,,,,,,,,,,,,,,,,,,,,,,,,,,,,,,,,,,,,,,,,,,,,,,,,,,,,,,,,,,,,,,,,,,,,,070219_p2,001,2019_Jul_02_1148,body_behavioural,3.0.4,59.9683365958585,
5,,,,,,,,,,0,5,5,5,0,0,0,0,,,,,,,,,,,,,,,,,,,,,,,,,,,,,space,1.2879984499886632,space,0.5546620520181023,space,0.4879222279996611,,,,,,,,,,,,,,,,,,,,,,,,,,,,,,,,,,070219_p2,001,2019_Jul_02_1148,body_behavioural,3.0.4,59.9683365958585,
5,"Lana walked into lecture holding hands with her boyfriend, Aaron, who was trying to contain his excitement about proposing to Lana in this class.",1,1,24.0,,,,,,0,5,5,5,,,,,0,0,0,0,,,,,,,,,,,,,,,,,,,,,,,,,,,,,,,space,15.88863992196275,space,1.6037494220072404,9,7.687327890016604,,,,,,,,,,,,,,,,,,,,,,,,,,,,070219_p2,001,2019_Jul_02_1148,body_behavioural,3.0.4,59.9683365958585,
5,"Lana was lost in thought, puzzling over an integral on her problem set for another class.",1,1,None,,,,,,0,5,5,5,,,,,0,1,1,1,,,,,,,,,,,,,,,,,,,,,,,,,,,,,,,,,,,1,2.5217497299890965,,,,,,,,,,,,,,,,,,,,,,,,,,,,070219_p2,001,2019_Jul_02_1148,body_behavioural,3.0.4,59.9683365958585,
5,"The lecture hall they had entered was the fanciest one at Princeton, with chandeliers, high ceilings, wood floors, and a large projector screen where chalkboards used to be. ",1,1,None,,,,,,0,5,5,5,,,,,0,2,2,2,,,,,,,,,,,,,,,,,,,,,,,,,,,,,,,,,,,1,3.821258630952798,,,,,,,,,,,,,,,,,,,,,,,,,,,,070219_p2,001,2019_Jul_02_1148,body_behavioural,3.0.4,59.9683365958585,
5,Aaron and Lana had met when they first started dating three years ago in freshman year.,1,1,None,,,,,,0,5,5,5,,,,,0,3,3,3,,,,,,,,,,,,,,,,,,,,,,,,,,,,,,,,,,,9,4.020939083013218,,,,,,,,,,,,,,,,,,,,,,,,,,,,070219_p2,001,2019_Jul_02_1148,body_behavioural,3.0.4,59.9683365958585,
5,They coincidentally had another class together in this same lecture hall. ,1,1,None,,,,,,0,5,5,5,,,,,0,4,4,4,,,,,,,,,,,,,,,,,,,,,,,,,,,,,,,,,,,1,2.3208918609889224,,,,,,,,,,,,,,,,,,,,,,,,,,,,070219_p2,001,2019_Jul_02_1148,body_behavioural,3.0.4,59.9683365958585,
5,The professor caught Aaron's eye as he walked up to the front of the classroom and gave him a wink before the lecture began. ,1,1,None,,,,,,0,5,5,5,,,,,0,5,5,5,,,,,,,,,,,,,,,,,,,,,,,,,,,,,,,,,,,1,2.621512418030761,,,,,,,,,,,,,,,,,,,,,,,,,,,,070219_p2,001,2019_Jul_02_1148,body_behavioural,3.0.4,59.9683365958585,
5,Aaron flashed him a half-smile and nodded. ,1,1,None,,,,,,0,5,5,5,,,,,0,6,6,6,,,,,,,,,,,,,,,,,,,,,,,,,,,,,,,,,,,1,1.5339633169933222,,,,,,,,,,,,,,,,,,,,,,,,,,,,070219_p2,001,2019_Jul_02_1148,body_behavioural,3.0.4,59.9683365958585,
5,"The professor cleared his throat and said,“Alright, good afternoon, everyone!",2,1,None,,,,,,0,5,5,5,,,,,0,7,7,7,,,,,,,,,,,,,,,,,,,,,,,,,,,,,,,,,,,1,2.8391046230099164,,,,,,,,,,,,,,,,,,,,,,,,,,,,070219_p2,001,2019_Jul_02_1148,body_behavioural,3.0.4,59.9683365958585,
5,Welcome to another week of Introduction to Chemistry,2,1,None,,,,,,0,5,5,5,,,,,0,8,8,8,,,,,,,,,,,,,,,,,,,,,,,,,,,,,,,,,,,1,1.271340108010918,,,,,,,,,,,,,,,,,,,,,,,,,,,,070219_p2,001,2019_Jul_02_1148,body_behavioural,3.0.4,59.9683365958585,
5,This week the topic is ions.,2,1,None,,,,,,0,5,5,5,,,,,0,9,9,9,,,,,,,,,,,,,,,,,,,,,,,,,,,,,,,,,,,1,0.7714732089661993,,,,,,,,,,,,,,,,,,,,,,,,,,,,070219_p2,001,2019_Jul_02_1148,body_behavioural,3.0.4,59.9683365958585,
5,"Now, let me get my computer set up, and while I do that, does anyone want to tell me what makes elements definitionally distinct from one another.”",2,1,None,,,,,,0,5,5,5,,,,,0,10,10,10,,,,,,,,,,,,,,,,,,,,,,,,,,,,,,,,,,,1,3.03776990697952,,,,,,,,,,,,,,,,,,,,,,,,,,,,070219_p2,001,2019_Jul_02_1148,body_behavioural,3.0.4,59.9683365958585,
5,Lana pulled out the problem set she was thinking about as Aaron unzipped the small pocket in his backpack and pulled out the ring.,2,2,None,,,,,,0,5,5,5,,,,,0,11,11,11,,,,,,,,,,,,,,,,,,,,,,,,,,,,,,,,,,,1,4.022804999956861,,,,,,,,,,,,,,,,,,,,,,,,,,,,070219_p2,001,2019_Jul_02_1148,body_behavioural,3.0.4,59.9683365958585,
5,"Turning away from her, he looked it over yet again. ",2,2,None,,,,,,0,5,5,5,,,,,0,12,12,12,,,,,,,,,,,,,,,,,,,,,,,,,,,,,,,,,,,1,1.7547874239971861,,,,,,,,,,,,,,,,,,,,,,,,,,,,070219_p2,001,2019_Jul_02_1148,body_behavioural,3.0.4,59.9683365958585,
5,"Instead of one large diamond, there were 5 red diamonds embedded in a thick band. ",2,2,None,,,,,,0,5,5,5,,,,,0,13,13,13,,,,,,,,,,,,,,,,,,,,,,,,,,,,,,,,,,,1,2.1340995829668827,,,,,,,,,,,,,,,,,,,,,,,,,,,,070219_p2,001,2019_Jul_02_1148,body_behavioural,3.0.4,59.9683365958585,
5,He knew Lana would like this because her style was more avant-garde than traditional.,2,2,None,,,,,,0,5,5,5,,,,,0,14,14,14,,,,,,,,,,,,,,,,,,,,,,,,,,,,,,,,,,,1,5.554675614985172,,,,,,,,,,,,,,,,,,,,,,,,,,,,070219_p2,001,2019_Jul_02_1148,body_behavioural,3.0.4,59.9683365958585,
5,"The professor said, “Remember, class, that the number of protons determines the identity of the element. ",3,2,None,,,,,,0,5,5,5,,,,,0,15,15,15,,,,,,,,,,,,,,,,,,,,,,,,,,,,,,,,,,,1,2.8868210719665512,,,,,,,,,,,,,,,,,,,,,,,,,,,,070219_p2,001,2019_Jul_02_1148,body_behavioural,3.0.4,59.9683365958585,
5,"So for example, all atoms of sodium have 11 protons in the nucleus. ",3,2,None,,,,,,0,5,5,5,,,,,0,16,16,16,,,,,,,,,,,,,,,,,,,,,,,,,,,,,,,,,,,1,1.7533685250091366,,,,,,,,,,,,,,,,,,,,,,,,,,,,070219_p2,001,2019_Jul_02_1148,body_behavioural,3.0.4,59.9683365958585,
5,"And if you look on the periodic table, the atomic number for sodium, the symbol is Na, is eleven.",3,2,None,,,,,,0,5,5,5,,,,,0,17,17,17,,,,,,,,,,,,,,,,,,,,,,,,,,,,,,,,,,,1,4.770337416965049,,,,,,,,,,,,,,,,,,,,,,,,,,,,070219_p2,001,2019_Jul_02_1148,body_behavioural,3.0.4,59.9683365958585,
5,"An ion retains the same number of protons despite losing electrons, and therefore keeps the same identity in the periodic table. ",3,2,None,,,,,,0,5,5,5,,,,,0,18,18,18,,,,,,,,,,,,,,,,,,,,,,,,,,,,,,,,,,,1,3.652746253006626,,,,,,,,,,,,,,,,,,,,,,,,,,,,070219_p2,001,2019_Jul_02_1148,body_behavioural,3.0.4,59.9683365958585,
5,Lana and Aaron tried to take notes during the lecture.,3,2,None,,,,,,0,5,5,5,,,,,0,19,19,19,,,,,,,,,,,,,,,,,,,,,,,,,,,,,,,,,,,1,3.369949359970633,,,,,,,,,,,,,,,,,,,,,,,,,,,,070219_p2,001,2019_Jul_02_1148,body_behavioural,3.0.4,59.9683365958585,
5,"Right after talking about how two ions bond into one stable molecule by covalent bonds, the professor stopped the lecture, gave another wink to Aaron, and asked Lana to come to the front of the class to do a demonstration. ",3,3,None,,,,,,0,5,5,5,,,,,0,20,20,20,,,,,,,,,,,,,,,,,,,,,,,,,,,,,,,,,,,1,6.003408880031202,,,,,,,,,,,,,,,,,,,,,,,,,,,,070219_p2,001,2019_Jul_02_1148,body_behavioural,3.0.4,59.9683365958585,
5,"She walked to the front of the class confused, and the professor asked her to stand in the middle of the stage.",3,3,None,,,,,,0,5,5,5,,,,,0,21,21,21,,,,,,,,,,,,,,,,,,,,,,,,,,,,,,,,,,,1,2.853125963010825,,,,,,,,,,,,,,,,,,,,,,,,,,,,070219_p2,001,2019_Jul_02_1148,body_behavioural,3.0.4,59.9683365958585,
5,"Then Aaron walked up and, taking Lana’s hand, got down on one knee. ",3,3,None,,,,,,0,5,5,5,,,,,0,22,22,22,,,,,,,,,,,,,,,,,,,,,,,,,,,,,,,,,,,1,1.8364675649791025,,,,,,,,,,,,,,,,,,,,,,,,,,,,070219_p2,001,2019_Jul_02_1148,body_behavioural,3.0.4,59.9683365958585,
5,The professor quickly switched to the last slide on the powerpoint which was a photo collage Aaron had sent him of pictures of Aaron and Lana. ,3,3,None,,,,,,0,5,5,5,,,,,0,23,23,23,,,,,,,,,,,,,,,,,,,,,,,,,,,,,,,,,,,1,3.752979803015478,,,,,,,,,,,,,,,,,,,,,,,,,,,,070219_p2,001,2019_Jul_02_1148,body_behavioural,3.0.4,59.9683365958585,
5,"“It's time for us to make a bond of our own, Lana.”",3,3,None,,,,,,0,5,5,5,,,,,0,24,24,24,,,,,,,,,,,,,,,,,,,,,,,,,,,,,,,,,,,1,1.7838133269688115,,,,,,,,,,,,,,,,,,,,,,,,,,,,070219_p2,001,2019_Jul_02_1148,body_behavioural,3.0.4,59.9683365958585,
5,He opened the small notebook he had in his hand and the ring was sitting on the page. ,3,3,None,,,,,,0,5,5,5,,,,,0,25,25,25,,,,,,,,,,,,,,,,,,,,,,,,,,,,,,,,,,,1,2.9008870300021954,,,,,,,,,,,,,,,,,,,,,,,,,,,,070219_p2,001,2019_Jul_02_1148,body_behavioural,3.0.4,59.9683365958585,
5,“Will you marry me?” ,3,3,None,,,,,,0,5,5,5,,,,,0,26,26,26,,,,,,,,,,,,,,,,,,,,,,,,,,,,,,,,,,,1,0.9363656000350602,,,,,,,,,,,,,,,,,,,,,,,,,,,,070219_p2,001,2019_Jul_02_1148,body_behavioural,3.0.4,59.9683365958585,
5,"Lana had put her hand over her mouth and tears were streaming down her face, but finally, she said, “Yes!”",3,4,None,,,,,,0,5,5,5,,,,,0,27,27,27,,,,,,,,,,,,,,,,,,,,,,,,,,,,,,,,,,,1,2.835472241975367,,,,,,,,,,,,,,,,,,,,,,,,,,,,070219_p2,001,2019_Jul_02_1148,body_behavioural,3.0.4,59.9683365958585,
5,"Aaron put the ring on her finger, and they hugged while the whole class applauded and cheered. ",3,4,None,,,,,,0,5,5,5,,,,,0,28,28,28,,,,,,,,,,,,,,,,,,,,,,,,,,,,,,,,,,,1,1.8360771689913236,,,,,,,,,,,,,,,,,,,,,,,,,,,,070219_p2,001,2019_Jul_02_1148,body_behavioural,3.0.4,59.9683365958585,
5,"Their friends, who had been secretly waiting outside, came into the class and embraced both of them.",3,4,None,,,,,,0,5,5,5,,,,,0,29,29,29,,,,,,,,,,,,,,,,,,,,,,,,,,,,,,,,,,,1,2.7694141379906796,,,,,,,,,,,,,,,,,,,,,,,,,,,,070219_p2,001,2019_Jul_02_1148,body_behavioural,3.0.4,59.9683365958585,
5,The professor gave Aaron a celebratory handshake.,3,4,None,,,,,,0,5,5,5,,,,,0,30,30,30,,,,,,,,,,,,,,,,,,,,,,,,,,,,,,,,,,,1,1.1697414600057527,,,,,,,,,,,,,,,,,,,,,,,,,,,,070219_p2,001,2019_Jul_02_1148,body_behavioural,3.0.4,59.9683365958585,
5,"They made their way back to their seats, and Lana pulled out her phone to text her sister",3,4,None,,,,,,0,5,5,5,,,,,0,31,31,31,,,,,,,,,,,,,,,,,,,,,,,,,,,,,,,,,,,1,2.502670534013305,,,,,,,,,,,,,,,,,,,,,,,,,,,,070219_p2,001,2019_Jul_02_1148,body_behavioural,3.0.4,59.9683365958585,
5,"The professor dismissed the class, saying, “That was enough excitement for today!",4,4,None,,,,,,0,5,5,5,,,,,0,32,32,32,,,,,,,,,,,,,,,,,,,,,,,,,,,,,,,,,,,1,2.570853262033779,,,,,,,,,,,,,,,,,,,,,,,,,,,,070219_p2,001,2019_Jul_02_1148,body_behavioural,3.0.4,59.9683365958585,
5,Don’t forget there’s a midterm exam next week on Monday on the material covered in the first 4 weeks of the semester.,4,4,None,,,,,,0,5,5,5,,,,,0,33,33,33,,,,,,,,,,,,,,,,,,,,,,,,,,,,,,,,,,,1,3.0036689519765787,,,,,,,,,,,,,,,,,,,,,,,,,,,,070219_p2,001,2019_Jul_02_1148,body_behavioural,3.0.4,59.9683365958585,
5,"As everyone was packing up their notebooks and leaving, Lana and Aaron were surrounded by their friends eager to get a glimpse of the ring and congratulate them. ",4,4,None,,,,,,0,5,5,5,,,,,0,34,34,34,,,,,,,,,,,,,,,,,,,,,,,,,,,,,,,,,,,1,3.269554207974579,,,,,,,,,,,,,,,,,,,,,,,,,,,,070219_p2,001,2019_Jul_02_1148,body_behavioural,3.0.4,59.9683365958585,
5,,,,,,,,,,0,5,5,5,,,,,,,,,,,,,,,,,,,,,,,,,,,,,,,,,,,,,,,,,,,,,,,,,,,,,,,,,,,,,,,,,,,,,,,,070219_p2,001,2019_Jul_02_1148,body_behavioural,3.0.4,59.9683365958585,
6,,,,,,,,,,0,6,6,6,0,0,0,0,,,,,,,,,,,,,,,,,,,,,,,,,,,,,space,1.6696422569802962,space,0.4529848030069843,space,0.7693193060113117,,,,,,,,,,,,,,,,,,,,,,,,,,,,,,,,,,070219_p2,001,2019_Jul_02_1148,body_behavioural,3.0.4,59.9683365958585,
6,,,,,,,,,,0,6,6,6,1,0,1,0,,,,,,,,,,,,,,,,,,,,,,,,,,,,,,,,,space,0.7858555470011197,,,,,,,,,,,,,,,,,,,,,,,,,,,,,,,,,,070219_p2,001,2019_Jul_02_1148,body_behavioural,3.0.4,59.9683365958585,
6,Mr. Shelton and Mr. Gordon shook hands inside the waiting area of the restaurant: lunch today was about big business. ,1,1,31.0,,,,,,0,6,6,6,,,,,0,0,0,0,,,,,,,,,,,,,,,,,,,,,,,,,,,,,,,space,0.4198139850050211,space,0.45289913297165185,9,3.3533223379636183,,,,,,,,,,,,,,,,,,,,,,,,,,,,070219_p2,001,2019_Jul_02_1148,body_behavioural,3.0.4,59.9683365958585,
6,They were both in the airplane manufacturing industry.,1,1,None,,,,,,0,6,6,6,,,,,0,1,1,1,,,,,,,,,,,,,,,,,,,,,,,,,,,,,,,,,,,1,2.1864509470178746,,,,,,,,,,,,,,,,,,,,,,,,,,,,070219_p2,001,2019_Jul_02_1148,body_behavioural,3.0.4,59.9683365958585,
6,"Mr. Shelton was the CFO of a larger, well-established company and had been in the aviation business for decades.",1,1,None,,,,,,0,6,6,6,,,,,0,2,2,2,,,,,,,,,,,,,,,,,,,,,,,,,,,,,,,,,,,1,1.302960050990805,,,,,,,,,,,,,,,,,,,,,,,,,,,,070219_p2,001,2019_Jul_02_1148,body_behavioural,3.0.4,59.9683365958585,
6,Mr. Gordon was the CEO of a smaller but technologically-advanced company that was projected to disrupt the airplane manufacturing market. ,1,1,None,,,,,,0,6,6,6,,,,,0,3,3,3,,,,,,,,,,,,,,,,,,,,,,,,,,,,,,,,,,,1,2.153157097985968,,,,,,,,,,,,,,,,,,,,,,,,,,,,070219_p2,001,2019_Jul_02_1148,body_behavioural,3.0.4,59.9683365958585,
6,"They chose to meet at an old steakhouse with dark wood paneling on the floor and ceilings, taxidermy animals on the walls, and a candelabra on every table.",1,1,None,,,,,,0,6,6,6,,,,,0,4,4,4,,,,,,,,,,,,,,,,,,,,,,,,,,,,,,,,,,,1,2.603178215038497,,,,,,,,,,,,,,,,,,,,,,,,,,,,070219_p2,001,2019_Jul_02_1148,body_behavioural,3.0.4,59.9683365958585,
6,The waitress seated them at their table in the back. ,2,1,None,,,,,,0,6,6,6,,,,,0,5,5,5,,,,,,,,,,,,,,,,,,,,,,,,,,,,,,,,,,,1,1.4697380770230666,,,,,,,,,,,,,,,,,,,,,,,,,,,,070219_p2,001,2019_Jul_02_1148,body_behavioural,3.0.4,59.9683365958585,
6,"She brought out the menus, and they briefly chatted about personal happenings. ",2,1,None,,,,,,0,6,6,6,,,,,0,6,6,6,,,,,,,,,,,,,,,,,,,,,,,,,,,,,,,,,,,1,1.9342255789670162,,,,,,,,,,,,,,,,,,,,,,,,,,,,070219_p2,001,2019_Jul_02_1148,body_behavioural,3.0.4,59.9683365958585,
6,"Mr. Gordon took out a picture of his daughter and talked about her recent engagement, and Mr. Gordon mentioned his purchase of a Tesla. ",2,1,None,,,,,,0,6,6,6,,,,,0,7,7,7,,,,,,,,,,,,,,,,,,,,,,,,,,,,,,,,,,,1,2.2531564550008625,,,,,,,,,,,,,,,,,,,,,,,,,,,,070219_p2,001,2019_Jul_02_1148,body_behavioural,3.0.4,59.9683365958585,
6,They also looked over the menus which were heavy and covered in felt.,2,1,None,,,,,,0,6,6,6,,,,,0,8,8,8,,,,,,,,,,,,,,,,,,,,,,,,,,,,,,,,,,,1,1.7194910010439344,,,,,,,,,,,,,,,,,,,,,,,,,,,,070219_p2,001,2019_Jul_02_1148,body_behavioural,3.0.4,59.9683365958585,
6,Flipping to the back of the menu brought one to a lengthy drink selection.,2,1,None,,,,,,0,6,6,6,,,,,0,9,9,9,,,,,,,,,,,,,,,,,,,,,,,,,,,,,,,,,,,1,1.4025990099762566,,,,,,,,,,,,,,,,,,,,,,,,,,,,070219_p2,001,2019_Jul_02_1148,body_behavioural,3.0.4,59.9683365958585,
6,Mr. Shelton got serious and brought the conversation around to business.,2,2,None,,,,,,0,6,6,6,,,,,0,10,10,10,,,,,,,,,,,,,,,,,,,,,,,,,,,,,,,,,,,1,1.250767849967815,,,,,,,,,,,,,,,,,,,,,,,,,,,,070219_p2,001,2019_Jul_02_1148,body_behavioural,3.0.4,59.9683365958585,
6,"“Mr. Gordon, we really admire what you’re doing at your company.",2,2,None,,,,,,0,6,6,6,,,,,0,11,11,11,,,,,,,,,,,,,,,,,,,,,,,,,,,,,,,,,,,1,1.3864622949622571,,,,,,,,,,,,,,,,,,,,,,,,,,,,070219_p2,001,2019_Jul_02_1148,body_behavioural,3.0.4,59.9683365958585,
6,We think it’s genius; we want to support your vision and make this tiny company of yours internationally known.,2,2,None,,,,,,0,6,6,6,,,,,0,12,12,12,,,,,,,,,,,,,,,,,,,,,,,,,,,,,,,,,,,1,1.1364358449936844,,,,,,,,,,,,,,,,,,,,,,,,,,,,070219_p2,001,2019_Jul_02_1148,body_behavioural,3.0.4,59.9683365958585,
6,"But honestly, your company doesn’t have the resources to reach international markets right now.",2,2,None,,,,,,0,6,6,6,,,,,0,13,13,13,,,,,,,,,,,,,,,,,,,,,,,,,,,,,,,,,,,1,2.3698260569944978,,,,,,,,,,,,,,,,,,,,,,,,,,,,070219_p2,001,2019_Jul_02_1148,body_behavioural,3.0.4,59.9683365958585,
6,"Maybe in a few years you could, but by that time, other companies may have already filled your niche.",2,2,None,,,,,,0,6,6,6,,,,,0,14,14,14,,,,,,,,,,,,,,,,,,,,,,,,,,,,,,,,,,,1,1.4196293950080872,,,,,,,,,,,,,,,,,,,,,,,,,,,,070219_p2,001,2019_Jul_02_1148,body_behavioural,3.0.4,59.9683365958585,
6,I think we should join forces.”,2,2,None,,,,,,0,6,6,6,,,,,0,15,15,15,,,,,,,,,,,,,,,,,,,,,,,,,,,,,,,,,,,1,7.386545635992661,,,,,,,,,,,,,,,,,,,,,,,,,,,,070219_p2,001,2019_Jul_02_1148,body_behavioural,3.0.4,59.9683365958585,
6,The waitress arrived and asked if they were ready to order.,3,2,None,,,,,,0,6,6,6,,,,,0,16,16,16,,,,,,,,,,,,,,,,,,,,,,,,,,,,,,,,,,,1,1.4031007190351374,,,,,,,,,,,,,,,,,,,,,,,,,,,,070219_p2,001,2019_Jul_02_1148,body_behavioural,3.0.4,59.9683365958585,
6,"Mr. Gordon chose the medium-rare steak and a martini, and Mr. Shelton ordered the veal and a manhattan. ",3,2,None,,,,,,0,6,6,6,,,,,0,17,17,17,,,,,,,,,,,,,,,,,,,,,,,,,,,,,,,,,,,1,0.9190730229602195,,,,,,,,,,,,,,,,,,,,,,,,,,,,070219_p2,001,2019_Jul_02_1148,body_behavioural,3.0.4,59.9683365958585,
6,"Then Mr. Shelton continued, “Look, I’ve talked to other members of the board, and we are prepared to offer $600 million to buy your company. ",3,2,None,,,,,,0,6,6,6,,,,,0,18,18,18,,,,,,,,,,,,,,,,,,,,,,,,,,,,,,,,,,,1,2.1196064929827116,,,,,,,,,,,,,,,,,,,,,,,,,,,,070219_p2,001,2019_Jul_02_1148,body_behavioural,3.0.4,59.9683365958585,
6,"We'd keep on all of your current employees, and you would join as the director of your company branch.” ",3,2,None,,,,,,0,6,6,6,,,,,0,19,19,19,,,,,,,,,,,,,,,,,,,,,,,,,,,,,,,,,,,1,1.3535712080192752,,,,,,,,,,,,,,,,,,,,,,,,,,,,070219_p2,001,2019_Jul_02_1148,body_behavioural,3.0.4,59.9683365958585,
6,"Mr. Gordon looked at Mr. Shelton skeptically for a few moments considering his response until he said, “Mr. Shelton, I think that you make a compelling offer, but there are definitely some disadvantages to attaching our small, streamlined productions to a large company like yours.",3,3,None,,,,,,0,6,6,6,,,,,0,20,20,20,,,,,,,,,,,,,,,,,,,,,,,,,,,,,,,,,,,1,1.4197564289788716,,,,,,,,,,,,,,,,,,,,,,,,,,,,070219_p2,001,2019_Jul_02_1148,body_behavioural,3.0.4,59.9683365958585,
6,"We operate in a very different way than a large company, and the kind of administrative complexity that makes the scale of your productions possible would suffocate our business.",3,3,None,,,,,,0,6,6,6,,,,,0,21,21,21,,,,,,,,,,,,,,,,,,,,,,,,,,,,,,,,,,,1,2.1701621600077488,,,,,,,,,,,,,,,,,,,,,,,,,,,,070219_p2,001,2019_Jul_02_1148,body_behavioural,3.0.4,59.9683365958585,
6,"With our product, scaling-up doesn’t necessarily make sense.” ",3,3,None,,,,,,0,6,6,6,,,,,0,22,22,22,,,,,,,,,,,,,,,,,,,,,,,,,,,,,,,,,,,1,1.7194195039919578,,,,,,,,,,,,,,,,,,,,,,,,,,,,070219_p2,001,2019_Jul_02_1148,body_behavioural,3.0.4,59.9683365958585,
6,Mr. Shelton had expected this response and had come prepared.,3,3,None,,,,,,0,6,6,6,,,,,0,23,23,23,,,,,,,,,,,,,,,,,,,,,,,,,,,,,,,,,,,1,2.2540239159716293,,,,,,,,,,,,,,,,,,,,,,,,,,,,070219_p2,001,2019_Jul_02_1148,body_behavioural,3.0.4,59.9683365958585,
6,He began laying out the details of how he had handled similar acquisitions successfully in the past.,3,3,None,,,,,,0,6,6,6,,,,,0,24,24,24,,,,,,,,,,,,,,,,,,,,,,,,,,,,,,,,,,,1,3.169466299994383,,,,,,,,,,,,,,,,,,,,,,,,,,,,070219_p2,001,2019_Jul_02_1148,body_behavioural,3.0.4,59.9683365958585,
6,"He also played out projections of how Mr. Gordon’s company could out-compete their own main competitor in the industry, TechJet, by using the resources of a larger corporation. ",3,3,None,,,,,,0,6,6,6,,,,,0,25,25,25,,,,,,,,,,,,,,,,,,,,,,,,,,,,,,,,,,,1,4.219751162978355,,,,,,,,,,,,,,,,,,,,,,,,,,,,070219_p2,001,2019_Jul_02_1148,body_behavioural,3.0.4,59.9683365958585,
6,"Mr. Gordon was impressed, and they went back and forth hashing out what the company configuration would look like post-merger. ",3,3,None,,,,,,0,6,6,6,,,,,0,26,26,26,,,,,,,,,,,,,,,,,,,,,,,,,,,,,,,,,,,1,2.2870111350202933,,,,,,,,,,,,,,,,,,,,,,,,,,,,070219_p2,001,2019_Jul_02_1148,body_behavioural,3.0.4,59.9683365958585,
6,The waitress brought out their food on a large tray.,4,3,None,,,,,,0,6,6,6,,,,,0,27,27,27,,,,,,,,,,,,,,,,,,,,,,,,,,,,,,,,,,,1,2.036870561016258,,,,,,,,,,,,,,,,,,,,,,,,,,,,070219_p2,001,2019_Jul_02_1148,body_behavioural,3.0.4,59.9683365958585,
6,“Oh this looks so good!” Mr. Gordon said. ,4,3,None,,,,,,0,6,6,6,,,,,0,28,28,28,,,,,,,,,,,,,,,,,,,,,,,,,,,,,,,,,,,1,0.8027417880366556,,,,,,,,,,,,,,,,,,,,,,,,,,,,070219_p2,001,2019_Jul_02_1148,body_behavioural,3.0.4,59.9683365958585,
6,“Can I get you anything else?” the waitress asked.,4,3,None,,,,,,0,6,6,6,,,,,0,29,29,29,,,,,,,,,,,,,,,,,,,,,,,,,,,,,,,,,,,1,0.9864146999898367,,,,,,,,,,,,,,,,,,,,,,,,,,,,070219_p2,001,2019_Jul_02_1148,body_behavioural,3.0.4,59.9683365958585,
6,They declined and began to eat. ,4,3,None,,,,,,0,6,6,6,,,,,0,30,30,30,,,,,,,,,,,,,,,,,,,,,,,,,,,,,,,,,,,1,0.8864601000095718,,,,,,,,,,,,,,,,,,,,,,,,,,,,070219_p2,001,2019_Jul_02_1148,body_behavioural,3.0.4,59.9683365958585,
6,The meal was subpar- they both found the meat to be overcooked and dry. ,4,3,None,,,,,,0,6,6,6,,,,,0,31,31,31,,,,,,,,,,,,,,,,,,,,,,,,,,,,,,,,,,,1,3.069888204045128,,,,,,,,,,,,,,,,,,,,,,,,,,,,070219_p2,001,2019_Jul_02_1148,body_behavioural,3.0.4,59.9683365958585,
6,"Mr. Gordon, after taking a contemplative bite and swallowing, said, “Mr. Shelton, I think we have a deal. ",4,4,None,,,,,,0,6,6,6,,,,,0,32,32,32,,,,,,,,,,,,,,,,,,,,,,,,,,,,,,,,,,,1,2.503251771966461,,,,,,,,,,,,,,,,,,,,,,,,,,,,070219_p2,001,2019_Jul_02_1148,body_behavioural,3.0.4,59.9683365958585,
6,"If you can guarantee that I can still have the final say in all the work done by my team, I think this could be beneficial for both of us.",4,4,None,,,,,,0,6,6,6,,,,,0,33,33,33,,,,,,,,,,,,,,,,,,,,,,,,,,,,,,,,,,,1,5.436487252009101,,,,,,,,,,,,,,,,,,,,,,,,,,,,070219_p2,001,2019_Jul_02_1148,body_behavioural,3.0.4,59.9683365958585,
6,I propose a toast to the merging of our companies.”,4,4,None,,,,,,0,6,6,6,,,,,0,34,34,34,,,,,,,,,,,,,,,,,,,,,,,,,,,,,,,,,,,1,1.5032286149798892,,,,,,,,,,,,,,,,,,,,,,,,,,,,070219_p2,001,2019_Jul_02_1148,body_behavioural,3.0.4,59.9683365958585,
6,Mr. Shelton grinned and lifted his martini to clink glasses.,4,4,None,,,,,,0,6,6,6,,,,,0,35,35,35,,,,,,,,,,,,,,,,,,,,,,,,,,,,,,,,,,,1,1.9526370649691671,,,,,,,,,,,,,,,,,,,,,,,,,,,,070219_p2,001,2019_Jul_02_1148,body_behavioural,3.0.4,59.9683365958585,
6,"He said, “Cheers to a lifelong partnership and to the growth of our company.” ",4,4,None,,,,,,0,6,6,6,,,,,0,36,36,36,,,,,,,,,,,,,,,,,,,,,,,,,,,,,,,,,,,1,1.0865434260340407,,,,,,,,,,,,,,,,,,,,,,,,,,,,070219_p2,001,2019_Jul_02_1148,body_behavioural,3.0.4,59.9683365958585,
6,,,,,,,,,,0,6,6,6,,,,,,,,,,,,,,,,,,,,,,,,,,,,,,,,,,,,,,,,,,,,,,,,,,,,,,,,,,,,,,,,,,,,,,,,070219_p2,001,2019_Jul_02_1148,body_behavioural,3.0.4,59.9683365958585,
7,,,,,,,,,,0,7,7,7,0,0,0,0,,,,,,,,,,,,,,,,,,,,,,,,,,,,,space,1.2534557749750093,space,0.6691969709936529,space,0.5866518349503167,,,,,,,,,,,,,,,,,,,,,,,,,,,,,,,,,,070219_p2,001,2019_Jul_02_1148,body_behavioural,3.0.4,59.9683365958585,
7,"Alex was a distracted, sweaty mess as he walked into the grocery store with Chloe, and he was hoping that she wouldn't suspect that he was about to propose.",1,1,23.0,,,,,,0,7,7,7,,,,,0,0,0,0,,,,,,,,,,,,,,,,,,,,,,,,,,,,,,,space,0.6525906559545547,space,0.5197949600405991,9,10.803328118985519,,,,,,,,,,,,,,,,,,,,,,,,,,,,070219_p2,001,2019_Jul_02_1148,body_behavioural,3.0.4,59.9683365958585,
7,The grocery store was brightly lit with sunshine pouring in through glass walls at the front of the store.,1,1,None,,,,,,0,7,7,7,,,,,0,1,1,1,,,,,,,,,,,,,,,,,,,,,,,,,,,,,,,,,,,1,1.4029825530014932,,,,,,,,,,,,,,,,,,,,,,,,,,,,070219_p2,001,2019_Jul_02_1148,body_behavioural,3.0.4,59.9683365958585,
7,Also in the front area were large posters advertising thanksgiving promotions.,1,1,None,,,,,,0,7,7,7,,,,,0,2,2,2,,,,,,,,,,,,,,,,,,,,,,,,,,,,,,,,,,,1,1.1364005750510842,,,,,,,,,,,,,,,,,,,,,,,,,,,,070219_p2,001,2019_Jul_02_1148,body_behavioural,3.0.4,59.9683365958585,
7,"The store was buzzing with activity because the next day was Thanksgiving Day, and most shoppers had carts piled high with turkey, stuffing, and pies.",1,1,None,,,,,,0,7,7,7,,,,,0,3,3,3,,,,,,,,,,,,,,,,,,,,,,,,,,,,,,,,,,,1,3.103150829032529,,,,,,,,,,,,,,,,,,,,,,,,,,,,070219_p2,001,2019_Jul_02_1148,body_behavioural,3.0.4,59.9683365958585,
7,Alex wanted to propose here because he knew Chloe would be wonderfully surprised. ,1,1,None,,,,,,0,7,7,7,,,,,0,4,4,4,,,,,,,,,,,,,,,,,,,,,,,,,,,,,,,,,,,1,2.419682545005344,,,,,,,,,,,,,,,,,,,,,,,,,,,,070219_p2,001,2019_Jul_02_1148,body_behavioural,3.0.4,59.9683365958585,
7,"After 23 months of dating, Alex knew one of the things Chloe loved most was surprises. ",1,1,None,,,,,,0,7,7,7,,,,,0,5,5,5,,,,,,,,,,,,,,,,,,,,,,,,,,,,,,,,,,,1,2.185800400970038,,,,,,,,,,,,,,,,,,,,,,,,,,,,070219_p2,001,2019_Jul_02_1148,body_behavioural,3.0.4,59.9683365958585,
7,"Chloe perused the canned goods aisle, and said, “Alex, we need a couple things.”",2,1,None,,,,,,0,7,7,7,,,,,0,6,6,6,,,,,,,,,,,,,,,,,,,,,,,,,,,,,,,,,,,1,1.353078195010312,,,,,,,,,,,,,,,,,,,,,,,,,,,,070219_p2,001,2019_Jul_02_1148,body_behavioural,3.0.4,59.9683365958585,
7,"He didn’t hear her and was fanning himself, and Chloe asked him if he was okay.",2,1,None,,,,,,0,7,7,7,,,,,0,7,7,7,,,,,,,,,,,,,,,,,,,,,,,,,,,,,,,,,,,1,2.6531690200208686,,,,,,,,,,,,,,,,,,,,,,,,,,,,070219_p2,001,2019_Jul_02_1148,body_behavioural,3.0.4,59.9683365958585,
7,"“Oh yeah, for sure,” he said, unconvincingly. ",2,1,None,,,,,,0,7,7,7,,,,,0,8,8,8,,,,,,,,,,,,,,,,,,,,,,,,,,,,,,,,,,,1,0.8030530349933542,,,,,,,,,,,,,,,,,,,,,,,,,,,,070219_p2,001,2019_Jul_02_1148,body_behavioural,3.0.4,59.9683365958585,
7,"She chuckled, “Alright, whatever you say.” ",2,1,None,,,,,,0,7,7,7,,,,,0,9,9,9,,,,,,,,,,,,,,,,,,,,,,,,,,,,,,,,,,,1,0.8530672380002216,,,,,,,,,,,,,,,,,,,,,,,,,,,,070219_p2,001,2019_Jul_02_1148,body_behavioural,3.0.4,59.9683365958585,
7,She had a can of pumpkin puree and a bottle of vinegar picked out and was now mulling over the different cans of cranberry sauce.,2,1,None,,,,,,0,7,7,7,,,,,0,10,10,10,,,,,,,,,,,,,,,,,,,,,,,,,,,,,,,,,,,1,1.7197962899808772,,,,,,,,,,,,,,,,,,,,,,,,,,,,070219_p2,001,2019_Jul_02_1148,body_behavioural,3.0.4,59.9683365958585,
7,"Alex was guessing she would be a while, and so he turned his back to her and pulled out the ring to look at it one more time. ",2,2,None,,,,,,0,7,7,7,,,,,0,11,11,11,,,,,,,,,,,,,,,,,,,,,,,,,,,,,,,,,,,1,2.153701672970783,,,,,,,,,,,,,,,,,,,,,,,,,,,,070219_p2,001,2019_Jul_02_1148,body_behavioural,3.0.4,59.9683365958585,
7,The ring consisted of a thin band with one white diamond that glittered excessively in the light. ,2,2,None,,,,,,0,7,7,7,,,,,0,12,12,12,,,,,,,,,,,,,,,,,,,,,,,,,,,,,,,,,,,1,2.3506458579795435,,,,,,,,,,,,,,,,,,,,,,,,,,,,070219_p2,001,2019_Jul_02_1148,body_behavioural,3.0.4,59.9683365958585,
7,“Do we need anything else?” she called out to him. ,2,2,None,,,,,,0,7,7,7,,,,,0,13,13,13,,,,,,,,,,,,,,,,,,,,,,,,,,,,,,,,,,,1,2.7841645479784347,,,,,,,,,,,,,,,,,,,,,,,,,,,,070219_p2,001,2019_Jul_02_1148,body_behavioural,3.0.4,59.9683365958585,
7,"“Yeah I don’t know, honey,” he said back, still looking at the ring. ",2,2,None,,,,,,0,7,7,7,,,,,0,14,14,14,,,,,,,,,,,,,,,,,,,,,,,,,,,,,,,,,,,1,2.417320596985519,,,,,,,,,,,,,,,,,,,,,,,,,,,,070219_p2,001,2019_Jul_02_1148,body_behavioural,3.0.4,59.9683365958585,
7,"In the checkout area, there were 5 aisles open and they stepped in line for station 3. ",3,2,None,,,,,,0,7,7,7,,,,,0,15,15,15,,,,,,,,,,,,,,,,,,,,,,,,,,,,,,,,,,,1,1.700761171989143,,,,,,,,,,,,,,,,,,,,,,,,,,,,070219_p2,001,2019_Jul_02_1148,body_behavioural,3.0.4,59.9683365958585,
7,Alex was staring intensely off into the distance for most of the time and fidgeting with his wallet. ,3,2,None,,,,,,0,7,7,7,,,,,0,16,16,16,,,,,,,,,,,,,,,,,,,,,,,,,,,,,,,,,,,1,1.7536806370480917,,,,,,,,,,,,,,,,,,,,,,,,,,,,070219_p2,001,2019_Jul_02_1148,body_behavioural,3.0.4,59.9683365958585,
7,"Chloe watched him trying to decide whether he looked scared or confused, and shrugged, pulling out her phone since she figured he’d talk about whatever was on his mind when he was ready. ",3,2,None,,,,,,0,7,7,7,,,,,0,17,17,17,,,,,,,,,,,,,,,,,,,,,,,,,,,,,,,,,,,1,2.003400670015253,,,,,,,,,,,,,,,,,,,,,,,,,,,,070219_p2,001,2019_Jul_02_1148,body_behavioural,3.0.4,59.9683365958585,
7,Alex looked over at their friends who were waiting by the entrance of the grocery store.,3,2,None,,,,,,0,7,7,7,,,,,0,18,18,18,,,,,,,,,,,,,,,,,,,,,,,,,,,,,,,,,,,1,1.2696975080179982,,,,,,,,,,,,,,,,,,,,,,,,,,,,070219_p2,001,2019_Jul_02_1148,body_behavioural,3.0.4,59.9683365958585,
7,They walked over slowly. ,3,2,None,,,,,,0,7,7,7,,,,,0,19,19,19,,,,,,,,,,,,,,,,,,,,,,,,,,,,,,,,,,,1,0.5867588419932872,,,,,,,,,,,,,,,,,,,,,,,,,,,,070219_p2,001,2019_Jul_02_1148,body_behavioural,3.0.4,59.9683365958585,
7,"Seemingly out of nowhere, Alex took Chloe’s hand and he got down on one knee. ",3,3,None,,,,,,0,7,7,7,,,,,0,20,20,20,,,,,,,,,,,,,,,,,,,,,,,,,,,,,,,,,,,1,1.169754133967217,,,,,,,,,,,,,,,,,,,,,,,,,,,,070219_p2,001,2019_Jul_02_1148,body_behavioural,3.0.4,59.9683365958585,
7,Chloe gasped,3,3,None,,,,,,0,7,7,7,,,,,0,21,21,21,,,,,,,,,,,,,,,,,,,,,,,,,,,,,,,,,,,1,0.469671347993426,,,,,,,,,,,,,,,,,,,,,,,,,,,,070219_p2,001,2019_Jul_02_1148,body_behavioural,3.0.4,59.9683365958585,
7,"“Chloe, I love you so much, and I want to be with you forever.",3,3,None,,,,,,0,7,7,7,,,,,0,22,22,22,,,,,,,,,,,,,,,,,,,,,,,,,,,,,,,,,,,1,2.0362388790235855,,,,,,,,,,,,,,,,,,,,,,,,,,,,070219_p2,001,2019_Jul_02_1148,body_behavioural,3.0.4,59.9683365958585,
7,I can’t imagine a day without you.”,3,3,None,,,,,,0,7,7,7,,,,,0,23,23,23,,,,,,,,,,,,,,,,,,,,,,,,,,,,,,,,,,,1,1.4697793030063622,,,,,,,,,,,,,,,,,,,,,,,,,,,,070219_p2,001,2019_Jul_02_1148,body_behavioural,3.0.4,59.9683365958585,
7,"“Alex, me too,” she replied.",3,3,None,,,,,,0,7,7,7,,,,,0,24,24,24,,,,,,,,,,,,,,,,,,,,,,,,,,,,,,,,,,,1,0.8194195810356177,,,,,,,,,,,,,,,,,,,,,,,,,,,,070219_p2,001,2019_Jul_02_1148,body_behavioural,3.0.4,59.9683365958585,
7,"The ring was in the crevice of his wallet, and he opened it.",3,3,None,,,,,,0,7,7,7,,,,,0,25,25,25,,,,,,,,,,,,,,,,,,,,,,,,,,,,,,,,,,,1,2.119899487006478,,,,,,,,,,,,,,,,,,,,,,,,,,,,070219_p2,001,2019_Jul_02_1148,body_behavioural,3.0.4,59.9683365958585,
7,“Will you marry me?”,3,3,None,,,,,,0,7,7,7,,,,,0,26,26,26,,,,,,,,,,,,,,,,,,,,,,,,,,,,,,,,,,,1,0.6863487800001167,,,,,,,,,,,,,,,,,,,,,,,,,,,,070219_p2,001,2019_Jul_02_1148,body_behavioural,3.0.4,59.9683365958585,
7,"The people in line around them realized what was happening, stepped back, and started taking pictures.",3,3,None,,,,,,0,7,7,7,,,,,0,27,27,27,,,,,,,,,,,,,,,,,,,,,,,,,,,,,,,,,,,1,1.0359071950078942,,,,,,,,,,,,,,,,,,,,,,,,,,,,070219_p2,001,2019_Jul_02_1148,body_behavioural,3.0.4,59.9683365958585,
7,Their friends were no longer trying to hide and were videotaping and taking pictures too. ,3,3,None,,,,,,0,7,7,7,,,,,0,28,28,28,,,,,,,,,,,,,,,,,,,,,,,,,,,,,,,,,,,1,1.7366592239704914,,,,,,,,,,,,,,,,,,,,,,,,,,,,070219_p2,001,2019_Jul_02_1148,body_behavioural,3.0.4,59.9683365958585,
7,"After a few moments of suspense she shouted,“Yes!”, and she jumped to embrace Alex in a hug. ",3,4,None,,,,,,0,7,7,7,,,,,0,29,29,29,,,,,,,,,,,,,,,,,,,,,,,,,,,,,,,,,,,1,1.0363103030249476,,,,,,,,,,,,,,,,,,,,,,,,,,,,070219_p2,001,2019_Jul_02_1148,body_behavioural,3.0.4,59.9683365958585,
7,Everyone in line clapped and cheered. ,3,4,None,,,,,,0,7,7,7,,,,,0,30,30,30,,,,,,,,,,,,,,,,,,,,,,,,,,,,,,,,,,,1,0.5862526730052195,,,,,,,,,,,,,,,,,,,,,,,,,,,,070219_p2,001,2019_Jul_02_1148,body_behavioural,3.0.4,59.9683365958585,
7,"Alex put the ring on Chloe’s finger, who was nearly spinning in excitement.",3,4,None,,,,,,0,7,7,7,,,,,0,31,31,31,,,,,,,,,,,,,,,,,,,,,,,,,,,,,,,,,,,1,0.5532456100336276,,,,,,,,,,,,,,,,,,,,,,,,,,,,070219_p2,001,2019_Jul_02_1148,body_behavioural,3.0.4,59.9683365958585,
7,“I love it!,3,4,None,,,,,,0,7,7,7,,,,,0,32,32,32,,,,,,,,,,,,,,,,,,,,,,,,,,,,,,,,,,,1,0.5032758709858172,,,,,,,,,,,,,,,,,,,,,,,,,,,,070219_p2,001,2019_Jul_02_1148,body_behavioural,3.0.4,59.9683365958585,
7,Oh my- it’s so glittery!,3,4,None,,,,,,0,7,7,7,,,,,0,33,33,33,,,,,,,,,,,,,,,,,,,,,,,,,,,,,,,,,,,1,0.5694531479966827,,,,,,,,,,,,,,,,,,,,,,,,,,,,070219_p2,001,2019_Jul_02_1148,body_behavioural,3.0.4,59.9683365958585,
7,Look at this!” she said as she shoved her hand in a stranger’s face.,3,4,None,,,,,,0,7,7,7,,,,,0,34,34,34,,,,,,,,,,,,,,,,,,,,,,,,,,,,,,,,,,,1,0.6191296909819357,,,,,,,,,,,,,,,,,,,,,,,,,,,,070219_p2,001,2019_Jul_02_1148,body_behavioural,3.0.4,59.9683365958585,
7,Their friends came over and hugged them.,3,4,None,,,,,,0,7,7,7,,,,,0,35,35,35,,,,,,,,,,,,,,,,,,,,,,,,,,,,,,,,,,,1,0.4029948799870908,,,,,,,,,,,,,,,,,,,,,,,,,,,,070219_p2,001,2019_Jul_02_1148,body_behavioural,3.0.4,59.9683365958585,
7,The other people let them move up to the front of the checkout line. ,3,4,None,,,,,,0,7,7,7,,,,,0,36,36,36,,,,,,,,,,,,,,,,,,,,,,,,,,,,,,,,,,,1,0.4695819330518134,,,,,,,,,,,,,,,,,,,,,,,,,,,,070219_p2,001,2019_Jul_02_1148,body_behavioural,3.0.4,59.9683365958585,
7,Chloe immediately texted her mom a picture of her hand. ,3,4,None,,,,,,0,7,7,7,,,,,0,37,37,37,,,,,,,,,,,,,,,,,,,,,,,,,,,,,,,,,,,1,0.5030929279746488,,,,,,,,,,,,,,,,,,,,,,,,,,,,070219_p2,001,2019_Jul_02_1148,body_behavioural,3.0.4,59.9683365958585,
7,The cashier congratulated them and scanned their groceries. ,4,4,None,,,,,,0,7,7,7,,,,,0,38,38,38,,,,,,,,,,,,,,,,,,,,,,,,,,,,,,,,,,,1,0.35280872898874804,,,,,,,,,,,,,,,,,,,,,,,,,,,,070219_p2,001,2019_Jul_02_1148,body_behavioural,3.0.4,59.9683365958585,
7,"The total came to $14, and Alex paid in cash while Chloe greeted their friends.",4,4,None,,,,,,0,7,7,7,,,,,0,39,39,39,,,,,,,,,,,,,,,,,,,,,,,,,,,,,,,,,,,1,0.5357917110086419,,,,,,,,,,,,,,,,,,,,,,,,,,,,070219_p2,001,2019_Jul_02_1148,body_behavioural,3.0.4,59.9683365958585,
7,"Alex grabbed the bags, and they all walked out together working out where they’d go to celebrate.  ",4,4,None,,,,,,0,7,7,7,,,,,0,40,40,40,,,,,,,,,,,,,,,,,,,,,,,,,,,,,,,,,,,1,1.7197254580096342,,,,,,,,,,,,,,,,,,,,,,,,,,,,070219_p2,001,2019_Jul_02_1148,body_behavioural,3.0.4,59.9683365958585,
7,,,,,,,,,,0,7,7,7,,,,,,,,,,,,,,,,,,,,,,,,,,,,,,,,,,,,,,,,,,,,,,,,,,,,,,,,,,,,,,,,,,,,,,,,070219_p2,001,2019_Jul_02_1148,body_behavioural,3.0.4,59.9683365958585,
,,,,,,,,,,,,,,,,,,,,,,,,,,,,,,,,,,,,,,,,,,,,,,,,,,,,,,,,,,1182.6565710860305,space,1.1865112300147302,,,,,,,,,,,,,,,,,,,,,,,,,070219_p2,001,2019_Jul_02_1148,body_behavioural,3.0.4,59.9683365958585,
,,,,,,,,,"In this next part of the experiment, please recall each story to the best of your ability.",,,,,,,,,,,,,0,0,0,0,,,,,,,,,,,,,,,,,,,,,,,,,,,,,,,,,,,,space,4.053391152992845,,,,,,,,,,,,,,,,,,,,,,,070219_p2,001,2019_Jul_02_1148,body_behavioural,3.0.4,59.9683365958585,
,,,,,,,,,"You will be presented with the story title, names, the images, and a blank text box for each story.",,,,,,,,,,,,,0,1,1,1,,,,,,,,,,,,,,,,,,,,,,,,,,,,,,,,,,,,space,2.7678984979866073,,,,,,,,,,,,,,,,,,,,,,,070219_p2,001,2019_Jul_02_1148,body_behavioural,3.0.4,59.9683365958585,
,,,,,,,,,Describe the story indicated with as many details as you can remember in the space provided. ,,,,,,,,,,,,,0,2,2,2,,,,,,,,,,,,,,,,,,,,,,,,,,,,,,,,,,,,space,3.8532353329937905,,,,,,,,,,,,,,,,,,,,,,,070219_p2,001,2019_Jul_02_1148,body_behavioural,3.0.4,59.9683365958585,
,,,,,,,,,"When you are finished recalling one story, to move onto the next one, press the ‘return’ key. ",,,,,,,,,,,,,0,3,3,3,,,,,,,,,,,,,,,,,,,,,,,,,,,,,,,,,,,,space,173.21594690496568,,,,,,,,,,,,,,,,,,,,,,,070219_p2,001,2019_Jul_02_1148,body_behavioural,3.0.4,59.9683365958585,
,,,,,,,,,There is a 5 minute time limit to make your response. ,,,,,,,,,,,,,0,4,4,4,,,,,,,,,,,,,,,,,,,,,,,,,,,,,,,,,,,,space,2.9035849479842,,,,,,,,,,,,,,,,,,,,,,,070219_p2,001,2019_Jul_02_1148,body_behavioural,3.0.4,59.9683365958585,
,,,,,,,,,Please note that you will not be able to capitalize any letters except for the first letter of your answer. This will not effect the scoring of your recall answer.,,,,,,,,,,,,,0,5,5,5,,,,,,,,,,,,,,,,,,,,,,,,,,,,,,,,,,,,space,5.070655242016073,,,,,,,,,,,,,,,,,,,,,,,070219_p2,001,2019_Jul_02_1148,body_behavioural,3.0.4,59.9683365958585,
0,,,,,,,,,,,,,,,,,,,,,,,,,,0,0,0,0,,,,,,,,,,,,,,,,,,,,,,,,,,,,,,,,,,space,0.9867921950062737,,,,,,,,,,,,,,,,,,,,,070219_p2,001,2019_Jul_02_1148,body_behavioural,3.0.4,59.9683365958585,
1,,,,,,,,,,,,,,,,,,,,,,,,,,0,1,1,1,,,,,,,,,,,,,,,,,,,,,,,,,,,,,,,,,,space,4.3532010720227845,,,,,,,,,,,,,,,,,,,,,070219_p2,001,2019_Jul_02_1148,body_behavioural,3.0.4,59.9683365958585,
2,,,,,,,,,,,,,,,,,,,,,,,,,,0,2,2,2,,,,,,,,,,,,,,,,,,,,,,,,,,,,,,,,,,space,1.851167647051625,,,,,,,,,,,,,,,,,,,,,070219_p2,001,2019_Jul_02_1148,body_behavioural,3.0.4,59.9683365958585,
3,,,,,,,,,,,,,,,,,,,,,,,,,,0,3,3,3,,,,,,,,,,,,,,,,,,,,,,,,,,,,,,,,,,space,35.32192279299488,,,,,,,,,,,,,,,,,,,,,070219_p2,001,2019_Jul_02_1148,body_behavioural,3.0.4,59.9683365958585,
4,,,,,,,,,,,,,,,,,,,,,,,,,,0,4,4,4,,,,,,,,,,,,,,,,,,,,,,,,,,,,,,,,,,space,28.48863831203198,,,,,,,,,,,,,,,,,,,,,070219_p2,001,2019_Jul_02_1148,body_behavioural,3.0.4,59.9683365958585,
5,,,,,,,,,,,,,,,,,,,,,,,,,,0,5,5,5,,,,,,,,,,,,,,,,,,,,,,,,,,,,,,,,,,space,5.1871060720295645,,,,,,,,,,,,,,,,,,,,,070219_p2,001,2019_Jul_02_1148,body_behavioural,3.0.4,59.9683365958585,
6,,,,,,,,,,,,,,,,,,,,,,,,,,0,6,6,6,,,,,,,,,,,,,,,,,,,,,,,,,,,,,,,,,,space,7.60377464001067,,,,,,,,,,,,,,,,,,,,,070219_p2,001,2019_Jul_02_1148,body_behavioural,3.0.4,59.9683365958585,
7,,,,,,,,,,,,,,,,,,,,,,,,,,0,7,7,7,,,,,,,,,,,,,,,,,,,,,,,,,,,,,,,,,,space,81.87640584999463,,,,,,,,,,,,,,,,,,,,,070219_p2,001,2019_Jul_02_1148,body_behavioural,3.0.4,59.9683365958585,
,,,,,,,,,,,,,,,,,,,,,,,,,,,,,,,,,,,,,,,,,,,,,,,,,,,,,,,,,,,,,,,,,3942.210666583036,space,23.80472222500248,,,,,,,,,,,,,,,,,,070219_p2,001,2019_Jul_02_1148,body_behavioural,3.0.4,59.9683365958585,
,,,,,,,,,"In this last part of the experiment, please answer 8 questions about each story.",,,,,,,,,,,,,,,,,,,,,0,0,0,0,,,,,,,,,,,,,,,,,,,,,,,,,,,,,,,,,,,space,1.8035777229815722,,,,,,,,,,,,,,,,070219_p2,001,2019_Jul_02_1148,body_behavioural,3.0.4,59.9683365958585,
,,,,,,,,,Some of the questions are not related to the perspective you were asked to assume.,,,,,,,,,,,,,,,,,,,,,0,1,1,1,,,,,,,,,,,,,,,,,,,,,,,,,,,,,,,,,,,space,1.2195401070057414,,,,,,,,,,,,,,,,070219_p2,001,2019_Jul_02_1148,body_behavioural,3.0.4,59.9683365958585,
,,,,,,,,,"We realize that we did not tell you to think of these questions during the story, but please do your best to answer them.",,,,,,,,,,,,,,,,,,,,,0,2,2,2,,,,,,,,,,,,,,,,,,,,,,,,,,,,,,,,,,,space,4.567879325011745,,,,,,,,,,,,,,,,070219_p2,001,2019_Jul_02_1148,body_behavioural,3.0.4,59.9683365958585,
,,,,,,,,,"When you have finished typing your answer, hit ‘return’ to submit your answer and move onto the next question. ",,,,,,,,,,,,,,,,,,,,,0,3,3,3,,,,,,,,,,,,,,,,,,,,,,,,,,,,,,,,,,,space,2.219979568035342,,,,,,,,,,,,,,,,070219_p2,001,2019_Jul_02_1148,body_behavioural,3.0.4,59.9683365958585,
0,,,,,,,,,,,,,,,,,,,,,,,,,,,,,,,,,,0,0,0,0,,,,,,,,,,,,,,,,,,,,,,,,,,,,,,,,,space,0.6033704670262523,Dont remebe,Wine salesmen and wine buyer,primed first,800 for 5 crates,Lllll,Handshake,Not much time,Not sure,Dont rember,Dont remebe,,,,070219_p2,001,2019_Jul_02_1148,body_behavioural,3.0.4,59.9683365958585,
1,,,,,,,,,,,,,,,,,,,,,,,,,,,,,,,,,,0,1,1,1,,,,,,,,,,,,,,,,,,,,,,,,,,,,,,,,,space,1.1366990780225024,33f 36 f,6 weeks,non-primed first,Diffrernt personalities,Calvin does not wan t to break up but jessie feels they are not compatible,She wants philosophy books,10 mins,Not sure,Idk,33f 36 f,,,,070219_p2,001,2019_Jul_02_1148,body_behavioural,3.0.4,59.9683365958585,
2,,,,,,,,,,,,,,,,,,,,,,,,,,,,,,,,,,0,2,2,2,,,,,,,,,,,,,,,,,,,,,,,,,,,,,,,,,space,1.0365229820017703,After class,Nice chandeliers,primed first,Archaelogy,Archaeology fosils,Test next friday first quiz,Note,Have you ever been in laquestion,Date later that night,After class,,,,070219_p2,001,2019_Jul_02_1148,body_behavioural,3.0.4,59.9683365958585,
3,,,,,,,,,,,,,,,,,,,,,,,,,,,,,,,,,,0,3,3,3,,,,,,,,,,,,,,,,,,,,,,,,,,,,,,,,,space,1.1174813919933513,Late,Nice,non-primed first,Meat,2,Credit card,Veggies,Ideas,That week for a date,Late,,,,070219_p2,001,2019_Jul_02_1148,body_behavioural,3.0.4,59.9683365958585,
4,,,,,,,,,,,,,,,,,,,,,,,,,,,,,,,,,,0,4,4,4,,,,,,,,,,,,,,,,,,,,,,,,,,,,,,,,,space,0.653194693964906,No he said it left a fish taste and foul taste,Not long ,primed first,His job,She thinks they are doing great,Poster ,Beautiful,Hard to read funny sayings,Burgers,No he said it left a fish taste and foul taste,,,,070219_p2,001,2019_Jul_02_1148,body_behavioural,3.0.4,59.9683365958585,
5,,,,,,,,,,,,,,,,,,,,,,,,,,,,,,,,,,0,5,5,5,,,,,,,,,,,,,,,,,,,,,,,,,,,,,,,,,space,0.7703535970067605,Friend,Nice,non-primed first,Idk,Idk,Odk,Few years,5 avante garde,In a notebook on a page,Friend,,,,070219_p2,001,2019_Jul_02_1148,body_behavioural,3.0.4,59.9683365958585,
6,,,,,,,,,,,,,,,,,,,,,,,,,,,,,,,,,,0,6,6,6,,,,,,,,,,,,,,,,,,,,,,,,,,,,,,,,,space,0.8371694119996391,Yes they do ,Isdk,non-primed first,Idk,Idk,Idk,Idk,Dik,Idk,Yes they do ,,,,070219_p2,001,2019_Jul_02_1148,body_behavioural,3.0.4,59.9683365958585,
7,,,,,,,,,,,,,,,,,,,,,,,,,,,,,,,,,,0,7,7,7,,,,,,,,,,,,,,,,,,,,,,,,,,,,,,,,,space,1.0699302980210632,Cash,Few years,non-primed first,5 ,Avante garde,Sister,Nice,Fruit,2,Cash,,,,070219_p2,001,2019_Jul_02_1148,body_behavioural,3.0.4,59.9683365958585,
,,,,,,,,,,,,,,,,,,,,,,,,,,,,,,,,,,,,,,,,,,,,,,,,,,,,,,,,,,,,,,,,,,,,,,,,,,,,,,,,,,4465.29660224804,space,0.7200858779833652,070219_p2,001,2019_Jul_02_1148,body_behavioural,3.0.4,59.9683365958585,
,,,,,,,,,,,,,,,,,,,,,,,,,,,,,,,,,,,,,,0,0,0,0,,,,,,,,,,,,,,,,,,,,,,,,,,,,,,,,,,,,,,,,,,,,070219_p2,001,2019_Jul_02_1148,body_behavioural,3.0.4,59.9683365958585,
,,,,,,,,,,,,,,,,,,,,,,,,,,,,,,,,,,,,,,1,0,1,0,,,,,,,,,,,,,,,,,,,,,,,,,,,,,,,,,,,,,,,,,,,,070219_p2,001,2019_Jul_02_1148,body_behavioural,3.0.4,59.9683365958585,
,,,,,,,,,,,,,,,,,,,,,,,,,,,,,,,,,,,,,,2,0,2,0,,,,,,,,,,,,,,,,,,,,,,,,,,,,,,,,,,,,,,,,,,,,070219_p2,001,2019_Jul_02_1148,body_behavioural,3.0.4,59.9683365958585,
,,,,,,,,,,,,,,,,,,,,,,,,,,,,,,,,,,,,,,3,0,3,0,,,,,,,,,,,,,,,,,,,,,,,,,,,,,,,,,,,,,,,,,,,,070219_p2,001,2019_Jul_02_1148,body_behavioural,3.0.4,59.9683365958585,
,,,,,,,,,,,,,,,,,,,,,,,,,,,,,,,,,,,,,,4,0,4,0,,,,,,,,,,,,,,,,,,,,,,,,,,,,,,,,,,,,,,,,,,,,070219_p2,001,2019_Jul_02_1148,body_behavioural,3.0.4,59.9683365958585,
