count,storyText,locationEvent,socialEvent,locationEventSize,socialEventSize,storyEvent,instructText,trials.thisRepN,trials.thisTrialN,trials.thisN,trials.thisIndex,trials_2.thisRepN,trials_2.thisTrialN,trials_2.thisN,trials_2.thisIndex,trials_3.thisRepN,trials_3.thisTrialN,trials_3.thisN,trials_3.thisIndex,trials_4.thisRepN,trials_4.thisTrialN,trials_4.thisN,trials_4.thisIndex,trials_5.thisRepN,trials_5.thisTrialN,trials_5.thisN,trials_5.thisIndex,trials_6.thisRepN,trials_6.thisTrialN,trials_6.thisN,trials_6.thisIndex,order of stories,order of perspectives,key_resp_5.keys,key_resp_5.rt,story_presses.keys,story_presses.rt,key_resp_2.keys,key_resp_2.rt,recall,key_resp_3.keys,key_resp_3.rt,key_resp_4.keys,key_resp_4.rt,question1_answer,order of question,question2_answer,question3_answer,question4_answer,question5_answer,question6_answer,question7_answer,question8_answer,participant,session,date,expName,frameRate,
0,"James noticed Teresa immediately as she walked into the restaurant - or, more accurately as she attempted to walk into the restaurant. ",1,1,,,,,0,0,0,0,0,0,0,0,,,,,,,,,,,,,,,,,[41 12 21 32 24 44 33 13 42 11 31 43 34 22 14 23],"['Social' 'Social' 'Location' 'Location' 'Social' 'Location' 'Social'
 'Location' 'Location' 'Location' 'Social' 'Social' 'Location' 'Social'
 'Social' 'Location']",space,4.037777183999999,1,15.106270322,,,,,,,,,,,,,,,,,olivia,001,2019_Jan_24_1604,body_behavioural,60.06338428880592,
0,"She was typing intently on her phone, and ran straight into the diner's clear glass door with an echoing thud. ",1,1,,,,,0,0,0,0,0,1,1,1,,,,,,,,,,,,,,,,,,,,,1,6.970488435999997,,,,,,,,,,,,,,,,,olivia,001,2019_Jan_24_1604,body_behavioural,60.06338428880592,
0,Everyone waiting around the cash register turned to see if she was okay.,1,1,,,,,0,0,0,0,0,2,2,2,,,,,,,,,,,,,,,,,,,,,1,2.5346337959999943,,,,,,,,,,,,,,,,,olivia,001,2019_Jan_24_1604,body_behavioural,60.06338428880592,
0,"Teresa rubbed her head, confused but unembarrassed, mostly just indignant that the door had been in her way. ",1,1,,,,,0,0,0,0,0,3,3,3,,,,,,,,,,,,,,,,,,,,,1,18.840631523,,,,,,,,,,,,,,,,,olivia,001,2019_Jan_24_1604,body_behavioural,60.06338428880592,
0,"James found this quite charming and stole a couple glances of her, until she noticed and wrinkled her eyebrows at him in suspicion. ",1,1,,,,,0,0,0,0,0,4,4,4,,,,,,,,,,,,,,,,,,,,,1,8.988262376000009,,,,,,,,,,,,,,,,,olivia,001,2019_Jan_24_1604,body_behavioural,60.06338428880592,
0,"The restaurant they were in was a cabin-themed diner, with wooden booths and bar and walls covered in plaid blankets and antler decorations. ",1,1,,,,,0,0,0,0,0,5,5,5,,,,,,,,,,,,,,,,,,,,,1,22.359997321999998,,,,,,,,,,,,,,,,,olivia,001,2019_Jan_24_1604,body_behavioural,60.06338428880592,
0,"The waiter saw that James and Teresa were both alone, and motioned to both of them. ",1,1,,,,,0,0,0,0,0,6,6,6,,,,,,,,,,,,,,,,,,,,,9,9.38552396,,,,,,,,,,,,,,,,,olivia,001,2019_Jan_24_1604,body_behavioural,60.06338428880592,
0,“Right this way. You two don't mind sitting at the counter?” ,2,1,,,,,0,0,0,0,0,7,7,7,,,,,,,,,,,,,,,,,,,,,1,6.727201377,,,,,,,,,,,,,,,,,olivia,001,2019_Jan_24_1604,body_behavioural,60.06338428880592,
0,They sat a seat apart from each other on the split tree trunk that served as a bench.,2,1,,,,,0,0,0,0,0,8,8,8,,,,,,,,,,,,,,,,,,,,,1,6.336295490999987,,,,,,,,,,,,,,,,,olivia,001,2019_Jan_24_1604,body_behavioural,60.06338428880592,
0, The waitress behind the counter gave them bright neon menus that were filled with breakfast items.,2,1,,,,,0,0,0,0,0,9,9,9,,,,,,,,,,,,,,,,,,,,,1,3.6036074600000063,,,,,,,,,,,,,,,,,olivia,001,2019_Jan_24_1604,body_behavioural,60.06338428880592,
0,"Teresa quickly glanced through it, then pulled out a book and started reading it, while James played with the salt and pepper shakers as he tried to think of an excuse to talk to Teresa.",2,1,,,,,0,0,0,0,0,10,10,10,,,,,,,,,,,,,,,,,,,,,1,6.487999879,,,,,,,,,,,,,,,,,olivia,001,2019_Jan_24_1604,body_behavioural,60.06338428880592,
0," He eventually turned to her, and asked, “Your forehead alright?”",2,2,,,,,0,0,0,0,0,11,11,11,,,,,,,,,,,,,,,,,,,,,9,15.18966758800002,,,,,,,,,,,,,,,,,olivia,001,2019_Jan_24_1604,body_behavioural,60.06338428880592,
0,She put down her book and gave him a smirk.,2,2,,,,,0,0,0,0,0,12,12,12,,,,,,,,,,,,,,,,,,,,,1,1.2854388370000152,,,,,,,,,,,,,,,,,olivia,001,2019_Jan_24_1604,body_behavioural,60.06338428880592,
0,"“Have you ever been stung by a scorpion?” she asked him, tilting her head.",2,2,,,,,0,0,0,0,0,13,13,13,,,,,,,,,,,,,,,,,,,,,1,3.2198096580000026,,,,,,,,,,,,,,,,,olivia,001,2019_Jan_24_1604,body_behavioural,60.06338428880592,
0,“What?” ,2,2,,,,,0,0,0,0,0,14,14,14,,,,,,,,,,,,,,,,,,,,,1,0.9019963060000009,,,,,,,,,,,,,,,,,olivia,001,2019_Jan_24_1604,body_behavioural,60.06338428880592,
0, “A scorpion.”,2,2,,,,,0,0,0,0,0,15,15,15,,,,,,,,,,,,,,,,,,,,,1,0.9356805259999987,,,,,,,,,,,,,,,,,olivia,001,2019_Jan_24_1604,body_behavioural,60.06338428880592,
0, He began to worry that maybe she had suffered a concussion in the door crash.,2,2,,,,,0,0,0,0,0,16,16,16,,,,,,,,,,,,,,,,,,,,,1,12.489728387000014,,,,,,,,,,,,,,,,,olivia,001,2019_Jan_24_1604,body_behavioural,60.06338428880592,
0,"“Uh no, why?” ",2,2,,,,,0,0,0,0,0,17,17,17,,,,,,,,,,,,,,,,,,,,,1,1.5520703319999996,,,,,,,,,,,,,,,,,olivia,001,2019_Jan_24_1604,body_behavioural,60.06338428880592,
0," “Because I have been, and since then, things like bumping into doors seem like pretty small potatoes.” ",2,2,,,,,0,0,0,0,0,18,18,18,,,,,,,,,,,,,,,,,,,,,1,9.488257066000017,,,,,,,,,,,,,,,,,olivia,001,2019_Jan_24_1604,body_behavioural,60.06338428880592,
0,"They carried on talking, and Teresa told him all about her encounter with a Deathstalker scorpion while she was studying abroad in Egypt.",2,2,,,,,0,0,0,0,0,19,19,19,,,,,,,,,,,,,,,,,,,,,9,7.004012368000019,,,,,,,,,,,,,,,,,olivia,001,2019_Jan_24_1604,body_behavioural,60.06338428880592,
0,"After a few minutes, the waitress behind the counter came up to them, “Alrighty, can I take you order?” ",3,3,,,,,0,0,0,0,0,20,20,20,,,,,,,,,,,,,,,,,,,,,1,3.284153886000013,,,,,,,,,,,,,,,,,olivia,001,2019_Jan_24_1604,body_behavioural,60.06338428880592,
0,"She first asked Teresa who answered, “I’ll have a Western Omelette and a glass of milk.”",3,3,,,,,0,0,0,0,0,21,21,21,,,,,,,,,,,,,,,,,,,,,1,2.3693939109999747,,,,,,,,,,,,,,,,,olivia,001,2019_Jan_24_1604,body_behavioural,60.06338428880592,
0,"Then the waitress turned to James, “I’ll have the chocolate chip pancakes and a coffee.” ",3,3,,,,,0,0,0,0,0,22,22,22,,,,,,,,,,,,,,,,,,,,,1,3.773172896999995,,,,,,,,,,,,,,,,,olivia,001,2019_Jan_24_1604,body_behavioural,60.06338428880592,
0,"“Alrighty, comin’ right up!”",3,3,,,,,0,0,0,0,0,23,23,23,,,,,,,,,,,,,,,,,,,,,1,0.9680111760000045,,,,,,,,,,,,,,,,,olivia,001,2019_Jan_24_1604,body_behavioural,60.06338428880592,
0,"They picked up their conversation, and James ended up telling Teresa about a concert he was going to later. ",3,3,,,,,0,0,0,0,0,24,24,24,,,,,,,,,,,,,,,,,,,,,1,44.415812380000006,,,,,,,,,,,,,,,,,olivia,001,2019_Jan_24_1604,body_behavioural,60.06338428880592,
0," He invited her to come along, promising her that the concert would be indoors and absolutely free of venomous insects.",3,3,,,,,0,0,0,0,0,25,25,25,,,,,,,,,,,,,,,,,,,,,9,3.768170542000007,,,,,,,,,,,,,,,,,olivia,001,2019_Jan_24_1604,body_behavioural,60.06338428880592,
0,"Teresa gave him her number, and they worked out that James would pick her up before the concert, and drive them there.",3,3,,,,,0,0,0,0,0,26,26,26,,,,,,,,,,,,,,,,,,,,,9,3.8191852549999794,,,,,,,,,,,,,,,,,olivia,001,2019_Jan_24_1604,body_behavioural,60.06338428880592,
0,"This was not what they had expected from their solitary lunch plans and were both excited, though Teresa was doing a much better job of hiding it than James. ",3,3,,,,,0,0,0,0,0,27,27,27,,,,,,,,,,,,,,,,,,,,,9,9.587294940999982,,,,,,,,,,,,,,,,,olivia,001,2019_Jan_24_1604,body_behavioural,60.06338428880592,
0," After awhile,  the waitress brought out their food, and James took this opportunity to scoot closer to her on the log bench. ",4,4,,,,,0,0,0,0,0,28,28,28,,,,,,,,,,,,,,,,,,,,,9,4.370222911999974,,,,,,,,,,,,,,,,,olivia,001,2019_Jan_24_1604,body_behavioural,60.06338428880592,
0," She was happy to share the meal with him, despite their food tasting pretty bad. ",4,4,,,,,0,0,0,0,0,29,29,29,,,,,,,,,,,,,,,,,,,,,9,4.909778400999983,,,,,,,,,,,,,,,,,olivia,001,2019_Jan_24_1604,body_behavioural,60.06338428880592,
0,"Judging by how salty the pancakes tasted, they suspected that the chef confused the salt and sugar.",4,4,,,,,0,0,0,0,0,30,30,30,,,,,,,,,,,,,,,,,,,,,9,4.586870874999988,,,,,,,,,,,,,,,,,olivia,001,2019_Jan_24_1604,body_behavioural,60.06338428880592,
0,"When the meal was over, they got up, and hugged, parting ways. ",4,4,,,,,0,0,0,0,0,31,31,31,,,,,,,,,,,,,,,,,,,,,1,4.792006108999999,,,,,,,,,,,,,,,,,olivia,001,2019_Jan_24_1604,body_behavioural,60.06338428880592,
0,"“I have to run, got to get to work.",4,4,,,,,0,0,0,0,0,32,32,32,,,,,,,,,,,,,,,,,,,,,9,3.220111069999973,,,,,,,,,,,,,,,,,olivia,001,2019_Jan_24_1604,body_behavioural,60.06338428880592,
0, See you tonight!” James said.,4,4,,,,,0,0,0,0,0,33,33,33,,,,,,,,,,,,,,,,,,,,,9,2.5517372059999843,,,,,,,,,,,,,,,,,olivia,001,2019_Jan_24_1604,body_behavioural,60.06338428880592,
0,"Teresa smiled and walked towards the door without looking, and almost ran into the door again. ",4,4,,,,,0,0,0,0,0,34,34,34,,,,,,,,,,,,,,,,,,,,,9,5.590853268999979,,,,,,,,,,,,,,,,,olivia,001,2019_Jan_24_1604,body_behavioural,60.06338428880592,
0,They both laughed and smiled once more goodbye. ,4,4,,,,,0,0,0,0,0,35,35,35,,,,,,,,,,,,,,,,,,,,,9,1.4856808480000154,,,,,,,,,,,,,,,,,olivia,001,2019_Jan_24_1604,body_behavioural,60.06338428880592,
0,,,,,,,,0,0,0,0,,,,,,,,,,,,,,,,,,,,,,,,,,,,,,,,,,,,,,,,,,,olivia,001,2019_Jan_24_1604,body_behavioural,60.06338428880592,
1,"Calvin and Jessie were running late to the airport, and Jessie was fuming at Calvin and ready to end things with him.",1,1,,,,,0,1,1,1,0,0,0,0,,,,,,,,,,,,,,,,,,,space,9.238209764999965,1,3.4349901309999495,,,,,,,,,,,,,,,,,olivia,001,2019_Jan_24_1604,body_behavioural,60.06338428880592,
1,When they entered the airport they had only 45 minutes until their international flight would depart from Jamaica for the US.,1,1,,,,,0,1,1,1,0,1,1,1,,,,,,,,,,,,,,,,,,,,,9,15.122003551999967,,,,,,,,,,,,,,,,,olivia,001,2019_Jan_24_1604,body_behavioural,60.06338428880592,
1,It had been a tough vacation for them: argument-filled and tense from the minute they had landed.,1,1,,,,,0,1,1,1,0,2,2,2,,,,,,,,,,,,,,,,,,,,,9,8.936684485,,,,,,,,,,,,,,,,,olivia,001,2019_Jan_24_1604,body_behavioural,60.06338428880592,
1," Jessie had really had it with Calvin’s constant ramblings about the same excruciatingly boring golfing and work stories, which he insisted on repeating to her regardless of how little interest she showed.",1,1,,,,,0,1,1,1,0,3,3,3,,,,,,,,,,,,,,,,,,,,,9,15.072803160000035,,,,,,,,,,,,,,,,,olivia,001,2019_Jan_24_1604,body_behavioural,60.06338428880592,
1,"Calvin knew that Jessie was upset, but wasn't sure what to do besides attempting to keep his mouth shut for the time being. ",1,1,,,,,0,1,1,1,0,4,4,4,,,,,,,,,,,,,,,,,,,,,1,24.258781185999965,,,,,,,,,,,,,,,,,olivia,001,2019_Jan_24_1604,body_behavioural,60.06338428880592,
1," The security line was luckily very short, and once the online boarding passes were scanned, they were ushered quickly through the metal detector, not having to take off their shoes or remove their liquids from their bags.",2,1,,,,,0,1,1,1,0,5,5,5,,,,,,,,,,,,,,,,,,,,,9,20.058403933000022,,,,,,,,,,,,,,,,,olivia,001,2019_Jan_24_1604,body_behavioural,60.06338428880592,
1,"“The infrastructure of this airport is really quite poor," said Calvin as they waited for their bags to emerge from the x-ray machine.",2,1,,,,,0,1,1,1,0,6,6,6,,,,,,,,,,,,,,,,,,,,,9,6.353991264000001,,,,,,,,,,,,,,,,,olivia,001,2019_Jan_24_1604,body_behavioural,60.06338428880592,
1,“I really could've hidden something in my shoes quite easily.” ,2,1,,,,,0,1,1,1,0,7,7,7,,,,,,,,,,,,,,,,,,,,,9,4.869134946000031,,,,,,,,,,,,,,,,,olivia,001,2019_Jan_24_1604,body_behavioural,60.06338428880592,
1,"Jessie, exasperated at his need to broadcast his every inner thought to the world, scowled at the conveyor belt.",2,1,,,,,0,1,1,1,0,8,8,8,,,,,,,,,,,,,,,,,,,,,9,25.694115952000004,,,,,,,,,,,,,,,,,olivia,001,2019_Jan_24_1604,body_behavioural,60.06338428880592,
1,“What?” he said.,2,1,,,,,0,1,1,1,0,9,9,9,,,,,,,,,,,,,,,,,,,,,9,1.0853320370000006,,,,,,,,,,,,,,,,,olivia,001,2019_Jan_24_1604,body_behavioural,60.06338428880592,
1,She balled up her fists and turned to face him.,2,1,,,,,0,1,1,1,0,10,10,10,,,,,,,,,,,,,,,,,,,,,9,1.8177612289999843,,,,,,,,,,,,,,,,,olivia,001,2019_Jan_24_1604,body_behavioural,60.06338428880592,
1,"“Calvin, I really don’t think I can do this anymore.",2,2,,,,,0,1,1,1,0,11,11,11,,,,,,,,,,,,,,,,,,,,,9,4.702838460999999,,,,,,,,,,,,,,,,,olivia,001,2019_Jan_24_1604,body_behavioural,60.06338428880592,
1,I think it’s best that once we get to the States we part ways for good.” ,2,2,,,,,0,1,1,1,0,12,12,12,,,,,,,,,,,,,,,,,,,,,9,3.3534400700000333,,,,,,,,,,,,,,,,,olivia,001,2019_Jan_24_1604,body_behavioural,60.06338428880592,
1,Calvin said nothing as he grabbed his bag and stormed away.,2,2,,,,,0,1,1,1,0,13,13,13,,,,,,,,,,,,,,,,,,,,,1,35.912507558000016,,,,,,,,,,,,,,,,,olivia,001,2019_Jan_24_1604,body_behavioural,60.06338428880592,
1,"Jessie trailed behind him as they made their way quickly toward their gate, shouting at his back in hopes of getting a response.",3,2,,,,,0,1,1,1,0,14,14,14,,,,,,,,,,,,,,,,,,,,,9,4.572455589000015,,,,,,,,,,,,,,,,,olivia,001,2019_Jan_24_1604,body_behavioural,60.06338428880592,
1, “So now you have nothing to say?,3,2,,,,,0,1,1,1,0,15,15,15,,,,,,,,,,,,,,,,,,,,,9,1.2502649150000025,,,,,,,,,,,,,,,,,olivia,001,2019_Jan_24_1604,body_behavioural,60.06338428880592,
1,"Every time we talk, you are just looking for a way to steer the conversation back into stories that you are the only one interested in.”",3,2,,,,,0,1,1,1,0,16,16,16,,,,,,,,,,,,,,,,,,,,,9,4.601672527000005,,,,,,,,,,,,,,,,,olivia,001,2019_Jan_24_1604,body_behavioural,60.06338428880592,
1,"Calvin didn't slow his pace, gritting his teeth and staring straight ahead. ",3,2,,,,,0,1,1,1,0,17,17,17,,,,,,,,,,,,,,,,,,,,,9,2.852880259000017,,,,,,,,,,,,,,,,,olivia,001,2019_Jan_24_1604,body_behavioural,60.06338428880592,
1,The silence was punctuated only by the rapid rhythmic clacking of their suitcase wheels over the tile floor as they continued power-walking through the terminal. ,3,2,,,,,0,1,1,1,0,18,18,18,,,,,,,,,,,,,,,,,,,,,9,3.2687652119999484,,,,,,,,,,,,,,,,,olivia,001,2019_Jan_24_1604,body_behavioural,60.06338428880592,
1," “Well?” Jessie said, and Calvin finally turned to her.",3,2,,,,,0,1,1,1,0,19,19,19,,,,,,,,,,,,,,,,,,,,,9,4.3531003159999955,,,,,,,,,,,,,,,,,olivia,001,2019_Jan_24_1604,body_behavioural,60.06338428880592,
1," “Well Jessie, this makes perfect sense. ",3,3,,,,,0,1,1,1,0,20,20,20,,,,,,,,,,,,,,,,,,,,,9,4.203189631999976,,,,,,,,,,,,,,,,,olivia,001,2019_Jan_24_1604,body_behavioural,60.06338428880592,
1,"If you feel this way, then I don’t want to keep boring you, and I agree, let’s part ways once we make it back.",3,3,,,,,0,1,1,1,0,21,21,21,,,,,,,,,,,,,,,,,,,,,1,13.75586681499999,,,,,,,,,,,,,,,,,olivia,001,2019_Jan_24_1604,body_behavioural,60.06338428880592,
1,"I thought we were having a lovely time, but if the feeling was not mutual then so be it.”",3,3,,,,,0,1,1,1,0,22,22,22,,,,,,,,,,,,,,,,,,,,,1,2.0676081369999793,,,,,,,,,,,,,,,,,olivia,001,2019_Jan_24_1604,body_behavioural,60.06338428880592,
1,"He was clearly hurt, but thought it was pointless to argue. ",3,3,,,,,0,1,1,1,0,23,23,23,,,,,,,,,,,,,,,,,,,,,9,3.835934070999997,,,,,,,,,,,,,,,,,olivia,001,2019_Jan_24_1604,body_behavioural,60.06338428880592,
1,"They finally made it to the gate, just as they heard the final call for passengers boarding their flight.",3,3,,,,,0,1,1,1,0,24,24,24,,,,,,,,,,,,,,,,,,,,,9,12.75623051399998,,,,,,,,,,,,,,,,,olivia,001,2019_Jan_24_1604,body_behavioural,60.06338428880592,
1,"They scanned their tickets, and the annoyed flight attendant shooed them onto the jet bridge and then closed the door behind them.",4,3,,,,,0,1,1,1,0,25,25,25,,,,,,,,,,,,,,,,,,,,,9,45.0487391800001,,,,,,,,,,,,,,,,,olivia,001,2019_Jan_24_1604,body_behavioural,60.06338428880592,
1,"Luckily, they had forgotten to arrange seats next to each other on the flight back.",4,3,,,,,0,1,1,1,0,26,26,26,,,,,,,,,,,,,,,,,,,,,9,3.900362780000023,,,,,,,,,,,,,,,,,olivia,001,2019_Jan_24_1604,body_behavioural,60.06338428880592,
1,"They both had first-class tickets, but Jessie was headed for seat 1B while Calvin's ticket was for 4F. ",4,3,,,,,0,1,1,1,0,27,27,27,,,,,,,,,,,,,,,,,,,,,9,8.470861123000077,,,,,,,,,,,,,,,,,olivia,001,2019_Jan_24_1604,body_behavioural,60.06338428880592,
1,"Before Jessie sat down, she took a deep breath and then awkwardly shook Calvin’s hand, mumbling, “Well, have a nice flight.” ",4,4,,,,,0,1,1,1,0,28,28,28,,,,,,,,,,,,,,,,,,,,,1,3.4191130579999935,,,,,,,,,,,,,,,,,olivia,001,2019_Jan_24_1604,body_behavioural,60.06338428880592,
1,He laughed in disbelief and walked to his window seat three rows back to get ready for takeoff.,4,4,,,,,0,1,1,1,0,29,29,29,,,,,,,,,,,,,,,,,,,,,9,6.6367943710000645,,,,,,,,,,,,,,,,,olivia,001,2019_Jan_24_1604,body_behavioural,60.06338428880592,
1,"Both were at least relieved that the vacation and the fights were over, and they were looking forward to never having to struggle through another conversation together again.
",4,4,,,,,0,1,1,1,0,30,30,30,,,,,,,,,,,,,,,,,,,,,9,9.188253579000047,,,,,,,,,,,,,,,,,olivia,001,2019_Jan_24_1604,body_behavioural,60.06338428880592,
1,,,,,,,,0,1,1,1,,,,,,,,,,,,,,,,,,,,,,,,,,,,,,,,,,,,,,,,,,,olivia,001,2019_Jan_24_1604,body_behavioural,60.06338428880592,
2,Alvira and Senna walked into the restaurant hand in sweaty hand with quite different expectations: Senna was going to propose tonight and Alvira had no idea.,1,1,None,None,,,0,2,2,2,0,0,0,0,,,,,,,,,,,,,,,,,,,space,3.421108600000025,1,64.02259794400004,,,,,,,,,,,,,,,,,olivia,001,2019_Jan_24_1604,body_behavioural,60.06338428880592,
2,"He took a deep breath, trying to calm his nerves as worst case scenarios ran through his mind. ",1,1,None,None,,,0,2,2,2,0,1,1,1,,,,,,,,,,,,,,,,,,,,,9,4.843034211000031,,,,,,,,,,,,,,,,,olivia,001,2019_Jan_24_1604,body_behavioural,60.06338428880592,
2,The entrance of the restaurant was dazzling; chandeliers spread their warm light onto the delicate place settings of all the tables filled with guests dressed to the nines. ,1,1,None,None,,,0,2,2,2,0,2,2,2,,,,,,,,,,,,,,,,,,,,,9,14.155821985000102,,,,,,,,,,,,,,,,,olivia,001,2019_Jan_24_1604,body_behavioural,60.06338428880592,
2,"Through the floor-to-ceiling arched windows of the back wall, they saw the sun setting onto the Pacific ocean.",1,1,None,None,,,0,2,2,2,0,3,3,3,,,,,,,,,,,,,,,,,,,,,9,3.2524996250000413,,,,,,,,,,,,,,,,,olivia,001,2019_Jan_24_1604,body_behavioural,60.06338428880592,
2,"This was surely one of the best restaurants on the west coast, situated right on the beach.",1,1,None,None,,,0,2,2,2,0,4,4,4,,,,,,,,,,,,,,,,,,,,,9,2.0696328729999323,,,,,,,,,,,,,,,,,olivia,001,2019_Jan_24_1604,body_behavioural,60.06338428880592,
2,"Senna gave his name to the host, who quickly located their reservation with an almost comically wide customer-service smile.",1,1,7.0,None,,,0,2,2,2,0,5,5,5,,,,,,,,,,,,,,,,,,,,,1,7.519239836999986,,,,,,,,,,,,,,,,,olivia,001,2019_Jan_24_1604,body_behavioural,60.06338428880592,
2,He led them to a table right by the window.,2,1,None,None,,,0,2,2,2,0,6,6,6,,,,,,,,,,,,,,,,,,,,,9,3.402400555999975,,,,,,,,,,,,,,,,,olivia,001,2019_Jan_24_1604,body_behavioural,60.06338428880592,
2,"He brought out some very small menus, with a short list of the chef's carefully selected daily dishes written in a loopy, cursive font unadorned by any mention of prices.",2,1,None,9.0,,,0,2,2,2,0,7,7,7,,,,,,,,,,,,,,,,,,,,,9,7.789302794000037,,,,,,,,,,,,,,,,,olivia,001,2019_Jan_24_1604,body_behavioural,60.06338428880592,
2,Senna slipped off to the bathroom to check to make sure the ring was in order.,2,2,None,None,,,0,2,2,2,0,8,8,8,,,,,,,,,,,,,,,,,,,,,1,7.2955635790000315,,,,,,,,,,,,,,,,,olivia,001,2019_Jan_24_1604,body_behavioural,60.06338428880592,
2,"The canary diamond had been his mother’s ring, and it was a brilliant stone with small white diamonds encircling it.",2,2,None,None,,,0,2,2,2,0,9,9,9,,,,,,,,,,,,,,,,,,,,,9,3.5366094339999563,,,,,,,,,,,,,,,,,olivia,001,2019_Jan_24_1604,body_behavioural,60.06338428880592,
2,He walked back to the table after handing the box to a waiter at the front podium.,2,2,6.0,None,,,0,2,2,2,0,10,10,10,,,,,,,,,,,,,,,,,,,,,9,5.975413998000022,,,,,,,,,,,,,,,,,olivia,001,2019_Jan_24_1604,body_behavioural,60.06338428880592,
2,He came back just as their waiter was approaching the table to get their order.,3,2,None,None,,,0,2,2,2,0,11,11,11,,,,,,,,,,,,,,,,,,,,,9,4.4578433240000095,,,,,,,,,,,,,,,,,olivia,001,2019_Jan_24_1604,body_behavioural,60.06338428880592,
2,"Senna ordered the oysters with garlic-parmesan sauce, and Alvira ordered the sauteed sea scallops with caramelized apples. ",3,2,None,None,,,0,2,2,2,0,12,12,12,,,,,,,,,,,,,,,,,,,,,9,6.521048102999998,,,,,,,,,,,,,,,,,olivia,001,2019_Jan_24_1604,body_behavioural,60.06338428880592,
2,"“Excellent choices,” the waiter said with a subsequent brisk spin away from the table.",3,2,None,None,,,0,2,2,2,0,13,13,13,,,,,,,,,,,,,,,,,,,,,1,7.87146563400006,,,,,,,,,,,,,,,,,olivia,001,2019_Jan_24_1604,body_behavioural,60.06338428880592,
2," “What a beautiful place, Senna. ",3,2,None,None,,,0,2,2,2,0,14,14,14,,,,,,,,,,,,,,,,,,,,,9,1.0687993359999837,,,,,,,,,,,,,,,,,olivia,001,2019_Jan_24_1604,body_behavioural,60.06338428880592,
2,"Really this is too much just to celebrate the first tomatoes I grew in the garden, like, this is absurd,” Alvira said.",3,2,None,None,,,0,2,2,2,0,15,15,15,,,,,,,,,,,,,,,,,,,,,9,4.486746272000005,,,,,,,,,,,,,,,,,olivia,001,2019_Jan_24_1604,body_behavioural,60.06338428880592,
2,"Senna laughed, “No, those were really the best tomatoes I’ve ever had. ",3,2,None,None,,,0,2,2,2,0,16,16,16,,,,,,,,,,,,,,,,,,,,,9,10.286997590999931,,,,,,,,,,,,,,,,,olivia,001,2019_Jan_24_1604,body_behavioural,60.06338428880592,
2,We had to celebrate.” ,3,2,None,None,,,0,2,2,2,0,17,17,17,,,,,,,,,,,,,,,,,,,,,9,2.5357078079999837,,,,,,,,,,,,,,,,,olivia,001,2019_Jan_24_1604,body_behavioural,60.06338428880592,
2,"They talked and laughed as the sun sank below the horizon, and the glow from the ocean was replaced by the glow from the chandeliers.",3,2,8.0,None,,,0,2,2,2,0,18,18,18,,,,,,,,,,,,,,,,,,,,,9,7.204037408999966,,,,,,,,,,,,,,,,,olivia,001,2019_Jan_24_1604,body_behavioural,60.06338428880592,
2,"The waiter eventually returned with their meals, and everything was even more delicious than they had expected, especially the oysters, which Senna said tasted like the ocean. ",4,2,None,None,,,0,2,2,2,0,19,19,19,,,,,,,,,,,,,,,,,,,,,9,3.9032617540000274,,,,,,,,,,,,,,,,,olivia,001,2019_Jan_24_1604,body_behavioural,60.06338428880592,
2,Then he paused and looked at Alvira meaningfully. ,4,2,None,None,,,0,2,2,2,0,20,20,20,,,,,,,,,,,,,,,,,,,,,9,1.3658102879999205,,,,,,,,,,,,,,,,,olivia,001,2019_Jan_24_1604,body_behavioural,60.06338428880592,
2, “It’s really been the best three years of my life with you.,4,2,None,None,,,0,2,2,2,0,21,21,21,,,,,,,,,,,,,,,,,,,,,9,1.2354840859999285,,,,,,,,,,,,,,,,,olivia,001,2019_Jan_24_1604,body_behavioural,60.06338428880592,
2,"I couldn’t imagine it any other way, and I don’t want to.",4,2,None,None,,,0,2,2,2,0,22,22,22,,,,,,,,,,,,,,,,,,,,,9,1.3004833319999989,,,,,,,,,,,,,,,,,olivia,001,2019_Jan_24_1604,body_behavioural,60.06338428880592,
2,"I really want to spend the rest of my years eating garden tomatoes, whatever it is, with you.” ",4,2,None,None,,,0,2,2,2,0,23,23,23,,,,,,,,,,,,,,,,,,,,,9,5.773689520000062,,,,,,,,,,,,,,,,,olivia,001,2019_Jan_24_1604,body_behavioural,60.06338428880592,
2," Alvira smiled, “I want the same with you too, Senna.” ",4,2,None,17.0,,,0,2,2,2,0,24,24,24,,,,,,,,,,,,,,,,,,,,,9,1.3513175090000686,,,,,,,,,,,,,,,,,olivia,001,2019_Jan_24_1604,body_behavioural,60.06338428880592,
2,"Senna nodded at the waiter who had been watching attentively, and he quickly strode over to place a small, elegant cake topped with the ring in front of Alvira. ",4,3,None,None,,,0,2,2,2,0,25,25,25,,,,,,,,,,,,,,,,,,,,,9,4.186855903000037,,,,,,,,,,,,,,,,,olivia,001,2019_Jan_24_1604,body_behavioural,60.06338428880592,
2,Her eyes widened in shock when she realized what she was looking at.,4,3,None,None,,,0,2,2,2,0,26,26,26,,,,,,,,,,,,,,,,,,,,,9,2.201627003999988,,,,,,,,,,,,,,,,,olivia,001,2019_Jan_24_1604,body_behavioural,60.06338428880592,
2,"“Alvira, will you marry me? ",4,3,None,None,,,0,2,2,2,0,27,27,27,,,,,,,,,,,,,,,,,,,,,9,0.9835987349999868,,,,,,,,,,,,,,,,,olivia,001,2019_Jan_24_1604,body_behavioural,60.06338428880592,
2,"I love you, and I will never stop loving you.” ",4,3,None,None,,,0,2,2,2,0,28,28,28,,,,,,,,,,,,,,,,,,,,,9,1.4358595370000558,,,,,,,,,,,,,,,,,olivia,001,2019_Jan_24_1604,body_behavioural,60.06338428880592,
2,Alvira started to cry.,4,3,None,None,,,0,2,2,2,0,29,29,29,,,,,,,,,,,,,,,,,,,,,9,0.8671917829999529,,,,,,,,,,,,,,,,,olivia,001,2019_Jan_24_1604,body_behavioural,60.06338428880592,
2,"The room became silent, and everyone turned to their table. ",4,3,None,5.0,,,0,2,2,2,0,30,30,30,,,,,,,,,,,,,,,,,,,,,9,1.9523921550000978,,,,,,,,,,,,,,,,,olivia,001,2019_Jan_24_1604,body_behavioural,60.06338428880592,
2,"“Yes, of course, yes!” she shouted as she wiped away tears.",4,4,None,None,,,0,2,2,2,0,31,31,31,,,,,,,,,,,,,,,,,,,,,9,0.8017701429999988,,,,,,,,,,,,,,,,,olivia,001,2019_Jan_24_1604,body_behavioural,60.06338428880592,
2,The neighboring tables exploded in applause.,4,4,None,None,,,0,2,2,2,0,32,32,32,,,,,,,,,,,,,,,,,,,,,9,0.9525406590000784,,,,,,,,,,,,,,,,,olivia,001,2019_Jan_24_1604,body_behavioural,60.06338428880592,
2,The waiter returned with a bottle of champagne and popped it. ,4,4,None,None,,,0,2,2,2,0,33,33,33,,,,,,,,,,,,,,,,,,,,,9,1.2350682269999425,,,,,,,,,,,,,,,,,olivia,001,2019_Jan_24_1604,body_behavioural,60.06338428880592,
2,"All of this went unnoticed by Senna and Alvira as they looked into each others’ eyes, and he slipped the ring onto her finger. ",4,4,None,None,,,0,2,2,2,0,34,34,34,,,,,,,,,,,,,,,,,,,,,9,6.2697828950000485,,,,,,,,,,,,,,,,,olivia,001,2019_Jan_24_1604,body_behavioural,60.06338428880592,
2,"She held up her hand to admire it, and her glittering tears of joy matched the shine from her ring.   
",4,4,17.0,5.0,,,0,2,2,2,0,35,35,35,,,,,,,,,,,,,,,,,,,,,9,0.8522013829999651,,,,,,,,,,,,,,,,,olivia,001,2019_Jan_24_1604,body_behavioural,60.06338428880592,
2,,,,,,,,0,2,2,2,,,,,,,,,,,,,,,,,,,,,,,,,,,,,,,,,,,,,,,,,,,olivia,001,2019_Jan_24_1604,body_behavioural,60.06338428880592,
3,"Jeff, hoping that today would be a pivotal day for his new business, had only been waiting inside the doors of the airport for a few minutes when he saw William and eagerly waved him over. ",1,1,,,,,0,3,3,3,0,0,0,0,,,,,,,,,,,,,,,,,,,space,1.2191286060000266,1,18.939817283000025,,,,,,,,,,,,,,,,,olivia,001,2019_Jan_24_1604,body_behavioural,60.06338428880592,
3,"Jeff, checking his watch, was pleased to see that the two of them had two hours to discuss business before their flights left Boston.",1,1,,,,,0,3,3,3,0,1,1,1,,,,,,,,,,,,,,,,,,,,,9,4.502363021000065,,,,,,,,,,,,,,,,,olivia,001,2019_Jan_24_1604,body_behavioural,60.06338428880592,
3,The two had met the night before in line for the bathroom at a local bar. ,1,1,,,,,0,3,3,3,0,2,2,2,,,,,,,,,,,,,,,,,,,,,1,4.570031875000041,,,,,,,,,,,,,,,,,olivia,001,2019_Jan_24_1604,body_behavioural,60.06338428880592,
3,"Jeff had delivered some surprisingly-detailed complaints to William about the wine selection, and they quickly learned that Jeff was a representative for wine vineyards in the Northeast and William was a wine buyer for corporate events.",1,1,,,,,0,3,3,3,0,3,3,3,,,,,,,,,,,,,,,,,,,,,9,13.371177922000015,,,,,,,,,,,,,,,,,olivia,001,2019_Jan_24_1604,body_behavioural,60.06338428880592,
3,"Since they both had flights out of Boston at the same time, they had agreed to meet at the airport and talk business then and there. ",1,1,,,,,0,3,3,3,0,4,4,4,,,,,,,,,,,,,,,,,,,,,9,5.452041669999971,,,,,,,,,,,,,,,,,olivia,001,2019_Jan_24_1604,body_behavioural,60.06338428880592,
3,"They headed to security together, pleased to find that the line was not so long, and they chatted a little as they were waiting. ",2,1,,,,,0,3,3,3,0,5,5,5,,,,,,,,,,,,,,,,,,,,,1,8.454640974999961,,,,,,,,,,,,,,,,,olivia,001,2019_Jan_24_1604,body_behavioural,60.06338428880592,
3,"“It’s crazy that we met last night,” William said, “I am flying out right now to meet my boss, and was worried that I was going to show up empty handed without any local retailer prepared.” ",2,1,,,,,0,3,3,3,0,6,6,6,,,,,,,,,,,,,,,,,,,,,9,3.5205952189999152,,,,,,,,,,,,,,,,,olivia,001,2019_Jan_24_1604,body_behavioural,60.06338428880592,
3," “I know, what are the chances right?” Jeff said.",2,1,,,,,0,3,3,3,0,7,7,7,,,,,,,,,,,,,,,,,,,,,9,1.9012605109999186,,,,,,,,,,,,,,,,,olivia,001,2019_Jan_24_1604,body_behavioural,60.06338428880592,
3,"“I know this is fast, but I'd like to get right down to specifics," said William. "I'd like to order a couple of sample shipments from you and present them to our corporate buyers.",2,2,,,,,0,3,3,3,0,8,8,8,,,,,,,,,,,,,,,,,,,,,9,5.386592713000027,,,,,,,,,,,,,,,,,olivia,001,2019_Jan_24_1604,body_behavioural,60.06338428880592,
3,"Typically we expect to get these kinds of samples at a deep discount, at least half-off the label price.",2,2,,,,,0,3,3,3,0,9,9,9,,,,,,,,,,,,,,,,,,,,,9,2.4591488000000936,,,,,,,,,,,,,,,,,olivia,001,2019_Jan_24_1604,body_behavioural,60.06338428880592,
3,"This is nothing, okay, compared to what you will be making if one of these buyers makes a contract.”",2,2,,,,,0,3,3,3,0,10,10,10,,,,,,,,,,,,,,,,,,,,,9,2.7845191789999717,,,,,,,,,,,,,,,,,olivia,001,2019_Jan_24_1604,body_behavioural,60.06338428880592,
3,"When it was their turn to go through the metal detector, they took off their shoes and pulled out their laptops.",2,2,,,,,0,3,3,3,0,11,11,11,,,,,,,,,,,,,,,,,,,,,1,10.642984053999953,,,,,,,,,,,,,,,,,olivia,001,2019_Jan_24_1604,body_behavioural,60.06338428880592,
3,"Jeff mulled over the offer, nodding noncommittally to William's pitch as they proceeded through the metal detector and retrieved their belongings.",2,2,,,,,0,3,3,3,0,12,12,12,,,,,,,,,,,,,,,,,,,,,9,4.503363173000025,,,,,,,,,,,,,,,,,olivia,001,2019_Jan_24_1604,body_behavioural,60.06338428880592,
3,"They began to walk through the concourse, and William handed some printed spreadsheets to Jeff as they navigated toward their gates at the end of the terminal.",3,2,,,,,0,3,3,3,0,13,13,13,,,,,,,,,,,,,,,,,,,,,1,5.937120217000029,,,,,,,,,,,,,,,,,olivia,001,2019_Jan_24_1604,body_behavioural,60.06338428880592,
3,"Jeff, weaving through the crowds of travelers, squinted  at William's rosy projections of the number of bottles he could be able to purchase in the future.",3,2,,,,,0,3,3,3,0,14,14,14,,,,,,,,,,,,,,,,,,,,,9,11.587779655000077,,,,,,,,,,,,,,,,,olivia,001,2019_Jan_24_1604,body_behavioural,60.06338428880592,
3,"Finally Jeff said, “I don’t know, we’re not coming from corporate vineyards, so gambling with sample shipments is the kind of risk we can’t necessarily make. ",3,3,,,,,0,3,3,3,0,15,15,15,,,,,,,,,,,,,,,,,,,,,9,3.319715169999995,,,,,,,,,,,,,,,,,olivia,001,2019_Jan_24_1604,body_behavioural,60.06338428880592,
3,"These corporate purchases would have to be huge and practically guaranteed, to offset the loss from selling sample shipments at this price.”",3,3,,,,,0,3,3,3,0,16,16,16,,,,,,,,,,,,,,,,,,,,,9,1.9025481259999424,,,,,,,,,,,,,,,,,olivia,001,2019_Jan_24_1604,body_behavioural,60.06338428880592,
3,"They walked to the gates very slowly, barely registering the hubbub of the airport since they were so caught up in figuring out a deal before their flights left.",3,3,,,,,0,3,3,3,0,17,17,17,,,,,,,,,,,,,,,,,,,,,9,5.2368108680000205,,,,,,,,,,,,,,,,,olivia,001,2019_Jan_24_1604,body_behavioural,60.06338428880592,
3," At the end of their long walk, they got to Jeff’s gate first, which had begun boarding passengers.",3,3,,,,,0,3,3,3,0,18,18,18,,,,,,,,,,,,,,,,,,,,,1,6.470416505999992,,,,,,,,,,,,,,,,,olivia,001,2019_Jan_24_1604,body_behavioural,60.06338428880592,
3," In these last minutes, William and Jeff agreed on a compromise rate on the sample shipment and finalized the deal with a handshake. ",3,4,,,,,0,3,3,3,0,19,19,19,,,,,,,,,,,,,,,,,,,,,9,2.0182478199999423,,,,,,,,,,,,,,,,,olivia,001,2019_Jan_24_1604,body_behavioural,60.06338428880592,
3,"“Well, what a tremendous pleasure to do business with you and to have all this work out,” William said.",3,4,,,,,0,3,3,3,0,20,20,20,,,,,,,,,,,,,,,,,,,,,9,1.5675384369999392,,,,,,,,,,,,,,,,,olivia,001,2019_Jan_24_1604,body_behavioural,60.06338428880592,
3,Jeff nodded enthusiastically.,3,4,,,,,0,3,3,3,0,21,21,21,,,,,,,,,,,,,,,,,,,,,9,0.78366650199996,,,,,,,,,,,,,,,,,olivia,001,2019_Jan_24_1604,body_behavioural,60.06338428880592,
3,"“Likewise, this has been great.  ",3,4,,,,,0,3,3,3,0,22,22,22,,,,,,,,,,,,,,,,,,,,,9,0.6689323350000222,,,,,,,,,,,,,,,,,olivia,001,2019_Jan_24_1604,body_behavioural,60.06338428880592,
3, I'll let you get to your gate.,3,4,,,,,0,3,3,3,0,23,23,23,,,,,,,,,,,,,,,,,,,,,9,0.40195970399997805,,,,,,,,,,,,,,,,,olivia,001,2019_Jan_24_1604,body_behavioural,60.06338428880592,
3,"Once we’re both back on the ground, we can get all the shipments in the books.”",3,4,,,,,0,3,3,3,0,24,24,24,,,,,,,,,,,,,,,,,,,,,9,3.4392105210000636,,,,,,,,,,,,,,,,,olivia,001,2019_Jan_24_1604,body_behavioural,60.06338428880592,
3,They parted with a wave as Jeff scanned his boarding pass at the gate. ,3,4,,,,,0,3,3,3,0,25,25,25,,,,,,,,,,,,,,,,,,,,,9,3.6514110949999576,,,,,,,,,,,,,,,,,olivia,001,2019_Jan_24_1604,body_behavioural,60.06338428880592,
3,He walked onto the plane and sat down in his aisle seat in the business class section.,4,4,,,,,0,3,3,3,0,26,26,26,,,,,,,,,,,,,,,,,,,,,9,1.3521679990000166,,,,,,,,,,,,,,,,,olivia,001,2019_Jan_24_1604,body_behavioural,60.06338428880592,
3,"He typed out a quick email on his phone letting the rest of his team know the good news, the big break they had been looking for. ",4,4,,,,,0,3,3,3,0,27,27,27,,,,,,,,,,,,,,,,,,,,,9,1.2350896149999926,,,,,,,,,,,,,,,,,olivia,001,2019_Jan_24_1604,body_behavioural,60.06338428880592,
3,"When the flight attendant came by, he ordered a glass of champagne to celebrate.",4,4,,,,,0,3,3,3,0,28,28,28,,,,,,,,,,,,,,,,,,,,,9,1.4182275770000388,,,,,,,,,,,,,,,,,olivia,001,2019_Jan_24_1604,body_behavioural,60.06338428880592,
3,,,,,,,,0,3,3,3,,,,,,,,,,,,,,,,,,,,,,,,,,,,,,,,,,,,,,,,,,,olivia,001,2019_Jan_24_1604,body_behavioural,60.06338428880592,
4,"Lana walked into lecture holding hands with her boyfriend, Aaron, who was consciously trying not to hyperventilate and give away his plan to propose to Lana during class. ",1,1,,,,,0,4,4,4,0,0,0,0,,,,,,,,,,,,,,,,,,,space,1.00081874600005,1,14.68858912799999,,,,,,,,,,,,,,,,,olivia,001,2019_Jan_24_1604,body_behavioural,60.06338428880592,
4,"Lana was lost in thought, still puzzling over a calculus problem on her problem set due that night.",1,1,,,,,0,4,4,4,0,1,1,1,,,,,,,,,,,,,,,,,,,,,1,11.077796179999837,,,,,,,,,,,,,,,,,olivia,001,2019_Jan_24_1604,body_behavioural,60.06338428880592,
4," The lecture hall was the fanciest one at Princeton, with chandeliers, high ceilings, wood floors and double-decker chalkboards.",1,1,,,,,0,4,4,4,0,2,2,2,,,,,,,,,,,,,,,,,,,,,9,10.869828130000087,,,,,,,,,,,,,,,,,olivia,001,2019_Jan_24_1604,body_behavioural,60.06338428880592,
4," This is where Aaron and Lana had met two years ago during an economics class, and now they were back together in the same lecture hall for their Chemistry class. ",1,1,,,,,0,4,4,4,0,3,3,3,,,,,,,,,,,,,,,,,,,,,9,1.935712113000136,,,,,,,,,,,,,,,,,olivia,001,2019_Jan_24_1604,body_behavioural,60.06338428880592,
4,The professor caught Aaron's eye as he walked up to the front of the classroom and gave him a wink before the lecture began. ,1,1,,,,,0,4,4,4,0,4,4,4,,,,,,,,,,,,,,,,,,,,,9,3.134915111999817,,,,,,,,,,,,,,,,,olivia,001,2019_Jan_24_1604,body_behavioural,60.06338428880592,
4,"“Alright, good afternoon, everyone!",2,1,,,,,0,4,4,4,0,5,5,5,,,,,,,,,,,,,,,,,,,,,9,0.9675378030001411,,,,,,,,,,,,,,,,,olivia,001,2019_Jan_24_1604,body_behavioural,60.06338428880592,
4,"Last week we talked about the structure of the periodic table, and this week the topic is ions.",2,1,,,,,0,4,4,4,0,6,6,6,,,,,,,,,,,,,,,,,,,,,9,1.5553499190000366,,,,,,,,,,,,,,,,,olivia,001,2019_Jan_24_1604,body_behavioural,60.06338428880592,
4,These are atoms or molecules in which the number of electrons does not equal the number of protons.,2,1,,,,,0,4,4,4,0,7,7,7,,,,,,,,,,,,,,,,,,,,,9,1.7536038949999693,,,,,,,,,,,,,,,,,olivia,001,2019_Jan_24_1604,body_behavioural,60.06338428880592,
4,"Now, let me get my computer set up, one moment, class.”",2,1,,,,,0,4,4,4,0,8,8,8,,,,,,,,,,,,,,,,,,,,,9,1.7162208909999208,,,,,,,,,,,,,,,,,olivia,001,2019_Jan_24_1604,body_behavioural,60.06338428880592,
4, Lana pulled out her Calculus problem set and puzzled over it.,2,1,,,,,0,4,4,4,0,9,9,9,,,,,,,,,,,,,,,,,,,,,9,1.6515426599999046,,,,,,,,,,,,,,,,,olivia,001,2019_Jan_24_1604,body_behavioural,60.06338428880592,
4,"While she was distracted, Aaron unzipped the small pocket in his backpack and pulled out the ring box.",2,2,,,,,0,4,4,4,0,10,10,10,,,,,,,,,,,,,,,,,,,,,1,4.103294685000037,,,,,,,,,,,,,,,,,olivia,001,2019_Jan_24_1604,body_behavioural,60.06338428880592,
4,He opened it up and looked at the ring.,2,2,,,,,0,4,4,4,0,11,11,11,,,,,,,,,,,,,,,,,,,,,9,2.1356396840001253,,,,,,,,,,,,,,,,,olivia,001,2019_Jan_24_1604,body_behavioural,60.06338428880592,
4," Instead of one large diamond, there were 5 diamonds embedded in a thick band. ",2,2,,,,,0,4,4,4,0,12,12,12,,,,,,,,,,,,,,,,,,,,,9,6.62537392299987,,,,,,,,,,,,,,,,,olivia,001,2019_Jan_24_1604,body_behavioural,60.06338428880592,
4,He knew Lana would like this because her style was not flashy but more about simple elegance.,2,2,,,,,0,4,4,4,0,13,13,13,,,,,,,,,,,,,,,,,,,,,9,16.227527077000104,,,,,,,,,,,,,,,,,olivia,001,2019_Jan_24_1604,body_behavioural,60.06338428880592,
4,Aaron put the ring back into the bag as the professor began the lecture. ,3,2,,,,,0,4,4,4,0,14,14,14,,,,,,,,,,,,,,,,,,,,,9,5.0198763509999935,,,,,,,,,,,,,,,,,olivia,001,2019_Jan_24_1604,body_behavioural,60.06338428880592,
4,“Recall from previous lectures that the number of protons determines the identity of the element. ,3,2,,,,,0,4,4,4,0,15,15,15,,,,,,,,,,,,,,,,,,,,,9,6.023264228000016,,,,,,,,,,,,,,,,,olivia,001,2019_Jan_24_1604,body_behavioural,60.06338428880592,
4,"So for example, all atoms of sodium have 11 protons in the nucleus. ",3,2,,,,,0,4,4,4,0,16,16,16,,,,,,,,,,,,,,,,,,,,,9,1.2673518529998091,,,,,,,,,,,,,,,,,olivia,001,2019_Jan_24_1604,body_behavioural,60.06338428880592,
4,"And if you look on the periodic table, the atomic number for sodium, the symbol is Na, is eleven.”",3,2,,,,,0,4,4,4,0,17,17,17,,,,,,,,,,,,,,,,,,,,,9,2.3017863540001144,,,,,,,,,,,,,,,,,olivia,001,2019_Jan_24_1604,body_behavioural,60.06338428880592,
4,Lana was taking notes while Aaron was texting all of his friends in the class to get ready for the proposal. ,3,2,,,,,0,4,4,4,0,18,18,18,,,,,,,,,,,,,,,,,,,,,1,4.536853774000065,,,,,,,,,,,,,,,,,olivia,001,2019_Jan_24_1604,body_behavioural,60.06338428880592,
4,"Right after talking about how two ions bond into one stable molecule by covalent bonds, the professor stopped the lecture and asked Lana to come to the front of the class to do a demonstration. ",3,2,,,,,0,4,4,4,0,19,19,19,,,,,,,,,,,,,,,,,,,,,9,10.486622738000051,,,,,,,,,,,,,,,,,olivia,001,2019_Jan_24_1604,body_behavioural,60.06338428880592,
4,"She walked to the front of the class confused, and the professor asked her to stand in the middle of the stage.",3,2,,,,,0,4,4,4,0,20,20,20,,,,,,,,,,,,,,,,,,,,,9,5.754039024000122,,,,,,,,,,,,,,,,,olivia,001,2019_Jan_24_1604,body_behavioural,60.06338428880592,
4,"Then Aaron walked up and, taking Lana’s hand, got down on one knee. ",3,3,,,,,0,4,4,4,0,21,21,21,,,,,,,,,,,,,,,,,,,,,9,16.722665519999964,,,,,,,,,,,,,,,,,olivia,001,2019_Jan_24_1604,body_behavioural,60.06338428880592,
4,""Lana, it's time for us to make a bond of our own.",3,3,,,,,0,4,4,4,0,22,22,22,,,,,,,,,,,,,,,,,,,,,9,3.918567555999971,,,,,,,,,,,,,,,,,olivia,001,2019_Jan_24_1604,body_behavioural,60.06338428880592,
4,Will you marry me?” ,3,3,,,,,0,4,4,4,0,23,23,23,,,,,,,,,,,,,,,,,,,,,9,1.8517018219999954,,,,,,,,,,,,,,,,,olivia,001,2019_Jan_24_1604,body_behavioural,60.06338428880592,
4,Lana gasped and put her other hand to her mouth and started looking around the room as if trying to convince herself that this was really happening.,3,3,,,,,0,4,4,4,0,24,24,24,,,,,,,,,,,,,,,,,,,,,9,6.136846557000126,,,,,,,,,,,,,,,,,olivia,001,2019_Jan_24_1604,body_behavioural,60.06338428880592,
4,For a few moments everyone was in suspense waiting for the Lana’s shock to wear off and for her to answer. ,3,3,,,,,0,4,4,4,0,25,25,25,,,,,,,,,,,,,,,,,,,,,1,2.903637185999969,,,,,,,,,,,,,,,,,olivia,001,2019_Jan_24_1604,body_behavioural,60.06338428880592,
4,"Finally, she said, “Yes!”",3,4,,,,,0,4,4,4,0,26,26,26,,,,,,,,,,,,,,,,,,,,,9,1.3349542109999675,,,,,,,,,,,,,,,,,olivia,001,2019_Jan_24_1604,body_behavioural,60.06338428880592,
4,"Aaron put the ring on her finger, and they hugged while the whole class clapped. ",3,4,,,,,0,4,4,4,0,27,27,27,,,,,,,,,,,,,,,,,,,,,9,1.819180827999844,,,,,,,,,,,,,,,,,olivia,001,2019_Jan_24_1604,body_behavioural,60.06338428880592,
4,"Their friends came up and hugged both of them, and the professor gave Aaron a celebratory handshake.",3,4,,,,,0,4,4,4,0,28,28,28,,,,,,,,,,,,,,,,,,,,,9,2.485912924999866,,,,,,,,,,,,,,,,,olivia,001,2019_Jan_24_1604,body_behavioural,60.06338428880592,
4,"They made their way back to their seats, Lana and Aaron hand-in-hand and beaming. ",3,4,,,,,0,4,4,4,0,29,29,29,,,,,,,,,,,,,,,,,,,,,9,1.92164759100001,,,,,,,,,,,,,,,,,olivia,001,2019_Jan_24_1604,body_behavioural,60.06338428880592,
4," The professor then dismissed the class, saying, “That was enough excitement for today!",4,4,,,,,0,4,4,4,0,30,30,30,,,,,,,,,,,,,,,,,,,,,9,2.4409250290000273,,,,,,,,,,,,,,,,,olivia,001,2019_Jan_24_1604,body_behavioural,60.06338428880592,
4,Don’t forget there’s an exam next week on the first two chapters of the textbook.”,4,4,,,,,0,4,4,4,0,31,31,31,,,,,,,,,,,,,,,,,,,,,9,1.201105206999955,,,,,,,,,,,,,,,,,olivia,001,2019_Jan_24_1604,body_behavioural,60.06338428880592,
4,"As everyone was packing up their stuff and leaving, Lana was already on her phone calling her family members to tell them the exciting news.",4,4,,,,,0,4,4,4,0,32,32,32,,,,,,,,,,,,,,,,,,,,,9,14.306475839999848,,,,,,,,,,,,,,,,,olivia,001,2019_Jan_24_1604,body_behavioural,60.06338428880592,
4,,,,,,,,0,4,4,4,,,,,,,,,,,,,,,,,,,,,,,,,,,,,,,,,,,,,,,,,,,olivia,001,2019_Jan_24_1604,body_behavioural,60.06338428880592,
5,"Leon and  Ariana hurried into the classroom at the same time, and Leon did a double-take when he saw her. ",1,1,,,,,0,5,5,5,0,0,0,0,,,,,,,,,,,,,,,,,,,space,0.8516798819998712,1,8.537426390000064,,,,,,,,,,,,,,,,,olivia,001,2019_Jan_24_1604,body_behavioural,60.06338428880592,
5,"This was his first day after transferring to a new college, so he didn't think that he knew anyone on campus, but he couldn't shake the nagging feeling  that he had seen her somewhere before. ",1,1,,,,,0,5,5,5,0,1,1,1,,,,,,,,,,,,,,,,,,,,,9,11.33839504399998,,,,,,,,,,,,,,,,,olivia,001,2019_Jan_24_1604,body_behavioural,60.06338428880592,
5,"They were both a bit late, so they quickly slid into seats next to each other in the back of the small classroom.",1,1,,,,,0,5,5,5,0,2,2,2,,,,,,,,,,,,,,,,,,,,,9,3.086101491000136,,,,,,,,,,,,,,,,,olivia,001,2019_Jan_24_1604,body_behavioural,60.06338428880592,
5,"This room was usually used for small meetings, but had been rearranged with the table pushed to the side and chairs set up in rows to face the projector screen. ",1,1,,,,,0,5,5,5,0,3,3,3,,,,,,,,,,,,,,,,,,,,,9,4.386811708000096,,,,,,,,,,,,,,,,,olivia,001,2019_Jan_24_1604,body_behavioural,60.06338428880592,
5,"There were no windows in the room, since they were down in the sub-basement of the history department.",1,1,,,,,0,5,5,5,0,4,4,4,,,,,,,,,,,,,,,,,,,,,9,1.9688712390000092,,,,,,,,,,,,,,,,,olivia,001,2019_Jan_24_1604,body_behavioural,60.06338428880592,
5,"Leon could not stop looking over Ariana, trying to figure out where he had seen her before.",1,1,,,,,0,5,5,5,0,5,5,5,,,,,,,,,,,,,,,,,,,,,1,4.025767028000018,,,,,,,,,,,,,,,,,olivia,001,2019_Jan_24_1604,body_behavioural,60.06338428880592,
5,Ariana was oblivious to Leon’s gaze and was only focused on getting ready for class. ,1,1,,,,,0,5,5,5,0,6,6,6,,,,,,,,,,,,,,,,,,,,,9,5.025304487000085,,,,,,,,,,,,,,,,,olivia,001,2019_Jan_24_1604,body_behavioural,60.06338428880592,
5,"“Good afternoon class," the professor began.",2,1,,,,,0,5,5,5,0,7,7,7,,,,,,,,,,,,,,,,,,,,,9,1.4693712719999894,,,,,,,,,,,,,,,,,olivia,001,2019_Jan_24_1604,body_behavioural,60.06338428880592,
5,"Welcome to Egyptian Cultural Studies. ,2,1,,,,,0,5,5,5,0,8,8,8,,,,,,,,,,,,,,,,,,,,,9,2.751947647999941,,,,,,,,,,,,,,,,,olivia,001,2019_Jan_24_1604,body_behavioural,60.06338428880592,
5,"Today we will be talking about mummification, one of the most famous and often misunderstood customs in ancient Egyptian society.”",2,1,,,,,0,5,5,5,0,9,9,9,,,,,,,,,,,,,,,,,,,,,9,8.15449472499995,,,,,,,,,,,,,,,,,olivia,001,2019_Jan_24_1604,body_behavioural,60.06338428880592,
5," Leon pulled out his notebook, trying to concentrate on the class.",2,1,,,,,0,5,5,5,0,10,10,10,,,,,,,,,,,,,,,,,,,,,1,10.188162669000121,,,,,,,,,,,,,,,,,olivia,001,2019_Jan_24_1604,body_behavioural,60.06338428880592,
5,"Within a few minutes, though he found his attention wandering back to Ariana.",2,1,,,,,0,5,5,5,0,11,11,11,,,,,,,,,,,,,,,,,,,,,9,3.6579302269999516,,,,,,,,,,,,,,,,,olivia,001,2019_Jan_24_1604,body_behavioural,60.06338428880592,
5," He ripped off a corner of a page in his notebook, wrote a note and set it on her desk.",2,1,,,,,0,5,5,5,0,12,12,12,,,,,,,,,,,,,,,,,,,,,9,2.1181549969999196,,,,,,,,,,,,,,,,,olivia,001,2019_Jan_24_1604,body_behavioural,60.06338428880592,
5,"“Hi, sorry, you look really familiar," it read.",2,2,,,,,0,5,5,5,0,13,13,13,,,,,,,,,,,,,,,,,,,,,9,1.1855220970001028,,,,,,,,,,,,,,,,,olivia,001,2019_Jan_24_1604,body_behavioural,60.06338428880592,
5,"Do I know you from somewhere?”,2,2,,,,,0,5,5,5,0,14,14,14,,,,,,,,,,,,,,,,,,,,,9,1.0021428879999803,,,,,,,,,,,,,,,,,olivia,001,2019_Jan_24_1604,body_behavioural,60.06338428880592,
5,"She looked at the note with surprise, and then turned to notice Leon for the first time. ",2,2,,,,,0,5,5,5,0,15,15,15,,,,,,,,,,,,,,,,,,,,,9,2.0045363890001227,,,,,,,,,,,,,,,,,olivia,001,2019_Jan_24_1604,body_behavioural,60.06338428880592,
5,"She instantly liked him when she saw him; he had very soft eyes and sharp features, a combination that made him seem  trustworthy and genuine.",2,2,,,,,0,5,5,5,0,16,16,16,,,,,,,,,,,,,,,,,,,,,9,7.318007482999974,,,,,,,,,,,,,,,,,olivia,001,2019_Jan_24_1604,body_behavioural,60.06338428880592,
5,He smiled at her and and she flashed him a smile back.,2,2,,,,,0,5,5,5,0,17,17,17,,,,,,,,,,,,,,,,,,,,,9,1.4018478689999938,,,,,,,,,,,,,,,,,olivia,001,2019_Jan_24_1604,body_behavioural,60.06338428880592,
5,Then she turned the note over to the back and started to write a reply.,2,2,,,,,0,5,5,5,0,18,18,18,,,,,,,,,,,,,,,,,,,,,9,1.7851970419999361,,,,,,,,,,,,,,,,,olivia,001,2019_Jan_24_1604,body_behavioural,60.06338428880592,
5,"Meanwhile the professor continued, “One may well question why the ancient Egyptians spent so much time and effort on their funerary practices.",3,2,,,,,0,5,5,5,0,19,19,19,,,,,,,,,,,,,,,,,,,,,9,5.2034922600000755,,,,,,,,,,,,,,,,,olivia,001,2019_Jan_24_1604,body_behavioural,60.06338428880592,
5,"Not only was the mummification process itself a complicated affair, but there were also elaborate rituals before, during, and after death.",3,2,,,,,0,5,5,5,0,20,20,20,,,,,,,,,,,,,,,,,,,,,9,2.7688315390000753,,,,,,,,,,,,,,,,,olivia,001,2019_Jan_24_1604,body_behavioural,60.06338428880592,
5,"The practice required teams of experts with years of training, and took a total of 70 days to complete.” ",3,2,,,,,0,5,5,5,0,21,21,21,,,,,,,,,,,,,,,,,,,,,9,1.9355511569999635,,,,,,,,,,,,,,,,,olivia,001,2019_Jan_24_1604,body_behavioural,60.06338428880592,
5,"Ariana passed the note back to Leon, on which she had replied, “No, but maybe my twin and I were separated at birth.”",3,2,,,,,0,5,5,5,0,22,22,22,,,,,,,,,,,,,,,,,,,,,1,5.351250069000116,,,,,,,,,,,,,,,,,olivia,001,2019_Jan_24_1604,body_behavioural,60.06338428880592,
5,They passed notes back and forth the whole class like they were back in high school.,3,2,,,,,0,5,5,5,0,23,23,23,,,,,,,,,,,,,,,,,,,,,9,3.7362351269998726,,,,,,,,,,,,,,,,,olivia,001,2019_Jan_24_1604,body_behavioural,60.06338428880592,
5,"Near the end of the lecture, Leon wrote, “Would you like to go to dinner tonight?” ",3,3,,,,,0,5,5,5,0,24,24,24,,,,,,,,,,,,,,,,,,,,,9,2.9515596720000303,,,,,,,,,,,,,,,,,olivia,001,2019_Jan_24_1604,body_behavioural,60.06338428880592,
5,"Ariana read the note, and looked at him and nodded her head",3,3,,,,,0,5,5,5,0,25,25,25,,,,,,,,,,,,,,,,,,,,,9,1.71993559800012,,,,,,,,,,,,,,,,,olivia,001,2019_Jan_24_1604,body_behavioural,60.06338428880592,
5,"She wrote back on the slip of paper, “Pick me up at 6 in front of Patton Hall.”",3,3,,,,,0,5,5,5,0,26,26,26,,,,,,,,,,,,,,,,,,,,,9,3.4421884620001038,,,,,,,,,,,,,,,,,olivia,001,2019_Jan_24_1604,body_behavioural,60.06338428880592,
5, Then the professor ended the lecture and announced to the class that they would have their first quiz next class on Friday on mummification. ,4,3,,,,,0,5,5,5,0,27,27,27,,,,,,,,,,,,,,,,,,,,,9,7.955455743999892,,,,,,,,,,,,,,,,,olivia,001,2019_Jan_24_1604,body_behavioural,60.06338428880592,
5,"Everyone packed up and started heading out leave, as well as Sophie and Leon.",4,3,,,,,0,5,5,5,0,28,28,28,,,,,,,,,,,,,,,,,,,,,1,1.6503286039999239,,,,,,,,,,,,,,,,,olivia,001,2019_Jan_24_1604,body_behavioural,60.06338428880592,
5,"They approached each other smiling, and Leon said, “Well it was great to meet you, again, or maybe not again, but regardless it was great to meet you.” ",4,3,,,,,0,5,5,5,0,29,29,29,,,,,,,,,,,,,,,,,,,,,9,2.1860958319998645,,,,,,,,,,,,,,,,,olivia,001,2019_Jan_24_1604,body_behavioural,60.06338428880592,
5,"She replied, “Yes, I have to run to my next class, but I’ll see you later tonight.” ",4,4,,,,,0,5,5,5,0,30,30,30,,,,,,,,,,,,,,,,,,,,,9,0.60804817799999,,,,,,,,,,,,,,,,,olivia,001,2019_Jan_24_1604,body_behavioural,60.06338428880592,
5,"She waved as they parted ways outside of the door of the classroom, and Leon was still trying to figure out where he had seen her before as he watched her go. ",4,4,,,,,0,5,5,5,0,31,31,31,,,,,,,,,,,,,,,,,,,,,9,3.203327647999913,,,,,,,,,,,,,,,,,olivia,001,2019_Jan_24_1604,body_behavioural,60.06338428880592,
5,,,,,,,,0,5,5,5,,,,,,,,,,,,,,,,,,,,,,,,,,,,,,,,,,,,,,,,,,,olivia,001,2019_Jan_24_1604,body_behavioural,60.06338428880592,
6,"Ms. Bianchi and Ms. Morrison walked into the grocery store at the same time, and, after a moment of mutual recognition, greeted each other and shook hands.",1,1,,,,,0,6,6,6,0,0,0,0,,,,,,,,,,,,,,,,,,,space,0.7512940589999744,1,25.309832503000052,,,,,,,,,,,,,,,,,olivia,001,2019_Jan_24_1604,body_behavioural,60.06338428880592,
6,""Thank you again for inviting me here to discuss my business proposal," said Ms. Bianchi.",1,1,,,,,0,6,6,6,0,1,1,1,,,,,,,,,,,,,,,,,,,,,9,4.851748475000022,,,,,,,,,,,,,,,,,olivia,001,2019_Jan_24_1604,body_behavioural,60.06338428880592,
6,"It’s a pleasure to be out of the office." ,1,1,,,,,0,6,6,6,0,2,2,2,,,,,,,,,,,,,,,,,,,,,9,3.2354327650000414,,,,,,,,,,,,,,,,,olivia,001,2019_Jan_24_1604,body_behavioural,60.06338428880592,
6,"As a salesperson for an Italian cheese company that was trying to expand its outreach to more mainstream grocery stores, this meeting could be a big break for her.",1,1,,,,,0,6,6,6,0,3,3,3,,,,,,,,,,,,,,,,,,,,,9,7.701930320999963,,,,,,,,,,,,,,,,,olivia,001,2019_Jan_24_1604,body_behavioural,60.06338428880592,
6,"Her sales target, Ms. Morrison,  who had a reputation for being a bit quirky, was a corporate buyer for a large chain grocery store. ",1,1,,,,,0,6,6,6,0,4,4,4,,,,,,,,,,,,,,,,,,,,,9,4.219407874999888,,,,,,,,,,,,,,,,,olivia,001,2019_Jan_24_1604,body_behavioural,60.06338428880592,
6,"For example, she said that she liked to make deals with suppliers in the place where the products were sold- “to keep their minds focused on what’s important.” ",1,1,,,,,0,6,6,6,0,5,5,5,,,,,,,,,,,,,,,,,,,,,1,6.42028719100017,,,,,,,,,,,,,,,,,olivia,001,2019_Jan_24_1604,body_behavioural,60.06338428880592,
6,"They chatted a little in the front of the grocery store, which was surrounded by pumpkins and halloween decorations set up in special displays for the holiday season.",1,1,,,,,0,6,6,6,0,6,6,6,,,,,,,,,,,,,,,,,,,,,9,5.803789549000157,,,,,,,,,,,,,,,,,olivia,001,2019_Jan_24_1604,body_behavioural,60.06338428880592,
6," Ms. Bianchi and Ms. Morrison walked to the cheese section, and Ms. Morrison picked up a block of parmesan.",2,1,,,,,0,6,6,6,0,7,7,7,,,,,,,,,,,,,,,,,,,,,9,11.321468305999815,,,,,,,,,,,,,,,,,olivia,001,2019_Jan_24_1604,body_behavioural,60.06338428880592,
6,“We have quite a selection here.,2,1,,,,,0,6,6,6,0,8,8,8,,,,,,,,,,,,,,,,,,,,,9,1.085264830000142,,,,,,,,,,,,,,,,,olivia,001,2019_Jan_24_1604,body_behavioural,60.06338428880592,
6,I don’t know that it needs an additional section for more gourmet cheeses.” ,2,1,,,,,0,6,6,6,0,9,9,9,,,,,,,,,,,,,,,,,,,,,9,2.0860565909999877,,,,,,,,,,,,,,,,,olivia,001,2019_Jan_24_1604,body_behavioural,60.06338428880592,
6," Ms. Bianchi's confidence faltered for a minute at this remark, but then she launched into her prepared pitch.",2,1,,,,,0,6,6,6,0,10,10,10,,,,,,,,,,,,,,,,,,,,,9,5.404507052000099,,,,,,,,,,,,,,,,,olivia,001,2019_Jan_24_1604,body_behavioural,60.06338428880592,
6," “Ms. Morrison, I think you would agree that selling food is more than just providing variety, but also about providing the highest quality.",2,2,,,,,0,6,6,6,0,11,11,11,,,,,,,,,,,,,,,,,,,,,1,4.452315150999993,,,,,,,,,,,,,,,,,olivia,001,2019_Jan_24_1604,body_behavioural,60.06338428880592,
6,You don’t have cheeses made in America that are like ours.,2,2,,,,,0,6,6,6,0,12,12,12,,,,,,,,,,,,,,,,,,,,,9,2.866570865000085,,,,,,,,,,,,,,,,,olivia,001,2019_Jan_24_1604,body_behavioural,60.06338428880592,
6,Your store could be providing American consumers with a dimension in taste that they've never known before with our product.,2,2,,,,,0,6,6,6,0,13,13,13,,,,,,,,,,,,,,,,,,,,,9,8.521607983999957,,,,,,,,,,,,,,,,,olivia,001,2019_Jan_24_1604,body_behavioural,60.06338428880592,
6,"I propose that you give it a shot, buy shipments for a few stores, and see how the sales increase not only in our cheeses but also in products related to cheeses: crackers, jams, olives. ",2,2,,,,,0,6,6,6,0,14,14,14,,,,,,,,,,,,,,,,,,,,,9,4.8858654019998085,,,,,,,,,,,,,,,,,olivia,001,2019_Jan_24_1604,body_behavioural,60.06338428880592,
6,"The availability of a finer product leads to the appreciation of the product, and your consumers will start to consume in a new, more profitable way.”",2,2,,,,,0,6,6,6,0,15,15,15,,,,,,,,,,,,,,,,,,,,,9,1.3008223630001794,,,,,,,,,,,,,,,,,olivia,001,2019_Jan_24_1604,body_behavioural,60.06338428880592,
6," Ms. Bianchi picked up a box of crackers by the cheese section, and said, “Here, I will buy these, and we can try some of our cheeses that I've brought with me.”",3,2,,,,,0,6,6,6,0,16,16,16,,,,,,,,,,,,,,,,,,,,,9,10.653373080999927,,,,,,,,,,,,,,,,,olivia,001,2019_Jan_24_1604,body_behavioural,60.06338428880592,
6," Ms. Morrison, nodding in agreement, said, “That sounds like a great idea.",3,2,,,,,0,6,6,6,0,17,17,17,,,,,,,,,,,,,,,,,,,,,1,1.8853043829999478,,,,,,,,,,,,,,,,,olivia,001,2019_Jan_24_1604,body_behavioural,60.06338428880592,
6,"Let’s head to check out, and those crackers are on me.” ",3,2,,,,,0,6,6,6,0,18,18,18,,,,,,,,,,,,,,,,,,,,,9,5.819779443000016,,,,,,,,,,,,,,,,,olivia,001,2019_Jan_24_1604,body_behavioural,60.06338428880592,
6,They walked over to the checkout area.,3,2,,,,,0,6,6,6,0,19,19,19,,,,,,,,,,,,,,,,,,,,,1,12.204475364000018,,,,,,,,,,,,,,,,,olivia,001,2019_Jan_24_1604,body_behavioural,60.06338428880592,
6,"There was a very long line, and it was very busy in the checkout area as people were stocking up for Halloween parties and trick-or-treating. ",3,2,,,,,0,6,6,6,0,20,20,20,,,,,,,,,,,,,,,,,,,,,9,1.567891142999997,,,,,,,,,,,,,,,,,olivia,001,2019_Jan_24_1604,body_behavioural,60.06338428880592,
6,"Since they had almost a 10 minute wait in line, Ms. Bianchi handed a sheet with printed graphs to Ms. Morrison the increase in profits that several other stores had seen after starting to carry their products.",3,2,,,,,0,6,6,6,0,21,21,21,,,,,,,,,,,,,,,,,,,,,9,4.601941484000008,,,,,,,,,,,,,,,,,olivia,001,2019_Jan_24_1604,body_behavioural,60.06338428880592,
6,"Eventually, Ms. Morrison replied, “You know what, I think you've convinced me that this could work. ",3,3,,,,,0,6,6,6,0,22,22,22,,,,,,,,,,,,,,,,,,,,,9,4.851716952000061,,,,,,,,,,,,,,,,,olivia,001,2019_Jan_24_1604,body_behavioural,60.06338428880592,
6,We've been trying to find a way to add a little European cachet to our stores.,3,3,,,,,0,6,6,6,0,23,23,23,,,,,,,,,,,,,,,,,,,,,9,2.4676483180001014,,,,,,,,,,,,,,,,,olivia,001,2019_Jan_24_1604,body_behavioural,60.06338428880592,
6, There's still a problem though - I'm worried we'll be paying out the nose for the import taxes.,3,3,,,,,0,6,6,6,0,24,24,24,,,,,,,,,,,,,,,,,,,,,9,3.569266010000092,,,,,,,,,,,,,,,,,olivia,001,2019_Jan_24_1604,body_behavioural,60.06338428880592,
6,Is that the case?",3,3,,,,,0,6,6,6,0,25,25,25,,,,,,,,,,,,,,,,,,,,,9,0.8994103649999943,,,,,,,,,,,,,,,,,olivia,001,2019_Jan_24_1604,body_behavioural,60.06338428880592,
6," It was Ms. Morrison’s turn to checkout, and the two businesswomen continued to talk back and forth as she did so. ",4,3,,,,,0,6,6,6,0,26,26,26,,,,,,,,,,,,,,,,,,,,,9,2.8016008849999707,,,,,,,,,,,,,,,,,olivia,001,2019_Jan_24_1604,body_behavioural,60.06338428880592,
6,"The cashier scanned the crackers, and Ms. Bianchi watched in amusement as Ms. Morrison paid the $6 price entirely in quarters from a wallet bulging with change.",4,3,,,,,0,6,6,6,0,27,27,27,,,,,,,,,,,,,,,,,,,,,9,6.286432235999882,,,,,,,,,,,,,,,,,olivia,001,2019_Jan_24_1604,body_behavioural,60.06338428880592,
6, They shortly came to an agreement and would have enough cheese shipments to different stores to qualify for a subsidized import tax. ,4,4,,,,,0,6,6,6,0,28,28,28,,,,,,,,,,,,,,,,,,,,,9,4.2361689399999705,,,,,,,,,,,,,,,,,olivia,001,2019_Jan_24_1604,body_behavioural,60.06338428880592,
6,"Ms. Bianchi retrieved some of her samples from her car, and they toasted their new deal with crackers topped with fresh mozzarella. ",4,4,,,,,0,6,6,6,0,29,29,29,,,,,,,,,,,,,,,,,,,,,1,6.402723833999971,,,,,,,,,,,,,,,,,olivia,001,2019_Jan_24_1604,body_behavioural,60.06338428880592,
6,,,,,,,,0,6,6,6,,,,,,,,,,,,,,,,,,,,,,,,,,,,,,,,,,,,,,,,,,,olivia,001,2019_Jan_24_1604,body_behavioural,60.06338428880592,
7,The grocery store was not the place Emmanuella and Liam wanted to be as they had been fighting beforehand to the point where Emmanuella was thinking of breaking up with Liam.,1,1,,,,,0,7,7,7,0,0,0,0,,,,,,,,,,,,,,,,,,,space,2.018359045999887,1,10.504325983999934,,,,,,,,,,,,,,,,,olivia,001,2019_Jan_24_1604,body_behavioural,60.06338428880592,
7,"But they had to be there, seeing as they were hosting a dinner party for friends that evening and had no groceries. ",1,1,,,,,0,7,7,7,0,1,1,1,,,,,,,,,,,,,,,,,,,,,9,7.520211589999917,,,,,,,,,,,,,,,,,olivia,001,2019_Jan_24_1604,body_behavioural,60.06338428880592,
7,The grocery store was dimly lit and had dark wood paneling for the shelves.,1,1,,,,,0,7,7,7,0,2,2,2,,,,,,,,,,,,,,,,,,,,,9,2.1092399819999628,,,,,,,,,,,,,,,,,olivia,001,2019_Jan_24_1604,body_behavioural,60.06338428880592,
7,"The store specialized in organic produce and products catering to desires for high-end products, such as imported cheeses and sauces. ",1,1,,,,,0,7,7,7,0,3,3,3,,,,,,,,,,,,,,,,,,,,,1,4.803127183000015,,,,,,,,,,,,,,,,,olivia,001,2019_Jan_24_1604,body_behavioural,60.06338428880592,
7,"Emmanuella felt angry as she headed immediately for the pasta section, and Liam trailed behind her. ",2,1,,,,,0,7,7,7,0,4,4,4,,,,,,,,,,,,,,,,,,,,,9,7.20649625100009,,,,,,,,,,,,,,,,,olivia,001,2019_Jan_24_1604,body_behavioural,60.06338428880592,
7,Emmanuella selected a few pasta boxes of linguine.,2,1,,,,,0,7,7,7,0,5,5,5,,,,,,,,,,,,,,,,,,,,,9,1.2345452980000573,,,,,,,,,,,,,,,,,olivia,001,2019_Jan_24_1604,body_behavioural,60.06338428880592,
7,"“I guess we are having pasta tonight,” Liam said.",2,1,,,,,0,7,7,7,0,6,6,6,,,,,,,,,,,,,,,,,,,,,9,1.3866019139998116,,,,,,,,,,,,,,,,,olivia,001,2019_Jan_24_1604,body_behavioural,60.06338428880592,
7,"Emmanuella looked back at him and said, “Well if you were going to actually help cook, I would be fine with something else.”",2,1,,,,,0,7,7,7,0,7,7,7,,,,,,,,,,,,,,,,,,,,,1,3.886244753000028,,,,,,,,,,,,,,,,,olivia,001,2019_Jan_24_1604,body_behavioural,60.06338428880592,
7,"Liam sighed, “You don’t want me to help.",2,1,,,,,0,7,7,7,0,8,8,8,,,,,,,,,,,,,,,,,,,,,9,3.4513081350000903,,,,,,,,,,,,,,,,,olivia,001,2019_Jan_24_1604,body_behavioural,60.06338428880592,
7," I try to, but it seems like I always get in the way!” ",2,1,,,,,0,7,7,7,0,9,9,9,,,,,,,,,,,,,,,,,,,,,9,0.9501528989999315,,,,,,,,,,,,,,,,,olivia,001,2019_Jan_24_1604,body_behavioural,60.06338428880592,
7,"Emmanuella angrily threw the pasta into the cart, losing her temper.",2,1,,,,,0,7,7,7,0,10,10,10,,,,,,,,,,,,,,,,,,,,,9,1.8529135950000182,,,,,,,,,,,,,,,,,olivia,001,2019_Jan_24_1604,body_behavioural,60.06338428880592,
7," “Liam, I don’t think I can do this anymore. ",2,2,,,,,0,7,7,7,0,11,11,11,,,,,,,,,,,,,,,,,,,,,9,1.2843791970001348,,,,,,,,,,,,,,,,,olivia,001,2019_Jan_24_1604,body_behavioural,60.06338428880592,
7," I was going to wait until after this dinner party tonight to talk about this, but I don’t want to be in a relationship with you anymore.",2,2,,,,,0,7,7,7,0,12,12,12,,,,,,,,,,,,,,,,,,,,,9,2.9533001949998834,,,,,,,,,,,,,,,,,olivia,001,2019_Jan_24_1604,body_behavioural,60.06338428880592,
7," I’m tired of the constant fighting, and I feel like when we try to do anything fun it ends up unpleasant for stupidest reasons, and I am just past  trying to work things out.”",2,2,,,,,0,7,7,7,0,13,13,13,,,,,,,,,,,,,,,,,,,,,9,2.4845012829998723,,,,,,,,,,,,,,,,,olivia,001,2019_Jan_24_1604,body_behavioural,60.06338428880592,
7,"Liam refused to look at her as she picked out sauces for the pasta, and then she threw up her hands, saying, “You know what, if this party is still happening we are going to just eat pasta.”",2,2,,,,,0,7,7,7,0,14,14,14,,,,,,,,,,,,,,,,,,,,,1,12.805632985000102,,,,,,,,,,,,,,,,,olivia,001,2019_Jan_24_1604,body_behavioural,60.06338428880592,
7,They headed to the checkout area where there were only two stations open but they were not crowded at all.,3,2,,,,,0,7,7,7,0,15,15,15,,,,,,,,,,,,,,,,,,,,,9,3.451900139999907,,,,,,,,,,,,,,,,,olivia,001,2019_Jan_24_1604,body_behavioural,60.06338428880592,
7," Emmanuella sighed and got in line, while Liam pretended to be interested in the magazine racks in order to avoid her gaze. ",3,2,,,,,0,7,7,7,0,16,16,16,,,,,,,,,,,,,,,,,,,,,9,4.684054395999965,,,,,,,,,,,,,,,,,olivia,001,2019_Jan_24_1604,body_behavioural,60.06338428880592,
7," Finally he turned to her and sighed, “Yes, I was thinking the same thing - I think we could definitely be happier with other people.” ",3,3,,,,,0,7,7,7,0,17,17,17,,,,,,,,,,,,,,,,,,,,,9,8.937657939000019,,,,,,,,,,,,,,,,,olivia,001,2019_Jan_24_1604,body_behavioural,60.06338428880592,
7,"As if she hadn't heard him, Emmanuella looked at their cart and said, “I'm not sure this will be enough, could you grab another box of pasta?”",3,3,,,,,0,7,7,7,0,18,18,18,,,,,,,,,,,,,,,,,,,,,9,1.4515312070000164,,,,,,,,,,,,,,,,,olivia,001,2019_Jan_24_1604,body_behavioural,60.06338428880592,
7," Liam scoffed, and walked off to quickly get it.",3,3,,,,,0,7,7,7,0,19,19,19,,,,,,,,,,,,,,,,,,,,,9,1.1010265910001635,,,,,,,,,,,,,,,,,olivia,001,2019_Jan_24_1604,body_behavioural,60.06338428880592,
7,"As Emmanuella waited in line, she took a moment to compose herself, deciding that there was no reason to continue making a scene in the store. ",3,3,,,,,0,7,7,7,0,20,20,20,,,,,,,,,,,,,,,,,,,,,1,4.252925299000026,,,,,,,,,,,,,,,,,olivia,001,2019_Jan_24_1604,body_behavioural,60.06338428880592,
7," Right when Liam came back with the pasta, the cashier started scanning their groceries.",4,3,,,,,0,7,7,7,0,21,21,21,,,,,,,,,,,,,,,,,,,,,9,1.707519738999963,,,,,,,,,,,,,,,,,olivia,001,2019_Jan_24_1604,body_behavioural,60.06338428880592,
7,"The cost came to $30, and Emmanuella paid with her credit card.",4,3,,,,,0,7,7,7,0,22,22,22,,,,,,,,,,,,,,,,,,,,,1,2.7694104789998164,,,,,,,,,,,,,,,,,olivia,001,2019_Jan_24_1604,body_behavioural,60.06338428880592,
7,"She asked Liam politely to take the bags, and he obliged, following her to toward the exit. ",4,3,,,,,0,7,7,7,0,23,23,23,,,,,,,,,,,,,,,,,,,,,9,1.6681362520000675,,,,,,,,,,,,,,,,,olivia,001,2019_Jan_24_1604,body_behavioural,60.06338428880592,
7,"“Liam, I think we are making the right decision.",4,4,,,,,0,7,7,7,0,24,24,24,,,,,,,,,,,,,,,,,,,,,9,1.4840721409998423,,,,,,,,,,,,,,,,,olivia,001,2019_Jan_24_1604,body_behavioural,60.06338428880592,
7,This is good.” ,4,4,,,,,0,7,7,7,0,25,25,25,,,,,,,,,,,,,,,,,,,,,9,0.4679924580000261,,,,,,,,,,,,,,,,,olivia,001,2019_Jan_24_1604,body_behavioural,60.06338428880592,
7,"“I agree,” he said, visibly relieved at the thought that they had gotten through the last fight they would ever need to have.",4,4,,,,,0,7,7,7,0,26,26,26,,,,,,,,,,,,,,,,,,,,,9,1.8864973919999102,,,,,,,,,,,,,,,,,olivia,001,2019_Jan_24_1604,body_behavioural,60.06338428880592,
7,"“I think we can still host this dinner tonight, as long as you're still on board,” Emmanuella said.",4,4,,,,,0,7,7,7,0,27,27,27,,,,,,,,,,,,,,,,,,,,,9,3.0521126480000476,,,,,,,,,,,,,,,,,olivia,001,2019_Jan_24_1604,body_behavioural,60.06338428880592,
7,"Liam nodded, “Yes, let’s just not tell anyone yet.” ",4,4,,,,,0,7,7,7,0,28,28,28,,,,,,,,,,,,,,,,,,,,,9,1.2692737229999693,,,,,,,,,,,,,,,,,olivia,001,2019_Jan_24_1604,body_behavioural,60.06338428880592,
7,"Emmanuella laughed, “If one of it leaks it, they lose their rights to the cat.”",4,4,,,,,0,7,7,7,0,29,29,29,,,,,,,,,,,,,,,,,,,,,9,11.677899135000189,,,,,,,,,,,,,,,,,olivia,001,2019_Jan_24_1604,body_behavioural,60.06338428880592,
7,"Liam rolled his eyes, but managed a weak chuckle.
",4,4,,,,,0,7,7,7,0,30,30,30,,,,,,,,,,,,,,,,,,,,,9,3.119567970999924,,,,,,,,,,,,,,,,,olivia,001,2019_Jan_24_1604,body_behavioural,60.06338428880592,
7,,,,,,,,0,7,7,7,,,,,,,,,,,,,,,,,,,,,,,,,,,,,,,,,,,,,,,,,,,olivia,001,2019_Jan_24_1604,body_behavioural,60.06338428880592,
8,"David saw Anna for the first time when she burst into the airport, her bag skidding behind her half-zipped. ",1,,,,1,,0,8,8,8,0,0,0,0,,,,,,,,,,,,,,,,,,,space,1.8186310319999848,1,4.002698264999935,,,,,,,,,,,,,,,,,olivia,001,2019_Jan_24_1604,body_behavioural,60.06338428880592,
8,"He had 3 hours until his flight, but she  has less than 1 and was visibly stressed.",1,,,,1,,0,8,8,8,0,1,1,1,,,,,,,,,,,,,,,,,,,,,9,4.842643789000022,,,,,,,,,,,,,,,,,olivia,001,2019_Jan_24_1604,body_behavioural,60.06338428880592,
8,"Her yoga class had ran over, and afterwards she had spent extra time talking with friends without keeping track of time. ",1,,,,1,,0,8,8,8,0,2,2,2,,,,,,,,,,,,,,,,,,,,,9,7.788581464999879,,,,,,,,,,,,,,,,,olivia,001,2019_Jan_24_1604,body_behavioural,60.06338428880592,
8," Despite Anna's frazzled state, David was instantly intrigued by her; he thought she was beautiful, reminded him of one of his favorite paintings",1,,,,1,,0,8,8,8,0,3,3,3,,,,,,,,,,,,,,,,,,,,,9,2.6202628979999645,,,,,,,,,,,,,,,,,olivia,001,2019_Jan_24_1604,body_behavioural,60.06338428880592,
8,"Anna, a few steps into the airport, suddenly realized her shoes were untied, so she hunched over to tie them.",1,,,,1,,0,8,8,8,0,4,4,4,,,,,,,,,,,,,,,,,,,,,9,3.9513106709998738,,,,,,,,,,,,,,,,,olivia,001,2019_Jan_24_1604,body_behavioural,60.06338428880592,
8,"Behind her, David saw someone with a tall cart of luggage heading straight for where Anna was kneeling. ",1,,,,1,,0,8,8,8,0,5,5,5,,,,,,,,,,,,,,,,,,,,,9,2.369772980000107,,,,,,,,,,,,,,,,,olivia,001,2019_Jan_24_1604,body_behavioural,60.06338428880592,
8,Both Anna and the person driving the cart were oblivious to the collision that was about to happen. ,1,,,,1,,0,8,8,8,0,6,6,6,,,,,,,,,,,,,,,,,,,,,9,1.450610222000023,,,,,,,,,,,,,,,,,olivia,001,2019_Jan_24_1604,body_behavioural,60.06338428880592,
8,"David ran over and pushed her out of the way just in the nick of time, and they tumbled a bit on the airport floor. ",1,,,,2,,0,8,8,8,0,7,7,7,,,,,,,,,,,,,,,,,,,,,9,1.9687664799998856,,,,,,,,,,,,,,,,,olivia,001,2019_Jan_24_1604,body_behavioural,60.06338428880592,
8,"Anna looked up and saw the cart pass by, and then looked over at David, bewildered. ",1,,,,2,,0,8,8,8,0,8,8,8,,,,,,,,,,,,,,,,,,,,,9,1.7510864250000395,,,,,,,,,,,,,,,,,olivia,001,2019_Jan_24_1604,body_behavioural,60.06338428880592,
8,"He gave a smile back, “You alright?” he said.",1,,,,2,,0,8,8,8,0,9,9,9,,,,,,,,,,,,,,,,,,,,,9,1.0004075179999745,,,,,,,,,,,,,,,,,olivia,001,2019_Jan_24_1604,body_behavioural,60.06338428880592,
8,"“Uh yeah. Wow, thank you, I almost got smooshed by that cart,” she stammered, her head still spinning as she stared at the handsome stranger who had saved her. ",1,,,,2,,0,8,8,8,0,10,10,10,,,,,,,,,,,,,,,,,,,,,9,1.6848491149999063,,,,,,,,,,,,,,,,,olivia,001,2019_Jan_24_1604,body_behavioural,60.06338428880592,
8,"David helped her up, but had to keep holding on to her arms to steady her even once they were standing.Anna blushed.",1,,,,2,,0,8,8,8,0,11,11,11,,,,,,,,,,,,,,,,,,,,,9,3.118699824000032,,,,,,,,,,,,,,,,,olivia,001,2019_Jan_24_1604,body_behavioural,60.06338428880592,
8," “I’m really late for my flight,” she said. ",1,,,,2,,0,8,8,8,0,12,12,12,,,,,,,,,,,,,,,,,,,,,9,1.8020117500000197,,,,,,,,,,,,,,,,,olivia,001,2019_Jan_24_1604,body_behavioural,60.06338428880592,
8,""Don't worry," said David, "let me help you get to your gate." ",1,,,,2,,0,8,8,8,0,13,13,13,,,,,,,,,,,,,,,,,,,,,9,2.152287625999861,,,,,,,,,,,,,,,,,olivia,001,2019_Jan_24_1604,body_behavioural,60.06338428880592,
8,He waved off her half-hearted protests. ,1,,,,2,,0,8,8,8,0,14,14,14,,,,,,,,,,,,,,,,,,,,,9,5.35389295899995,,,,,,,,,,,,,,,,,olivia,001,2019_Jan_24_1604,body_behavioural,60.06338428880592,
8,""Really, I have plenty of time and nothing better to do."",1,,,,2,,0,8,8,8,0,15,15,15,,,,,,,,,,,,,,,,,,,,,9,3.3695524899999327,,,,,,,,,,,,,,,,,olivia,001,2019_Jan_24_1604,body_behavioural,60.06338428880592,
8, They headed to the security line. ,2,,,,2,,0,8,8,8,0,16,16,16,,,,,,,,,,,,,,,,,,,,,1,1.6852801509999153,,,,,,,,,,,,,,,,,olivia,001,2019_Jan_24_1604,body_behavioural,60.06338428880592,
8,"The line was not too long, and they spent the time chatting, and getting to know each other better.",2,,,,2,,0,8,8,8,0,17,17,17,,,,,,,,,,,,,,,,,,,,,9,4.069638475999909,,,,,,,,,,,,,,,,,olivia,001,2019_Jan_24_1604,body_behavioural,60.06338428880592,
8," It turned out that Anna and David both went to the same high school, but David had been 5 years older.",2,,,,2,,0,8,8,8,0,18,18,18,,,,,,,,,,,,,,,,,,,,,9,4.053937847999805,,,,,,,,,,,,,,,,,olivia,001,2019_Jan_24_1604,body_behavioural,60.06338428880592,
8,When they got to the front of the line they took off their shoes and pulled off their coats.,2,,,,3,,0,8,8,8,0,19,19,19,,,,,,,,,,,,,,,,,,,,,9,2.619175936000147,,,,,,,,,,,,,,,,,olivia,001,2019_Jan_24_1604,body_behavioural,60.06338428880592,
8, Both of them went through the metal detector without any problems. ,2,,,,3,,0,8,8,8,0,20,20,20,,,,,,,,,,,,,,,,,,,,,9,1.3692797769999743,,,,,,,,,,,,,,,,,olivia,001,2019_Jan_24_1604,body_behavioural,60.06338428880592,
8,"Anna’s flight was in 20 minutes, so as she was rushing to put her shoes back on and her laptop back in the bag, David asked her, “So when are you coming back?”",2,,,,3,,0,8,8,8,0,21,21,21,,,,,,,,,,,,,,,,,,,,,1,4.102644850000161,,,,,,,,,,,,,,,,,olivia,001,2019_Jan_24_1604,body_behavioural,60.06338428880592,
8,"“In a week, short trip,” Anna replied. ",2,,,,3,,0,8,8,8,0,22,22,22,,,,,,,,,,,,,,,,,,,,,9,0.9355529560000377,,,,,,,,,,,,,,,,,olivia,001,2019_Jan_24_1604,body_behavioural,60.06338428880592,
8,“Me too.,2,,,,3,,0,8,8,8,0,23,23,23,,,,,,,,,,,,,,,,,,,,,9,0.6016254610001397,,,,,,,,,,,,,,,,,olivia,001,2019_Jan_24_1604,body_behavioural,60.06338428880592,
8,"When we're back in town, is there any chance you'd want to get dinner?",2,,,,3,,0,8,8,8,0,24,24,24,,,,,,,,,,,,,,,,,,,,,9,1.1741407449999315,,,,,,,,,,,,,,,,,olivia,001,2019_Jan_24_1604,body_behavioural,60.06338428880592,
8,"I know we just met, but when life throws a luggage cart at you it seems like we should listen."",2,,,,3,,0,8,8,8,0,25,25,25,,,,,,,,,,,,,,,,,,,,,9,3.356177998000021,,,,,,,,,,,,,,,,,olivia,001,2019_Jan_24_1604,body_behavioural,60.06338428880592,
8,"She stopped packing, and said with a smile, “Yes I would love that.”",2,,,,3,,0,8,8,8,0,26,26,26,,,,,,,,,,,,,,,,,,,,,9,4.8025738160001765,,,,,,,,,,,,,,,,,olivia,001,2019_Jan_24_1604,body_behavioural,60.06338428880592,
8," Then they ran off to Anna’s gate, which was at the end of the terminal. ",3,,,,3,,0,8,8,8,0,27,27,27,,,,,,,,,,,,,,,,,,,,,9,2.6678045499998007,,,,,,,,,,,,,,,,,olivia,001,2019_Jan_24_1604,body_behavioural,60.06338428880592,
8,"David took her backpack and put it on, and then grabbed her hand and navigated quickly through the crowds of people.",3,,,,3,,0,8,8,8,0,28,28,28,,,,,,,,,,,,,,,,,,,,,9,10.454259574999924,,,,,,,,,,,,,,,,,olivia,001,2019_Jan_24_1604,body_behavioural,60.06338428880592,
8,"Anna was amazed at everything that was happening; she had arrived at the airport doubtful that she would make it and was now confident that she would, due to this handsome and kind man she just met.",3,,,,3,,0,8,8,8,0,29,29,29,,,,,,,,,,,,,,,,,,,,,9,6.287505922000037,,,,,,,,,,,,,,,,,olivia,001,2019_Jan_24_1604,body_behavioural,60.06338428880592,
8,"As they approached her gate, Anna fished out a crumbled business card from her pocket and handed it to David, who handed her the backpack and promised to call her next week.",3,,,,4,,0,8,8,8,0,30,30,30,,,,,,,,,,,,,,,,,,,,,9,6.386263177000046,,,,,,,,,,,,,,,,,olivia,001,2019_Jan_24_1604,body_behavioural,60.06338428880592,
8,"She gave him one last embarrassed smile, then approached the flight attendant who scanned her ticket. ",3,,,,4,,0,8,8,8,0,31,31,31,,,,,,,,,,,,,,,,,,,,,1,4.269582184000001,,,,,,,,,,,,,,,,,olivia,001,2019_Jan_24_1604,body_behavioural,60.06338428880592,
8,"Finally, she boarded in the plane, sliding into her window seat all the way in the back of the plane.",4,,,,4,,0,8,8,8,0,32,32,32,,,,,,,,,,,,,,,,,,,,,9,2.1519831779999095,,,,,,,,,,,,,,,,,olivia,001,2019_Jan_24_1604,body_behavioural,60.06338428880592,
8,"She ignored the grumbles of complaint as she squeezed past the other passengers in her row, and settled back in her seat barely containing her glee. ",4,,,,4,,0,8,8,8,0,33,33,33,,,,,,,,,,,,,,,,,,,,,9,1.402707886999906,,,,,,,,,,,,,,,,,olivia,001,2019_Jan_24_1604,body_behavioural,60.06338428880592,
8,"She was thankful that she had not only made it onto the plane in time, but also that she had been clumsy enough to forget to tie her shoes.",4,,,,4,,0,8,8,8,0,34,34,34,,,,,,,,,,,,,,,,,,,,,9,0.8033654420000857,,,,,,,,,,,,,,,,,olivia,001,2019_Jan_24_1604,body_behavioural,60.06338428880592,
8,,,,,,,,0,8,8,8,,,,,,,,,,,,,,,,,,,,,,,,,,,,,,,,,,,,,,,,,,,olivia,001,2019_Jan_24_1604,body_behavioural,60.06338428880592,
9,"Thomas, dreading the conversation he was about to have, got to Annika’s Finer Diner early.",1,1,None,None,,,0,9,9,9,0,0,0,0,,,,,,,,,,,,,,,,,,,space,0.917805683999859,1,9.17124005200003,,,,,,,,,,,,,,,,,olivia,001,2019_Jan_24_1604,body_behavioural,60.06338428880592,
9,The restaurant had a kitschy charm and was reminiscent of a diner from the 70’s. ,1,1,None,None,,,0,9,9,9,0,1,1,1,,,,,,,,,,,,,,,,,,,,,9,2.6068711020000137,,,,,,,,,,,,,,,,,olivia,001,2019_Jan_24_1604,body_behavioural,60.06338428880592,
9,A bell chimed as the door swung open and Sadie entered to find Thomas deep in thought on a bench by the door.,1,1,None,None,,,0,9,9,9,0,2,2,2,,,,,,,,,,,,,,,,,,,,,9,5.286693630999935,,,,,,,,,,,,,,,,,olivia,001,2019_Jan_24_1604,body_behavioural,60.06338428880592,
9,He jumped up and gave her a side hug. ,1,1,None,None,,,0,9,9,9,0,3,3,3,,,,,,,,,,,,,,,,,,,,,9,3.001316653999993,,,,,,,,,,,,,,,,,olivia,001,2019_Jan_24_1604,body_behavioural,60.06338428880592,
9,“How was your day?” he asked.,1,1,None,None,,,0,9,9,9,0,4,4,4,,,,,,,,,,,,,,,,,,,,,9,0.9680922710001596,,,,,,,,,,,,,,,,,olivia,001,2019_Jan_24_1604,body_behavioural,60.06338428880592,
9,"She clung onto him, “It was okay.",1,1,None,None,,,0,9,9,9,0,5,5,5,,,,,,,,,,,,,,,,,,,,,9,0.834625879999976,,,,,,,,,,,,,,,,,olivia,001,2019_Jan_24_1604,body_behavioural,60.06338428880592,
9,I missed you today.”,1,1,None,None,,,0,9,9,9,0,6,6,6,,,,,,,,,,,,,,,,,,,,,9,3.701421298000014,,,,,,,,,,,,,,,,,olivia,001,2019_Jan_24_1604,body_behavioural,60.06338428880592,
9,He looked at the hostess coming toward them.,1,1,None,None,,,0,9,9,9,0,7,7,7,,,,,,,,,,,,,,,,,,,,,1,3.2180588100000023,,,,,,,,,,,,,,,,,olivia,001,2019_Jan_24_1604,body_behavioural,60.06338428880592,
9,“Can we have a table in the back?” Thomas asked.,1,1,None,None,,,0,9,9,9,0,8,8,8,,,,,,,,,,,,,,,,,,,,,9,2.6510450299999775,,,,,,,,,,,,,,,,,olivia,001,2019_Jan_24_1604,body_behavioural,60.06338428880592,
9,"She shrugged and, as she loudly popped her bubblegum, replied, "Sure honey, this way."",1,1,9.0,None,,,0,9,9,9,0,9,9,9,,,,,,,,,,,,,,,,,,,,,9,3.188740510999878,,,,,,,,,,,,,,,,,olivia,001,2019_Jan_24_1604,body_behavioural,60.06338428880592,
9,"She led them to the back of the restaurant, where there were dimly lit tables. ",2,1,None,None,,,0,9,9,9,0,10,10,10,,,,,,,,,,,,,,,,,,,,,1,5.901817732999916,,,,,,,,,,,,,,,,,olivia,001,2019_Jan_24_1604,body_behavioural,60.06338428880592,
9,“Is this alright?” the hostess asked.,2,1,None,None,,,0,9,9,9,0,11,11,11,,,,,,,,,,,,,,,,,,,,,9,0.8845318869998664,,,,,,,,,,,,,,,,,olivia,001,2019_Jan_24_1604,body_behavioural,60.06338428880592,
9,Thomas cleared his throat and tried not to grimace at the stained fabric that lined the booth.,2,1,None,None,,,0,9,9,9,0,12,12,12,,,,,,,,,,,,,,,,,,,,,9,3.54235424400008,,,,,,,,,,,,,,,,,olivia,001,2019_Jan_24_1604,body_behavioural,60.06338428880592,
9,“This is great.,2,1,None,None,,,0,9,9,9,0,13,13,13,,,,,,,,,,,,,,,,,,,,,9,2.2204483150001124,,,,,,,,,,,,,,,,,olivia,001,2019_Jan_24_1604,body_behavioural,60.06338428880592,
9," Thank you,” Thomas said.",2,1,None,None,,,0,9,9,9,0,14,14,14,,,,,,,,,,,,,,,,,,,,,9,1.7848693559999447,,,,,,,,,,,,,,,,,olivia,001,2019_Jan_24_1604,body_behavioural,60.06338428880592,
9,Sadie slipped into the cushioned seat and grabbed Thomas’ hand.,2,1,None,None,,,0,9,9,9,0,15,15,15,,,,,,,,,,,,,,,,,,,,,1,5.086488091000092,,,,,,,,,,,,,,,,,olivia,001,2019_Jan_24_1604,body_behavioural,60.06338428880592,
9,“Tell me about your day!” Sadie sang as Thomas sat down.,2,1,None,None,,,0,9,9,9,0,16,16,16,,,,,,,,,,,,,,,,,,,,,9,1.0527310009999837,,,,,,,,,,,,,,,,,olivia,001,2019_Jan_24_1604,body_behavioural,60.06338428880592,
9,He looked at her silently and pulled his hand slowly from hers.,2,1,None,None,,,0,9,9,9,0,17,17,17,,,,,,,,,,,,,,,,,,,,,9,4.052717407000046,,,,,,,,,,,,,,,,,olivia,001,2019_Jan_24_1604,body_behavioural,60.06338428880592,
9,Sadie gave him a puzzled look.,2,1,None,None,,,0,9,9,9,0,18,18,18,,,,,,,,,,,,,,,,,,,,,9,1.034754613999894,,,,,,,,,,,,,,,,,olivia,001,2019_Jan_24_1604,body_behavioural,60.06338428880592,
9,Thomas looked away and took a deep breath. ,2,1,None,None,,,0,9,9,9,0,19,19,19,,,,,,,,,,,,,,,,,,,,,9,1.3516041249999944,,,,,,,,,,,,,,,,,olivia,001,2019_Jan_24_1604,body_behavioural,60.06338428880592,
9,"Sadie asked, “What’s wrong?” ",2,1,None,None,,,0,9,9,9,0,20,20,20,,,,,,,,,,,,,,,,,,,,,9,1.4408301389998996,,,,,,,,,,,,,,,,,olivia,001,2019_Jan_24_1604,body_behavioural,60.06338428880592,
9,Thomas picked at his fingernails.,2,1,None,22.0,,,0,9,9,9,0,21,21,21,,,,,,,,,,,,,,,,,,,,,9,2.767714056999921,,,,,,,,,,,,,,,,,olivia,001,2019_Jan_24_1604,body_behavioural,60.06338428880592,
9,"“Look, Sadie, I’ve been thinking, and I need to figure out some stuff… on my own.”",2,2,None,None,,,0,9,9,9,0,22,22,22,,,,,,,,,,,,,,,,,,,,,9,1.941659485999935,,,,,,,,,,,,,,,,,olivia,001,2019_Jan_24_1604,body_behavioural,60.06338428880592,
9,"Sadie’s mouth popped open for a moment, then she swallowed and shifted back in her seat.",2,2,None,None,,,0,9,9,9,0,23,23,23,,,,,,,,,,,,,,,,,,,,,9,2.337789337000004,,,,,,,,,,,,,,,,,olivia,001,2019_Jan_24_1604,body_behavioural,60.06338428880592,
9,“Things have been really picking up at work.,2,2,None,None,,,0,9,9,9,0,24,24,24,,,,,,,,,,,,,,,,,,,,,9,1.7028546270000788,,,,,,,,,,,,,,,,,olivia,001,2019_Jan_24_1604,body_behavioural,60.06338428880592,
9,And I’m not sure that this is the job I want to do anymore.,2,2,None,None,,,0,9,9,9,0,25,25,25,,,,,,,,,,,,,,,,,,,,,9,2.55199880400005,,,,,,,,,,,,,,,,,olivia,001,2019_Jan_24_1604,body_behavioural,60.06338428880592,
9,It’s been really overwhelming between working and figuring out if I should change careers.” ,2,2,17.0,None,,,0,9,9,9,0,26,26,26,,,,,,,,,,,,,,,,,,,,,9,3.472860784999966,,,,,,,,,,,,,,,,,olivia,001,2019_Jan_24_1604,body_behavioural,60.06338428880592,
9,The waiter appeared and interrupted the speech Thomas had been practicing.,3,2,None,None,,,0,9,9,9,0,27,27,27,,,,,,,,,,,,,,,,,,,,,1,2.2841547949999494,,,,,,,,,,,,,,,,,olivia,001,2019_Jan_24_1604,body_behavioural,60.06338428880592,
9,“Hello you two!,3,2,None,None,,,0,9,9,9,0,28,28,28,,,,,,,,,,,,,,,,,,,,,9,0.8854762070000106,,,,,,,,,,,,,,,,,olivia,001,2019_Jan_24_1604,body_behavioural,60.06338428880592,
9,Have you decided what you would like?”,3,2,None,None,,,0,9,9,9,0,29,29,29,,,,,,,,,,,,,,,,,,,,,9,0.8022007440001744,,,,,,,,,,,,,,,,,olivia,001,2019_Jan_24_1604,body_behavioural,60.06338428880592,
9,"Thomas and Sadie realized there were menus on the table, and they glanced at the lengthy list quickly.",3,2,None,None,,,0,9,9,9,0,30,30,30,,,,,,,,,,,,,,,,,,,,,9,3.452893149000147,,,,,,,,,,,,,,,,,olivia,001,2019_Jan_24_1604,body_behavioural,60.06338428880592,
9,"There were so many strange dishes they had never heard of before, so they settled on familiar orders.",3,2,None,None,,,0,9,9,9,0,31,31,31,,,,,,,,,,,,,,,,,,,,,9,3.0532976539998344,,,,,,,,,,,,,,,,,olivia,001,2019_Jan_24_1604,body_behavioural,60.06338428880592,
9,"“I’ll have a burger, no tomatoes,” Thomas said.",3,2,None,None,,,0,9,9,9,0,32,32,32,,,,,,,,,,,,,,,,,,,,,1,4.1365981300000385,,,,,,,,,,,,,,,,,olivia,001,2019_Jan_24_1604,body_behavioural,60.06338428880592,
9,"Sadie asked about the reuben, and the waiter told her it was excellent.",3,2,None,None,,,0,9,9,9,0,33,33,33,,,,,,,,,,,,,,,,,,,,,9,1.4507692530000895,,,,,,,,,,,,,,,,,olivia,001,2019_Jan_24_1604,body_behavioural,60.06338428880592,
9," Once she agreed to get that, he walked away. ",3,2,None,None,,,0,9,9,9,0,34,34,34,,,,,,,,,,,,,,,,,,,,,9,1.866833349999979,,,,,,,,,,,,,,,,,olivia,001,2019_Jan_24_1604,body_behavioural,60.06338428880592,
9,Sadie and Thomas looked at each other. ,3,2,None,None,,,0,9,9,9,0,35,35,35,,,,,,,,,,,,,,,,,,,,,9,1.2698730340000566,,,,,,,,,,,,,,,,,olivia,001,2019_Jan_24_1604,body_behavioural,60.06338428880592,
9,“So what are you saying?” Sadie asked. ,3,2,None,None,,,0,9,9,9,0,36,36,36,,,,,,,,,,,,,,,,,,,,,9,1.1004330839998602,,,,,,,,,,,,,,,,,olivia,001,2019_Jan_24_1604,body_behavioural,60.06338428880592,
9,"Thomas replied, “I want to take a break for awhile.",3,2,None,None,,,0,9,9,9,0,37,37,37,,,,,,,,,,,,,,,,,,,,,9,2.536108013999865,,,,,,,,,,,,,,,,,olivia,001,2019_Jan_24_1604,body_behavioural,60.06338428880592,
9,"You know, have space to figure out what I’m supposed to be doing.”",3,2,None,17.0,,,0,9,9,9,0,38,38,38,,,,,,,,,,,,,,,,,,,,,9,4.319584974999998,,,,,,,,,,,,,,,,,olivia,001,2019_Jan_24_1604,body_behavioural,60.06338428880592,
9,Sadie quietly burst into tears. ,3,3,None,None,,,0,9,9,9,0,39,39,39,,,,,,,,,,,,,,,,,,,,,9,0.6343717219999689,,,,,,,,,,,,,,,,,olivia,001,2019_Jan_24_1604,body_behavioural,60.06338428880592,
9,"Nevertheless, people sitting at the adjacent table looked over, and then averted their gaze as they realized what was happening. ",3,3,None,None,,,0,9,9,9,0,40,40,40,,,,,,,,,,,,,,,,,,,,,9,3.001935775999982,,,,,,,,,,,,,,,,,olivia,001,2019_Jan_24_1604,body_behavioural,60.06338428880592,
9,“Is this really what you want?,3,3,None,None,,,0,9,9,9,0,41,41,41,,,,,,,,,,,,,,,,,,,,,9,2.2193604880001203,,,,,,,,,,,,,,,,,olivia,001,2019_Jan_24_1604,body_behavioural,60.06338428880592,
9,I don’t understand.,3,3,None,None,,,0,9,9,9,0,42,42,42,,,,,,,,,,,,,,,,,,,,,9,1.1688953940001738,,,,,,,,,,,,,,,,,olivia,001,2019_Jan_24_1604,body_behavioural,60.06338428880592,
9,I don’t understand.,3,3,None,None,,,0,9,9,9,0,43,43,43,,,,,,,,,,,,,,,,,,,,,9,1.2659481489999962,,,,,,,,,,,,,,,,,olivia,001,2019_Jan_24_1604,body_behavioural,60.06338428880592,
9,Things were fine. ,3,3,None,None,,,0,9,9,9,0,44,44,44,,,,,,,,,,,,,,,,,,,,,9,0.6520316799999364,,,,,,,,,,,,,,,,,olivia,001,2019_Jan_24_1604,body_behavioural,60.06338428880592,
9,"We don’t have to hang out all the time, or as much as we do now.”",3,3,None,None,,,0,9,9,9,0,45,45,45,,,,,,,,,,,,,,,,,,,,,9,1.18484635599998,,,,,,,,,,,,,,,,,olivia,001,2019_Jan_24_1604,body_behavioural,60.06338428880592,
9,Thomas chewed on his bottom lip and picked at his now bleeding hangnail. ,3,3,20.0,None,,,0,9,9,9,0,46,46,46,,,,,,,,,,,,,,,,,,,,,9,1.7197728559999632,,,,,,,,,,,,,,,,,olivia,001,2019_Jan_24_1604,body_behavioural,60.06338428880592,
9,"At that moment, the waiter arrived with the burger and reuben, and set them on the table.",4,3,None,None,,,0,9,9,9,0,47,47,47,,,,,,,,,,,,,,,,,,,,,1,1.8207811699999183,,,,,,,,,,,,,,,,,olivia,001,2019_Jan_24_1604,body_behavioural,60.06338428880592,
9, “Is there anything else I can get for you two?,4,3,None,None,,,0,9,9,9,0,48,48,48,,,,,,,,,,,,,,,,,,,,,9,0.8835202540001319,,,,,,,,,,,,,,,,,olivia,001,2019_Jan_24_1604,body_behavioural,60.06338428880592,
9,Will you be getting desserts tonight?” he asked.,4,3,None,None,,,0,9,9,9,0,49,49,49,,,,,,,,,,,,,,,,,,,,,9,1.2353691390001131,,,,,,,,,,,,,,,,,olivia,001,2019_Jan_24_1604,body_behavioural,60.06338428880592,
9,"“Oh no, we’re good, thanks.” Thomas said.",4,3,None,None,,,0,9,9,9,0,50,50,50,,,,,,,,,,,,,,,,,,,,,9,1.251375238000037,,,,,,,,,,,,,,,,,olivia,001,2019_Jan_24_1604,body_behavioural,60.06338428880592,
9,"Once the waiter had quickly walked away, Thomas sighed and said, “Sadie, I’m sorry.",4,3,None,None,,,0,9,9,9,0,51,51,51,,,,,,,,,,,,,,,,,,,,,9,1.6549207320001642,,,,,,,,,,,,,,,,,olivia,001,2019_Jan_24_1604,body_behavioural,60.06338428880592,
9,"You are so great, and I love hanging out with you.",4,3,None,None,,,0,9,9,9,0,52,52,52,,,,,,,,,,,,,,,,,,,,,9,0.6015163140000368,,,,,,,,,,,,,,,,,olivia,001,2019_Jan_24_1604,body_behavioural,60.06338428880592,
9,"But I need some time, I’m so sorry.”",4,3,None,None,,,0,9,9,9,0,53,53,53,,,,,,,,,,,,,,,,,,,,,9,0.6017845490000582,,,,,,,,,,,,,,,,,olivia,001,2019_Jan_24_1604,body_behavioural,60.06338428880592,
9,"He grabbed her hand, and she pulled it out of his.",4,3,None,None,,,0,9,9,9,0,54,54,54,,,,,,,,,,,,,,,,,,,,,9,0.7522311739999168,,,,,,,,,,,,,,,,,olivia,001,2019_Jan_24_1604,body_behavioural,60.06338428880592,
9,"“Sadie,” he said.",4,3,None,17.0,,,0,9,9,9,0,55,55,55,,,,,,,,,,,,,,,,,,,,,9,0.5852950700000292,,,,,,,,,,,,,,,,,olivia,001,2019_Jan_24_1604,body_behavioural,60.06338428880592,
9," She stood up, grabbed half the reuben, and shook it at him as she growled, “Don’t follow me and don’t talk to me anymore.”",4,4,None,None,,,0,9,9,9,0,56,56,56,,,,,,,,,,,,,,,,,,,,,9,1.1518165229999795,,,,,,,,,,,,,,,,,olivia,001,2019_Jan_24_1604,body_behavioural,60.06338428880592,
9,"Sadie's heels clacked loudly against the black and white linoleum, and the bell above the door jingled cheerfully as the door closed behind her.",4,4,None,None,,,0,9,9,9,0,57,57,57,,,,,,,,,,,,,,,,,,,,,9,1.3160262420001345,,,,,,,,,,,,,,,,,olivia,001,2019_Jan_24_1604,body_behavioural,60.06338428880592,
9,Thomas sat there for awhile in shock at how quickly everything transpired. ,4,4,None,None,,,0,9,9,9,0,58,58,58,,,,,,,,,,,,,,,,,,,,,9,1.286549593000018,,,,,,,,,,,,,,,,,olivia,001,2019_Jan_24_1604,body_behavioural,60.06338428880592,
9,"He grabbed his burger, and took a bite of it, but it tasted dry and fishy.",4,4,None,None,,,0,9,9,9,0,59,59,59,,,,,,,,,,,,,,,,,,,,,9,3.351185305999934,,,,,,,,,,,,,,,,,olivia,001,2019_Jan_24_1604,body_behavioural,60.06338428880592,
9,"He dropped it back on his plate, wondering if the restaurant was responsible for the foul taste in his mouth. ",4,4,13.0,5.0,,,0,9,9,9,0,60,60,60,,,,,,,,,,,,,,,,,,,,,9,2.6353231900000083,,,,,,,,,,,,,,,,,olivia,001,2019_Jan_24_1604,body_behavioural,60.06338428880592,
9,,,,,,,,0,9,9,9,,,,,,,,,,,,,,,,,,,,,,,,,,,,,,,,,,,,,,,,,,,olivia,001,2019_Jan_24_1604,body_behavioural,60.06338428880592,
10,Mr. Shelton and Mr. Gordon shook hands inside the foyer of the restaurant: lunch today was about big business. ,1,1,,,,,0,10,10,10,0,0,0,0,,,,,,,,,,,,,,,,,,,space,0.8493452440000056,1,9.83806824599992,,,,,,,,,,,,,,,,,olivia,001,2019_Jan_24_1604,body_behavioural,60.06338428880592,
10,Mr. Shelton and Mr. Gordon both were CEOs of airplane manufacturing companies.,1,1,,,,,0,10,10,10,0,1,1,1,,,,,,,,,,,,,,,,,,,,,9,2.7405568640001547,,,,,,,,,,,,,,,,,olivia,001,2019_Jan_24_1604,body_behavioural,60.06338428880592,
10,"Mr. Shelton was in charge of a larger, well-established company and had been in the aviation business for decades, whereas Mr. Gordon led a smaller but technologically-advanced company that was projected to disrupt the airplane manufacturing market. ",1,1,,,,,0,10,10,10,0,2,2,2,,,,,,,,,,,,,,,,,,,,,9,4.551655518999951,,,,,,,,,,,,,,,,,olivia,001,2019_Jan_24_1604,body_behavioural,60.06338428880592,
10,"The restaurant they chose to meet at was old and fancy with high ceilings, dark wood paneling, and crystal chandeliers.",1,1,,,,,0,10,10,10,0,3,3,3,,,,,,,,,,,,,,,,,,,,,9,1.9677592630000618,,,,,,,,,,,,,,,,,olivia,001,2019_Jan_24_1604,body_behavioural,60.06338428880592,
10,"The waitress led them to their table in the back, and they settled into a private table in the corner by the fireplace. ",2,1,,,,,0,10,10,10,0,4,4,4,,,,,,,,,,,,,,,,,,,,,9,2.4351780310000777,,,,,,,,,,,,,,,,,olivia,001,2019_Jan_24_1604,body_behavioural,60.06338428880592,
10,The waitress brought out the menus and they broke the ice with some small talk.,2,1,,,,,0,10,10,10,0,5,5,5,,,,,,,,,,,,,,,,,,,,,9,1.5247883919998912,,,,,,,,,,,,,,,,,olivia,001,2019_Jan_24_1604,body_behavioural,60.06338428880592,
10,"Mr. Gordon took out a picture of his daughter and talked about her recent engagement, and Mr. Gordon boasted about his purchase of a Tesla. ",2,1,,,,,0,10,10,10,0,6,6,6,,,,,,,,,,,,,,,,,,,,,9,6.920077696999897,,,,,,,,,,,,,,,,,olivia,001,2019_Jan_24_1604,body_behavioural,60.06338428880592,
10,"They looked at the menus as well, which were full of Italian classics like Carbonara and Tiramisu, and in the back section of the menu was a lengthy drink selection.",2,1,,,,,0,10,10,10,0,7,7,7,,,,,,,,,,,,,,,,,,,,,9,3.3868659439999647,,,,,,,,,,,,,,,,,olivia,001,2019_Jan_24_1604,body_behavioural,60.06338428880592,
10,"After awhile, Mr. Shelton brought the conversation around to business.",2,2,,,,,0,10,10,10,0,8,8,8,,,,,,,,,,,,,,,,,,,,,1,3.491858149000109,,,,,,,,,,,,,,,,,olivia,001,2019_Jan_24_1604,body_behavioural,60.06338428880592,
10," “Mr. Gordon, we really admire what you’re doing at your company.",2,2,,,,,0,10,10,10,0,9,9,9,,,,,,,,,,,,,,,,,,,,,9,1.035287654000058,,,,,,,,,,,,,,,,,olivia,001,2019_Jan_24_1604,body_behavioural,60.06338428880592,
10,We think it’s genius; we want to support your vision and make this tiny company of yours internationally known.,2,2,,,,,0,10,10,10,0,10,10,10,,,,,,,,,,,,,,,,,,,,,9,5.284422918000018,,,,,,,,,,,,,,,,,olivia,001,2019_Jan_24_1604,body_behavioural,60.06338428880592,
10,"Honestly, your company doesn’t have the resources to reach international markets right now, maybe in a few years you could, but by that time, other companies would have filled your niche.",2,2,,,,,0,10,10,10,0,11,11,11,,,,,,,,,,,,,,,,,,,,,9,7.3363355870001214,,,,,,,,,,,,,,,,,olivia,001,2019_Jan_24_1604,body_behavioural,60.06338428880592,
10,I think we should join forces.”,2,2,,,,,0,10,10,10,0,12,12,12,,,,,,,,,,,,,,,,,,,,,9,2.3196036419999473,,,,,,,,,,,,,,,,,olivia,001,2019_Jan_24_1604,body_behavioural,60.06338428880592,
10,The waitress came up to them and asked if they were ready to order.,3,2,,,,,0,10,10,10,0,13,13,13,,,,,,,,,,,,,,,,,,,,,1,2.2855424439999297,,,,,,,,,,,,,,,,,olivia,001,2019_Jan_24_1604,body_behavioural,60.06338428880592,
10,"Mr. Gordon ordered a medium-rare steak and martini, and Mr. Shelton ordered veal and a manhattan. ",3,2,,,,,0,10,10,10,0,14,14,14,,,,,,,,,,,,,,,,,,,,,9,3.0055370570000832,,,,,,,,,,,,,,,,,olivia,001,2019_Jan_24_1604,body_behavioural,60.06338428880592,
10,"Then Mr. Shelton continued, “Look, I’ve talked to other members of the board, and we are prepared to offer $600 million to buy your company. ",3,2,,,,,0,10,10,10,0,15,15,15,,,,,,,,,,,,,,,,,,,,,9,3.351830284000016,,,,,,,,,,,,,,,,,olivia,001,2019_Jan_24_1604,body_behavioural,60.06338428880592,
10," We'd keep on all of your current employees, and you would join as the director of your company branch.” ",3,2,,,,,0,10,10,10,0,16,16,16,,,,,,,,,,,,,,,,,,,,,9,1.735022226999945,,,,,,,,,,,,,,,,,olivia,001,2019_Jan_24_1604,body_behavioural,60.06338428880592,
10,Mr. Gordon sat looking at Mr. Shelton for a few moments considering his response. ,3,2,,,,,0,10,10,10,0,17,17,17,,,,,,,,,,,,,,,,,,,,,1,2.0024434740000743,,,,,,,,,,,,,,,,,olivia,001,2019_Jan_24_1604,body_behavioural,60.06338428880592,
10, He looked at Mr. Shelton skeptically.,3,2,,,,,0,10,10,10,0,18,18,18,,,,,,,,,,,,,,,,,,,,,9,1.519808070999943,,,,,,,,,,,,,,,,,olivia,001,2019_Jan_24_1604,body_behavioural,60.06338428880592,
10,"“Mr. Shelton, I think that you make a compelling case, but there are definitely some disadvantages to attaching our small, streamlined productions to a large company like yours.",3,3,,,,,0,10,10,10,0,19,19,19,,,,,,,,,,,,,,,,,,,,,9,6.118926124999916,,,,,,,,,,,,,,,,,olivia,001,2019_Jan_24_1604,body_behavioural,60.06338428880592,
10,"We operate in a very different way than a large company, and the kind of administrative complexity that makes the scale of your productions possible would suffocate our business.",3,3,,,,,0,10,10,10,0,20,20,20,,,,,,,,,,,,,,,,,,,,,9,1.5338553149999825,,,,,,,,,,,,,,,,,olivia,001,2019_Jan_24_1604,body_behavioural,60.06338428880592,
10,"With our product, scaling-up doesn’t necessarily make sense.” ",3,3,,,,,0,10,10,10,0,21,21,21,,,,,,,,,,,,,,,,,,,,,9,1.2865190200000143,,,,,,,,,,,,,,,,,olivia,001,2019_Jan_24_1604,body_behavioural,60.06338428880592,
10,Mr. Shelton had expected this response and had come prepared.,3,3,,,,,0,10,10,10,0,22,22,22,,,,,,,,,,,,,,,,,,,,,9,6.952637149000111,,,,,,,,,,,,,,,,,olivia,001,2019_Jan_24_1604,body_behavioural,60.06338428880592,
10,He began laying out the details of how he had handled similar acquisitions successfully in the past.,3,3,,,,,0,10,10,10,0,23,23,23,,,,,,,,,,,,,,,,,,,,,9,0.8366994749999321,,,,,,,,,,,,,,,,,olivia,001,2019_Jan_24_1604,body_behavioural,60.06338428880592,
10,"Mr. Gordon was impressed, and they went back and forth hashing out what the company configuration would look like post-merger. ",3,3,,,,,0,10,10,10,0,24,24,24,,,,,,,,,,,,,,,,,,,,,9,2.1848021739999695,,,,,,,,,,,,,,,,,olivia,001,2019_Jan_24_1604,body_behavioural,60.06338428880592,
10,"The waitress brought the food out, interrupting their animated conversation.",4,3,,,,,0,10,10,10,0,25,25,25,,,,,,,,,,,,,,,,,,,,,9,2.5011053919999995,,,,,,,,,,,,,,,,,olivia,001,2019_Jan_24_1604,body_behavioural,60.06338428880592,
10,“Oh this looks so good!” Mr. Gordon said. ,4,3,,,,,0,10,10,10,0,26,26,26,,,,,,,,,,,,,,,,,,,,,9,1.9870231999998396,,,,,,,,,,,,,,,,,olivia,001,2019_Jan_24_1604,body_behavioural,60.06338428880592,
10, “Can I get you anything else?” the waitress asked.,4,3,,,,,0,10,10,10,0,27,27,27,,,,,,,,,,,,,,,,,,,,,9,0.9177843190000203,,,,,,,,,,,,,,,,,olivia,001,2019_Jan_24_1604,body_behavioural,60.06338428880592,
10,"They declined, and continued to talk.",4,3,,,,,0,10,10,10,0,28,28,28,,,,,,,,,,,,,,,,,,,,,9,1.168191348999926,,,,,,,,,,,,,,,,,olivia,001,2019_Jan_24_1604,body_behavioural,60.06338428880592,
10,"The meal lived up to the reputation of the restaurant, which was known for having the best cuts of meat in the area.",4,3,,,,,0,10,10,10,0,29,29,29,,,,,,,,,,,,,,,,,,,,,9,2.470654495999952,,,,,,,,,,,,,,,,,olivia,001,2019_Jan_24_1604,body_behavioural,60.06338428880592,
10,"Mr. Gordon, after taking a thoughtful bite of his food, said, “Mr. Shelton, I think we have a deal. ",4,4,,,,,0,10,10,10,0,30,30,30,,,,,,,,,,,,,,,,,,,,,1,2.5336330289999296,,,,,,,,,,,,,,,,,olivia,001,2019_Jan_24_1604,body_behavioural,60.06338428880592,
10,"If you can guarantee that I can still have the final say in the all the work done by my team, I think this could be beneficial for both of us.",4,4,,,,,0,10,10,10,0,31,31,31,,,,,,,,,,,,,,,,,,,,,9,1.3858482149998963,,,,,,,,,,,,,,,,,olivia,001,2019_Jan_24_1604,body_behavioural,60.06338428880592,
10,I propose a toast to the merging of our companies.”,4,4,,,,,0,10,10,10,0,32,32,32,,,,,,,,,,,,,,,,,,,,,9,1.0360434209999312,,,,,,,,,,,,,,,,,olivia,001,2019_Jan_24_1604,body_behavioural,60.06338428880592,
10,Mr. Shelton grinned and lifted his martini to clink glasses.,4,4,,,,,0,10,10,10,0,33,33,33,,,,,,,,,,,,,,,,,,,,,9,1.2005324410001776,,,,,,,,,,,,,,,,,olivia,001,2019_Jan_24_1604,body_behavioural,60.06338428880592,
10,“Cheers to a lifelong partnership and to the growth of your company.” ,4,4,,,,,0,10,10,10,0,34,34,34,,,,,,,,,,,,,,,,,,,,,9,1.0842627859999538,,,,,,,,,,,,,,,,,olivia,001,2019_Jan_24_1604,body_behavioural,60.06338428880592,
10,,,,,,,,0,10,10,10,,,,,,,,,,,,,,,,,,,,,,,,,,,,,,,,,,,,,,,,,,,olivia,001,2019_Jan_24_1604,body_behavioural,60.06338428880592,
11,"Simon and Carina noticed each other as they walked into the grocery store at the same time, their carts nearly colliding as they squeezed into the entrance.",1,1,,,,,0,11,11,11,0,0,0,0,,,,,,,,,,,,,,,,,,,space,0.9187806490001549,1,6.454860927000027,,,,,,,,,,,,,,,,,olivia,001,2019_Jan_24_1604,body_behavioural,60.06338428880592,
11,"They were both new to the Boston area, and this was their first time in this store. ",1,1,,,,,0,11,11,11,0,1,1,1,,,,,,,,,,,,,,,,,,,,,9,4.351627191999796,,,,,,,,,,,,,,,,,olivia,001,2019_Jan_24_1604,body_behavioural,60.06338428880592,
11,"It kind of looked like a large warehouse, with high unfurnished ceilings, industrial lights, and large packages of food. ",1,1,,,,,0,11,11,11,0,2,2,2,,,,,,,,,,,,,,,,,,,,,9,4.018948436000073,,,,,,,,,,,,,,,,,olivia,001,2019_Jan_24_1604,body_behavioural,60.06338428880592,
11,"They went off along separate routes, but soon ended up back together in the meat section. ",2,1,,,,,0,11,11,11,0,3,3,3,,,,,,,,,,,,,,,,,,,,,9,3.8262835100001666,,,,,,,,,,,,,,,,,olivia,001,2019_Jan_24_1604,body_behavioural,60.06338428880592,
11,"They were both preparing for barbecues, so they were looking over the same cuts of ribs. ",2,1,,,,,0,11,11,11,0,4,4,4,,,,,,,,,,,,,,,,,,,,,1,5.4073726530000386,,,,,,,,,,,,,,,,,olivia,001,2019_Jan_24_1604,body_behavioural,60.06338428880592,
11,"Simon really wanted to talk to Carina, and Carina really wanted to say something to Simon, but they felt embarrassed striking up a conversation with a stranger.",2,1,,,,,0,11,11,11,0,5,5,5,,,,,,,,,,,,,,,,,,,,,9,3.6361860549998255,,,,,,,,,,,,,,,,,olivia,001,2019_Jan_24_1604,body_behavioural,60.06338428880592,
