count,storyText,locationEvent,socialEvent,story,instructText,trials.thisRepN,trials.thisTrialN,trials.thisN,trials.thisIndex,trials_7.thisRepN,trials_7.thisTrialN,trials_7.thisN,trials_7.thisIndex,trials_2.thisRepN,trials_2.thisTrialN,trials_2.thisN,trials_2.thisIndex,trials_3.thisRepN,trials_3.thisTrialN,trials_3.thisN,trials_3.thisIndex,trials_4.thisRepN,trials_4.thisTrialN,trials_4.thisN,trials_4.thisIndex,trials_5.thisRepN,trials_5.thisTrialN,trials_5.thisN,trials_5.thisIndex,trials_6.thisRepN,trials_6.thisTrialN,trials_6.thisN,trials_6.thisIndex,trials_8.thisRepN,trials_8.thisTrialN,trials_8.thisN,trials_8.thisIndex,order of stories,order of perspectives,key_resp_8.keys,key_resp_8.rt,key_resp_5.keys,key_resp_5.rt,key_resp_7.keys,key_resp_7.rt,key_resp_15.keys,key_resp_15.rt,key_resp_14.keys,key_resp_14.rt,story_presses.keys,story_presses.rt,story time,key_resp_6.keys,key_resp_6.rt,key_resp_2.keys,key_resp_2.rt,key_resp_10.keys,key_resp_10.rt,recall time,key_resp_12.keys,key_resp_12.rt,key_resp_3.keys,key_resp_3.rt,key_resp_11.keys,key_resp_11.rt,recall,question1_answer,order of question,question2_answer,question3_answer,question4_answer,question5_answer,question6_answer,question7_answer,question8_answer,questions time,key_resp_13.keys,key_resp_13.rt,participant,session,date,expName,psychopyVersion,frameRate,
0,,,,,,0,0,0,0,0,0,0,0,,,,,,,,,,,,,,,,,,,,,,,,,[44 31 13 23 12 22 41 34],"['Location' 'Location' 'Location' 'Social' 'Social' 'Location' 'Social'
 'Social']",space,15.351777060015593,space,3.3675858200294897,space,3.1029319649678655,,,,,,,,,,,,,,,,,,,,,,,,,,,,,,,,,,062719_p3,001,2019_Jun_27_1618,body_behavioural,3.0.4,60.067534065175934,
0,"Ariana hurried into the classroom, and Leon did a double-take when he saw her, almost dropping the eraser he had in his hand. ",1.0,1.0,44.0,,0,0,0,0,,,,,0,0,0,0,,,,,,,,,,,,,,,,,,,,,,,,,,,,,space,3.434324484958779,space,2.4039268759661354,9,26.255245679989457,,,,,,,,,,,,,,,,,,,,,,,,,,,,062719_p3,001,2019_Jun_27_1618,body_behavioural,3.0.4,60.067534065175934,
0,"This was his first day in college, and he had assumed that he wouldn’t know anyone on campus, but he had a strong feeling that he had seen her somewhere before. ",1.0,1.0,None,,0,0,0,0,,,,,0,1,1,1,,,,,,,,,,,,,,,,,,,,,,,,,,,,,,,,,1,14.104199227993377,,,,,,,,,,,,,,,,,,,,,,,,,,,,062719_p3,001,2019_Jun_27_1618,body_behavioural,3.0.4,60.067534065175934,
0,They were in a small classroom with rows of chairs with foldable desks.,1.0,1.0,None,,0,0,0,0,,,,,0,2,2,2,,,,,,,,,,,,,,,,,,,,,,,,,,,,,,,,,1,6.220432678004727,,,,,,,,,,,,,,,,,,,,,,,,,,,,062719_p3,001,2019_Jun_27_1618,body_behavioural,3.0.4,60.067534065175934,
0,These faced the speaker’s podium and a blackboard on wheels. ,None,None,None,,0,0,0,0,,,,,0,3,3,3,,,,,,,,,,,,,,,,,,,,,,,,,,,,,,,,,1,8.620492209971417,,,,,,,,,,,,,,,,,,,,,,,,,,,,062719_p3,001,2019_Jun_27_1618,body_behavioural,3.0.4,60.067534065175934,
0,"There were no windows in the room, since they were down in the basement of the History Department.",1.0,1.0,None,,0,0,0,0,,,,,0,4,4,4,,,,,,,,,,,,,,,,,,,,,,,,,,,,,,,,,1,4.63647215499077,,,,,,,,,,,,,,,,,,,,,,,,,,,,062719_p3,001,2019_Jun_27_1618,body_behavioural,3.0.4,60.067534065175934,
0,"Leon, trying to figure out where he had seen her before, could not stop looking over at Ariana.",1.0,1.0,None,,0,0,0,0,,,,,0,5,5,5,,,,,,,,,,,,,,,,,,,,,,,,,,,,,,,,,1,7.586666514980607,,,,,,,,,,,,,,,,,,,,,,,,,,,,062719_p3,001,2019_Jun_27_1618,body_behavioural,3.0.4,60.067534065175934,
0,Ariana was oblivious to Leon’s gaze and was only focused on getting ready for class. ,1.0,1.0,None,,0,0,0,0,,,,,0,6,6,6,,,,,,,,,,,,,,,,,,,,,,,,,,,,,,,,,1,6.069217059004586,,,,,,,,,,,,,,,,,,,,,,,,,,,,062719_p3,001,2019_Jun_27_1618,body_behavioural,3.0.4,60.067534065175934,
0,"“Good morning, everyone,” the professor began.",2.0,1.0,None,,0,0,0,0,,,,,0,7,7,7,,,,,,,,,,,,,,,,,,,,,,,,,,,,,,,,,1,4.119830251962412,,,,,,,,,,,,,,,,,,,,,,,,,,,,062719_p3,001,2019_Jun_27_1618,body_behavioural,3.0.4,60.067534065175934,
0,“Welcome to History of Egypt. ,2.0,1.0,None,,0,0,0,0,,,,,0,8,8,8,,,,,,,,,,,,,,,,,,,,,,,,,,,,,,,,,1,2.1530969429877587,,,,,,,,,,,,,,,,,,,,,,,,,,,,062719_p3,001,2019_Jun_27_1618,body_behavioural,3.0.4,60.067534065175934,
0,"Today we will be talking about mummification, one of the most famous and often misunderstood customs in ancient Egyptian society.”",2.0,1.0,None,,0,0,0,0,,,,,0,9,9,9,,,,,,,,,,,,,,,,,,,,,,,,,,,,,,,,,1,9.10340639500646,,,,,,,,,,,,,,,,,,,,,,,,,,,,062719_p3,001,2019_Jun_27_1618,body_behavioural,3.0.4,60.067534065175934,
0,Leon and Ariana began taking notes. ,2.0,1.0,None,,0,0,0,0,,,,,0,10,10,10,,,,,,,,,,,,,,,,,,,,,,,,,,,,,,,,,1,2.7364525629673153,,,,,,,,,,,,,,,,,,,,,,,,,,,,062719_p3,001,2019_Jun_27_1618,body_behavioural,3.0.4,60.067534065175934,
0,"Within a few minutes, Leon found his attention wandering from the lecture and back to Ariana, and he decided to do something about it by putting a note on her desk.",2.0,2.0,None,,0,0,0,0,,,,,0,11,11,11,,,,,,,,,,,,,,,,,,,,,,,,,,,,,,,,,1,11.7042663070024,,,,,,,,,,,,,,,,,,,,,,,,,,,,062719_p3,001,2019_Jun_27_1618,body_behavioural,3.0.4,60.067534065175934,
0,"“Are you from LA?” it read, “Sorry to distract you from mummies, but you look really familiar.”",2.0,2.0,None,,0,0,0,0,,,,,0,12,12,12,,,,,,,,,,,,,,,,,,,,,,,,,,,,,,,,,1,5.318448416015599,,,,,,,,,,,,,,,,,,,,,,,,,,,,062719_p3,001,2019_Jun_27_1618,body_behavioural,3.0.4,60.067534065175934,
0,"She looked at the note with surprise, and then turned to notice Leon for the first time. ",2.0,2.0,None,,0,0,0,0,,,,,0,13,13,13,,,,,,,,,,,,,,,,,,,,,,,,,,,,,,,,,1,4.0202326840371825,,,,,,,,,,,,,,,,,,,,,,,,,,,,062719_p3,001,2019_Jun_27_1618,body_behavioural,3.0.4,60.067534065175934,
0,She instantly liked him when she saw him.,2.0,2.0,None,,0,0,0,0,,,,,0,14,14,14,,,,,,,,,,,,,,,,,,,,,,,,,,,,,,,,,1,4.803940240002703,,,,,,,,,,,,,,,,,,,,,,,,,,,,062719_p3,001,2019_Jun_27_1618,body_behavioural,3.0.4,60.067534065175934,
0,She thought he looked trustworthy and genuine.,2.0,2.0,None,,0,0,0,0,,,,,0,15,15,15,,,,,,,,,,,,,,,,,,,,,,,,,,,,,,,,,1,3.4530928150052205,,,,,,,,,,,,,,,,,,,,,,,,,,,,062719_p3,001,2019_Jun_27_1618,body_behavioural,3.0.4,60.067534065175934,
0,"Ariana passed the note back to Leon, and she had replied, “No, but maybe my twin and I were separated at birth.”",2.0,2.0,None,,0,0,0,0,,,,,0,16,16,16,,,,,,,,,,,,,,,,,,,,,,,,,,,,,,,,,1,7.300502658006735,,,,,,,,,,,,,,,,,,,,,,,,,,,,062719_p3,001,2019_Jun_27_1618,body_behavioural,3.0.4,60.067534065175934,
0,"The professor continued, “One may well question why the ancient Egyptians spent so much time and effort on their funerary practices.",3.0,2.0,None,,0,0,0,0,,,,,0,17,17,17,,,,,,,,,,,,,,,,,,,,,,,,,,,,,,,,,9,21.953978907957207,,,,,,,,,,,,,,,,,,,,,,,,,,,,062719_p3,001,2019_Jun_27_1618,body_behavioural,3.0.4,60.067534065175934,
0,"Not only was the mummification process itself a complicated affair, but there were also elaborate rituals before, during, and after death.",3.0,2.0,None,,0,0,0,0,,,,,0,18,18,18,,,,,,,,,,,,,,,,,,,,,,,,,,,,,,,,,1,10.734712485049386,,,,,,,,,,,,,,,,,,,,,,,,,,,,062719_p3,001,2019_Jun_27_1618,body_behavioural,3.0.4,60.067534065175934,
0,The practice required teams of experts with years of training and took a total of 70 days to complete.” ,3.0,2.0,None,,0,0,0,0,,,,,0,19,19,19,,,,,,,,,,,,,,,,,,,,,,,,,,,,,,,,,1,4.870129810005892,,,,,,,,,,,,,,,,,,,,,,,,,,,,062719_p3,001,2019_Jun_27_1618,body_behavioural,3.0.4,60.067534065175934,
0,"They passed notes back and forth the whole class like they were in high school, and Leon wrote in one, “Would you like to go on a walk this evening?”",3.0,3.0,None,,0,0,0,0,,,,,0,20,20,20,,,,,,,,,,,,,,,,,,,,,,,,,,,,,,,,,9,13.486354172986466,,,,,,,,,,,,,,,,,,,,,,,,,,,,062719_p3,001,2019_Jun_27_1618,body_behavioural,3.0.4,60.067534065175934,
0,"When Ariana read this, she looked at him and nodded her head",3.0,3.0,None,,0,0,0,0,,,,,0,21,21,21,,,,,,,,,,,,,,,,,,,,,,,,,,,,,,,,,1,3.6683992799953558,,,,,,,,,,,,,,,,,,,,,,,,,,,,062719_p3,001,2019_Jun_27_1618,body_behavioural,3.0.4,60.067534065175934,
0,"She wrote back on the slip of paper, “Let’s meet at 8 in front of my dorm, Patton Hall.”",3.0,3.0,None,,0,0,0,0,,,,,0,22,22,22,,,,,,,,,,,,,,,,,,,,,,,,,,,,,,,,,1,5.384500670013949,,,,,,,,,,,,,,,,,,,,,,,,,,,,062719_p3,001,2019_Jun_27_1618,body_behavioural,3.0.4,60.067534065175934,
0,The professor ended the lecture and announced to the class that they would have their first quiz next class on Friday on mummification. ,4.0,3.0,None,,0,0,0,0,,,,,0,23,23,23,,,,,,,,,,,,,,,,,,,,,,,,,,,,,,,,,1,7.036798155051656,,,,,,,,,,,,,,,,,,,,,,,,,,,,062719_p3,001,2019_Jun_27_1618,body_behavioural,3.0.4,60.067534065175934,
0,Everyone packed up and filed out of the classroom except for Ariana and Leon. ,4.0,3.0,None,,0,0,0,0,,,,,0,24,24,24,,,,,,,,,,,,,,,,,,,,,,,,,,,,,,,,,1,2.669834597967565,,,,,,,,,,,,,,,,,,,,,,,,,,,,062719_p3,001,2019_Jun_27_1618,body_behavioural,3.0.4,60.067534065175934,
0,"Ariana spoke first, “I have to go to my next class.”",4.0,4.0,None,,0,0,0,0,,,,,0,25,25,25,,,,,,,,,,,,,,,,,,,,,,,,,,,,,,,,,1,2.067826400976628,,,,,,,,,,,,,,,,,,,,,,,,,,,,062719_p3,001,2019_Jun_27_1618,body_behavioural,3.0.4,60.067534065175934,
0,"She looked at the clock which read noon and headed for the door saying, “I should run, but I’ll see you later tonight!” ",4.0,4.0,None,,0,0,0,0,,,,,0,26,26,26,,,,,,,,,,,,,,,,,,,,,,,,,,,,,,,,,1,7.254310890042689,,,,,,,,,,,,,,,,,,,,,,,,,,,,062719_p3,001,2019_Jun_27_1618,body_behavioural,3.0.4,60.067534065175934,
0,"She waved as she ran out the door, and Leon was still pondering where he had known her before, even more convinced that they had met before having heard her voice.",4.0,4.0,None,,0,0,0,0,,,,,0,27,27,27,,,,,,,,,,,,,,,,,,,,,,,,,,,,,,,,,1,10.603741420025472,,,,,,,,,,,,,,,,,,,,,,,,,,,,062719_p3,001,2019_Jun_27_1618,body_behavioural,3.0.4,60.067534065175934,
0,,,,,,0,0,0,0,,,,,,,,,,,,,,,,,,,,,,,,,,,,,,,,,,,,,,,,,,,,,,,,,,,,,,,,,,,,,,,,,,,,,,062719_p3,001,2019_Jun_27_1618,body_behavioural,3.0.4,60.067534065175934,
1,,,,,,0,1,1,1,0,0,0,0,,,,,,,,,,,,,,,,,,,,,,,,,,,space,2.369746443000622,space,1.8689349650521763,space,1.8025343680055812,,,,,,,,,,,,,,,,,,,,,,,,,,,,,,,,,,062719_p3,001,2019_Jun_27_1618,body_behavioural,3.0.4,60.067534065175934,
1,Mr. Shelton and Mr. Gordon shook hands inside the waiting area of the restaurant: lunch today was about big business. ,1,1,31.0,,0,1,1,1,,,,,0,0,0,0,,,,,,,,,,,,,,,,,,,,,,,,,,,,,space,1.8693554879864678,space,1.8696611230261624,9,15.704112700012047,,,,,,,,,,,,,,,,,,,,,,,,,,,,062719_p3,001,2019_Jun_27_1618,body_behavioural,3.0.4,60.067534065175934,
1,They were both in the airplane manufacturing industry.,1,1,None,,0,1,1,1,,,,,0,1,1,1,,,,,,,,,,,,,,,,,,,,,,,,,,,,,,,,,1,11.886879357974976,,,,,,,,,,,,,,,,,,,,,,,,,,,,062719_p3,001,2019_Jun_27_1618,body_behavioural,3.0.4,60.067534065175934,
1,"Mr. Shelton was the CFO of a larger, well-established company and had been in the aviation business for decades.",1,1,None,,0,1,1,1,,,,,0,2,2,2,,,,,,,,,,,,,,,,,,,,,,,,,,,,,,,,,9,9.236944284988567,,,,,,,,,,,,,,,,,,,,,,,,,,,,062719_p3,001,2019_Jun_27_1618,body_behavioural,3.0.4,60.067534065175934,
1,Mr. Gordon was the CEO of a smaller but technologically-advanced company that was projected to disrupt the airplane manufacturing market. ,1,1,None,,0,1,1,1,,,,,0,3,3,3,,,,,,,,,,,,,,,,,,,,,,,,,,,,,,,,,1,11.070394702022895,,,,,,,,,,,,,,,,,,,,,,,,,,,,062719_p3,001,2019_Jun_27_1618,body_behavioural,3.0.4,60.067534065175934,
1,"They chose to meet at an old steakhouse with dark wood paneling on the floor and ceilings, taxidermy animals on the walls, and a candelabra on every table.",1,1,None,,0,1,1,1,,,,,0,4,4,4,,,,,,,,,,,,,,,,,,,,,,,,,,,,,,,,,1,12.970582904992625,,,,,,,,,,,,,,,,,,,,,,,,,,,,062719_p3,001,2019_Jun_27_1618,body_behavioural,3.0.4,60.067534065175934,
1,The waitress seated them at their table in the back. ,2,1,None,,0,1,1,1,,,,,0,5,5,5,,,,,,,,,,,,,,,,,,,,,,,,,,,,,,,,,1,3.4862826730241068,,,,,,,,,,,,,,,,,,,,,,,,,,,,062719_p3,001,2019_Jun_27_1618,body_behavioural,3.0.4,60.067534065175934,
1,"She brought out the menus, and they briefly chatted about personal happenings. ",2,1,None,,0,1,1,1,,,,,0,6,6,6,,,,,,,,,,,,,,,,,,,,,,,,,,,,,,,,,1,6.953336030011997,,,,,,,,,,,,,,,,,,,,,,,,,,,,062719_p3,001,2019_Jun_27_1618,body_behavioural,3.0.4,60.067534065175934,
1,"Mr. Gordon took out a picture of his daughter and talked about her recent engagement, and Mr. Gordon mentioned his purchase of a Tesla. ",2,1,None,,0,1,1,1,,,,,0,7,7,7,,,,,,,,,,,,,,,,,,,,,,,,,,,,,,,,,9,12.653826530033257,,,,,,,,,,,,,,,,,,,,,,,,,,,,062719_p3,001,2019_Jun_27_1618,body_behavioural,3.0.4,60.067534065175934,
1,They also looked over the menus which were heavy and covered in felt.,2,1,None,,0,1,1,1,,,,,0,8,8,8,,,,,,,,,,,,,,,,,,,,,,,,,,,,,,,,,1,9.987124159990344,,,,,,,,,,,,,,,,,,,,,,,,,,,,062719_p3,001,2019_Jun_27_1618,body_behavioural,3.0.4,60.067534065175934,
1,Flipping to the back of the menu brought one to a lengthy drink selection.,2,1,None,,0,1,1,1,,,,,0,9,9,9,,,,,,,,,,,,,,,,,,,,,,,,,,,,,,,,,1,5.669716878037434,,,,,,,,,,,,,,,,,,,,,,,,,,,,062719_p3,001,2019_Jun_27_1618,body_behavioural,3.0.4,60.067534065175934,
1,Mr. Shelton got serious and brought the conversation around to business.,2,2,None,,0,1,1,1,,,,,0,10,10,10,,,,,,,,,,,,,,,,,,,,,,,,,,,,,,,,,9,9.786851044977084,,,,,,,,,,,,,,,,,,,,,,,,,,,,062719_p3,001,2019_Jun_27_1618,body_behavioural,3.0.4,60.067534065175934,
1,"“Mr. Gordon, we really admire what you’re doing at your company.",2,2,None,,0,1,1,1,,,,,0,11,11,11,,,,,,,,,,,,,,,,,,,,,,,,,,,,,,,,,1,6.0511475229868665,,,,,,,,,,,,,,,,,,,,,,,,,,,,062719_p3,001,2019_Jun_27_1618,body_behavioural,3.0.4,60.067534065175934,
1,We think it’s genius; we want to support your vision and make this tiny company of yours internationally known.,2,2,None,,0,1,1,1,,,,,0,12,12,12,,,,,,,,,,,,,,,,,,,,,,,,,,,,,,,,,1,7.720076904981397,,,,,,,,,,,,,,,,,,,,,,,,,,,,062719_p3,001,2019_Jun_27_1618,body_behavioural,3.0.4,60.067534065175934,
1,"But honestly, your company doesn’t have the resources to reach international markets right now.",2,2,None,,0,1,1,1,,,,,0,13,13,13,,,,,,,,,,,,,,,,,,,,,,,,,,,,,,,,,1,6.619657120027114,,,,,,,,,,,,,,,,,,,,,,,,,,,,062719_p3,001,2019_Jun_27_1618,body_behavioural,3.0.4,60.067534065175934,
1,"Maybe in a few years you could, but by that time, other companies may have already filled your niche.",2,2,None,,0,1,1,1,,,,,0,14,14,14,,,,,,,,,,,,,,,,,,,,,,,,,,,,,,,,,1,7.970166442974005,,,,,,,,,,,,,,,,,,,,,,,,,,,,062719_p3,001,2019_Jun_27_1618,body_behavioural,3.0.4,60.067534065175934,
1,I think we should join forces.”,2,2,None,,0,1,1,1,,,,,0,15,15,15,,,,,,,,,,,,,,,,,,,,,,,,,,,,,,,,,1,2.3698889950173907,,,,,,,,,,,,,,,,,,,,,,,,,,,,062719_p3,001,2019_Jun_27_1618,body_behavioural,3.0.4,60.067534065175934,
1,The waitress arrived and asked if they were ready to order.,3,2,None,,0,1,1,1,,,,,0,16,16,16,,,,,,,,,,,,,,,,,,,,,,,,,,,,,,,,,1,5.519871975004207,,,,,,,,,,,,,,,,,,,,,,,,,,,,062719_p3,001,2019_Jun_27_1618,body_behavioural,3.0.4,60.067534065175934,
1,"Mr. Gordon chose the medium-rare steak and a martini, and Mr. Shelton ordered the veal and a manhattan. ",3,2,None,,0,1,1,1,,,,,0,17,17,17,,,,,,,,,,,,,,,,,,,,,,,,,,,,,,,,,1,9.670811147952918,,,,,,,,,,,,,,,,,,,,,,,,,,,,062719_p3,001,2019_Jun_27_1618,body_behavioural,3.0.4,60.067534065175934,
1,"Then Mr. Shelton continued, “Look, I’ve talked to other members of the board, and we are prepared to offer $600 million to buy your company. ",3,2,None,,0,1,1,1,,,,,0,18,18,18,,,,,,,,,,,,,,,,,,,,,,,,,,,,,,,,,1,11.935078909969889,,,,,,,,,,,,,,,,,,,,,,,,,,,,062719_p3,001,2019_Jun_27_1618,body_behavioural,3.0.4,60.067534065175934,
1,"We'd keep on all of your current employees, and you would join as the director of your company branch.” ",3,2,None,,0,1,1,1,,,,,0,19,19,19,,,,,,,,,,,,,,,,,,,,,,,,,,,,,,,,,1,8.384612997993827,,,,,,,,,,,,,,,,,,,,,,,,,,,,062719_p3,001,2019_Jun_27_1618,body_behavioural,3.0.4,60.067534065175934,
1,"Mr. Gordon looked at Mr. Shelton skeptically for a few moments considering his response until he said, “Mr. Shelton, I think that you make a compelling offer, but there are definitely some disadvantages to attaching our small, streamlined productions to a large company like yours.",3,3,None,,0,1,1,1,,,,,0,20,20,20,,,,,,,,,,,,,,,,,,,,,,,,,,,,,,,,,1,14.268210879992694,,,,,,,,,,,,,,,,,,,,,,,,,,,,062719_p3,001,2019_Jun_27_1618,body_behavioural,3.0.4,60.067534065175934,
1,"We operate in a very different way than a large company, and the kind of administrative complexity that makes the scale of your productions possible would suffocate our business.",3,3,None,,0,1,1,1,,,,,0,21,21,21,,,,,,,,,,,,,,,,,,,,,,,,,,,,,,,,,1,11.301364033017308,,,,,,,,,,,,,,,,,,,,,,,,,,,,062719_p3,001,2019_Jun_27_1618,body_behavioural,3.0.4,60.067534065175934,
1,"With our product, scaling-up doesn’t necessarily make sense.” ",3,3,None,,0,1,1,1,,,,,0,22,22,22,,,,,,,,,,,,,,,,,,,,,,,,,,,,,,,,,1,3.6527513649780303,,,,,,,,,,,,,,,,,,,,,,,,,,,,062719_p3,001,2019_Jun_27_1618,body_behavioural,3.0.4,60.067534065175934,
1,Mr. Shelton had expected this response and had come prepared.,3,3,None,,0,1,1,1,,,,,0,23,23,23,,,,,,,,,,,,,,,,,,,,,,,,,,,,,,,,,1,5.485790759033989,,,,,,,,,,,,,,,,,,,,,,,,,,,,062719_p3,001,2019_Jun_27_1618,body_behavioural,3.0.4,60.067534065175934,
1,He began laying out the details of how he had handled similar acquisitions successfully in the past.,3,3,None,,0,1,1,1,,,,,0,24,24,24,,,,,,,,,,,,,,,,,,,,,,,,,,,,,,,,,9,5.736722328001633,,,,,,,,,,,,,,,,,,,,,,,,,,,,062719_p3,001,2019_Jun_27_1618,body_behavioural,3.0.4,60.067534065175934,
1,"He also played out projections of how Mr. Gordon’s company could out-compete their own main competitor in the industry, TechJet, by using the resources of a larger corporation. ",3,3,None,,0,1,1,1,,,,,0,25,25,25,,,,,,,,,,,,,,,,,,,,,,,,,,,,,,,,,1,25.52142298797844,,,,,,,,,,,,,,,,,,,,,,,,,,,,062719_p3,001,2019_Jun_27_1618,body_behavioural,3.0.4,60.067534065175934,
1,"Mr. Gordon was impressed, and they went back and forth hashing out what the company configuration would look like post-merger. ",3,3,None,,0,1,1,1,,,,,0,26,26,26,,,,,,,,,,,,,,,,,,,,,,,,,,,,,,,,,9,9.603210345027037,,,,,,,,,,,,,,,,,,,,,,,,,,,,062719_p3,001,2019_Jun_27_1618,body_behavioural,3.0.4,60.067534065175934,
1,The waitress brought out their food on a large tray.,4,3,None,,0,1,1,1,,,,,0,27,27,27,,,,,,,,,,,,,,,,,,,,,,,,,,,,,,,,,1,10.970464505022392,,,,,,,,,,,,,,,,,,,,,,,,,,,,062719_p3,001,2019_Jun_27_1618,body_behavioural,3.0.4,60.067534065175934,
1,“Oh this looks so good!” Mr. Gordon said. ,4,3,None,,0,1,1,1,,,,,0,28,28,28,,,,,,,,,,,,,,,,,,,,,,,,,,,,,,,,,1,2.4864163600141183,,,,,,,,,,,,,,,,,,,,,,,,,,,,062719_p3,001,2019_Jun_27_1618,body_behavioural,3.0.4,60.067534065175934,
1, “Can I get you anything else?” the waitress asked.,4,3,None,,0,1,1,1,,,,,0,29,29,29,,,,,,,,,,,,,,,,,,,,,,,,,,,,,,,,,1,3.086625070020091,,,,,,,,,,,,,,,,,,,,,,,,,,,,062719_p3,001,2019_Jun_27_1618,body_behavioural,3.0.4,60.067534065175934,
1,They declined and began to eat. ,4,3,None,,0,1,1,1,,,,,0,30,30,30,,,,,,,,,,,,,,,,,,,,,,,,,,,,,,,,,1,2.7365414300002158,,,,,,,,,,,,,,,,,,,,,,,,,,,,062719_p3,001,2019_Jun_27_1618,body_behavioural,3.0.4,60.067534065175934,
1,The meal was subpar- they both found the meat to be a bit overcooked and dry. ,4,3,None,,0,1,1,1,,,,,0,31,31,31,,,,,,,,,,,,,,,,,,,,,,,,,,,,,,,,,9,6.7530273090233095,,,,,,,,,,,,,,,,,,,,,,,,,,,,062719_p3,001,2019_Jun_27_1618,body_behavioural,3.0.4,60.067534065175934,
1,"Mr. Gordon, after taking a contemplative bite and swallowing, said, “Mr. Shelton, I think we have a deal. ",4,4,None,,0,1,1,1,,,,,0,32,32,32,,,,,,,,,,,,,,,,,,,,,,,,,,,,,,,,,1,8.420550945040304,,,,,,,,,,,,,,,,,,,,,,,,,,,,062719_p3,001,2019_Jun_27_1618,body_behavioural,3.0.4,60.067534065175934,
1,"If you can guarantee that I can still have the final say in the all the work done by my team, I think this could be beneficial for both of us.",4,4,None,,0,1,1,1,,,,,0,33,33,33,,,,,,,,,,,,,,,,,,,,,,,,,,,,,,,,,1,9.653594622039236,,,,,,,,,,,,,,,,,,,,,,,,,,,,062719_p3,001,2019_Jun_27_1618,body_behavioural,3.0.4,60.067534065175934,
1,I propose a toast to the merging of our companies.”,4,4,None,,0,1,1,1,,,,,0,34,34,34,,,,,,,,,,,,,,,,,,,,,,,,,,,,,,,,,1,3.4364484529942274,,,,,,,,,,,,,,,,,,,,,,,,,,,,062719_p3,001,2019_Jun_27_1618,body_behavioural,3.0.4,60.067534065175934,
1,Mr. Shelton grinned and lifted his martini to clink glasses.,4,4,None,,0,1,1,1,,,,,0,35,35,35,,,,,,,,,,,,,,,,,,,,,,,,,,,,,,,,,1,2.719882836972829,,,,,,,,,,,,,,,,,,,,,,,,,,,,062719_p3,001,2019_Jun_27_1618,body_behavioural,3.0.4,60.067534065175934,
1,"He said, “Cheers to a lifelong partnership and to the growth of our company.” ",4,4,None,,0,1,1,1,,,,,0,36,36,36,,,,,,,,,,,,,,,,,,,,,,,,,,,,,,,,,1,3.486534274998121,,,,,,,,,,,,,,,,,,,,,,,,,,,,062719_p3,001,2019_Jun_27_1618,body_behavioural,3.0.4,60.067534065175934,
1,,,,,,0,1,1,1,,,,,,,,,,,,,,,,,,,,,,,,,,,,,,,,,,,,,,,,,,,,,,,,,,,,,,,,,,,,,,,,,,,,,,062719_p3,001,2019_Jun_27_1618,body_behavioural,3.0.4,60.067534065175934,
2,,,,,,0,2,2,2,0,0,0,0,,,,,,,,,,,,,,,,,,,,,,,,,,,space,1.3352071439730935,space,0.9701997239608318,space,0.4703097809688188,,,,,,,,,,,,,,,,,,,,,,,,,,,,,,,,,,062719_p3,001,2019_Jun_27_1618,body_behavioural,3.0.4,60.067534065175934,
2,The grocery store was not the place Emmanuella and Liam wanted to be at the moment considering that they had been fighting to the point where Emmanuella was thinking of breaking up with Liam.,1.0,1.0,13.0,,0,2,2,2,,,,,0,0,0,0,,,,,,,,,,,,,,,,,,,,,,,,,,,,,space,0.8862067330046557,space,0.9029601399670355,9,26.121386312996037,,,,,,,,,,,,,,,,,,,,,,,,,,,,062719_p3,001,2019_Jun_27_1618,body_behavioural,3.0.4,60.067534065175934,
2,Emmanuella had been thinking of breaking up with Liam for the past 5 months.,None,None,None,,0,2,2,2,,,,,0,1,1,1,,,,,,,,,,,,,,,,,,,,,,,,,,,,,,,,,1,5.37025097804144,,,,,,,,,,,,,,,,,,,,,,,,,,,,062719_p3,001,2019_Jun_27_1618,body_behavioural,3.0.4,60.067534065175934,
2,"Despite the current tension, they had to go grocery shopping because they were hosting a dinner party for friends that evening and had little at home with which to cook. ",1.0,1.0,None,,0,2,2,2,,,,,0,2,2,2,,,,,,,,,,,,,,,,,,,,,,,,,,,,,,,,,9,16.020865069993306,,,,,,,,,,,,,,,,,,,,,,,,,,,,062719_p3,001,2019_Jun_27_1618,body_behavioural,3.0.4,60.067534065175934,
2,"The grocery store smelled like lavender upon entering and was dimly lit with pine shelves in the entrance and obscure, organic products displayed on them.",1.0,1.0,None,,0,2,2,2,,,,,0,3,3,3,,,,,,,,,,,,,,,,,,,,,,,,,,,,,,,,,9,12.835654521011747,,,,,,,,,,,,,,,,,,,,,,,,,,,,062719_p3,001,2019_Jun_27_1618,body_behavioural,3.0.4,60.067534065175934,
2,"In the pasta section, Emmanuella grabbed a few boxes of bow-tie pasta.",2.0,1.0,None,,0,2,2,2,,,,,0,4,4,4,,,,,,,,,,,,,,,,,,,,,,,,,,,,,,,,,9,9.521001943037845,,,,,,,,,,,,,,,,,,,,,,,,,,,,062719_p3,001,2019_Jun_27_1618,body_behavioural,3.0.4,60.067534065175934,
2,"“I guess we are having a pasta dish tonight,” Liam said.",2.0,1.0,None,,0,2,2,2,,,,,0,5,5,5,,,,,,,,,,,,,,,,,,,,,,,,,,,,,,,,,1,4.119907489977777,,,,,,,,,,,,,,,,,,,,,,,,,,,,062719_p3,001,2019_Jun_27_1618,body_behavioural,3.0.4,60.067534065175934,
2,"Emmanuella looked back at him and said, “Well if you were going to actually help cook, I would be fine with something else.”",2.0,1.0,None,,0,2,2,2,,,,,0,6,6,6,,,,,,,,,,,,,,,,,,,,,,,,,,,,,,,,,1,7.86833415995352,,,,,,,,,,,,,,,,,,,,,,,,,,,,062719_p3,001,2019_Jun_27_1618,body_behavioural,3.0.4,60.067534065175934,
2,"Liam sighed, and finally said, “You know- you don’t want me to help.",2.0,1.0,None,,0,2,2,2,,,,,0,7,7,7,,,,,,,,,,,,,,,,,,,,,,,,,,,,,,,,,1,4.434899622981902,,,,,,,,,,,,,,,,,,,,,,,,,,,,062719_p3,001,2019_Jun_27_1618,body_behavioural,3.0.4,60.067534065175934,
2,"I try to, but it seems like I always get in the way!” ",2.0,1.0,None,,0,2,2,2,,,,,0,8,8,8,,,,,,,,,,,,,,,,,,,,,,,,,,,,,,,,,1,3.4866612579789944,,,,,,,,,,,,,,,,,,,,,,,,,,,,062719_p3,001,2019_Jun_27_1618,body_behavioural,3.0.4,60.067534065175934,
2,Emmanuella shook her head and dropped the pasta boxes in the basket she was holding.,2.0,1.0,None,,0,2,2,2,,,,,0,9,9,9,,,,,,,,,,,,,,,,,,,,,,,,,,,,,,,,,1,5.586719074985012,,,,,,,,,,,,,,,,,,,,,,,,,,,,062719_p3,001,2019_Jun_27_1618,body_behavioural,3.0.4,60.067534065175934,
2," “Like you even try,” she mumbled to herself. ",2.0,1.0,None,,0,2,2,2,,,,,0,10,10,10,,,,,,,,,,,,,,,,,,,,,,,,,,,,,,,,,1,2.3532469150377437,,,,,,,,,,,,,,,,,,,,,,,,,,,,062719_p3,001,2019_Jun_27_1618,body_behavioural,3.0.4,60.067534065175934,
2,She continued down the aisle and studied a jar of vodka sauce and a can of olives before putting them in the basket as well. ,2.0,1.0,None,,0,2,2,2,,,,,0,11,11,11,,,,,,,,,,,,,,,,,,,,,,,,,,,,,,,,,1,7.687003822997212,,,,,,,,,,,,,,,,,,,,,,,,,,,,062719_p3,001,2019_Jun_27_1618,body_behavioural,3.0.4,60.067534065175934,
2,"Emmanuella suddenly wrinkled her eyebrows, turned to Liam, and said, “I want to break up since I’m tired of the constant fighting. ",2.0,2.0,None,,0,2,2,2,,,,,0,12,12,12,,,,,,,,,,,,,,,,,,,,,,,,,,,,,,,,,9,8.370133157994132,,,,,,,,,,,,,,,,,,,,,,,,,,,,062719_p3,001,2019_Jun_27_1618,body_behavioural,3.0.4,60.067534065175934,
2,"I was going to wait until after this horribly-timed dinner party tonight to talk about this, but I might as well say it now.",2.0,2.0,None,,0,2,2,2,,,,,0,13,13,13,,,,,,,,,,,,,,,,,,,,,,,,,,,,,,,,,1,9.284747654979583,,,,,,,,,,,,,,,,,,,,,,,,,,,,062719_p3,001,2019_Jun_27_1618,body_behavioural,3.0.4,60.067534065175934,
2,"I feel like when we try to do anything anymore it ends up unpleasant for the stupidest reasons, and I am just past trying to work things out.”",2.0,2.0,None,,0,2,2,2,,,,,0,14,14,14,,,,,,,,,,,,,,,,,,,,,,,,,,,,,,,,,1,10.851344977971166,,,,,,,,,,,,,,,,,,,,,,,,,,,,062719_p3,001,2019_Jun_27_1618,body_behavioural,3.0.4,60.067534065175934,
2,Liam was nodding automatically.,2.0,2.0,None,,0,2,2,2,,,,,0,15,15,15,,,,,,,,,,,,,,,,,,,,,,,,,,,,,,,,,1,3.136202969995793,,,,,,,,,,,,,,,,,,,,,,,,,,,,062719_p3,001,2019_Jun_27_1618,body_behavioural,3.0.4,60.067534065175934,
2,"In the checkout area, there was only one station open, Station 2, but it was not very crowded.",3.0,2.0,None,,0,2,2,2,,,,,0,16,16,16,,,,,,,,,,,,,,,,,,,,,,,,,,,,,,,,,9,6.553423224948347,,,,,,,,,,,,,,,,,,,,,,,,,,,,062719_p3,001,2019_Jun_27_1618,body_behavioural,3.0.4,60.067534065175934,
2,They got in line.,3.0,2.0,None,,0,2,2,2,,,,,0,17,17,17,,,,,,,,,,,,,,,,,,,,,,,,,,,,,,,,,1,2.786671469977591,,,,,,,,,,,,,,,,,,,,,,,,,,,,062719_p3,001,2019_Jun_27_1618,body_behavioural,3.0.4,60.067534065175934,
2,"Liam gazed in the direction of the magazines, but his eyes were glazed over as he was working things out in his head while Emmanuella scrutinized the pasta sauce again. ",3.0,2.0,None,,0,2,2,2,,,,,0,18,18,18,,,,,,,,,,,,,,,,,,,,,,,,,,,,,,,,,1,12.603916879976168,,,,,,,,,,,,,,,,,,,,,,,,,,,,062719_p3,001,2019_Jun_27_1618,body_behavioural,3.0.4,60.067534065175934,
2,"After a few minutes of thinking, Liam recollected himself, turned to her, and sighed, “Yes, I think the same thing.",3.0,3.0,None,,0,2,2,2,,,,,0,19,19,19,,,,,,,,,,,,,,,,,,,,,,,,,,,,,,,,,1,8.103459254954942,,,,,,,,,,,,,,,,,,,,,,,,,,,,062719_p3,001,2019_Jun_27_1618,body_behavioural,3.0.4,60.067534065175934,
2,I think we should break up because we could definitely be happier with other people.” ,3.0,3.0,None,,0,2,2,2,,,,,0,20,20,20,,,,,,,,,,,,,,,,,,,,,,,,,,,,,,,,,1,4.736644839984365,,,,,,,,,,,,,,,,,,,,,,,,,,,,062719_p3,001,2019_Jun_27_1618,body_behavioural,3.0.4,60.067534065175934,
2,Emmanuella nodded as she listened. ,3.0,3.0,None,,0,2,2,2,,,,,0,21,21,21,,,,,,,,,,,,,,,,,,,,,,,,,,,,,,,,,1,2.1198425400070846,,,,,,,,,,,,,,,,,,,,,,,,,,,,062719_p3,001,2019_Jun_27_1618,body_behavioural,3.0.4,60.067534065175934,
2,The cashier scanned their groceries.,4.0,3.0,None,,0,2,2,2,,,,,0,22,22,22,,,,,,,,,,,,,,,,,,,,,,,,,,,,,,,,,9,3.420014477975201,,,,,,,,,,,,,,,,,,,,,,,,,,,,062719_p3,001,2019_Jun_27_1618,body_behavioural,3.0.4,60.067534065175934,
2,"The cost came to $30, and Emmanuella paid with her credit card.",4.0,3.0,None,,0,2,2,2,,,,,0,23,23,23,,,,,,,,,,,,,,,,,,,,,,,,,,,,,,,,,1,4.086361672962084,,,,,,,,,,,,,,,,,,,,,,,,,,,,062719_p3,001,2019_Jun_27_1618,body_behavioural,3.0.4,60.067534065175934,
2,"She asked Liam politely to take the bags, and he obliged, following her to the exit. ",4.0,3.0,None,,0,2,2,2,,,,,0,24,24,24,,,,,,,,,,,,,,,,,,,,,,,,,,,,,,,,,1,10.15412759798346,,,,,,,,,,,,,,,,,,,,,,,,,,,,062719_p3,001,2019_Jun_27_1618,body_behavioural,3.0.4,60.067534065175934,
2,"Filled with a sudden wave of sadness, Emmanuella said, “Liam, I think we are making the right decision- this is good.”",4.0,4.0,None,,0,2,2,2,,,,,0,25,25,25,,,,,,,,,,,,,,,,,,,,,,,,,,,,,,,,,9,12.220792509964667,,,,,,,,,,,,,,,,,,,,,,,,,,,,062719_p3,001,2019_Jun_27_1618,body_behavioural,3.0.4,60.067534065175934,
2,"“I agree,” he said, relieved at the hope he was entertaining that they had just gotten through their last fight. ",4.0,4.0,None,,0,2,2,2,,,,,0,26,26,26,,,,,,,,,,,,,,,,,,,,,,,,,,,,,,,,,1,8.053246452007443,,,,,,,,,,,,,,,,,,,,,,,,,,,,062719_p3,001,2019_Jun_27_1618,body_behavioural,3.0.4,60.067534065175934,
2,"“I think we can still host this dinner tonight, as long as you're still on board,” Emmanuella said.",4.0,4.0,None,,0,2,2,2,,,,,0,27,27,27,,,,,,,,,,,,,,,,,,,,,,,,,,,,,,,,,1,3.6701716349925846,,,,,,,,,,,,,,,,,,,,,,,,,,,,062719_p3,001,2019_Jun_27_1618,body_behavioural,3.0.4,60.067534065175934,
2,"Liam nodded, “Yes, let’s just not tell anyone we’ve broken up tonight.” ",4.0,4.0,None,,0,2,2,2,,,,,0,28,28,28,,,,,,,,,,,,,,,,,,,,,,,,,,,,,,,,,1,5.6531235800357535,,,,,,,,,,,,,,,,,,,,,,,,,,,,062719_p3,001,2019_Jun_27_1618,body_behavioural,3.0.4,60.067534065175934,
2,"Emmanuella laughed, “Whoever leaks it loses their right to the cat.”",4.0,4.0,None,,0,2,2,2,,,,,0,29,29,29,,,,,,,,,,,,,,,,,,,,,,,,,,,,,,,,,1,4.237093174946494,,,,,,,,,,,,,,,,,,,,,,,,,,,,062719_p3,001,2019_Jun_27_1618,body_behavioural,3.0.4,60.067534065175934,
2,"Liam chuckled and responded, “Hey!",4.0,4.0,None,,0,2,2,2,,,,,0,30,30,30,,,,,,,,,,,,,,,,,,,,,,,,,,,,,,,,,1,2.503142113040667,,,,,,,,,,,,,,,,,,,,,,,,,,,,062719_p3,001,2019_Jun_27_1618,body_behavioural,3.0.4,60.067534065175934,
2,Luna is mine and I want her back.”,4.0,4.0,None,,0,2,2,2,,,,,0,31,31,31,,,,,,,,,,,,,,,,,,,,,,,,,,,,,,,,,1,3.550730695016682,,,,,,,,,,,,,,,,,,,,,,,,,,,,062719_p3,001,2019_Jun_27_1618,body_behavioural,3.0.4,60.067534065175934,
2,"Emmanuella rolled her eyes, knowing the cat would be a whole other issue to sort out later.
",4.0,4.0,None,,0,2,2,2,,,,,0,32,32,32,,,,,,,,,,,,,,,,,,,,,,,,,,,,,,,,,1,3.9865231700241566,,,,,,,,,,,,,,,,,,,,,,,,,,,,062719_p3,001,2019_Jun_27_1618,body_behavioural,3.0.4,60.067534065175934,
2,,,,,,0,2,2,2,,,,,,,,,,,,,,,,,,,,,,,,,,,,,,,,,,,,,,,,,,,,,,,,,,,,,,,,,,,,,,,,,,,,,,062719_p3,001,2019_Jun_27_1618,body_behavioural,3.0.4,60.067534065175934,
3,,,,,,0,3,3,3,0,0,0,0,,,,,,,,,,,,,,,,,,,,,,,,,,,space,1.4007608300307766,space,0.5697127370513044,space,0.5025979549973272,,,,,,,,,,,,,,,,,,,,,,,,,,,,,,,,,,062719_p3,001,2019_Jun_27_1618,body_behavioural,3.0.4,60.067534065175934,
3,"Alex was a distracted, sweaty mess as he walked into the grocery store with Chloe; he was hoping that she wouldn't suspect that he was about to propose.",1,1,23.0,,0,3,3,3,,,,,0,0,0,0,,,,,,,,,,,,,,,,,,,,,,,,,,,,,space,1.0353379410225898,space,0.953049971954897,9,18.421459675009828,,,,,,,,,,,,,,,,,,,,,,,,,,,,062719_p3,001,2019_Jun_27_1618,body_behavioural,3.0.4,60.067534065175934,
3,The grocery store was brightly lit with sunshine pouring in through glass walls at the front of the store.,1,1,None,,0,3,3,3,,,,,0,1,1,1,,,,,,,,,,,,,,,,,,,,,,,,,,,,,,,,,9,39.42259082000237,,,,,,,,,,,,,,,,,,,,,,,,,,,,062719_p3,001,2019_Jun_27_1618,body_behavioural,3.0.4,60.067534065175934,
3,Also in the front area were large posters advertising thanksgiving promotions.,1,1,None,,0,3,3,3,,,,,0,2,2,2,,,,,,,,,,,,,,,,,,,,,,,,,,,,,,,,,1,6.1192001909948885,,,,,,,,,,,,,,,,,,,,,,,,,,,,062719_p3,001,2019_Jun_27_1618,body_behavioural,3.0.4,60.067534065175934,
3,"The store was buzzing with activity because the next day was Thanksgiving, and most shoppers had carts piled high with turkey, stuffing, and pies.",1,1,None,,0,3,3,3,,,,,0,3,3,3,,,,,,,,,,,,,,,,,,,,,,,,,,,,,,,,,1,8.153758637025021,,,,,,,,,,,,,,,,,,,,,,,,,,,,062719_p3,001,2019_Jun_27_1618,body_behavioural,3.0.4,60.067534065175934,
3,Alex wanted to propose here because he knew Chloe would be wonderfully surprised. ,1,1,None,,0,3,3,3,,,,,0,4,4,4,,,,,,,,,,,,,,,,,,,,,,,,,,,,,,,,,9,6.667398469988257,,,,,,,,,,,,,,,,,,,,,,,,,,,,062719_p3,001,2019_Jun_27_1618,body_behavioural,3.0.4,60.067534065175934,
3,"After 23 months of dating, Alex knew one of the things Chloe loved most was surprises. ",1,1,None,,0,3,3,3,,,,,0,5,5,5,,,,,,,,,,,,,,,,,,,,,,,,,,,,,,,,,9,46.50649052701192,,,,,,,,,,,,,,,,,,,,,,,,,,,,062719_p3,001,2019_Jun_27_1618,body_behavioural,3.0.4,60.067534065175934,
3,"Chloe perused the canned goods aisle, and said, “Alex, we need a couple things.”",2,1,None,,0,3,3,3,,,,,0,6,6,6,,,,,,,,,,,,,,,,,,,,,,,,,,,,,,,,,9,3.3686486139777116,,,,,,,,,,,,,,,,,,,,,,,,,,,,062719_p3,001,2019_Jun_27_1618,body_behavioural,3.0.4,60.067534065175934,
3,"He didn’t hear her and was fanning himself, and Chloe asked him if he was okay.",2,1,None,,0,3,3,3,,,,,0,7,7,7,,,,,,,,,,,,,,,,,,,,,,,,,,,,,,,,,9,4.386964362987783,,,,,,,,,,,,,,,,,,,,,,,,,,,,062719_p3,001,2019_Jun_27_1618,body_behavioural,3.0.4,60.067534065175934,
3,"“Oh yeah, for sure,” he said, unconvincingly. ",2,1,None,,0,3,3,3,,,,,0,8,8,8,,,,,,,,,,,,,,,,,,,,,,,,,,,,,,,,,9,2.619172892998904,,,,,,,,,,,,,,,,,,,,,,,,,,,,062719_p3,001,2019_Jun_27_1618,body_behavioural,3.0.4,60.067534065175934,
3,"She chuckled, “Alright, whatever you say.” ",2,1,None,,0,3,3,3,,,,,0,9,9,9,,,,,,,,,,,,,,,,,,,,,,,,,,,,,,,,,9,1.136265379958786,,,,,,,,,,,,,,,,,,,,,,,,,,,,062719_p3,001,2019_Jun_27_1618,body_behavioural,3.0.4,60.067534065175934,
3,"She had a can of pumpkin puree and a bottle of vinegar picked out, and she was now mulling over the different cans of cranberry sauce.",2,1,None,,0,3,3,3,,,,,0,10,10,10,,,,,,,,,,,,,,,,,,,,,,,,,,,,,,,,,9,29.18822952802293,,,,,,,,,,,,,,,,,,,,,,,,,,,,062719_p3,001,2019_Jun_27_1618,body_behavioural,3.0.4,60.067534065175934,
3,"Alex was guessing she would be a while, and he turned his back to her and pulled out the ring to look at it one more time. ",2,2,None,,0,3,3,3,,,,,0,11,11,11,,,,,,,,,,,,,,,,,,,,,,,,,,,,,,,,,1,11.370433422969654,,,,,,,,,,,,,,,,,,,,,,,,,,,,062719_p3,001,2019_Jun_27_1618,body_behavioural,3.0.4,60.067534065175934,
3,The ring a thin band with one white diamond that glittered excessively in the light. ,2,2,None,,0,3,3,3,,,,,0,12,12,12,,,,,,,,,,,,,,,,,,,,,,,,,,,,,,,,,1,61.60691595100798,,,,,,,,,,,,,,,,,,,,,,,,,,,,062719_p3,001,2019_Jun_27_1618,body_behavioural,3.0.4,60.067534065175934,
3,“Do we need anything else?” she called out to him. ,2,2,None,,0,3,3,3,,,,,0,13,13,13,,,,,,,,,,,,,,,,,,,,,,,,,,,,,,,,,1,1.9368802279932424,,,,,,,,,,,,,,,,,,,,,,,,,,,,062719_p3,001,2019_Jun_27_1618,body_behavioural,3.0.4,60.067534065175934,
3,"“Yeah I don’t know, honey,” he said back, still looking at the ring. ",2,2,None,,0,3,3,3,,,,,0,14,14,14,,,,,,,,,,,,,,,,,,,,,,,,,,,,,,,,,1,2.703005907998886,,,,,,,,,,,,,,,,,,,,,,,,,,,,062719_p3,001,2019_Jun_27_1618,body_behavioural,3.0.4,60.067534065175934,
3,"In the checkout area, there were 5 aisles open and they stepped in line for station 3. ",3,2,None,,0,3,3,3,,,,,0,15,15,15,,,,,,,,,,,,,,,,,,,,,,,,,,,,,,,,,9,4.81992124998942,,,,,,,,,,,,,,,,,,,,,,,,,,,,062719_p3,001,2019_Jun_27_1618,body_behavioural,3.0.4,60.067534065175934,
3,Alex was staring intensely off into the distance for most of the time and fidgeting with his wallet. ,3,2,None,,0,3,3,3,,,,,0,16,16,16,,,,,,,,,,,,,,,,,,,,,,,,,,,,,,,,,1,5.551787447009701,,,,,,,,,,,,,,,,,,,,,,,,,,,,062719_p3,001,2019_Jun_27_1618,body_behavioural,3.0.4,60.067534065175934,
3,"Chloe watched him trying to decide whether he looked scared or confused, and shrugged, pulling out her phone since she figured he’d talk about whatever was on his mind when he was ready. ",3,2,None,,0,3,3,3,,,,,0,17,17,17,,,,,,,,,,,,,,,,,,,,,,,,,,,,,,,,,1,10.018023030017503,,,,,,,,,,,,,,,,,,,,,,,,,,,,062719_p3,001,2019_Jun_27_1618,body_behavioural,3.0.4,60.067534065175934,
3,Alex looked over at their friends who were waiting by the entrance of the grocery store.,3,2,None,,0,3,3,3,,,,,0,18,18,18,,,,,,,,,,,,,,,,,,,,,,,,,,,,,,,,,1,6.70341851800913,,,,,,,,,,,,,,,,,,,,,,,,,,,,062719_p3,001,2019_Jun_27_1618,body_behavioural,3.0.4,60.067534065175934,
3,They walked over slowly. ,3,2,None,,0,3,3,3,,,,,0,19,19,19,,,,,,,,,,,,,,,,,,,,,,,,,,,,,,,,,1,1.0507692099781707,,,,,,,,,,,,,,,,,,,,,,,,,,,,062719_p3,001,2019_Jun_27_1618,body_behavioural,3.0.4,60.067534065175934,
3,"Seemingly out of nowhere, Alex took Chloe’s hand and he got down on one knee. ",3,3,None,,0,3,3,3,,,,,0,20,20,20,,,,,,,,,,,,,,,,,,,,,,,,,,,,,,,,,1,4.286242329981178,,,,,,,,,,,,,,,,,,,,,,,,,,,,062719_p3,001,2019_Jun_27_1618,body_behavioural,3.0.4,60.067534065175934,
3,Chloe gasped,3,3,None,,0,3,3,3,,,,,0,21,21,21,,,,,,,,,,,,,,,,,,,,,,,,,,,,,,,,,1,0.7198928130092099,,,,,,,,,,,,,,,,,,,,,,,,,,,,062719_p3,001,2019_Jun_27_1618,body_behavioural,3.0.4,60.067534065175934,
3,"“Chloe, I love you so much and I want to be with you forever, I can’t imagine a day without you.”",3,3,None,,0,3,3,3,,,,,0,22,22,22,,,,,,,,,,,,,,,,,,,,,,,,,,,,,,,,,1,4.503710507007781,,,,,,,,,,,,,,,,,,,,,,,,,,,,062719_p3,001,2019_Jun_27_1618,body_behavioural,3.0.4,60.067534065175934,
3,"“Alex, me too,” she replied.",3,3,None,,0,3,3,3,,,,,0,23,23,23,,,,,,,,,,,,,,,,,,,,,,,,,,,,,,,,,1,0.9841608430142514,,,,,,,,,,,,,,,,,,,,,,,,,,,,062719_p3,001,2019_Jun_27_1618,body_behavioural,3.0.4,60.067534065175934,
3,"The ring was in the crevice of his wallet, and he opened it.",3,3,None,,0,3,3,3,,,,,0,24,24,24,,,,,,,,,,,,,,,,,,,,,,,,,,,,,,,,,1,3.319428635004442,,,,,,,,,,,,,,,,,,,,,,,,,,,,062719_p3,001,2019_Jun_27_1618,body_behavioural,3.0.4,60.067534065175934,
3,“Will you marry me?”,3,3,None,,0,3,3,3,,,,,0,25,25,25,,,,,,,,,,,,,,,,,,,,,,,,,,,,,,,,,1,0.8034477169858292,,,,,,,,,,,,,,,,,,,,,,,,,,,,062719_p3,001,2019_Jun_27_1618,body_behavioural,3.0.4,60.067534065175934,
3,"The people in line around them realized what was happening, stepped back, and started taking pictures.",3,3,None,,0,3,3,3,,,,,0,26,26,26,,,,,,,,,,,,,,,,,,,,,,,,,,,,,,,,,1,5.069968593015801,,,,,,,,,,,,,,,,,,,,,,,,,,,,062719_p3,001,2019_Jun_27_1618,body_behavioural,3.0.4,60.067534065175934,
3,Their friends were no longer trying to hide and were videotaping and taking pictures too. ,3,3,None,,0,3,3,3,,,,,0,27,27,27,,,,,,,,,,,,,,,,,,,,,,,,,,,,,,,,,1,7.920157237967942,,,,,,,,,,,,,,,,,,,,,,,,,,,,062719_p3,001,2019_Jun_27_1618,body_behavioural,3.0.4,60.067534065175934,
3,"After a few moments of suspense she shouted,“Yes!”, and she jumped to embrace Alex in a hug. ",3,4,None,,0,3,3,3,,,,,0,28,28,28,,,,,,,,,,,,,,,,,,,,,,,,,,,,,,,,,9,8.234524425002746,,,,,,,,,,,,,,,,,,,,,,,,,,,,062719_p3,001,2019_Jun_27_1618,body_behavioural,3.0.4,60.067534065175934,
3,Everyone in line clapped and cheered. ,3,4,None,,0,3,3,3,,,,,0,29,29,29,,,,,,,,,,,,,,,,,,,,,,,,,,,,,,,,,1,1.7531456549768336,,,,,,,,,,,,,,,,,,,,,,,,,,,,062719_p3,001,2019_Jun_27_1618,body_behavioural,3.0.4,60.067534065175934,
3,"Alex put the ring on Chloe’s finger, who was nearly spinning in excitement.",3,4,None,,0,3,3,3,,,,,0,30,30,30,,,,,,,,,,,,,,,,,,,,,,,,,,,,,,,,,1,2.3008496130350977,,,,,,,,,,,,,,,,,,,,,,,,,,,,062719_p3,001,2019_Jun_27_1618,body_behavioural,3.0.4,60.067534065175934,
3,“I love it!,3,4,None,,0,3,3,3,,,,,0,31,31,31,,,,,,,,,,,,,,,,,,,,,,,,,,,,,,,,,1,0.7339983799611218,,,,,,,,,,,,,,,,,,,,,,,,,,,,062719_p3,001,2019_Jun_27_1618,body_behavioural,3.0.4,60.067534065175934,
3,Oh my- it’s so glittery!,3,4,None,,0,3,3,3,,,,,0,32,32,32,,,,,,,,,,,,,,,,,,,,,,,,,,,,,,,,,1,1.286408180021681,,,,,,,,,,,,,,,,,,,,,,,,,,,,062719_p3,001,2019_Jun_27_1618,body_behavioural,3.0.4,60.067534065175934,
3,Look at this!” she said as she shoved her hand in a stranger’s face.,3,4,None,,0,3,3,3,,,,,0,33,33,33,,,,,,,,,,,,,,,,,,,,,,,,,,,,,,,,,1,3.219858562981244,,,,,,,,,,,,,,,,,,,,,,,,,,,,062719_p3,001,2019_Jun_27_1618,body_behavioural,3.0.4,60.067534065175934,
3,Their friends came over and hugged them.,3,4,None,,0,3,3,3,,,,,0,34,34,34,,,,,,,,,,,,,,,,,,,,,,,,,,,,,,,,,1,1.5532234879792668,,,,,,,,,,,,,,,,,,,,,,,,,,,,062719_p3,001,2019_Jun_27_1618,body_behavioural,3.0.4,60.067534065175934,
3,The other people let them move up to the front of the checkout line. ,3,4,None,,0,3,3,3,,,,,0,35,35,35,,,,,,,,,,,,,,,,,,,,,,,,,,,,,,,,,1,5.085419763985556,,,,,,,,,,,,,,,,,,,,,,,,,,,,062719_p3,001,2019_Jun_27_1618,body_behavioural,3.0.4,60.067534065175934,
3,Chloe immediately texted her mom a picture of her hand. ,3,4,None,,0,3,3,3,,,,,0,36,36,36,,,,,,,,,,,,,,,,,,,,,,,,,,,,,,,,,9,4.2516892770072445,,,,,,,,,,,,,,,,,,,,,,,,,,,,062719_p3,001,2019_Jun_27_1618,body_behavioural,3.0.4,60.067534065175934,
3,The cashier congratulated them and scanned their groceries. ,4,4,None,,0,3,3,3,,,,,0,37,37,37,,,,,,,,,,,,,,,,,,,,,,,,,,,,,,,,,1,2.9015308229718357,,,,,,,,,,,,,,,,,,,,,,,,,,,,062719_p3,001,2019_Jun_27_1618,body_behavioural,3.0.4,60.067534065175934,
3,The total came to $14 and Alex paid in cash while Chloe greeted their friends.,4,4,None,,0,3,3,3,,,,,0,38,38,38,,,,,,,,,,,,,,,,,,,,,,,,,,,,,,,,,1,4.318494702980388,,,,,,,,,,,,,,,,,,,,,,,,,,,,062719_p3,001,2019_Jun_27_1618,body_behavioural,3.0.4,60.067534065175934,
3,"Alex grabbed the bags, and they all walked out together working out where they’d go to celebrate.  ",4,4,None,,0,3,3,3,,,,,0,39,39,39,,,,,,,,,,,,,,,,,,,,,,,,,,,,,,,,,1,8.419765904953238,,,,,,,,,,,,,,,,,,,,,,,,,,,,062719_p3,001,2019_Jun_27_1618,body_behavioural,3.0.4,60.067534065175934,
3,,,,,,0,3,3,3,,,,,,,,,,,,,,,,,,,,,,,,,,,,,,,,,,,,,,,,,,,,,,,,,,,,,,,,,,,,,,,,,,,,,,062719_p3,001,2019_Jun_27_1618,body_behavioural,3.0.4,60.067534065175934,
4,,,,,,0,4,4,4,0,0,0,0,,,,,,,,,,,,,,,,,,,,,,,,,,,space,1.0699946269742213,space,0.9862484980258159,space,0.6365049000014551,,,,,,,,,,,,,,,,,,,,,,,,,,,,,,,,,,062719_p3,001,2019_Jun_27_1618,body_behavioural,3.0.4,60.067534065175934,
4,"It didn’t help the situation that Calvin and Jessie were running late to the airport, since Jessie had already been fuming at Calvin and preparing to end the relationship with him.",1,1,12.0,,0,4,4,4,,,,,0,0,0,0,,,,,,,,,,,,,,,,,,,,,,,,,,,,,space,0.8691418330417946,space,1.6031428700080141,9,16.087605433014687,,,,,,,,,,,,,,,,,,,,,,,,,,,,062719_p3,001,2019_Jun_27_1618,body_behavioural,3.0.4,60.067534065175934,
4,"Upon arriving at their terminal, they had only 45 minutes until their international flight would depart from Jamaica for the US.",1,1,None,,0,4,4,4,,,,,0,1,1,1,,,,,,,,,,,,,,,,,,,,,,,,,,,,,,,,,1,7.07045450998703,,,,,,,,,,,,,,,,,,,,,,,,,,,,062719_p3,001,2019_Jun_27_1618,body_behavioural,3.0.4,60.067534065175934,
4,"It had been a tough vacation, which was planned well before Jessie began to think of breaking up 6 weeks ago.  ",1,1,None,,0,4,4,4,,,,,0,2,2,2,,,,,,,,,,,,,,,,,,,,,,,,,,,,,,,,,1,10.70155032700859,,,,,,,,,,,,,,,,,,,,,,,,,,,,062719_p3,001,2019_Jun_27_1618,body_behavioural,3.0.4,60.067534065175934,
4,"Calvin knew that Jessie was upset, but wasn't sure what to do besides attempt to carry on as normal.",1,1,None,,0,4,4,4,,,,,0,3,3,3,,,,,,,,,,,,,,,,,,,,,,,,,,,,,,,,,1,8.020153414981905,,,,,,,,,,,,,,,,,,,,,,,,,,,,062719_p3,001,2019_Jun_27_1618,body_behavioural,3.0.4,60.067534065175934,
4,"The security line was very short, and once the online boarding passes were scanned, Calvin took off his belt and watch, and they put their bags on the conveyor belt.",2,1,None,,0,4,4,4,,,,,0,4,4,4,,,,,,,,,,,,,,,,,,,,,,,,,,,,,,,,,9,10.217932855011895,,,,,,,,,,,,,,,,,,,,,,,,,,,,062719_p3,001,2019_Jun_27_1618,body_behavioural,3.0.4,60.067534065175934,
4,"There was a short halt in security proceedings so that the security guards could change shifts, but, once everything was back in order, they were ushered quickly through the metal detector. ",2,1,None,,0,4,4,4,,,,,0,5,5,5,,,,,,,,,,,,,,,,,,,,,,,,,,,,,,,,,1,9.503258995013312,,,,,,,,,,,,,,,,,,,,,,,,,,,,062719_p3,001,2019_Jun_27_1618,body_behavioural,3.0.4,60.067534065175934,
4,"“The infrastructure of this airport is really quite poor," said Calvin as they waited for their bags to emerge from the x-ray machine.",2,1,None,,0,4,4,4,,,,,0,6,6,6,,,,,,,,,,,,,,,,,,,,,,,,,,,,,,,,,1,7.769590185023844,,,,,,,,,,,,,,,,,,,,,,,,,,,,062719_p3,001,2019_Jun_27_1618,body_behavioural,3.0.4,60.067534065175934,
4,“I could've hidden something in my shoes quite easily.” ,2,1,None,,0,4,4,4,,,,,0,7,7,7,,,,,,,,,,,,,,,,,,,,,,,,,,,,,,,,,1,2.38614948495524,,,,,,,,,,,,,,,,,,,,,,,,,,,,062719_p3,001,2019_Jun_27_1618,body_behavioural,3.0.4,60.067534065175934,
4,"Jessie, exasperated, scowled at the conveyor belt.",2,1,None,,0,4,4,4,,,,,0,8,8,8,,,,,,,,,,,,,,,,,,,,,,,,,,,,,,,,,1,3.7859085130039603,,,,,,,,,,,,,,,,,,,,,,,,,,,,062719_p3,001,2019_Jun_27_1618,body_behavioural,3.0.4,60.067534065175934,
4,“What?” he asked.,2,1,None,,0,4,4,4,,,,,0,9,9,9,,,,,,,,,,,,,,,,,,,,,,,,,,,,,,,,,1,1.386403248005081,,,,,,,,,,,,,,,,,,,,,,,,,,,,062719_p3,001,2019_Jun_27_1618,body_behavioural,3.0.4,60.067534065175934,
4,"Balling up her fists and turning to him angrily, she said, “Calvin, I really don’t think I can do this anymore because I don’t think our personalities are compatible. ",2,2,None,,0,4,4,4,,,,,0,10,10,10,,,,,,,,,,,,,,,,,,,,,,,,,,,,,,,,,1,11.618230582040269,,,,,,,,,,,,,,,,,,,,,,,,,,,,062719_p3,001,2019_Jun_27_1618,body_behavioural,3.0.4,60.067534065175934,
4,I think it’s best that once we get to the States we part ways for good.” ,2,2,None,,0,4,4,4,,,,,0,11,11,11,,,,,,,,,,,,,,,,,,,,,,,,,,,,,,,,,1,5.520029860024806,,,,,,,,,,,,,,,,,,,,,,,,,,,,062719_p3,001,2019_Jun_27_1618,body_behavioural,3.0.4,60.067534065175934,
4,Calvin said nothing as he grabbed his bag.,3,2,None,,0,4,4,4,,,,,0,12,12,12,,,,,,,,,,,,,,,,,,,,,,,,,,,,,,,,,1,4.003237519995309,,,,,,,,,,,,,,,,,,,,,,,,,,,,062719_p3,001,2019_Jun_27_1618,body_behavioural,3.0.4,60.067534065175934,
4,Jessie trailed behind him as they hurried their way quickly toward gate A28.,3,2,None,,0,4,4,4,,,,,0,13,13,13,,,,,,,,,,,,,,,,,,,,,,,,,,,,,,,,,1,5.453626399976201,,,,,,,,,,,,,,,,,,,,,,,,,,,,062719_p3,001,2019_Jun_27_1618,body_behavioural,3.0.4,60.067534065175934,
4,“So now you have nothing to say?” Jessie said. ,3,2,None,,0,4,4,4,,,,,0,14,14,14,,,,,,,,,,,,,,,,,,,,,,,,,,,,,,,,,9,4.0517361050006,,,,,,,,,,,,,,,,,,,,,,,,,,,,062719_p3,001,2019_Jun_27_1618,body_behavioural,3.0.4,60.067534065175934,
4,"Calvin didn't answer, gritting his teeth and staring straight ahead. ",3,2,None,,0,4,4,4,,,,,0,15,15,15,,,,,,,,,,,,,,,,,,,,,,,,,,,,,,,,,1,4.253967188007664,,,,,,,,,,,,,,,,,,,,,,,,,,,,062719_p3,001,2019_Jun_27_1618,body_behavioural,3.0.4,60.067534065175934,
4,"He was very frustrated that he felt he had been trying to appease Jessie for the entirety of the vacation, and it seemed to be completed unappreciated. ",3,2,None,,0,4,4,4,,,,,0,16,16,16,,,,,,,,,,,,,,,,,,,,,,,,,,,,,,,,,1,13.301669211999979,,,,,,,,,,,,,,,,,,,,,,,,,,,,062719_p3,001,2019_Jun_27_1618,body_behavioural,3.0.4,60.067534065175934,
4,"Their silence was punctuated only by the rapid, rhythmic clacking of their suitcase wheels over the tile floor as they continued power-walking through the terminal. ",3,2,None,,0,4,4,4,,,,,0,17,17,17,,,,,,,,,,,,,,,,,,,,,,,,,,,,,,,,,1,11.586922884976957,,,,,,,,,,,,,,,,,,,,,,,,,,,,062719_p3,001,2019_Jun_27_1618,body_behavioural,3.0.4,60.067534065175934,
4,"Calvin finally turned to address her as they continued walking: “Jessie, this makes perfect sense. ",3,3,None,,0,4,4,4,,,,,0,18,18,18,,,,,,,,,,,,,,,,,,,,,,,,,,,,,,,,,1,3.786378489981871,,,,,,,,,,,,,,,,,,,,,,,,,,,,062719_p3,001,2019_Jun_27_1618,body_behavioural,3.0.4,60.067534065175934,
4,"If you feel this way, then I think we should break up because I don’t want to keep boring you.",3,3,None,,0,4,4,4,,,,,0,19,19,19,,,,,,,,,,,,,,,,,,,,,,,,,,,,,,,,,1,5.370556731999386,,,,,,,,,,,,,,,,,,,,,,,,,,,,062719_p3,001,2019_Jun_27_1618,body_behavioural,3.0.4,60.067534065175934,
4,"I agree, let’s part ways once we make it back.",3,3,None,,0,4,4,4,,,,,0,20,20,20,,,,,,,,,,,,,,,,,,,,,,,,,,,,,,,,,1,2.903257281985134,,,,,,,,,,,,,,,,,,,,,,,,,,,,062719_p3,001,2019_Jun_27_1618,body_behavioural,3.0.4,60.067534065175934,
4,You should’ve spoken up about my apparent intolerability before you decided to plan this vacation.”,3,3,None,,0,4,4,4,,,,,0,21,21,21,,,,,,,,,,,,,,,,,,,,,,,,,,,,,,,,,1,4.90331637498457,,,,,,,,,,,,,,,,,,,,,,,,,,,,062719_p3,001,2019_Jun_27_1618,body_behavioural,3.0.4,60.067534065175934,
4,"He was very hurt, even though he didn’t want to show it. ",3,3,None,,0,4,4,4,,,,,0,22,22,22,,,,,,,,,,,,,,,,,,,,,,,,,,,,,,,,,1,3.470117498014588,,,,,,,,,,,,,,,,,,,,,,,,,,,,062719_p3,001,2019_Jun_27_1618,body_behavioural,3.0.4,60.067534065175934,
4,"Having made it to their gate, they scanned their tickets, and the annoyed flight attendant shooed them onto the jet bridge and then closed the plane door behind them.",4,3,None,,0,4,4,4,,,,,0,23,23,23,,,,,,,,,,,,,,,,,,,,,,,,,,,,,,,,,9,13.220583580026869,,,,,,,,,,,,,,,,,,,,,,,,,,,,062719_p3,001,2019_Jun_27_1618,body_behavioural,3.0.4,60.067534065175934,
4,"Luckily, they had forgotten to arrange seats next to each other on the flight back.",4,3,None,,0,4,4,4,,,,,0,24,24,24,,,,,,,,,,,,,,,,,,,,,,,,,,,,,,,,,1,5.820220883004367,,,,,,,,,,,,,,,,,,,,,,,,,,,,062719_p3,001,2019_Jun_27_1618,body_behavioural,3.0.4,60.067534065175934,
4,"They were both in economy, but Jessie was headed for seat 33A while Calvin's seat was 33F. ",4,3,None,,0,4,4,4,,,,,0,25,25,25,,,,,,,,,,,,,,,,,,,,,,,,,,,,,,,,,1,7.235755056957714,,,,,,,,,,,,,,,,,,,,,,,,,,,,062719_p3,001,2019_Jun_27_1618,body_behavioural,3.0.4,60.067534065175934,
4,"Before Jessie sat down, she took a deep breath, calmed her emotions, and then awkwardly shook Calvin’s hand, mumbling, “Have a nice flight. ",4,4,None,,0,4,4,4,,,,,0,26,26,26,,,,,,,,,,,,,,,,,,,,,,,,,,,,,,,,,1,6.602838701044675,,,,,,,,,,,,,,,,,,,,,,,,,,,,062719_p3,001,2019_Jun_27_1618,body_behavioural,3.0.4,60.067534065175934,
4,"Oh, and when you get a chance, could you send me back all the philosophy books I lent you?”",4,4,None,,0,4,4,4,,,,,0,27,27,27,,,,,,,,,,,,,,,,,,,,,,,,,,,,,,,,,1,5.070191729988437,,,,,,,,,,,,,,,,,,,,,,,,,,,,062719_p3,001,2019_Jun_27_1618,body_behavioural,3.0.4,60.067534065175934,
4,He laughed in disbelief and walked to his window seat three rows back to get ready for takeoff.,4,4,None,,0,4,4,4,,,,,0,28,28,28,,,,,,,,,,,,,,,,,,,,,,,,,,,,,,,,,1,6.953521066985559,,,,,,,,,,,,,,,,,,,,,,,,,,,,062719_p3,001,2019_Jun_27_1618,body_behavioural,3.0.4,60.067534065175934,
4,Both were upset but glad that they would have this flight in solitude.,4,4,None,,0,4,4,4,,,,,0,29,29,29,,,,,,,,,,,,,,,,,,,,,,,,,,,,,,,,,1,5.836133892997168,,,,,,,,,,,,,,,,,,,,,,,,,,,,062719_p3,001,2019_Jun_27_1618,body_behavioural,3.0.4,60.067534065175934,
4,,,,,,0,4,4,4,,,,,,,,,,,,,,,,,,,,,,,,,,,,,,,,,,,,,,,,,,,,,,,,,,,,,,,,,,,,,,,,,,,,,,062719_p3,001,2019_Jun_27_1618,body_behavioural,3.0.4,60.067534065175934,
5,,,,,,0,5,5,5,0,0,0,0,,,,,,,,,,,,,,,,,,,,,,,,,,,space,1.95309908996569,space,1.5863404829869978,space,0.5195048649911769,,,,,,,,,,,,,,,,,,,,,,,,,,,,,,,,,,062719_p3,001,2019_Jun_27_1618,body_behavioural,3.0.4,60.067534065175934,
5,"Sven and Isabel walked hurriedly from the cab into the Barcelona Airport after an incredible week with Isabel’s family, and this had wiped away any doubts Sven had had about his decision to propose. ",1,1,22.0,,0,5,5,5,,,,,0,0,0,0,,,,,,,,,,,,,,,,,,,,,,,,,,,,,space,1.6054666669806466,space,11.087800137000158,9,17.98753669305006,,,,,,,,,,,,,,,,,,,,,,,,,,,,062719_p3,001,2019_Jun_27_1618,body_behavioural,3.0.4,60.067534065175934,
5,They had only been dating for 11 months so this was the first time he had met her family. ,1,1,None,,0,5,5,5,,,,,0,1,1,1,,,,,,,,,,,,,,,,,,,,,,,,,,,,,,,,,1,8.837084798025899,,,,,,,,,,,,,,,,,,,,,,,,,,,,062719_p3,001,2019_Jun_27_1618,body_behavioural,3.0.4,60.067534065175934,
5,"They were pressed for time at the airport, with an hour and 15 minutes until their flight would take off to go back to the US, but they already had their online boarding passes and no checked luggage. ",1,1,None,,0,5,5,5,,,,,0,2,2,2,,,,,,,,,,,,,,,,,,,,,,,,,,,,,,,,,9,16.920938057010062,,,,,,,,,,,,,,,,,,,,,,,,,,,,062719_p3,001,2019_Jun_27_1618,body_behavioural,3.0.4,60.067534065175934,
5,"Isabel stopped to rummage through her purse to look for her phone, and meanwhile Sven turned his back to her and took the velvet box out of his backpack, opening it to look at the ring he had bought her.",1,2,None,,0,5,5,5,,,,,0,3,3,3,,,,,,,,,,,,,,,,,,,,,,,,,,,,,,,,,1,16.81846406002296,,,,,,,,,,,,,,,,,,,,,,,,,,,,062719_p3,001,2019_Jun_27_1618,body_behavioural,3.0.4,60.067534065175934,
5,"He had received her parents’ blessing during the trip, and he was almost giddy with excitement. ",1,2,None,,0,5,5,5,,,,,0,4,4,4,,,,,,,,,,,,,,,,,,,,,,,,,,,,,,,,,1,5.5700286230421625,,,,,,,,,,,,,,,,,,,,,,,,,,,,062719_p3,001,2019_Jun_27_1618,body_behavioural,3.0.4,60.067534065175934,
5,"He tilted the ring backward and forward, despite having already studied it daily since purchasing it a few weeks ago. ",1,2,None,,0,5,5,5,,,,,0,5,5,5,,,,,,,,,,,,,,,,,,,,,,,,,,,,,,,,,1,6.703048249997664,,,,,,,,,,,,,,,,,,,,,,,,,,,,062719_p3,001,2019_Jun_27_1618,body_behavioural,3.0.4,60.067534065175934,
5,"It was a simple design, with two pink diamonds on a silver band.",1,2,None,,0,5,5,5,,,,,0,6,6,6,,,,,,,,,,,,,,,,,,,,,,,,,,,,,,,,,1,6.3536048080422916,,,,,,,,,,,,,,,,,,,,,,,,,,,,062719_p3,001,2019_Jun_27_1618,body_behavioural,3.0.4,60.067534065175934,
5,"“Sven, I’m good,” Isabel said. ",1,2,None,,0,5,5,5,,,,,0,7,7,7,,,,,,,,,,,,,,,,,,,,,,,,,,,,,,,,,1,3.650985326967202,,,,,,,,,,,,,,,,,,,,,,,,,,,,062719_p3,001,2019_Jun_27_1618,body_behavioural,3.0.4,60.067534065175934,
5,Sven closed the box and discretely put it in his pocket.,1,2,None,,0,5,5,5,,,,,0,8,8,8,,,,,,,,,,,,,,,,,,,,,,,,,,,,,,,,,1,3.3342080200091004,,,,,,,,,,,,,,,,,,,,,,,,,,,,062719_p3,001,2019_Jun_27_1618,body_behavioural,3.0.4,60.067534065175934,
5,"They entered the security line, weaving through the roped walkways to the front. ",2,2,None,,0,5,5,5,,,,,0,9,9,9,,,,,,,,,,,,,,,,,,,,,,,,,,,,,,,,,9,6.186940910003614,,,,,,,,,,,,,,,,,,,,,,,,,,,,062719_p3,001,2019_Jun_27_1618,body_behavioural,3.0.4,60.067534065175934,
5,"When they were up, Isabel realized her laptop was buried somewhere in her duffle bag. ",2,2,None,,0,5,5,5,,,,,0,10,10,10,,,,,,,,,,,,,,,,,,,,,,,,,,,,,,,,,1,6.386593105038628,,,,,,,,,,,,,,,,,,,,,,,,,,,,062719_p3,001,2019_Jun_27_1618,body_behavioural,3.0.4,60.067534065175934,
5,"Luckily, at the same time, there was a stall in the line because someone ahead of them had a suspicious amount of metal pieces on his person. ",2,2,None,,0,5,5,5,,,,,0,11,11,11,,,,,,,,,,,,,,,,,,,,,,,,,,,,,,,,,1,9.601177330012433,,,,,,,,,,,,,,,,,,,,,,,,,,,,062719_p3,001,2019_Jun_27_1618,body_behavioural,3.0.4,60.067534065175934,
5,Sven had to hold the growing mound of objects Isabel pulled from her bag until she unearthed the laptop and set it in a bin.,2,2,None,,0,5,5,5,,,,,0,12,12,12,,,,,,,,,,,,,,,,,,,,,,,,,,,,,,,,,1,7.017820587963797,,,,,,,,,,,,,,,,,,,,,,,,,,,,062719_p3,001,2019_Jun_27_1618,body_behavioural,3.0.4,60.067534065175934,
5,"She then gave her bag to Sven, unstrapped her heels, and took the bag back from Sven.",2,2,None,,0,5,5,5,,,,,0,13,13,13,,,,,,,,,,,,,,,,,,,,,,,,,,,,,,,,,1,5.503391473030206,,,,,,,,,,,,,,,,,,,,,,,,,,,,062719_p3,001,2019_Jun_27_1618,body_behavioural,3.0.4,60.067534065175934,
5,"Sven, relieved of his holding duties, hurriedly deposited his own backpack on the belt, and took off his shoes. ",2,2,None,,0,5,5,5,,,,,0,14,14,14,,,,,,,,,,,,,,,,,,,,,,,,,,,,,,,,,1,6.986973470018711,,,,,,,,,,,,,,,,,,,,,,,,,,,,062719_p3,001,2019_Jun_27_1618,body_behavioural,3.0.4,60.067534065175934,
5,"Sven went into the millimeter wave scanner after Isabel, put his hands up, and the metal bars whirled around him.",2,2,None,,0,5,5,5,,,,,0,15,15,15,,,,,,,,,,,,,,,,,,,,,,,,,,,,,,,,,1,8.636496501974761,,,,,,,,,,,,,,,,,,,,,,,,,,,,062719_p3,001,2019_Jun_27_1618,body_behavioural,3.0.4,60.067534065175934,
5,The security guard asked Sven to wait. ,2,2,None,,0,5,5,5,,,,,0,16,16,16,,,,,,,,,,,,,,,,,,,,,,,,,,,,,,,,,1,2.0036520279827528,,,,,,,,,,,,,,,,,,,,,,,,,,,,062719_p3,001,2019_Jun_27_1618,body_behavioural,3.0.4,60.067534065175934,
5,"After looking at the monitor, the security guard said, “Sir, please empty your pockets,”.",2,2,None,,0,5,5,5,,,,,0,17,17,17,,,,,,,,,,,,,,,,,,,,,,,,,,,,,,,,,1,5.553400704986416,,,,,,,,,,,,,,,,,,,,,,,,,,,,062719_p3,001,2019_Jun_27_1618,body_behavioural,3.0.4,60.067534065175934,
5,"Isabel, shoeless and wrinkling her eyebrows at Sven, looked at him expectantly.",2,2,None,,0,5,5,5,,,,,0,18,18,18,,,,,,,,,,,,,,,,,,,,,,,,,,,,,,,,,1,4.501139600004535,,,,,,,,,,,,,,,,,,,,,,,,,,,,062719_p3,001,2019_Jun_27_1618,body_behavioural,3.0.4,60.067534065175934,
5,"Realizing that he had forgotten the ring in his pocket, he grabbed Isabel’s, got down on one knee, and opening the velvet box, said, “Isabel, this isn't quite how I'd planned this, but - will you marry me?”",2,3,None,,0,5,5,5,,,,,0,19,19,19,,,,,,,,,,,,,,,,,,,,,,,,,,,,,,,,,9,9.504291937977541,,,,,,,,,,,,,,,,,,,,,,,,,,,,062719_p3,001,2019_Jun_27_1618,body_behavioural,3.0.4,60.067534065175934,
5,He held the ring up to her. ,2,3,None,,0,5,5,5,,,,,0,20,20,20,,,,,,,,,,,,,,,,,,,,,,,,,,,,,,,,,1,1.5365412519895472,,,,,,,,,,,,,,,,,,,,,,,,,,,,062719_p3,001,2019_Jun_27_1618,body_behavioural,3.0.4,60.067534065175934,
5,The security guard stood shocked.,2,3,None,,0,5,5,5,,,,,0,21,21,21,,,,,,,,,,,,,,,,,,,,,,,,,,,,,,,,,1,1.602601294987835,,,,,,,,,,,,,,,,,,,,,,,,,,,,062719_p3,001,2019_Jun_27_1618,body_behavioural,3.0.4,60.067534065175934,
5,All the people who were putting their shoes back on and gathering their belongings stopped and walked closer to the couple.,2,3,None,,0,5,5,5,,,,,0,22,22,22,,,,,,,,,,,,,,,,,,,,,,,,,,,,,,,,,1,5.234311422973406,,,,,,,,,,,,,,,,,,,,,,,,,,,,062719_p3,001,2019_Jun_27_1618,body_behavioural,3.0.4,60.067534065175934,
5,Isabel didn’t know what to do since she was far too shy to respond in front of all the people around.,2,3,None,,0,5,5,5,,,,,0,23,23,23,,,,,,,,,,,,,,,,,,,,,,,,,,,,,,,,,1,5.053322569990996,,,,,,,,,,,,,,,,,,,,,,,,,,,,062719_p3,001,2019_Jun_27_1618,body_behavioural,3.0.4,60.067534065175934,
5,"Without responding to Sven, she frantically grabbed her and Sven’s shoes, leaving Sven to retrieve the rest, and she quickly walked onto the concourse.",3,3,None,,0,5,5,5,,,,,0,24,24,24,,,,,,,,,,,,,,,,,,,,,,,,,,,,,,,,,1,10.420559973048512,,,,,,,,,,,,,,,,,,,,,,,,,,,,062719_p3,001,2019_Jun_27_1618,body_behavioural,3.0.4,60.067534065175934,
5,"Sven, terrified, grabbed everything and hurried after Isabel onto the concourse shoeless.",3,3,None,,0,5,5,5,,,,,0,25,25,25,,,,,,,,,,,,,,,,,,,,,,,,,,,,,,,,,1,7.070097949996125,,,,,,,,,,,,,,,,,,,,,,,,,,,,062719_p3,001,2019_Jun_27_1618,body_behavioural,3.0.4,60.067534065175934,
5,Sven eventually caught up to her with their bags and the open ring box.,3,3,None,,0,5,5,5,,,,,0,26,26,26,,,,,,,,,,,,,,,,,,,,,,,,,,,,,,,,,1,2.935944010037929,,,,,,,,,,,,,,,,,,,,,,,,,,,,062719_p3,001,2019_Jun_27_1618,body_behavioural,3.0.4,60.067534065175934,
5,"She stopped and with wide, excited eyes, shouted, “Of course yes, Sven!” ",3,4,None,,0,5,5,5,,,,,0,27,27,27,,,,,,,,,,,,,,,,,,,,,,,,,,,,,,,,,1,4.870235737995245,,,,,,,,,,,,,,,,,,,,,,,,,,,,062719_p3,001,2019_Jun_27_1618,body_behavioural,3.0.4,60.067534065175934,
5,"They dropped their belongings and hugged, and Sven put the ring onto Isabel’s finger. ",3,4,None,,0,5,5,5,,,,,0,28,28,28,,,,,,,,,,,,,,,,,,,,,,,,,,,,,,,,,1,4.186495404981542,,,,,,,,,,,,,,,,,,,,,,,,,,,,062719_p3,001,2019_Jun_27_1618,body_behavioural,3.0.4,60.067534065175934,
5,"“Isabel, you scared me!” he said. ",3,4,None,,0,5,5,5,,,,,0,29,29,29,,,,,,,,,,,,,,,,,,,,,,,,,,,,,,,,,1,1.403696424968075,,,,,,,,,,,,,,,,,,,,,,,,,,,,062719_p3,001,2019_Jun_27_1618,body_behavioural,3.0.4,60.067534065175934,
5,"After getting their shoes back on, they practically floated to gate C40.",3,4,None,,0,5,5,5,,,,,0,30,30,30,,,,,,,,,,,,,,,,,,,,,,,,,,,,,,,,,9,4.9681790040340275,,,,,,,,,,,,,,,,,,,,,,,,,,,,062719_p3,001,2019_Jun_27_1618,body_behavioural,3.0.4,60.067534065175934,
5,Sven was so happy he even high-fived a confused shoe-shine attendant as they passed.,3,4,None,,0,5,5,5,,,,,0,31,31,31,,,,,,,,,,,,,,,,,,,,,,,,,,,,,,,,,1,4.568274390010629,,,,,,,,,,,,,,,,,,,,,,,,,,,,062719_p3,001,2019_Jun_27_1618,body_behavioural,3.0.4,60.067534065175934,
5,Isabel texted her best friend telling her the news as they walked. ,3,4,None,,0,5,5,5,,,,,0,32,32,32,,,,,,,,,,,,,,,,,,,,,,,,,,,,,,,,,1,3.419900608016178,,,,,,,,,,,,,,,,,,,,,,,,,,,,062719_p3,001,2019_Jun_27_1618,body_behavioural,3.0.4,60.067534065175934,
5,"Having arrived at their gate, they waited, until the attendant called for passengers, and they scanned their tickets to board the plane.",4,4,None,,0,5,5,5,,,,,0,33,33,33,,,,,,,,,,,,,,,,,,,,,,,,,,,,,,,,,1,5.301130231993739,,,,,,,,,,,,,,,,,,,,,,,,,,,,062719_p3,001,2019_Jun_27_1618,body_behavioural,3.0.4,60.067534065175934,
5,"They walked through the connecting tunnel to the plane and sat together in first class, in seats 2A and 2B.",4,4,None,,0,5,5,5,,,,,0,34,34,34,,,,,,,,,,,,,,,,,,,,,,,,,,,,,,,,,1,6.486902863020077,,,,,,,,,,,,,,,,,,,,,,,,,,,,062719_p3,001,2019_Jun_27_1618,body_behavioural,3.0.4,60.067534065175934,
5,"Some of their neighboring passengers who had witnessed the proposal at security congratulated them, and a woman next to them showed them that she had been live-tweeting the whole event and that it was already going viral online.",4,4,None,,0,5,5,5,,,,,0,35,35,35,,,,,,,,,,,,,,,,,,,,,,,,,,,,,,,,,1,13.601492119953036,,,,,,,,,,,,,,,,,,,,,,,,,,,,062719_p3,001,2019_Jun_27_1618,body_behavioural,3.0.4,60.067534065175934,
5,"Isabel slid down in her seat with her hands over her face, embarrassed and overjoyed at the same time.
",4,4,None,,0,5,5,5,,,,,0,36,36,36,,,,,,,,,,,,,,,,,,,,,,,,,,,,,,,,,1,6.753901564981788,,,,,,,,,,,,,,,,,,,,,,,,,,,,062719_p3,001,2019_Jun_27_1618,body_behavioural,3.0.4,60.067534065175934,
5,,,,,,0,5,5,5,,,,,,,,,,,,,,,,,,,,,,,,,,,,,,,,,,,,,,,,,,,,,,,,,,,,,,,,,,,,,,,,,,,,,,062719_p3,001,2019_Jun_27_1618,body_behavioural,3.0.4,60.067534065175934,
6,,,,,,0,6,6,6,0,0,0,0,,,,,,,,,,,,,,,,,,,,,,,,,,,space,1.2032411950058304,space,1.0028443930204958,space,0.7032838619779795,,,,,,,,,,,,,,,,,,,,,,,,,,,,,,,,,,062719_p3,001,2019_Jun_27_1618,body_behavioural,3.0.4,60.067534065175934,
6,,,,,,0,6,6,6,1,0,1,0,,,,,,,,,,,,,,,,,,,,,,,,,,,,,,,space,0.6867895000032149,,,,,,,,,,,,,,,,,,,,,,,,,,,,,,,,,,062719_p3,001,2019_Jun_27_1618,body_behavioural,3.0.4,60.067534065175934,
6,,,,,,0,6,6,6,2,0,2,0,,,,,,,,,,,,,,,,,,,,,,,,,,,,,,,space,0.5191986379795708,,,,,,,,,,,,,,,,,,,,,,,,,,,,,,,,,,062719_p3,001,2019_Jun_27_1618,body_behavioural,3.0.4,60.067534065175934,
6,"James noticed Teresa immediately as she walked into the restaurant - or, more accurately, as she attempted to walk into the restaurant. ",1,1,41.0,,0,6,6,6,,,,,0,0,0,0,,,,,,,,,,,,,,,,,,,,,,,,,,,,,space,1.1029331149766222,space,1.500975550035946,1,20.62127744499594,,,,,,,,,,,,,,,,,,,,,,,,,,,,062719_p3,001,2019_Jun_27_1618,body_behavioural,3.0.4,60.067534065175934,
6,She was typing intently on her phone and ran straight into the restaurant’s glass door with a painful thud. ,1,1,None,,0,6,6,6,,,,,0,1,1,1,,,,,,,,,,,,,,,,,,,,,,,,,,,,,,,,,1,10.934871656994801,,,,,,,,,,,,,,,,,,,,,,,,,,,,062719_p3,001,2019_Jun_27_1618,body_behavioural,3.0.4,60.067534065175934,
6,Everyone waiting around the cash register turned.,1,1,None,,0,6,6,6,,,,,0,2,2,2,,,,,,,,,,,,,,,,,,,,,,,,,,,,,,,,,1,4.236464960034937,,,,,,,,,,,,,,,,,,,,,,,,,,,,062719_p3,001,2019_Jun_27_1618,body_behavioural,3.0.4,60.067534065175934,
6,Teresa rubbed her head and put her phone away. ,1,1,None,,0,6,6,6,,,,,0,3,3,3,,,,,,,,,,,,,,,,,,,,,,,,,,,,,,,,,1,2.353020022972487,,,,,,,,,,,,,,,,,,,,,,,,,,,,062719_p3,001,2019_Jun_27_1618,body_behavioural,3.0.4,60.067534065175934,
6,She looked somewhat confused but primarily indignant that the door had been in her way. ,1,1,None,,0,6,6,6,,,,,0,4,4,4,,,,,,,,,,,,,,,,,,,,,,,,,,,,,,,,,1,9.236506175016984,,,,,,,,,,,,,,,,,,,,,,,,,,,,062719_p3,001,2019_Jun_27_1618,body_behavioural,3.0.4,60.067534065175934,
6,"James found this quite charming and stole a couple glances at her, peeking up from the newspaper he was holding, until she noticed and wrinkled her eyebrows at him. ",1,1,None,,0,6,6,6,,,,,0,5,5,5,,,,,,,,,,,,,,,,,,,,,,,,,,,,,,,,,9,17.004717017989606,,,,,,,,,,,,,,,,,,,,,,,,,,,,062719_p3,001,2019_Jun_27_1618,body_behavioural,3.0.4,60.067534065175934,
6,James and Teresa had both chosen the least busy time to try out Atlanta’s newest sushi restaurant.  ,1,1,None,,0,6,6,6,,,,,0,6,6,6,,,,,,,,,,,,,,,,,,,,,,,,,,,,,,,,,9,10.653725248004775,,,,,,,,,,,,,,,,,,,,,,,,,,,,062719_p3,001,2019_Jun_27_1618,body_behavioural,3.0.4,60.067534065175934,
6,It was notable for both the food and the decor. ,1,1,None,,0,6,6,6,,,,,0,7,7,7,,,,,,,,,,,,,,,,,,,,,,,,,,,,,,,,,1,5.252831423014868,,,,,,,,,,,,,,,,,,,,,,,,,,,,062719_p3,001,2019_Jun_27_1618,body_behavioural,3.0.4,60.067534065175934,
6,"There were pine wood countertops and chairs, plants all along the sides of the walls, and branch-looking structures hanging from the ceiling. ",1,1,None,,0,6,6,6,,,,,0,8,8,8,,,,,,,,,,,,,,,,,,,,,,,,,,,,,,,,,1,5.753333425032906,,,,,,,,,,,,,,,,,,,,,,,,,,,,062719_p3,001,2019_Jun_27_1618,body_behavioural,3.0.4,60.067534065175934,
6,"The host sat James and Teresa, who were both dining alone, at the bar. ",2,1,None,,0,6,6,6,,,,,0,9,9,9,,,,,,,,,,,,,,,,,,,,,,,,,,,,,,,,,9,10.970866413030308,,,,,,,,,,,,,,,,,,,,,,,,,,,,062719_p3,001,2019_Jun_27_1618,body_behavioural,3.0.4,60.067534065175934,
6,They sat a seat apart from each other on the bench.,2,1,None,,0,6,6,6,,,,,0,10,10,10,,,,,,,,,,,,,,,,,,,,,,,,,,,,,,,,,1,6.170226053043734,,,,,,,,,,,,,,,,,,,,,,,,,,,,062719_p3,001,2019_Jun_27_1618,body_behavioural,3.0.4,60.067534065175934,
6,"The waitress behind the counter gave them bright neon menus that were filled with entrees in Japanese with small, English translations. ",2,1,None,,0,6,6,6,,,,,0,11,11,11,,,,,,,,,,,,,,,,,,,,,,,,,,,,,,,,,1,12.003310343017802,,,,,,,,,,,,,,,,,,,,,,,,,,,,062719_p3,001,2019_Jun_27_1618,body_behavioural,3.0.4,60.067534065175934,
6,James quickly glanced through it while Teresa took a longer time. ,2,1,None,,0,6,6,6,,,,,0,12,12,12,,,,,,,,,,,,,,,,,,,,,,,,,,,,,,,,,1,3.284240260021761,,,,,,,,,,,,,,,,,,,,,,,,,,,,062719_p3,001,2019_Jun_27_1618,body_behavioural,3.0.4,60.067534065175934,
6,"A few minutes passed before, James turned to Teresa and asked, “Is your forehead alright?”",2,2,None,,0,6,6,6,,,,,0,13,13,13,,,,,,,,,,,,,,,,,,,,,,,,,,,,,,,,,1,3.467528753040824,,,,,,,,,,,,,,,,,,,,,,,,,,,,062719_p3,001,2019_Jun_27_1618,body_behavioural,3.0.4,60.067534065175934,
6,She turned to him and smirked.,2,2,None,,0,6,6,6,,,,,0,14,14,14,,,,,,,,,,,,,,,,,,,,,,,,,,,,,,,,,1,1.366725232976023,,,,,,,,,,,,,,,,,,,,,,,,,,,,062719_p3,001,2019_Jun_27_1618,body_behavioural,3.0.4,60.067534065175934,
6,“Have you ever been stung by a scorpion?” she asked him.,2,2,None,,0,6,6,6,,,,,0,15,15,15,,,,,,,,,,,,,,,,,,,,,,,,,,,,,,,,,1,4.203717304975726,,,,,,,,,,,,,,,,,,,,,,,,,,,,062719_p3,001,2019_Jun_27_1618,body_behavioural,3.0.4,60.067534065175934,
6,“What?” he responded confusedly.,2,2,None,,0,6,6,6,,,,,0,16,16,16,,,,,,,,,,,,,,,,,,,,,,,,,,,,,,,,,1,0.8530483900103718,,,,,,,,,,,,,,,,,,,,,,,,,,,,062719_p3,001,2019_Jun_27_1618,body_behavioural,3.0.4,60.067534065175934,
6, “A scorpion.”,2,2,None,,0,6,6,6,,,,,0,17,17,17,,,,,,,,,,,,,,,,,,,,,,,,,,,,,,,,,1,0.6864178230171092,,,,,,,,,,,,,,,,,,,,,,,,,,,,062719_p3,001,2019_Jun_27_1618,body_behavioural,3.0.4,60.067534065175934,
6,James began to worry that Teresa had possibly suffered a concussion in the door crash.,2,2,None,,0,6,6,6,,,,,0,18,18,18,,,,,,,,,,,,,,,,,,,,,,,,,,,,,,,,,1,3.2668851150083356,,,,,,,,,,,,,,,,,,,,,,,,,,,,062719_p3,001,2019_Jun_27_1618,body_behavioural,3.0.4,60.067534065175934,
6,"“Uh no, why?” he asked.",2,2,None,,0,6,6,6,,,,,0,19,19,19,,,,,,,,,,,,,,,,,,,,,,,,,,,,,,,,,1,0.786513505037874,,,,,,,,,,,,,,,,,,,,,,,,,,,,062719_p3,001,2019_Jun_27_1618,body_behavioural,3.0.4,60.067534065175934,
6,"“Because I’ve been stung by one, and since then, things like bumping into doors seem like pretty small potatoes.” ",2,2,None,,0,6,6,6,,,,,0,20,20,20,,,,,,,,,,,,,,,,,,,,,,,,,,,,,,,,,1,6.670133841980714,,,,,,,,,,,,,,,,,,,,,,,,,,,,062719_p3,001,2019_Jun_27_1618,body_behavioural,3.0.4,60.067534065175934,
6,"They carried on talking, and Teresa told him all about her encounter with a Deathstalker scorpion while she was studying abroad in Egypt.",2,2,None,,0,6,6,6,,,,,0,21,21,21,,,,,,,,,,,,,,,,,,,,,,,,,,,,,,,,,9,8.936871835030615,,,,,,,,,,,,,,,,,,,,,,,,,,,,062719_p3,001,2019_Jun_27_1618,body_behavioural,3.0.4,60.067534065175934,
6,"The waitress behind the counter came up to them and asked, “Are you ready for your order?” ",3,2,None,,0,6,6,6,,,,,0,22,22,22,,,,,,,,,,,,,,,,,,,,,,,,,,,,,,,,,1,4.220037187973503,,,,,,,,,,,,,,,,,,,,,,,,,,,,062719_p3,001,2019_Jun_27_1618,body_behavioural,3.0.4,60.067534065175934,
6,"She first looked at Teresa who answered, “Yes, I’ll have a salmon roll and a Japanese beer.”",3,2,None,,0,6,6,6,,,,,0,23,23,23,,,,,,,,,,,,,,,,,,,,,,,,,,,,,,,,,1,5.153373429959174,,,,,,,,,,,,,,,,,,,,,,,,,,,,062719_p3,001,2019_Jun_27_1618,body_behavioural,3.0.4,60.067534065175934,
6,Then the waitress turned to James.,3,2,None,,0,6,6,6,,,,,0,24,24,24,,,,,,,,,,,,,,,,,,,,,,,,,,,,,,,,,1,2.903254229982849,,,,,,,,,,,,,,,,,,,,,,,,,,,,062719_p3,001,2019_Jun_27_1618,body_behavioural,3.0.4,60.067534065175934,
6,"He said, “I’ll have a tuna roll and a vegetable roll.” ",3,2,None,,0,6,6,6,,,,,0,25,25,25,,,,,,,,,,,,,,,,,,,,,,,,,,,,,,,,,1,2.686398833000567,,,,,,,,,,,,,,,,,,,,,,,,,,,,062719_p3,001,2019_Jun_27_1618,body_behavioural,3.0.4,60.067534065175934,
6,"“Alright, thank you!” the waitress said.",3,2,None,,0,6,6,6,,,,,0,26,26,26,,,,,,,,,,,,,,,,,,,,,,,,,,,,,,,,,1,1.6194944680319168,,,,,,,,,,,,,,,,,,,,,,,,,,,,062719_p3,001,2019_Jun_27_1618,body_behavioural,3.0.4,60.067534065175934,
6,"James and Teresa talked about a concert James was going to that night, and he suddenly and nervously invited her to come along.",3,3,None,,0,6,6,6,,,,,0,27,27,27,,,,,,,,,,,,,,,,,,,,,,,,,,,,,,,,,9,7.636441280017607,,,,,,,,,,,,,,,,,,,,,,,,,,,,062719_p3,001,2019_Jun_27_1618,body_behavioural,3.0.4,60.067534065175934,
6,He promised her that the concert would be indoors and absolutely free of venomous insects.,3,3,None,,0,6,6,6,,,,,0,28,28,28,,,,,,,,,,,,,,,,,,,,,,,,,,,,,,,,,1,4.936449859989807,,,,,,,,,,,,,,,,,,,,,,,,,,,,062719_p3,001,2019_Jun_27_1618,body_behavioural,3.0.4,60.067534065175934,
6,"Teresa agreed, gave him her number, and they worked out that James would pick her up that evening before the concert and drive them there.",3,3,None,,0,6,6,6,,,,,0,29,29,29,,,,,,,,,,,,,,,,,,,,,,,,,,,,,,,,,1,8.51763858803315,,,,,,,,,,,,,,,,,,,,,,,,,,,,062719_p3,001,2019_Jun_27_1618,body_behavioural,3.0.4,60.067534065175934,
6,"This was not what they had expected from their solitary lunch plans and were both excited, even though Teresa was doing a much better job of hiding it than James. ",3,3,None,,0,6,6,6,,,,,0,30,30,30,,,,,,,,,,,,,,,,,,,,,,,,,,,,,,,,,1,14.254562968038954,,,,,,,,,,,,,,,,,,,,,,,,,,,,062719_p3,001,2019_Jun_27_1618,body_behavioural,3.0.4,60.067534065175934,
6,"The waitress brought out their food, placing the plates close to each other so James had to sit closer to Teresa on the bench. ",4,3,None,,0,6,6,6,,,,,0,31,31,31,,,,,,,,,,,,,,,,,,,,,,,,,,,,,,,,,9,7.0367150899837725,,,,,,,,,,,,,,,,,,,,,,,,,,,,062719_p3,001,2019_Jun_27_1618,body_behavioural,3.0.4,60.067534065175934,
6,Teresa was happy to share the meal with James. ,4,3,None,,0,6,6,6,,,,,0,32,32,32,,,,,,,,,,,,,,,,,,,,,,,,,,,,,,,,,1,2.436425145016983,,,,,,,,,,,,,,,,,,,,,,,,,,,,062719_p3,001,2019_Jun_27_1618,body_behavioural,3.0.4,60.067534065175934,
6,They really enjoyed their rolls because the fish tasted very fresh. ,4,3,None,,0,6,6,6,,,,,0,33,33,33,,,,,,,,,,,,,,,,,,,,,,,,,,,,,,,,,1,2.5697781780036166,,,,,,,,,,,,,,,,,,,,,,,,,,,,062719_p3,001,2019_Jun_27_1618,body_behavioural,3.0.4,60.067534065175934,
6,"James looked at his watch and seeing that it was 3pm said, “I have to run- got to finish some errands before the show.”",4,4,None,,0,6,6,6,,,,,0,34,34,34,,,,,,,,,,,,,,,,,,,,,,,,,,,,,,,,,1,5.870047133008484,,,,,,,,,,,,,,,,,,,,,,,,,,,,062719_p3,001,2019_Jun_27_1618,body_behavioural,3.0.4,60.067534065175934,
6,See you tonight and watch out for that door!”,4,4,None,,0,6,6,6,,,,,0,35,35,35,,,,,,,,,,,,,,,,,,,,,,,,,,,,,,,,,1,2.07017799699679,,,,,,,,,,,,,,,,,,,,,,,,,,,,062719_p3,001,2019_Jun_27_1618,body_behavioural,3.0.4,60.067534065175934,
6,,,,,,0,6,6,6,,,,,,,,,,,,,,,,,,,,,,,,,,,,,,,,,,,,,,,,,,,,,,,,,,,,,,,,,,,,,,,,,,,,,,062719_p3,001,2019_Jun_27_1618,body_behavioural,3.0.4,60.067534065175934,
7,,,,,,0,7,7,7,0,0,0,0,,,,,,,,,,,,,,,,,,,,,,,,,,,space,1.4369571519782767,space,0.8028667600010522,space,0.7024302349891514,,,,,,,,,,,,,,,,,,,,,,,,,,,,,,,,,,062719_p3,001,2019_Jun_27_1618,body_behavioural,3.0.4,60.067534065175934,
7,,,,,,0,7,7,7,1,0,1,0,,,,,,,,,,,,,,,,,,,,,,,,,,,,,,,space,0.46951127296779305,,,,,,,,,,,,,,,,,,,,,,,,,,,,,,,,,,062719_p3,001,2019_Jun_27_1618,body_behavioural,3.0.4,60.067534065175934,
7,"Charlie saw Alma as they walked into class, and he motioned for her to come sit in the back next to him because they had a deal to discuss.",1,1,34.0,,0,7,7,7,,,,,0,0,0,0,,,,,,,,,,,,,,,,,,,,,,,,,,,,,space,0.7192392320139334,space,0.5523116100230254,9,12.37036896997597,,,,,,,,,,,,,,,,,,,,,,,,,,,,062719_p3,001,2019_Jun_27_1618,body_behavioural,3.0.4,60.067534065175934,
7,Charlie and Alma were both history majors with entrepreneurial bents.,1,1,None,,0,7,7,7,,,,,0,1,1,1,,,,,,,,,,,,,,,,,,,,,,,,,,,,,,,,,1,6.719900495023467,,,,,,,,,,,,,,,,,,,,,,,,,,,,062719_p3,001,2019_Jun_27_1618,body_behavioural,3.0.4,60.067534065175934,
7,They were also both very busy and happened to be in the same class.,1,1,None,,0,7,7,7,,,,,0,2,2,2,,,,,,,,,,,,,,,,,,,,,,,,,,,,,,,,,1,4.084368489973713,,,,,,,,,,,,,,,,,,,,,,,,,,,,062719_p3,001,2019_Jun_27_1618,body_behavioural,3.0.4,60.067534065175934,
7,"After talking at a party, Charlie had discovered that Alma was looking for financing for her web development company of which she was the founder and CEO.",1,1,None,,0,7,7,7,,,,,0,3,3,3,,,,,,,,,,,,,,,,,,,,,,,,,,,,,,,,,9,7.968072422023397,,,,,,,,,,,,,,,,,,,,,,,,,,,,062719_p3,001,2019_Jun_27_1618,body_behavioural,3.0.4,60.067534065175934,
7,It was serendipitous because he was an investment analyst for a student finance group on campus and he had been talking with other members of the group about making a new investment. ,1,1,None,,0,7,7,7,,,,,0,4,4,4,,,,,,,,,,,,,,,,,,,,,,,,,,,,,,,,,1,12.887319143046625,,,,,,,,,,,,,,,,,,,,,,,,,,,,062719_p3,001,2019_Jun_27_1618,body_behavioural,3.0.4,60.067534065175934,
7,"His financial group had come to a decision that morning about Alma’s startup, and he didn't want to wait until after class to discuss the proposal with her. ",1,1,None,,0,7,7,7,,,,,0,5,5,5,,,,,,,,,,,,,,,,,,,,,,,,,,,,,,,,,1,20.304353392974008,,,,,,,,,,,,,,,,,,,,,,,,,,,,062719_p3,001,2019_Jun_27_1618,body_behavioural,3.0.4,60.067534065175934,
7,The class was in a medium-sized auditorium which was brightly lit and very modern-looking. ,1,1,None,,0,7,7,7,,,,,0,6,6,6,,,,,,,,,,,,,,,,,,,,,,,,,,,,,,,,,9,6.034726409998257,,,,,,,,,,,,,,,,,,,,,,,,,,,,062719_p3,001,2019_Jun_27_1618,body_behavioural,3.0.4,60.067534065175934,
7,There were three projector screens in the front and each row of the audience had a table with power outlets and USB ports. ,1,1,None,,0,7,7,7,,,,,0,7,7,7,,,,,,,,,,,,,,,,,,,,,,,,,,,,,,,,,1,5.436630373005755,,,,,,,,,,,,,,,,,,,,,,,,,,,,062719_p3,001,2019_Jun_27_1618,body_behavioural,3.0.4,60.067534065175934,
7,“Here we are at Lecture Seven of Archaeology of Rome” said the professor. ,2,1,None,,0,7,7,7,,,,,0,8,8,8,,,,,,,,,,,,,,,,,,,,,,,,,,,,,,,,,1,6.434246409975458,,,,,,,,,,,,,,,,,,,,,,,,,,,,062719_p3,001,2019_Jun_27_1618,body_behavioural,3.0.4,60.067534065175934,
7,"“The topic for today is Augustus, an incredibly important influence in Roman architecture.” ",2,1,None,,0,7,7,7,,,,,0,9,9,9,,,,,,,,,,,,,,,,,,,,,,,,,,,,,,,,,1,4.617584238003474,,,,,,,,,,,,,,,,,,,,,,,,,,,,062719_p3,001,2019_Jun_27_1618,body_behavioural,3.0.4,60.067534065175934,
7,She went into some recap of the last lecture.,2,1,None,,0,7,7,7,,,,,0,10,10,10,,,,,,,,,,,,,,,,,,,,,,,,,,,,,,,,,1,3.4670055099995807,,,,,,,,,,,,,,,,,,,,,,,,,,,,062719_p3,001,2019_Jun_27_1618,body_behavioural,3.0.4,60.067534065175934,
7,"Charlie turned to Alma and said, “Okay, so I’ve been thinking about your startup, and I have talked about it with my fellow investors.",2,2,None,,0,7,7,7,,,,,0,11,11,11,,,,,,,,,,,,,,,,,,,,,,,,,,,,,,,,,1,6.80343405000167,,,,,,,,,,,,,,,,,,,,,,,,,,,,062719_p3,001,2019_Jun_27_1618,body_behavioural,3.0.4,60.067534065175934,
7,We’d like to invest half of what you originally suggested.,2,2,None,,0,7,7,7,,,,,0,12,12,12,,,,,,,,,,,,,,,,,,,,,,,,,,,,,,,,,1,2.7693786949967034,,,,,,,,,,,,,,,,,,,,,,,,,,,,062719_p3,001,2019_Jun_27_1618,body_behavioural,3.0.4,60.067534065175934,
7,"So we propose we start with wiring you $28,000.",2,2,None,,0,7,7,7,,,,,0,13,13,13,,,,,,,,,,,,,,,,,,,,,,,,,,,,,,,,,1,2.2336514549679123,,,,,,,,,,,,,,,,,,,,,,,,,,,,062719_p3,001,2019_Jun_27_1618,body_behavioural,3.0.4,60.067534065175934,
7,We would see how the company does and then invest the other half later.” ,2,2,None,,0,7,7,7,,,,,0,14,14,14,,,,,,,,,,,,,,,,,,,,,,,,,,,,,,,,,1,3.9703208400169387,,,,,,,,,,,,,,,,,,,,,,,,,,,,062719_p3,001,2019_Jun_27_1618,body_behavioural,3.0.4,60.067534065175934,
7,"The professor said, “The senate had conferred upon him the title of Augustus the sacred and revered one, the restorer of traditional values, the city’s new religious leader, the restorer of temples. ",3,2,None,,0,7,7,7,,,,,0,15,15,15,,,,,,,,,,,,,,,,,,,,,,,,,,,,,,,,,9,8.903079857002012,,,,,,,,,,,,,,,,,,,,,,,,,,,,062719_p3,001,2019_Jun_27_1618,body_behavioural,3.0.4,60.067534065175934,
7,"Augustus also sought to beautify Rome, make it into a new Athens, and dispel the criticisms of Rome as disorganized and ugly.”",3,2,None,,0,7,7,7,,,,,0,16,16,16,,,,,,,,,,,,,,,,,,,,,,,,,,,,,,,,,1,8.217969685036223,,,,,,,,,,,,,,,,,,,,,,,,,,,,062719_p3,001,2019_Jun_27_1618,body_behavioural,3.0.4,60.067534065175934,
7,"Alma turned to Charlie and offered her rebuttal, “I don’t know about that.",3,3,None,,0,7,7,7,,,,,0,17,17,17,,,,,,,,,,,,,,,,,,,,,,,,,,,,,,,,,1,3.467518282996025,,,,,,,,,,,,,,,,,,,,,,,,,,,,062719_p3,001,2019_Jun_27_1618,body_behavioural,3.0.4,60.067534065175934,
7,It’s not going to be possible to implement our ideas effectively unless the project is fully funded. ,3,3,None,,0,7,7,7,,,,,0,18,18,18,,,,,,,,,,,,,,,,,,,,,,,,,,,,,,,,,1,4.437187115021516,,,,,,,,,,,,,,,,,,,,,,,,,,,,062719_p3,001,2019_Jun_27_1618,body_behavioural,3.0.4,60.067534065175934,
7,"We would have to find other investors like your competitor on campus, Churchill Capital Group, and that would set us back in our timeline. ",3,3,None,,0,7,7,7,,,,,0,19,19,19,,,,,,,,,,,,,,,,,,,,,,,,,,,,,,,,,1,9.919568771962076,,,,,,,,,,,,,,,,,,,,,,,,,,,,062719_p3,001,2019_Jun_27_1618,body_behavioural,3.0.4,60.067534065175934,
7,"Our profit projections assumed we'd be starting relatively soon, not months down the line.” ",3,3,None,,0,7,7,7,,,,,0,20,20,20,,,,,,,,,,,,,,,,,,,,,,,,,,,,,,,,,1,8.486737607978284,,,,,,,,,,,,,,,,,,,,,,,,,,,,062719_p3,001,2019_Jun_27_1618,body_behavioural,3.0.4,60.067534065175934,
7,They whispered back and forth during the entire class working out a compromise. ,3,3,None,,0,7,7,7,,,,,0,21,21,21,,,,,,,,,,,,,,,,,,,,,,,,,,,,,,,,,1,3.3692832810338587,,,,,,,,,,,,,,,,,,,,,,,,,,,,062719_p3,001,2019_Jun_27_1618,body_behavioural,3.0.4,60.067534065175934,
7,The professor dismissed the students with a reminder that the midterm paper was due on Thursday and that they should email their papers to the TA.,4,3,None,,0,7,7,7,,,,,0,22,22,22,,,,,,,,,,,,,,,,,,,,,,,,,,,,,,,,,1,9.33484020800097,,,,,,,,,,,,,,,,,,,,,,,,,,,,062719_p3,001,2019_Jun_27_1618,body_behavioural,3.0.4,60.067534065175934,
7,"Everyone, except Charlie and Alma, packed up their things and headed out of the lecture hall. ",4,3,None,,0,7,7,7,,,,,0,23,23,23,,,,,,,,,,,,,,,,,,,,,,,,,,,,,,,,,9,4.403945792990271,,,,,,,,,,,,,,,,,,,,,,,,,,,,062719_p3,001,2019_Jun_27_1618,body_behavioural,3.0.4,60.067534065175934,
7,"“Alright, so we’ll have the $30,000 wired to you by tomorrow,” Charlie said. ",4,4,None,,0,7,7,7,,,,,0,24,24,24,,,,,,,,,,,,,,,,,,,,,,,,,,,,,,,,,1,4.23552207503235,,,,,,,,,,,,,,,,,,,,,,,,,,,,062719_p3,001,2019_Jun_27_1618,body_behavioural,3.0.4,60.067534065175934,
7,"This wasn't ideal for Charlie, but Alma had refused to budge, and his investment group had told him they were willing to pay the full amount if necessary. ",4,4,None,,0,7,7,7,,,,,0,25,25,25,,,,,,,,,,,,,,,,,,,,,,,,,,,,,,,,,1,16.421348845004104,,,,,,,,,,,,,,,,,,,,,,,,,,,,062719_p3,001,2019_Jun_27_1618,body_behavioural,3.0.4,60.067534065175934,
7,They hugged in confirmation of the deal and made plans to sign the official paperwork the next day. ,4,4,None,,0,7,7,7,,,,,0,26,26,26,,,,,,,,,,,,,,,,,,,,,,,,,,,,,,,,,1,6.236640980001539,,,,,,,,,,,,,,,,,,,,,,,,,,,,062719_p3,001,2019_Jun_27_1618,body_behavioural,3.0.4,60.067534065175934,
7,,,,,,0,7,7,7,,,,,,,,,,,,,,,,,,,,,,,,,,,,,,,,,,,,,,,,,,,,,,,,,,,,,,,,,,,,,,,,,,,,,,062719_p3,001,2019_Jun_27_1618,body_behavioural,3.0.4,60.067534065175934,
,,,,,,,,,,,,,,,,,,,,,,,,,,,,,,,,,,,,,,,,,,,,,,,,,,,,2311.0932925150264,space,1.9864528100006282,,,,,,,,,,,,,,,,,,,,,,,,,062719_p3,001,2019_Jun_27_1618,body_behavioural,3.0.4,60.067534065175934,
,,,,,"In this next part of the experiment, please recall each story to the best of your ability.",,,,,,,,,,,,,0,0,0,0,,,,,,,,,,,,,,,,,,,,,,,,,,,,,,,,,,space,5.437120093032718,,,,,,,,,,,,,,,,,,,,,,,062719_p3,001,2019_Jun_27_1618,body_behavioural,3.0.4,60.067534065175934,
,,,,,"You will be presented with the story title, names, the images, and a blank text box for each story.",,,,,,,,,,,,,0,1,1,1,,,,,,,,,,,,,,,,,,,,,,,,,,,,,,,,,,space,6.636585354979616,,,,,,,,,,,,,,,,,,,,,,,062719_p3,001,2019_Jun_27_1618,body_behavioural,3.0.4,60.067534065175934,
,,,,,Describe the story indicated with as many details as you can remember in the space provided. ,,,,,,,,,,,,,0,2,2,2,,,,,,,,,,,,,,,,,,,,,,,,,,,,,,,,,,space,5.403500588028692,,,,,,,,,,,,,,,,,,,,,,,062719_p3,001,2019_Jun_27_1618,body_behavioural,3.0.4,60.067534065175934,
,,,,,"When you are finished recalling one story, to move onto the next one, press the ‘return’ key. ",,,,,,,,,,,,,0,3,3,3,,,,,,,,,,,,,,,,,,,,,,,,,,,,,,,,,,space,5.836758462013677,,,,,,,,,,,,,,,,,,,,,,,062719_p3,001,2019_Jun_27_1618,body_behavioural,3.0.4,60.067534065175934,
,,,,,There is a 5 minute time limit to make your response. ,,,,,,,,,,,,,0,4,4,4,,,,,,,,,,,,,,,,,,,,,,,,,,,,,,,,,,space,2.752712715009693,,,,,,,,,,,,,,,,,,,,,,,062719_p3,001,2019_Jun_27_1618,body_behavioural,3.0.4,60.067534065175934,
,,,,,Please note that you will not be able to capitalize any letters except for the first letter of your answer. This will not effect the scoring of your recall answer.,,,,,,,,,,,,,0,5,5,5,,,,,,,,,,,,,,,,,,,,,,,,,,,,,,,,,,space,7.669944103050511,,,,,,,,,,,,,,,,,,,,,,,062719_p3,001,2019_Jun_27_1618,body_behavioural,3.0.4,60.067534065175934,
0,,,,,,,,,,,,,,,,,,,,,,0,0,0,0,,,,,,,,,,,,,,,,,,,,,,,,,,,,,,,,space,2.0179303779732436,,,,,,,,,,,,,,,,,,,,,062719_p3,001,2019_Jun_27_1618,body_behavioural,3.0.4,60.067534065175934,
1,,,,,,,,,,,,,,,,,,,,,,0,1,1,1,,,,,,,,,,,,,,,,,,,,,,,,,,,,,,,,space,2.9028801529784687,,,,,,,,,,,,,,,,,,,,,062719_p3,001,2019_Jun_27_1618,body_behavioural,3.0.4,60.067534065175934,
2,,,,,,,,,,,,,,,,,,,,,,0,2,2,2,,,,,,,,,,,,,,,,,,,,,,,,,,,,,,,,space,2.136511098011397,,,,,,,,,,,,,,,,,,,,,062719_p3,001,2019_Jun_27_1618,body_behavioural,3.0.4,60.067534065175934,
3,,,,,,,,,,,,,,,,,,,,,,0,3,3,3,,,,,,,,,,,,,,,,,,,,,,,,,,,,,,,,space,2.0527651050360873,,,,,,,,,,,,,,,,,,,,,062719_p3,001,2019_Jun_27_1618,body_behavioural,3.0.4,60.067534065175934,
4,,,,,,,,,,,,,,,,,,,,,,0,4,4,4,,,,,,,,,,,,,,,,,,,,,,,,,,,,,,,,space,245.36979249800788,,,,,,,,,,,,,,,,,,,,,062719_p3,001,2019_Jun_27_1618,body_behavioural,3.0.4,60.067534065175934,
5,,,,,,,,,,,,,,,,,,,,,,0,5,5,5,,,,,,,,,,,,,,,,,,,,,,,,,,,,,,,,space,6.135894970968366,,,,,,,,,,,,,,,,,,,,,062719_p3,001,2019_Jun_27_1618,body_behavioural,3.0.4,60.067534065175934,
6,,,,,,,,,,,,,,,,,,,,,,0,6,6,6,,,,,,,,,,,,,,,,,,,,,,,,,,,,,,,,space,1.2696173150325194,,,,,,,,,,,,,,,,,,,,,062719_p3,001,2019_Jun_27_1618,body_behavioural,3.0.4,60.067534065175934,
7,,,,,,,,,,,,,,,,,,,,,,0,7,7,7,,,,,,,,,,,,,,,,,,,,,,,,,,,,,,,,space,0.18589994998183101,,,,,,,,,,,,,,,,,,,,,062719_p3,001,2019_Jun_27_1618,body_behavioural,3.0.4,60.067534065175934,
,,,,,,,,,,,,,,,,,,,,,,,,,,,,,,,,,,,,,,,,,,,,,,,,,,,,,,,,,,,5009.9441479999805,space,3.88622944499366,,,,,,,,,,,,,,,,,,062719_p3,001,2019_Jun_27_1618,body_behavioural,3.0.4,60.067534065175934,
,,,,,"In this last part of the experiment, please answer 8 questions about each story.",,,,,,,,,,,,,,,,,,,,,0,0,0,0,,,,,,,,,,,,,,,,,,,,,,,,,,,,,,,,,space,9.654639496991877,,,,,,,,,,,,,,,,062719_p3,001,2019_Jun_27_1618,body_behavioural,3.0.4,60.067534065175934,
,,,,,Some of the questions are not related to the perspective you were asked to assume.,,,,,,,,,,,,,,,,,,,,,0,1,1,1,,,,,,,,,,,,,,,,,,,,,,,,,,,,,,,,,space,3.4345276469830424,,,,,,,,,,,,,,,,062719_p3,001,2019_Jun_27_1618,body_behavioural,3.0.4,60.067534065175934,
,,,,,"We realize that we did not tell you to think of these questions during the story, but please do your best to answer them.",,,,,,,,,,,,,,,,,,,,,0,2,2,2,,,,,,,,,,,,,,,,,,,,,,,,,,,,,,,,,space,4.98640161001822,,,,,,,,,,,,,,,,062719_p3,001,2019_Jun_27_1618,body_behavioural,3.0.4,60.067534065175934,
,,,,,"When you have finished typing your answer, hit ‘return’ to submit your answer and move onto the next question. ",,,,,,,,,,,,,,,,,,,,,0,3,3,3,,,,,,,,,,,,,,,,,,,,,,,,,,,,,,,,,space,5.487274051003624,,,,,,,,,,,,,,,,062719_p3,001,2019_Jun_27_1618,body_behavioural,3.0.4,60.067534065175934,
0,,,,,,,,,,,,,,,,,,,,,,,,,,,,,,0,0,0,0,,,,,,,,,,,,,,,,,,,,,,,,,,,,,,,space,0.6340350150130689,At noon,Tall with archs and big windows. a bit ancient,primed first,History class. about egyptian history and mummification,Mummification,On thursday,Books,Are you from laquestion,That night eight pm,At noon,,,,062719_p3,001,2019_Jun_27_1618,body_behavioural,3.0.4,60.067534065175934,
1,,,,,,,,,,,,,,,,,,,,,,,,,,,,,,0,1,1,1,,,,,,,,,,,,,,,,,,,,,,,,,,,,,,,space,5.419655019999482,The meat was too ld,Cfo ,non-primed first,2800000,Jettech,Handshake,Dark wood,,Steaks,The meat was too ld,,,,062719_p3,001,2019_Jun_27_1618,body_behavioural,3.0.4,60.067534065175934,
2,,,,,,,,,,,,,,,,,,,,,,,,,,,,,,0,2,2,2,,,,,,,,,,,,,,,,,,,,,,,,,,,,,,,space,4.2698581800214015,Cat,Brightly lit and clean,primed first,Pasta,"1,3","1, credit card",5 weeks,Their personalities are incompatible,"Yes, because he thinks it makes sense",Cat,,,,062719_p3,001,2019_Jun_27_1618,body_behavioural,3.0.4,60.067534065175934,
3,,,,,,,,,,,,,,,,,,,,,,,,,,,,,,0,3,3,3,,,,,,,,,,,,,,,,,,,,,,,,,,,,,,,space,1.2529634829843417,"14 dollars, by cash",23 months,primed first,"2, pink",A velvet box with white ribbon string,Her mom,Clean,,"3,5","14 dollars, by cash",,,,062719_p3,001,2019_Jun_27_1618,body_behavioural,3.0.4,60.067534065175934,
4,,,,,,,,,,,,,,,,,,,,,,,,,,,,,,0,4,4,4,,,,,,,,,,,,,,,,,,,,,,,,,,,,,,,space,1.6030119680217467,Jessie wants her philosophy books back,45 min,non-primed first,They were changing shifts,,33c and 33a,5 months,Their personalities are incompatible,"Yes, because it makes sense",Jessie wants her philosophy books back,,,,062719_p3,001,2019_Jun_27_1618,body_behavioural,3.0.4,60.067534065175934,
5,,,,,,,,,,,,,,,,,,,,,,,,,,,,,,0,5,5,5,,,,,,,,,,,,,,,,,,,,,,,,,,,,,,,space,1.0025865700445138,Her best friend,1hr45mins,primed first,Sven forgot to take out the ring,,Didn's say,11 months,Didn's say,A box,Her best friend,,,,062719_p3,001,2019_Jun_27_1618,body_behavioural,3.0.4,60.067534065175934,
6,,,,,,,,,,,,,,,,,,,,,,,,,,,,,,0,6,6,6,,,,,,,,,,,,,,,,,,,,,,,,,,,,,,,space,1.20305486000143,3pm,Wooden chair and table,non-primed first,Neon covers,James ordered tuna and vegetable rolls and teresa ordered salmon roll and japanese beer,"Good, the fish was really fresh",Newspaper,Is your forehead okay,That night for a concert,3pm,,,,062719_p3,001,2019_Jun_27_1618,body_behavioural,3.0.4,60.067534065175934,
7,,,,,,,,,,,,,,,,,,,,,,,,,,,,,,0,7,7,7,,,,,,,,,,,,,,,,,,,,,,,,,,,,,,,space,1.0028606900013983,The quiz next class,Invester and investee,primed first,28000,St charlies,Didn't say,Didn't say,"Rome and augustus, archeology",That audustus want to beautify rome,The quiz next class,,,,062719_p3,001,2019_Jun_27_1618,body_behavioural,3.0.4,60.067534065175934,
,,,,,,,,,,,,,,,,,,,,,,,,,,,,,,,,,,,,,,,,,,,,,,,,,,,,,,,,,,,,,,,,,,,,,,,,,,,,5990.477496215026,space,1.9033123850240372,062719_p3,001,2019_Jun_27_1618,body_behavioural,3.0.4,60.067534065175934,
,,,,,,,,,,,,,,,,,,,,,,,,,,,,,,,,,,0,0,0,0,,,,,,,,,,,,,,,,,,,,,,,,,,,,,,,,,,,,,,,,,,062719_p3,001,2019_Jun_27_1618,body_behavioural,3.0.4,60.067534065175934,
,,,,,,,,,,,,,,,,,,,,,,,,,,,,,,,,,,1,0,1,0,,,,,,,,,,,,,,,,,,,,,,,,,,,,,,,,,,,,,,,,,,062719_p3,001,2019_Jun_27_1618,body_behavioural,3.0.4,60.067534065175934,
,,,,,,,,,,,,,,,,,,,,,,,,,,,,,,,,,,2,0,2,0,,,,,,,,,,,,,,,,,,,,,,,,,,,,,,,,,,,,,,,,,,062719_p3,001,2019_Jun_27_1618,body_behavioural,3.0.4,60.067534065175934,
,,,,,,,,,,,,,,,,,,,,,,,,,,,,,,,,,,3,0,3,0,,,,,,,,,,,,,,,,,,,,,,,,,,,,,,,,,,,,,,,,,,062719_p3,001,2019_Jun_27_1618,body_behavioural,3.0.4,60.067534065175934,
,,,,,,,,,,,,,,,,,,,,,,,,,,,,,,,,,,4,0,4,0,,,,,,,,,,,,,,,,,,,,,,,,,,,,,,,,,,,,,,,,,,062719_p3,001,2019_Jun_27_1618,body_behavioural,3.0.4,60.067534065175934,
