count,audio,instructText,trials.thisRepN,trials.thisTrialN,trials.thisN,trials.thisIndex,trials_7.thisRepN,trials_7.thisTrialN,trials_7.thisN,trials_7.thisIndex,trials_2.thisRepN,trials_2.thisTrialN,trials_2.thisN,trials_2.thisIndex,trials_3.thisRepN,trials_3.thisTrialN,trials_3.thisN,trials_3.thisIndex,trials_4.thisRepN,trials_4.thisTrialN,trials_4.thisN,trials_4.thisIndex,trials_5.thisRepN,trials_5.thisTrialN,trials_5.thisN,trials_5.thisIndex,trials_6.thisRepN,trials_6.thisTrialN,trials_6.thisN,trials_6.thisIndex,trials_8.thisRepN,trials_8.thisTrialN,trials_8.thisN,trials_8.thisIndex,order of stories,order of perspectives,participant 2 order - stories,participant 2 order  - schemas types,key_resp_8.keys,key_resp_8.rt,key_resp_5.keys,key_resp_5.rt,key_resp_7.keys,key_resp_7.rt,key_resp_15.keys,key_resp_15.rt,key_resp_14.keys,key_resp_14.rt,story_presses.keys,story_presses.rt,key_resp_16.keys,key_resp_16.rt,story time,key_resp_6.keys,key_resp_6.rt,key_resp_2.keys,key_resp_2.rt,key_resp_10.keys,key_resp_10.rt,recall,recall time,key_resp_12.keys,key_resp_12.rt,key_resp_3.keys,key_resp_3.rt,key_resp_11.keys,key_resp_11.rt,question1_answer,order of question,question2_answer,question3_answer,question4_answer,question5_answer,question6_answer,question7_answer,question8_answer,questions time,key_resp_13.keys,key_resp_13.rt,participant,session,date,expName,psychopyVersion,frameRate,
0,,,0,0,0,0,0,0,0,0,,,,,,,,,,,,,,,,,,,,,,,,,[34 23 24 11 41 42 12 33 44 22 14 43 21 31 13 32],"['Location' 'Location' 'Social' 'Location' 'Social' 'Location' 'Social'
 'Social' 'Location' 'Social' 'Social' 'Social' 'Location' 'Social'
 'Location' 'Location']",[44 22 14 43 21 31 13 32],"['Location' 'Social' 'Social' 'Social' 'Location' 'Social' 'Location'
 'Location']",space,22.84343699999954,space,1.753867321999678,space,2.53579621299923,,,,,,,,,,,,,,,,,,,,,,,,,,,,,,,,,,,,082919_p2,001,2019_Aug_29_1523,body_behavioural,3.0.4,60.00098521612661,
0,parcelated_audio/34/34_1.aiff,,0,0,0,0,,,,,0,0,0,0,,,,,,,,,,,,,,,,,,,,,,,,,,,,,,,space,1.8200330310000936,space,2.3199837519996436,9,1.6523814070005756,,,,,,,,,,,,,,,,,,,,,,,,,,,,,,082919_p2,001,2019_Aug_29_1523,body_behavioural,3.0.4,60.00098521612661,
0,parcelated_audio/34/34_2.aiff,,0,0,0,0,,,,,0,1,1,1,,,,,,,,,,,,,,,,,,,,,,,,,,,,,,,,,,,1,0.17030427099962253,,,,,,,,,,,,,,,,,,,,,,,,,,,,,,082919_p2,001,2019_Aug_29_1523,body_behavioural,3.0.4,60.00098521612661,
0,parcelated_audio/34/34_3.aiff,,0,0,0,0,,,,,0,2,2,2,,,,,,,,,,,,,,,,,,,,,,,,,,,,,,,,,,,1,0.18373776799944608,,,,,,,,,,,,,,,,,,,,,,,,,,,,,,082919_p2,001,2019_Aug_29_1523,body_behavioural,3.0.4,60.00098521612661,
0,parcelated_audio/34/34_4.aiff,,0,0,0,0,,,,,0,3,3,3,,,,,,,,,,,,,,,,,,,,,,,,,,,,,,,,,,,9,1.9038075950002167,,,,,,,,,,,,,,,,,,,,,,,,,,,,,,082919_p2,001,2019_Aug_29_1523,body_behavioural,3.0.4,60.00098521612661,
0,parcelated_audio/34/34_5.aiff,,0,0,0,0,,,,,0,4,4,4,,,,,,,,,,,,,,,,,,,,,,,,,,,,,,,,,,,1,0.08668101400053274,,,,,,,,,,,,,,,,,,,,,,,,,,,,,,082919_p2,001,2019_Aug_29_1523,body_behavioural,3.0.4,60.00098521612661,
0,parcelated_audio/34/34_6.aiff,,0,0,0,0,,,,,0,5,5,5,,,,,,,,,,,,,,,,,,,,,,,,,,,,,,,,,,,1,0.2532526479999433,,,,,,,,,,,,,,,,,,,,,,,,,,,,,,082919_p2,001,2019_Aug_29_1523,body_behavioural,3.0.4,60.00098521612661,
0,parcelated_audio/34/34_7.aiff,,0,0,0,0,,,,,0,6,6,6,,,,,,,,,,,,,,,,,,,,,,,,,,,,,,,,,,,9,1.8033046830005333,,,,,,,,,,,,,,,,,,,,,,,,,,,,,,082919_p2,001,2019_Aug_29_1523,body_behavioural,3.0.4,60.00098521612661,
0,parcelated_audio/34/34_8.aiff,,0,0,0,0,,,,,0,7,7,7,,,,,,,,,,,,,,,,,,,,,,,,,,,,,,,,,,,1,0.7175028279998514,,,,,,,,,,,,,,,,,,,,,,,,,,,,,,082919_p2,001,2019_Aug_29_1523,body_behavioural,3.0.4,60.00098521612661,
0,parcelated_audio/34/34_9.aiff,,0,0,0,0,,,,,0,8,8,8,,,,,,,,,,,,,,,,,,,,,,,,,,,,,,,,,,,9,0.8364105499995276,,,,,,,,,,,,,,,,,,,,,,,,,,,,,,082919_p2,001,2019_Aug_29_1523,body_behavioural,3.0.4,60.00098521612661,
0,parcelated_audio/34/34_10.aiff,,0,0,0,0,,,,,0,9,9,9,,,,,,,,,,,,,,,,,,,,,,,,,,,,,,,,,,,1,2.8700204280003163,,,,,,,,,,,,,,,,,,,,,,,,,,,,,,082919_p2,001,2019_Aug_29_1523,body_behavioural,3.0.4,60.00098521612661,
0,parcelated_audio/34/34_11.aiff,,0,0,0,0,,,,,0,10,10,10,,,,,,,,,,,,,,,,,,,,,,,,,,,,,,,,,,,1,0.5199105399997279,,,,,,,,,,,,,,,,,,,,,,,,,,,,,,082919_p2,001,2019_Aug_29_1523,body_behavioural,3.0.4,60.00098521612661,
0,parcelated_audio/34/34_12.aiff,,0,0,0,0,,,,,0,11,11,11,,,,,,,,,,,,,,,,,,,,,,,,,,,,,,,,,,,9,0.4030825029994958,,,,,,,,,,,,,,,,,,,,,,,,,,,,,,082919_p2,001,2019_Aug_29_1523,body_behavioural,3.0.4,60.00098521612661,
0,parcelated_audio/34/34_13.aiff,,0,0,0,0,,,,,0,12,12,12,,,,,,,,,,,,,,,,,,,,,,,,,,,,,,,,,,,1,0.4530538170001819,,,,,,,,,,,,,,,,,,,,,,,,,,,,,,082919_p2,001,2019_Aug_29_1523,body_behavioural,3.0.4,60.00098521612661,
0,parcelated_audio/34/34_14.aiff,,0,0,0,0,,,,,0,13,13,13,,,,,,,,,,,,,,,,,,,,,,,,,,,,,,,,,,,1,0.30334022699935304,,,,,,,,,,,,,,,,,,,,,,,,,,,,,,082919_p2,001,2019_Aug_29_1523,body_behavioural,3.0.4,60.00098521612661,
0,parcelated_audio/34/34_15.aiff,,0,0,0,0,,,,,0,14,14,14,,,,,,,,,,,,,,,,,,,,,,,,,,,,,,,,,,,1,0.3527775829998063,,,,,,,,,,,,,,,,,,,,,,,,,,,,,,082919_p2,001,2019_Aug_29_1523,body_behavioural,3.0.4,60.00098521612661,
0,parcelated_audio/34/34_16.aiff,,0,0,0,0,,,,,0,15,15,15,,,,,,,,,,,,,,,,,,,,,,,,,,,,,,,,,,,9,0.6531990430003134,,,,,,,,,,,,,,,,,,,,,,,,,,,,,,082919_p2,001,2019_Aug_29_1523,body_behavioural,3.0.4,60.00098521612661,
0,parcelated_audio/34/34_17.aiff,,0,0,0,0,,,,,0,16,16,16,,,,,,,,,,,,,,,,,,,,,,,,,,,,,,,,,,,1,0.5863759819994812,,,,,,,,,,,,,,,,,,,,,,,,,,,,,,082919_p2,001,2019_Aug_29_1523,body_behavioural,3.0.4,60.00098521612661,
0,parcelated_audio/34/34_18.aiff,,0,0,0,0,,,,,0,17,17,17,,,,,,,,,,,,,,,,,,,,,,,,,,,,,,,,,,,9,0.5365604769995116,,,,,,,,,,,,,,,,,,,,,,,,,,,,,,082919_p2,001,2019_Aug_29_1523,body_behavioural,3.0.4,60.00098521612661,
0,parcelated_audio/34/34_19.aiff,,0,0,0,0,,,,,0,18,18,18,,,,,,,,,,,,,,,,,,,,,,,,,,,,,,,,,,,1,0.5364474799998789,,,,,,,,,,,,,,,,,,,,,,,,,,,,,,082919_p2,001,2019_Aug_29_1523,body_behavioural,3.0.4,60.00098521612661,
0,parcelated_audio/34/34_20.aiff,,0,0,0,0,,,,,0,19,19,19,,,,,,,,,,,,,,,,,,,,,,,,,,,,,,,,,,,1,0.9696398120004233,,,,,,,,,,,,,,,,,,,,,,,,,,,,,,082919_p2,001,2019_Aug_29_1523,body_behavioural,3.0.4,60.00098521612661,
0,parcelated_audio/34/34_21.aiff,,0,0,0,0,,,,,0,20,20,20,,,,,,,,,,,,,,,,,,,,,,,,,,,,,,,,,,,1,0.45313436499964155,,,,,,,,,,,,,,,,,,,,,,,,,,,,,,082919_p2,001,2019_Aug_29_1523,body_behavioural,3.0.4,60.00098521612661,
0,parcelated_audio/34/34_22.aiff,,0,0,0,0,,,,,0,21,21,21,,,,,,,,,,,,,,,,,,,,,,,,,,,,,,,,,,,1,0.3006977699997151,,,,,,,,,,,,,,,,,,,,,,,,,,,,,,082919_p2,001,2019_Aug_29_1523,body_behavioural,3.0.4,60.00098521612661,
0,parcelated_audio/34/34_23.aiff,,0,0,0,0,,,,,0,22,22,22,,,,,,,,,,,,,,,,,,,,,,,,,,,,,,,,,,,9,0.3198507499992047,,,,,,,,,,,,,,,,,,,,,,,,,,,,,,082919_p2,001,2019_Aug_29_1523,body_behavioural,3.0.4,60.00098521612661,
0,parcelated_audio/34/34_24.aiff,,0,0,0,0,,,,,0,23,23,23,,,,,,,,,,,,,,,,,,,,,,,,,,,,,,,,,,,1,1.0198398680004175,,,,,,,,,,,,,,,,,,,,,,,,,,,,,,082919_p2,001,2019_Aug_29_1523,body_behavioural,3.0.4,60.00098521612661,
0,parcelated_audio/34/34_25.aiff,,0,0,0,0,,,,,0,24,24,24,,,,,,,,,,,,,,,,,,,,,,,,,,,,,,,,,,,9,0.4199211880004441,,,,,,,,,,,,,,,,,,,,,,,,,,,,,,082919_p2,001,2019_Aug_29_1523,body_behavioural,3.0.4,60.00098521612661,
0,parcelated_audio/34/34_26.aiff,,0,0,0,0,,,,,0,25,25,25,,,,,,,,,,,,,,,,,,,,,,,,,,,,,,,,,,,1,0.23660144099994795,,,,,,,,,,,,,,,,,,,,,,,,,,,,,,082919_p2,001,2019_Aug_29_1523,body_behavioural,3.0.4,60.00098521612661,
0,parcelated_audio/34/34_27.aiff,,0,0,0,0,,,,,0,26,26,26,,,,,,,,,,,,,,,,,,,,,,,,,,,,,,,,,,,1,0.5527494140005729,,,,,,,,,,,,,,,,,,,,,,,,,,,,,,082919_p2,001,2019_Aug_29_1523,body_behavioural,3.0.4,60.00098521612661,
0,,,0,0,0,0,,,,,,,,,,,,,,,,,,,,,,,,,,,,,,,,,,,,,,,,,,,,,space,1.7862457530000029,,,,,,,,,,,,,,,,,,,,,,,,,,,,082919_p2,001,2019_Aug_29_1523,body_behavioural,3.0.4,60.00098521612661,
1,,,0,1,1,1,0,0,0,0,,,,,,,,,,,,,,,,,,,,,,,,,,,,,space,6.386965140000029,space,1.3194762920002177,space,0.8364999499999612,,,,,,,,,,,,,,,,,,,,,,,,,,,,,,,,,,,,082919_p2,001,2019_Aug_29_1523,body_behavioural,3.0.4,60.00098521612661,
1,parcelated_audio/23/23_1.aiff,,0,1,1,1,,,,,0,0,0,0,,,,,,,,,,,,,,,,,,,,,,,,,,,,,,,space,1.1532548380000662,space,3.570697432000088,9,1.2201098420000562,,,,,,,,,,,,,,,,,,,,,,,,,,,,,,082919_p2,001,2019_Aug_29_1523,body_behavioural,3.0.4,60.00098521612661,
1,parcelated_audio/23/23_2.aiff,,0,1,1,1,,,,,0,1,1,1,,,,,,,,,,,,,,,,,,,,,,,,,,,,,,,,,,,9,0.3363101659997483,,,,,,,,,,,,,,,,,,,,,,,,,,,,,,082919_p2,001,2019_Aug_29_1523,body_behavioural,3.0.4,60.00098521612661,
1,parcelated_audio/23/23_3.aiff,,0,1,1,1,,,,,0,2,2,2,,,,,,,,,,,,,,,,,,,,,,,,,,,,,,,,,,,1,0.319935782000357,,,,,,,,,,,,,,,,,,,,,,,,,,,,,,082919_p2,001,2019_Aug_29_1523,body_behavioural,3.0.4,60.00098521612661,
1,parcelated_audio/23/23_4.aiff,,0,1,1,1,,,,,0,3,3,3,,,,,,,,,,,,,,,,,,,,,,,,,,,,,,,,,,,1,0.4867347700001119,,,,,,,,,,,,,,,,,,,,,,,,,,,,,,082919_p2,001,2019_Aug_29_1523,body_behavioural,3.0.4,60.00098521612661,
1,parcelated_audio/23/23_5.aiff,,0,1,1,1,,,,,0,4,4,4,,,,,,,,,,,,,,,,,,,,,,,,,,,,,,,,,,,9,1.2007963850001033,,,,,,,,,,,,,,,,,,,,,,,,,,,,,,082919_p2,001,2019_Aug_29_1523,body_behavioural,3.0.4,60.00098521612661,
1,parcelated_audio/23/23_6.aiff,,0,1,1,1,,,,,0,5,5,5,,,,,,,,,,,,,,,,,,,,,,,,,,,,,,,,,,,1,0.30301468899961037,,,,,,,,,,,,,,,,,,,,,,,,,,,,,,082919_p2,001,2019_Aug_29_1523,body_behavioural,3.0.4,60.00098521612661,
1,parcelated_audio/23/23_7.aiff,,0,1,1,1,,,,,0,6,6,6,,,,,,,,,,,,,,,,,,,,,,,,,,,,,,,,,,,9,0.2533139979996122,,,,,,,,,,,,,,,,,,,,,,,,,,,,,,082919_p2,001,2019_Aug_29_1523,body_behavioural,3.0.4,60.00098521612661,
1,parcelated_audio/23/23_8.aiff,,0,1,1,1,,,,,0,7,7,7,,,,,,,,,,,,,,,,,,,,,,,,,,,,,,,,,,,1,0.26900140100042336,,,,,,,,,,,,,,,,,,,,,,,,,,,,,,082919_p2,001,2019_Aug_29_1523,body_behavioural,3.0.4,60.00098521612661,
1,parcelated_audio/23/23_9.aiff,,0,1,1,1,,,,,0,8,8,8,,,,,,,,,,,,,,,,,,,,,,,,,,,,,,,,,,,1,0.7865015269999276,,,,,,,,,,,,,,,,,,,,,,,,,,,,,,082919_p2,001,2019_Aug_29_1523,body_behavioural,3.0.4,60.00098521612661,
1,parcelated_audio/23/23_10.aiff,,0,1,1,1,,,,,0,9,9,9,,,,,,,,,,,,,,,,,,,,,,,,,,,,,,,,,,,1,0.5366525199997341,,,,,,,,,,,,,,,,,,,,,,,,,,,,,,082919_p2,001,2019_Aug_29_1523,body_behavioural,3.0.4,60.00098521612661,
1,parcelated_audio/23/23_11.aiff,,0,1,1,1,,,,,0,10,10,10,,,,,,,,,,,,,,,,,,,,,,,,,,,,,,,,,,,9,0.5032697599999665,,,,,,,,,,,,,,,,,,,,,,,,,,,,,,082919_p2,001,2019_Aug_29_1523,body_behavioural,3.0.4,60.00098521612661,
1,parcelated_audio/23/23_12.aiff,,0,1,1,1,,,,,0,11,11,11,,,,,,,,,,,,,,,,,,,,,,,,,,,,,,,,,,,1,0.8367212920002203,,,,,,,,,,,,,,,,,,,,,,,,,,,,,,082919_p2,001,2019_Aug_29_1523,body_behavioural,3.0.4,60.00098521612661,
1,parcelated_audio/23/23_13.aiff,,0,1,1,1,,,,,0,12,12,12,,,,,,,,,,,,,,,,,,,,,,,,,,,,,,,,,,,9,0.35308643200005463,,,,,,,,,,,,,,,,,,,,,,,,,,,,,,082919_p2,001,2019_Aug_29_1523,body_behavioural,3.0.4,60.00098521612661,
1,parcelated_audio/23/23_14.aiff,,0,1,1,1,,,,,0,13,13,13,,,,,,,,,,,,,,,,,,,,,,,,,,,,,,,,,,,9,0.453244125999845,,,,,,,,,,,,,,,,,,,,,,,,,,,,,,082919_p2,001,2019_Aug_29_1523,body_behavioural,3.0.4,60.00098521612661,
1,parcelated_audio/23/23_15.aiff,,0,1,1,1,,,,,0,14,14,14,,,,,,,,,,,,,,,,,,,,,,,,,,,,,,,,,,,1,0.4365492649994849,,,,,,,,,,,,,,,,,,,,,,,,,,,,,,082919_p2,001,2019_Aug_29_1523,body_behavioural,3.0.4,60.00098521612661,
1,parcelated_audio/23/23_16.aiff,,0,1,1,1,,,,,0,15,15,15,,,,,,,,,,,,,,,,,,,,,,,,,,,,,,,,,,,9,0.31984872499924677,,,,,,,,,,,,,,,,,,,,,,,,,,,,,,082919_p2,001,2019_Aug_29_1523,body_behavioural,3.0.4,60.00098521612661,
1,parcelated_audio/23/23_17.aiff,,0,1,1,1,,,,,0,16,16,16,,,,,,,,,,,,,,,,,,,,,,,,,,,,,,,,,,,1,0.3365773800005627,,,,,,,,,,,,,,,,,,,,,,,,,,,,,,082919_p2,001,2019_Aug_29_1523,body_behavioural,3.0.4,60.00098521612661,
1,parcelated_audio/23/23_18.aiff,,0,1,1,1,,,,,0,17,17,17,,,,,,,,,,,,,,,,,,,,,,,,,,,,,,,,,,,1,0.2530730750004295,,,,,,,,,,,,,,,,,,,,,,,,,,,,,,082919_p2,001,2019_Aug_29_1523,body_behavioural,3.0.4,60.00098521612661,
1,parcelated_audio/23/23_19.aiff,,0,1,1,1,,,,,0,18,18,18,,,,,,,,,,,,,,,,,,,,,,,,,,,,,,,,,,,9,2.3177896380002494,,,,,,,,,,,,,,,,,,,,,,,,,,,,,,082919_p2,001,2019_Aug_29_1523,body_behavioural,3.0.4,60.00098521612661,
1,parcelated_audio/23/23_20.aiff,,0,1,1,1,,,,,0,19,19,19,,,,,,,,,,,,,,,,,,,,,,,,,,,,,,,,,,,1,0.21974788999978045,,,,,,,,,,,,,,,,,,,,,,,,,,,,,,082919_p2,001,2019_Aug_29_1523,body_behavioural,3.0.4,60.00098521612661,
1,parcelated_audio/23/23_21.aiff,,0,1,1,1,,,,,0,20,20,20,,,,,,,,,,,,,,,,,,,,,,,,,,,,,,,,,,,1,0.35313150999991194,,,,,,,,,,,,,,,,,,,,,,,,,,,,,,082919_p2,001,2019_Aug_29_1523,body_behavioural,3.0.4,60.00098521612661,
1,parcelated_audio/23/23_22.aiff,,0,1,1,1,,,,,0,21,21,21,,,,,,,,,,,,,,,,,,,,,,,,,,,,,,,,,,,1,0.26973972500036325,,,,,,,,,,,,,,,,,,,,,,,,,,,,,,082919_p2,001,2019_Aug_29_1523,body_behavioural,3.0.4,60.00098521612661,
1,parcelated_audio/23/23_23.aiff,,0,1,1,1,,,,,0,22,22,22,,,,,,,,,,,,,,,,,,,,,,,,,,,,,,,,,,,1,0.4005993800001306,,,,,,,,,,,,,,,,,,,,,,,,,,,,,,082919_p2,001,2019_Aug_29_1523,body_behavioural,3.0.4,60.00098521612661,
1,parcelated_audio/23/23_24.aiff,,0,1,1,1,,,,,0,23,23,23,,,,,,,,,,,,,,,,,,,,,,,,,,,,,,,,,,,1,0.35332779199961806,,,,,,,,,,,,,,,,,,,,,,,,,,,,,,082919_p2,001,2019_Aug_29_1523,body_behavioural,3.0.4,60.00098521612661,
1,parcelated_audio/23/23_25.aiff,,0,1,1,1,,,,,0,24,24,24,,,,,,,,,,,,,,,,,,,,,,,,,,,,,,,,,,,1,1.0838743999993312,,,,,,,,,,,,,,,,,,,,,,,,,,,,,,082919_p2,001,2019_Aug_29_1523,body_behavioural,3.0.4,60.00098521612661,
1,parcelated_audio/23/23_26.aiff,,0,1,1,1,,,,,0,25,25,25,,,,,,,,,,,,,,,,,,,,,,,,,,,,,,,,,,,1,0.6193052989992793,,,,,,,,,,,,,,,,,,,,,,,,,,,,,,082919_p2,001,2019_Aug_29_1523,body_behavioural,3.0.4,60.00098521612661,
1,parcelated_audio/23/23_27.aiff,,0,1,1,1,,,,,0,26,26,26,,,,,,,,,,,,,,,,,,,,,,,,,,,,,,,,,,,1,0.2371389750005619,,,,,,,,,,,,,,,,,,,,,,,,,,,,,,082919_p2,001,2019_Aug_29_1523,body_behavioural,3.0.4,60.00098521612661,
1,parcelated_audio/23/23_28.aiff,,0,1,1,1,,,,,0,27,27,27,,,,,,,,,,,,,,,,,,,,,,,,,,,,,,,,,,,1,0.4865661200001341,,,,,,,,,,,,,,,,,,,,,,,,,,,,,,082919_p2,001,2019_Aug_29_1523,body_behavioural,3.0.4,60.00098521612661,
1,parcelated_audio/23/23_29.aiff,,0,1,1,1,,,,,0,28,28,28,,,,,,,,,,,,,,,,,,,,,,,,,,,,,,,,,,,1,0.253697870999531,,,,,,,,,,,,,,,,,,,,,,,,,,,,,,082919_p2,001,2019_Aug_29_1523,body_behavioural,3.0.4,60.00098521612661,
1,parcelated_audio/23/23_30.aiff,,0,1,1,1,,,,,0,29,29,29,,,,,,,,,,,,,,,,,,,,,,,,,,,,,,,,,,,1,1.3030593000003137,,,,,,,,,,,,,,,,,,,,,,,,,,,,,,082919_p2,001,2019_Aug_29_1523,body_behavioural,3.0.4,60.00098521612661,
1,parcelated_audio/23/23_31.aiff,,0,1,1,1,,,,,0,30,30,30,,,,,,,,,,,,,,,,,,,,,,,,,,,,,,,,,,,1,0.2359979269995165,,,,,,,,,,,,,,,,,,,,,,,,,,,,,,082919_p2,001,2019_Aug_29_1523,body_behavioural,3.0.4,60.00098521612661,
1,parcelated_audio/23/23_32.aiff,,0,1,1,1,,,,,0,31,31,31,,,,,,,,,,,,,,,,,,,,,,,,,,,,,,,,,,,1,0.95318707000024,,,,,,,,,,,,,,,,,,,,,,,,,,,,,,082919_p2,001,2019_Aug_29_1523,body_behavioural,3.0.4,60.00098521612661,
1,parcelated_audio/23/23_33.aiff,,0,1,1,1,,,,,0,32,32,32,,,,,,,,,,,,,,,,,,,,,,,,,,,,,,,,,,,1,1.1528383320001012,,,,,,,,,,,,,,,,,,,,,,,,,,,,,,082919_p2,001,2019_Aug_29_1523,body_behavioural,3.0.4,60.00098521612661,
1,parcelated_audio/23/23_34.aiff,,0,1,1,1,,,,,0,33,33,33,,,,,,,,,,,,,,,,,,,,,,,,,,,,,,,,,,,1,0.2699738350002008,,,,,,,,,,,,,,,,,,,,,,,,,,,,,,082919_p2,001,2019_Aug_29_1523,body_behavioural,3.0.4,60.00098521612661,
1,parcelated_audio/23/23_35.aiff,,0,1,1,1,,,,,0,34,34,34,,,,,,,,,,,,,,,,,,,,,,,,,,,,,,,,,,,1,0.7531648869999117,,,,,,,,,,,,,,,,,,,,,,,,,,,,,,082919_p2,001,2019_Aug_29_1523,body_behavioural,3.0.4,60.00098521612661,
1,parcelated_audio/23/23_36.aiff,,0,1,1,1,,,,,0,35,35,35,,,,,,,,,,,,,,,,,,,,,,,,,,,,,,,,,,,1,3.2703450089993567,,,,,,,,,,,,,,,,,,,,,,,,,,,,,,082919_p2,001,2019_Aug_29_1523,body_behavioural,3.0.4,60.00098521612661,
1,parcelated_audio/23/23_37.aiff,,0,1,1,1,,,,,0,36,36,36,,,,,,,,,,,,,,,,,,,,,,,,,,,,,,,,,,,9,0.26974340499964455,,,,,,,,,,,,,,,,,,,,,,,,,,,,,,082919_p2,001,2019_Aug_29_1523,body_behavioural,3.0.4,60.00098521612661,
1,parcelated_audio/23/23_38.aiff,,0,1,1,1,,,,,0,37,37,37,,,,,,,,,,,,,,,,,,,,,,,,,,,,,,,,,,,1,0.21971633700013626,,,,,,,,,,,,,,,,,,,,,,,,,,,,,,082919_p2,001,2019_Aug_29_1523,body_behavioural,3.0.4,60.00098521612661,
1,parcelated_audio/23/23_39.aiff,,0,1,1,1,,,,,0,38,38,38,,,,,,,,,,,,,,,,,,,,,,,,,,,,,,,,,,,1,0.2698604830002296,,,,,,,,,,,,,,,,,,,,,,,,,,,,,,082919_p2,001,2019_Aug_29_1523,body_behavioural,3.0.4,60.00098521612661,
1,,,0,1,1,1,,,,,,,,,,,,,,,,,,,,,,,,,,,,,,,,,,,,,,,,,,,,,space,2.2674467699998786,,,,,,,,,,,,,,,,,,,,,,,,,,,,082919_p2,001,2019_Aug_29_1523,body_behavioural,3.0.4,60.00098521612661,
2,,,0,2,2,2,0,0,0,0,,,,,,,,,,,,,,,,,,,,,,,,,,,,,space,2.0366327350002393,space,1.6034790920002706,space,1.3532241619996057,,,,,,,,,,,,,,,,,,,,,,,,,,,,,,,,,,,,082919_p2,001,2019_Aug_29_1523,body_behavioural,3.0.4,60.00098521612661,
2,parcelated_audio/24/24_1.aiff,,0,2,2,2,,,,,0,0,0,0,,,,,,,,,,,,,,,,,,,,,,,,,,,,,,,space,1.436645153000427,space,3.717570910000177,9,0.46920486700037145,,,,,,,,,,,,,,,,,,,,,,,,,,,,,,082919_p2,001,2019_Aug_29_1523,body_behavioural,3.0.4,60.00098521612661,
2,parcelated_audio/24/24_2.aiff,,0,2,2,2,,,,,0,1,1,1,,,,,,,,,,,,,,,,,,,,,,,,,,,,,,,,,,,1,1.169211200999598,,,,,,,,,,,,,,,,,,,,,,,,,,,,,,082919_p2,001,2019_Aug_29_1523,body_behavioural,3.0.4,60.00098521612661,
2,parcelated_audio/24/24_3.aiff,,0,2,2,2,,,,,0,2,2,2,,,,,,,,,,,,,,,,,,,,,,,,,,,,,,,,,,,9,0.2526488710000194,,,,,,,,,,,,,,,,,,,,,,,,,,,,,,082919_p2,001,2019_Aug_29_1523,body_behavioural,3.0.4,60.00098521612661,
2,parcelated_audio/24/24_4.aiff,,0,2,2,2,,,,,0,3,3,3,,,,,,,,,,,,,,,,,,,,,,,,,,,,,,,,,,,1,0.5192352670001128,,,,,,,,,,,,,,,,,,,,,,,,,,,,,,082919_p2,001,2019_Aug_29_1523,body_behavioural,3.0.4,60.00098521612661,
2,parcelated_audio/24/24_5.aiff,,0,2,2,2,,,,,0,4,4,4,,,,,,,,,,,,,,,,,,,,,,,,,,,,,,,,,,,1,0.6531749850000779,,,,,,,,,,,,,,,,,,,,,,,,,,,,,,082919_p2,001,2019_Aug_29_1523,body_behavioural,3.0.4,60.00098521612661,
2,parcelated_audio/24/24_6.aiff,,0,2,2,2,,,,,0,5,5,5,,,,,,,,,,,,,,,,,,,,,,,,,,,,,,,,,,,9,0.3195320079994417,,,,,,,,,,,,,,,,,,,,,,,,,,,,,,082919_p2,001,2019_Aug_29_1523,body_behavioural,3.0.4,60.00098521612661,
2,parcelated_audio/24/24_7.aiff,,0,2,2,2,,,,,0,6,6,6,,,,,,,,,,,,,,,,,,,,,,,,,,,,,,,,,,,1,0.21928378000029625,,,,,,,,,,,,,,,,,,,,,,,,,,,,,,082919_p2,001,2019_Aug_29_1523,body_behavioural,3.0.4,60.00098521612661,
2,parcelated_audio/24/24_8.aiff,,0,2,2,2,,,,,0,7,7,7,,,,,,,,,,,,,,,,,,,,,,,,,,,,,,,,,,,1,0.46993270500024664,,,,,,,,,,,,,,,,,,,,,,,,,,,,,,082919_p2,001,2019_Aug_29_1523,body_behavioural,3.0.4,60.00098521612661,
2,parcelated_audio/24/24_9.aiff,,0,2,2,2,,,,,0,8,8,8,,,,,,,,,,,,,,,,,,,,,,,,,,,,,,,,,,,1,0.2530168350003805,,,,,,,,,,,,,,,,,,,,,,,,,,,,,,082919_p2,001,2019_Aug_29_1523,body_behavioural,3.0.4,60.00098521612661,
2,parcelated_audio/24/24_10.aiff,,0,2,2,2,,,,,0,9,9,9,,,,,,,,,,,,,,,,,,,,,,,,,,,,,,,,,,,1,0.41895565499999066,,,,,,,,,,,,,,,,,,,,,,,,,,,,,,082919_p2,001,2019_Aug_29_1523,body_behavioural,3.0.4,60.00098521612661,
2,parcelated_audio/24/24_11.aiff,,0,2,2,2,,,,,0,10,10,10,,,,,,,,,,,,,,,,,,,,,,,,,,,,,,,,,,,1,0.8532823719997396,,,,,,,,,,,,,,,,,,,,,,,,,,,,,,082919_p2,001,2019_Aug_29_1523,body_behavioural,3.0.4,60.00098521612661,
2,parcelated_audio/24/24_12.aiff,,0,2,2,2,,,,,0,11,11,11,,,,,,,,,,,,,,,,,,,,,,,,,,,,,,,,,,,1,1.553165485000136,,,,,,,,,,,,,,,,,,,,,,,,,,,,,,082919_p2,001,2019_Aug_29_1523,body_behavioural,3.0.4,60.00098521612661,
2,parcelated_audio/24/24_13.aiff,,0,2,2,2,,,,,0,12,12,12,,,,,,,,,,,,,,,,,,,,,,,,,,,,,,,,,,,1,1.3197418030003973,,,,,,,,,,,,,,,,,,,,,,,,,,,,,,082919_p2,001,2019_Aug_29_1523,body_behavioural,3.0.4,60.00098521612661,
2,parcelated_audio/24/24_14.aiff,,0,2,2,2,,,,,0,13,13,13,,,,,,,,,,,,,,,,,,,,,,,,,,,,,,,,,,,9,0.48681154099995183,,,,,,,,,,,,,,,,,,,,,,,,,,,,,,082919_p2,001,2019_Aug_29_1523,body_behavioural,3.0.4,60.00098521612661,
2,parcelated_audio/24/24_15.aiff,,0,2,2,2,,,,,0,14,14,14,,,,,,,,,,,,,,,,,,,,,,,,,,,,,,,,,,,1,0.5196207409999261,,,,,,,,,,,,,,,,,,,,,,,,,,,,,,082919_p2,001,2019_Aug_29_1523,body_behavioural,3.0.4,60.00098521612661,
2,parcelated_audio/24/24_16.aiff,,0,2,2,2,,,,,0,15,15,15,,,,,,,,,,,,,,,,,,,,,,,,,,,,,,,,,,,9,0.36989416999949754,,,,,,,,,,,,,,,,,,,,,,,,,,,,,,082919_p2,001,2019_Aug_29_1523,body_behavioural,3.0.4,60.00098521612661,
2,parcelated_audio/24/24_17.aiff,,0,2,2,2,,,,,0,16,16,16,,,,,,,,,,,,,,,,,,,,,,,,,,,,,,,,,,,1,0.2697407450004903,,,,,,,,,,,,,,,,,,,,,,,,,,,,,,082919_p2,001,2019_Aug_29_1523,body_behavioural,3.0.4,60.00098521612661,
2,parcelated_audio/24/24_18.aiff,,0,2,2,2,,,,,0,17,17,17,,,,,,,,,,,,,,,,,,,,,,,,,,,,,,,,,,,1,0.6339802699994834,,,,,,,,,,,,,,,,,,,,,,,,,,,,,,082919_p2,001,2019_Aug_29_1523,body_behavioural,3.0.4,60.00098521612661,
2,parcelated_audio/24/24_19.aiff,,0,2,2,2,,,,,0,18,18,18,,,,,,,,,,,,,,,,,,,,,,,,,,,,,,,,,,,1,0.45320099299988215,,,,,,,,,,,,,,,,,,,,,,,,,,,,,,082919_p2,001,2019_Aug_29_1523,body_behavioural,3.0.4,60.00098521612661,
2,parcelated_audio/24/24_20.aiff,,0,2,2,2,,,,,0,19,19,19,,,,,,,,,,,,,,,,,,,,,,,,,,,,,,,,,,,9,1.1030557549993318,,,,,,,,,,,,,,,,,,,,,,,,,,,,,,082919_p2,001,2019_Aug_29_1523,body_behavioural,3.0.4,60.00098521612661,
2,parcelated_audio/24/24_21.aiff,,0,2,2,2,,,,,0,20,20,20,,,,,,,,,,,,,,,,,,,,,,,,,,,,,,,,,,,1,0.5192403649998596,,,,,,,,,,,,,,,,,,,,,,,,,,,,,,082919_p2,001,2019_Aug_29_1523,body_behavioural,3.0.4,60.00098521612661,
2,parcelated_audio/24/24_22.aiff,,0,2,2,2,,,,,0,21,21,21,,,,,,,,,,,,,,,,,,,,,,,,,,,,,,,,,,,9,0.3698321649999343,,,,,,,,,,,,,,,,,,,,,,,,,,,,,,082919_p2,001,2019_Aug_29_1523,body_behavioural,3.0.4,60.00098521612661,
2,parcelated_audio/24/24_23.aiff,,0,2,2,2,,,,,0,22,22,22,,,,,,,,,,,,,,,,,,,,,,,,,,,,,,,,,,,1,0.2696160350005812,,,,,,,,,,,,,,,,,,,,,,,,,,,,,,082919_p2,001,2019_Aug_29_1523,body_behavioural,3.0.4,60.00098521612661,
2,parcelated_audio/24/24_24.aiff,,0,2,2,2,,,,,0,23,23,23,,,,,,,,,,,,,,,,,,,,,,,,,,,,,,,,,,,1,1.3694499469993389,,,,,,,,,,,,,,,,,,,,,,,,,,,,,,082919_p2,001,2019_Aug_29_1523,body_behavioural,3.0.4,60.00098521612661,
2,parcelated_audio/24/24_25.aiff,,0,2,2,2,,,,,0,24,24,24,,,,,,,,,,,,,,,,,,,,,,,,,,,,,,,,,,,1,0.33685306000006676,,,,,,,,,,,,,,,,,,,,,,,,,,,,,,082919_p2,001,2019_Aug_29_1523,body_behavioural,3.0.4,60.00098521612661,
2,parcelated_audio/24/24_26.aiff,,0,2,2,2,,,,,0,25,25,25,,,,,,,,,,,,,,,,,,,,,,,,,,,,,,,,,,,1,0.353094649999548,,,,,,,,,,,,,,,,,,,,,,,,,,,,,,082919_p2,001,2019_Aug_29_1523,body_behavioural,3.0.4,60.00098521612661,
2,parcelated_audio/24/24_27.aiff,,0,2,2,2,,,,,0,26,26,26,,,,,,,,,,,,,,,,,,,,,,,,,,,,,,,,,,,1,0.2698997749994305,,,,,,,,,,,,,,,,,,,,,,,,,,,,,,082919_p2,001,2019_Aug_29_1523,body_behavioural,3.0.4,60.00098521612661,
2,parcelated_audio/24/24_28.aiff,,0,2,2,2,,,,,0,27,27,27,,,,,,,,,,,,,,,,,,,,,,,,,,,,,,,,,,,1,0.26726591199985705,,,,,,,,,,,,,,,,,,,,,,,,,,,,,,082919_p2,001,2019_Aug_29_1523,body_behavioural,3.0.4,60.00098521612661,
2,parcelated_audio/24/24_29.aiff,,0,2,2,2,,,,,0,28,28,28,,,,,,,,,,,,,,,,,,,,,,,,,,,,,,,,,,,1,0.2696580770007131,,,,,,,,,,,,,,,,,,,,,,,,,,,,,,082919_p2,001,2019_Aug_29_1523,body_behavioural,3.0.4,60.00098521612661,
2,parcelated_audio/24/24_30.aiff,,0,2,2,2,,,,,0,29,29,29,,,,,,,,,,,,,,,,,,,,,,,,,,,,,,,,,,,9,0.43633228999988205,,,,,,,,,,,,,,,,,,,,,,,,,,,,,,082919_p2,001,2019_Aug_29_1523,body_behavioural,3.0.4,60.00098521612661,
2,parcelated_audio/24/24_31.aiff,,0,2,2,2,,,,,0,30,30,30,,,,,,,,,,,,,,,,,,,,,,,,,,,,,,,,,,,1,0.3200044479999633,,,,,,,,,,,,,,,,,,,,,,,,,,,,,,082919_p2,001,2019_Aug_29_1523,body_behavioural,3.0.4,60.00098521612661,
2,parcelated_audio/24/24_32.aiff,,0,2,2,2,,,,,0,31,31,31,,,,,,,,,,,,,,,,,,,,,,,,,,,,,,,,,,,1,2.3864765630005422,,,,,,,,,,,,,,,,,,,,,,,,,,,,,,082919_p2,001,2019_Aug_29_1523,body_behavioural,3.0.4,60.00098521612661,
2,,,0,2,2,2,,,,,,,,,,,,,,,,,,,,,,,,,,,,,,,,,,,,,,,,,,,,,space,2.402921906999836,,,,,,,,,,,,,,,,,,,,,,,,,,,,082919_p2,001,2019_Aug_29_1523,body_behavioural,3.0.4,60.00098521612661,
3,,,0,3,3,3,0,0,0,0,,,,,,,,,,,,,,,,,,,,,,,,,,,,,space,1.8199198649999744,space,2.903240321999874,space,2.720119185999465,,,,,,,,,,,,,,,,,,,,,,,,,,,,,,,,,,,,082919_p2,001,2019_Aug_29_1523,body_behavioural,3.0.4,60.00098521612661,
3,parcelated_audio/11/11_1.aiff,,0,3,3,3,,,,,0,0,0,0,,,,,,,,,,,,,,,,,,,,,,,,,,,,,,,space,1.3174318699993819,space,3.100890337999772,9,0.7033452549994763,,,,,,,,,,,,,,,,,,,,,,,,,,,,,,082919_p2,001,2019_Aug_29_1523,body_behavioural,3.0.4,60.00098521612661,
3,parcelated_audio/11/11_2.aiff,,0,3,3,3,,,,,0,1,1,1,,,,,,,,,,,,,,,,,,,,,,,,,,,,,,,,,,,1,1.7365497709997726,,,,,,,,,,,,,,,,,,,,,,,,,,,,,,082919_p2,001,2019_Aug_29_1523,body_behavioural,3.0.4,60.00098521612661,
3,parcelated_audio/11/11_3.aiff,,0,3,3,3,,,,,0,2,2,2,,,,,,,,,,,,,,,,,,,,,,,,,,,,,,,,,,,9,0.8865763399999196,,,,,,,,,,,,,,,,,,,,,,,,,,,,,,082919_p2,001,2019_Aug_29_1523,body_behavioural,3.0.4,60.00098521612661,
3,parcelated_audio/11/11_4.aiff,,0,3,3,3,,,,,0,3,3,3,,,,,,,,,,,,,,,,,,,,,,,,,,,,,,,,,,,1,1.1528959560000658,,,,,,,,,,,,,,,,,,,,,,,,,,,,,,082919_p2,001,2019_Aug_29_1523,body_behavioural,3.0.4,60.00098521612661,
3,parcelated_audio/11/11_5.aiff,,0,3,3,3,,,,,0,4,4,4,,,,,,,,,,,,,,,,,,,,,,,,,,,,,,,,,,,9,0.38650611899993237,,,,,,,,,,,,,,,,,,,,,,,,,,,,,,082919_p2,001,2019_Aug_29_1523,body_behavioural,3.0.4,60.00098521612661,
3,parcelated_audio/11/11_6.aiff,,0,3,3,3,,,,,0,5,5,5,,,,,,,,,,,,,,,,,,,,,,,,,,,,,,,,,,,1,0.36991296999985934,,,,,,,,,,,,,,,,,,,,,,,,,,,,,,082919_p2,001,2019_Aug_29_1523,body_behavioural,3.0.4,60.00098521612661,
3,parcelated_audio/11/11_7.aiff,,0,3,3,3,,,,,0,6,6,6,,,,,,,,,,,,,,,,,,,,,,,,,,,,,,,,,,,1,2.053380295000352,,,,,,,,,,,,,,,,,,,,,,,,,,,,,,082919_p2,001,2019_Aug_29_1523,body_behavioural,3.0.4,60.00098521612661,
3,parcelated_audio/11/11_8.aiff,,0,3,3,3,,,,,0,7,7,7,,,,,,,,,,,,,,,,,,,,,,,,,,,,,,,,,,,1,0.5033048750001399,,,,,,,,,,,,,,,,,,,,,,,,,,,,,,082919_p2,001,2019_Aug_29_1523,body_behavioural,3.0.4,60.00098521612661,
3,parcelated_audio/11/11_9.aiff,,0,3,3,3,,,,,0,8,8,8,,,,,,,,,,,,,,,,,,,,,,,,,,,,,,,,,,,1,0.45266732100026275,,,,,,,,,,,,,,,,,,,,,,,,,,,,,,082919_p2,001,2019_Aug_29_1523,body_behavioural,3.0.4,60.00098521612661,
3,parcelated_audio/11/11_10.aiff,,0,3,3,3,,,,,0,9,9,9,,,,,,,,,,,,,,,,,,,,,,,,,,,,,,,,,,,9,0.7198554870001317,,,,,,,,,,,,,,,,,,,,,,,,,,,,,,082919_p2,001,2019_Aug_29_1523,body_behavioural,3.0.4,60.00098521612661,
3,parcelated_audio/11/11_11.aiff,,0,3,3,3,,,,,0,10,10,10,,,,,,,,,,,,,,,,,,,,,,,,,,,,,,,,,,,1,0.3531807520002985,,,,,,,,,,,,,,,,,,,,,,,,,,,,,,082919_p2,001,2019_Aug_29_1523,body_behavioural,3.0.4,60.00098521612661,
3,parcelated_audio/11/11_12.aiff,,0,3,3,3,,,,,0,11,11,11,,,,,,,,,,,,,,,,,,,,,,,,,,,,,,,,,,,1,0.3359311760004857,,,,,,,,,,,,,,,,,,,,,,,,,,,,,,082919_p2,001,2019_Aug_29_1523,body_behavioural,3.0.4,60.00098521612661,
3,parcelated_audio/11/11_13.aiff,,0,3,3,3,,,,,0,12,12,12,,,,,,,,,,,,,,,,,,,,,,,,,,,,,,,,,,,1,0.8023963659998117,,,,,,,,,,,,,,,,,,,,,,,,,,,,,,082919_p2,001,2019_Aug_29_1523,body_behavioural,3.0.4,60.00098521612661,
3,parcelated_audio/11/11_14.aiff,,0,3,3,3,,,,,0,13,13,13,,,,,,,,,,,,,,,,,,,,,,,,,,,,,,,,,,,1,0.23394039000049816,,,,,,,,,,,,,,,,,,,,,,,,,,,,,,082919_p2,001,2019_Aug_29_1523,body_behavioural,3.0.4,60.00098521612661,
3,parcelated_audio/11/11_15.aiff,,0,3,3,3,,,,,0,14,14,14,,,,,,,,,,,,,,,,,,,,,,,,,,,,,,,,,,,1,0.03390614799991454,,,,,,,,,,,,,,,,,,,,,,,,,,,,,,082919_p2,001,2019_Aug_29_1523,body_behavioural,3.0.4,60.00098521612661,
3,parcelated_audio/11/11_16.aiff,,0,3,3,3,,,,,0,15,15,15,,,,,,,,,,,,,,,,,,,,,,,,,,,,,,,,,,,1,0.0030205709999790997,,,,,,,,,,,,,,,,,,,,,,,,,,,,,,082919_p2,001,2019_Aug_29_1523,body_behavioural,3.0.4,60.00098521612661,
3,parcelated_audio/11/11_17.aiff,,0,3,3,3,,,,,0,16,16,16,,,,,,,,,,,,,,,,,,,,,,,,,,,,,,,,,,,1,0.45312434999959805,,,,,,,,,,,,,,,,,,,,,,,,,,,,,,082919_p2,001,2019_Aug_29_1523,body_behavioural,3.0.4,60.00098521612661,
3,parcelated_audio/11/11_18.aiff,,0,3,3,3,,,,,0,17,17,17,,,,,,,,,,,,,,,,,,,,,,,,,,,,,,,,,,,1,0.8032596100001683,,,,,,,,,,,,,,,,,,,,,,,,,,,,,,082919_p2,001,2019_Aug_29_1523,body_behavioural,3.0.4,60.00098521612661,
3,parcelated_audio/11/11_19.aiff,,0,3,3,3,,,,,0,18,18,18,,,,,,,,,,,,,,,,,,,,,,,,,,,,,,,,,,,9,0.8365735240004142,,,,,,,,,,,,,,,,,,,,,,,,,,,,,,082919_p2,001,2019_Aug_29_1523,body_behavioural,3.0.4,60.00098521612661,
3,parcelated_audio/11/11_20.aiff,,0,3,3,3,,,,,0,19,19,19,,,,,,,,,,,,,,,,,,,,,,,,,,,,,,,,,,,1,0.31982741499996337,,,,,,,,,,,,,,,,,,,,,,,,,,,,,,082919_p2,001,2019_Aug_29_1523,body_behavioural,3.0.4,60.00098521612661,
3,parcelated_audio/11/11_21.aiff,,0,3,3,3,,,,,0,20,20,20,,,,,,,,,,,,,,,,,,,,,,,,,,,,,,,,,,,1,0.4031369000003906,,,,,,,,,,,,,,,,,,,,,,,,,,,,,,082919_p2,001,2019_Aug_29_1523,body_behavioural,3.0.4,60.00098521612661,
3,parcelated_audio/11/11_22.aiff,,0,3,3,3,,,,,0,21,21,21,,,,,,,,,,,,,,,,,,,,,,,,,,,,,,,,,,,1,0.06952565199935634,,,,,,,,,,,,,,,,,,,,,,,,,,,,,,082919_p2,001,2019_Aug_29_1523,body_behavioural,3.0.4,60.00098521612661,
3,parcelated_audio/11/11_23.aiff,,0,3,3,3,,,,,0,22,22,22,,,,,,,,,,,,,,,,,,,,,,,,,,,,,,,,,,,1,0.2173648569996658,,,,,,,,,,,,,,,,,,,,,,,,,,,,,,082919_p2,001,2019_Aug_29_1523,body_behavioural,3.0.4,60.00098521612661,
3,parcelated_audio/11/11_24.aiff,,0,3,3,3,,,,,0,23,23,23,,,,,,,,,,,,,,,,,,,,,,,,,,,,,,,,,,,1,0.7865589279999767,,,,,,,,,,,,,,,,,,,,,,,,,,,,,,082919_p2,001,2019_Aug_29_1523,body_behavioural,3.0.4,60.00098521612661,
3,parcelated_audio/11/11_25.aiff,,0,3,3,3,,,,,0,24,24,24,,,,,,,,,,,,,,,,,,,,,,,,,,,,,,,,,,,9,0.4365023680002196,,,,,,,,,,,,,,,,,,,,,,,,,,,,,,082919_p2,001,2019_Aug_29_1523,body_behavioural,3.0.4,60.00098521612661,
3,parcelated_audio/11/11_26.aiff,,0,3,3,3,,,,,0,25,25,25,,,,,,,,,,,,,,,,,,,,,,,,,,,,,,,,,,,1,0.6032393030000094,,,,,,,,,,,,,,,,,,,,,,,,,,,,,,082919_p2,001,2019_Aug_29_1523,body_behavioural,3.0.4,60.00098521612661,
3,parcelated_audio/11/11_27.aiff,,0,3,3,3,,,,,0,26,26,26,,,,,,,,,,,,,,,,,,,,,,,,,,,,,,,,,,,1,0.3531604649997462,,,,,,,,,,,,,,,,,,,,,,,,,,,,,,082919_p2,001,2019_Aug_29_1523,body_behavioural,3.0.4,60.00098521612661,
3,parcelated_audio/11/11_28.aiff,,0,3,3,3,,,,,0,27,27,27,,,,,,,,,,,,,,,,,,,,,,,,,,,,,,,,,,,1,0.3697587900005601,,,,,,,,,,,,,,,,,,,,,,,,,,,,,,082919_p2,001,2019_Aug_29_1523,body_behavioural,3.0.4,60.00098521612661,
3,parcelated_audio/11/11_29.aiff,,0,3,3,3,,,,,0,28,28,28,,,,,,,,,,,,,,,,,,,,,,,,,,,,,,,,,,,1,0.5198762449999776,,,,,,,,,,,,,,,,,,,,,,,,,,,,,,082919_p2,001,2019_Aug_29_1523,body_behavioural,3.0.4,60.00098521612661,
3,parcelated_audio/11/11_30.aiff,,0,3,3,3,,,,,0,29,29,29,,,,,,,,,,,,,,,,,,,,,,,,,,,,,,,,,,,1,0.35312443300063023,,,,,,,,,,,,,,,,,,,,,,,,,,,,,,082919_p2,001,2019_Aug_29_1523,body_behavioural,3.0.4,60.00098521612661,
3,parcelated_audio/11/11_31.aiff,,0,3,3,3,,,,,0,30,30,30,,,,,,,,,,,,,,,,,,,,,,,,,,,,,,,,,,,1,1.7199127019994194,,,,,,,,,,,,,,,,,,,,,,,,,,,,,,082919_p2,001,2019_Aug_29_1523,body_behavioural,3.0.4,60.00098521612661,
3,parcelated_audio/11/11_32.aiff,,0,3,3,3,,,,,0,31,31,31,,,,,,,,,,,,,,,,,,,,,,,,,,,,,,,,,,,9,0.26731916000062483,,,,,,,,,,,,,,,,,,,,,,,,,,,,,,082919_p2,001,2019_Aug_29_1523,body_behavioural,3.0.4,60.00098521612661,
3,parcelated_audio/11/11_33.aiff,,0,3,3,3,,,,,0,32,32,32,,,,,,,,,,,,,,,,,,,,,,,,,,,,,,,,,,,1,0.48691659300038737,,,,,,,,,,,,,,,,,,,,,,,,,,,,,,082919_p2,001,2019_Aug_29_1523,body_behavioural,3.0.4,60.00098521612661,
3,parcelated_audio/11/11_34.aiff,,0,3,3,3,,,,,0,33,33,33,,,,,,,,,,,,,,,,,,,,,,,,,,,,,,,,,,,1,0.3029903380001997,,,,,,,,,,,,,,,,,,,,,,,,,,,,,,082919_p2,001,2019_Aug_29_1523,body_behavioural,3.0.4,60.00098521612661,
3,parcelated_audio/11/11_35.aiff,,0,3,3,3,,,,,0,34,34,34,,,,,,,,,,,,,,,,,,,,,,,,,,,,,,,,,,,1,0.6532098020006742,,,,,,,,,,,,,,,,,,,,,,,,,,,,,,082919_p2,001,2019_Aug_29_1523,body_behavioural,3.0.4,60.00098521612661,
3,parcelated_audio/11/11_36.aiff,,0,3,3,3,,,,,0,35,35,35,,,,,,,,,,,,,,,,,,,,,,,,,,,,,,,,,,,9,0.3201273040003798,,,,,,,,,,,,,,,,,,,,,,,,,,,,,,082919_p2,001,2019_Aug_29_1523,body_behavioural,3.0.4,60.00098521612661,
3,parcelated_audio/11/11_37.aiff,,0,3,3,3,,,,,0,36,36,36,,,,,,,,,,,,,,,,,,,,,,,,,,,,,,,,,,,1,0.5698301600004925,,,,,,,,,,,,,,,,,,,,,,,,,,,,,,082919_p2,001,2019_Aug_29_1523,body_behavioural,3.0.4,60.00098521612661,
3,parcelated_audio/11/11_38.aiff,,0,3,3,3,,,,,0,37,37,37,,,,,,,,,,,,,,,,,,,,,,,,,,,,,,,,,,,1,1.1863299500000721,,,,,,,,,,,,,,,,,,,,,,,,,,,,,,082919_p2,001,2019_Aug_29_1523,body_behavioural,3.0.4,60.00098521612661,
3,parcelated_audio/11/11_39.aiff,,0,3,3,3,,,,,0,38,38,38,,,,,,,,,,,,,,,,,,,,,,,,,,,,,,,,,,,1,0.7024887799998396,,,,,,,,,,,,,,,,,,,,,,,,,,,,,,082919_p2,001,2019_Aug_29_1523,body_behavioural,3.0.4,60.00098521612661,
3,parcelated_audio/11/11_40.aiff,,0,3,3,3,,,,,0,39,39,39,,,,,,,,,,,,,,,,,,,,,,,,,,,,,,,,,,,1,0.4700009769994722,,,,,,,,,,,,,,,,,,,,,,,,,,,,,,082919_p2,001,2019_Aug_29_1523,body_behavioural,3.0.4,60.00098521612661,
3,parcelated_audio/11/11_41.aiff,,0,3,3,3,,,,,0,40,40,40,,,,,,,,,,,,,,,,,,,,,,,,,,,,,,,,,,,1,0.4030750279998756,,,,,,,,,,,,,,,,,,,,,,,,,,,,,,082919_p2,001,2019_Aug_29_1523,body_behavioural,3.0.4,60.00098521612661,
3,,,0,3,3,3,,,,,,,,,,,,,,,,,,,,,,,,,,,,,,,,,,,,,,,,,,,,,space,7.203556655000284,,,,,,,,,,,,,,,,,,,,,,,,,,,,082919_p2,001,2019_Aug_29_1523,body_behavioural,3.0.4,60.00098521612661,
4,,,0,4,4,4,0,0,0,0,,,,,,,,,,,,,,,,,,,,,,,,,,,,,space,2.1862168469997414,space,2.736504624999725,space,1.3864189349997105,,,,,,,,,,,,,,,,,,,,,,,,,,,,,,,,,,,,082919_p2,001,2019_Aug_29_1523,body_behavioural,3.0.4,60.00098521612661,
4,parcelated_audio/41/41_1.aiff,,0,4,4,4,,,,,0,0,0,0,,,,,,,,,,,,,,,,,,,,,,,,,,,,,,,space,1.3367607649997808,space,1.9866520239993406,9,1.1364009539993276,,,,,,,,,,,,,,,,,,,,,,,,,,,,,,082919_p2,001,2019_Aug_29_1523,body_behavioural,3.0.4,60.00098521612661,
4,parcelated_audio/41/41_2.aiff,,0,4,4,4,,,,,0,1,1,1,,,,,,,,,,,,,,,,,,,,,,,,,,,,,,,,,,,1,0.8193585189992518,,,,,,,,,,,,,,,,,,,,,,,,,,,,,,082919_p2,001,2019_Aug_29_1523,body_behavioural,3.0.4,60.00098521612661,
4,parcelated_audio/41/41_3.aiff,,0,4,4,4,,,,,0,2,2,2,,,,,,,,,,,,,,,,,,,,,,,,,,,,,,,,,,,1,1.8532523220001167,,,,,,,,,,,,,,,,,,,,,,,,,,,,,,082919_p2,001,2019_Aug_29_1523,body_behavioural,3.0.4,60.00098521612661,
4,parcelated_audio/41/41_4.aiff,,0,4,4,4,,,,,0,3,3,3,,,,,,,,,,,,,,,,,,,,,,,,,,,,,,,,,,,1,0.2524802220004858,,,,,,,,,,,,,,,,,,,,,,,,,,,,,,082919_p2,001,2019_Aug_29_1523,body_behavioural,3.0.4,60.00098521612661,
4,parcelated_audio/41/41_5.aiff,,0,4,4,4,,,,,0,4,4,4,,,,,,,,,,,,,,,,,,,,,,,,,,,,,,,,,,,1,0.40319101000022783,,,,,,,,,,,,,,,,,,,,,,,,,,,,,,082919_p2,001,2019_Aug_29_1523,body_behavioural,3.0.4,60.00098521612661,
4,parcelated_audio/41/41_6.aiff,,0,4,4,4,,,,,0,5,5,5,,,,,,,,,,,,,,,,,,,,,,,,,,,,,,,,,,,9,0.4531781650002813,,,,,,,,,,,,,,,,,,,,,,,,,,,,,,082919_p2,001,2019_Aug_29_1523,body_behavioural,3.0.4,60.00098521612661,
4,parcelated_audio/41/41_7.aiff,,0,4,4,4,,,,,0,6,6,6,,,,,,,,,,,,,,,,,,,,,,,,,,,,,,,,,,,9,1.452520051000647,,,,,,,,,,,,,,,,,,,,,,,,,,,,,,082919_p2,001,2019_Aug_29_1523,body_behavioural,3.0.4,60.00098521612661,
4,parcelated_audio/41/41_8.aiff,,0,4,4,4,,,,,0,7,7,7,,,,,,,,,,,,,,,,,,,,,,,,,,,,,,,,,,,1,1.7700964480000039,,,,,,,,,,,,,,,,,,,,,,,,,,,,,,082919_p2,001,2019_Aug_29_1523,body_behavioural,3.0.4,60.00098521612661,
4,parcelated_audio/41/41_9.aiff,,0,4,4,4,,,,,0,8,8,8,,,,,,,,,,,,,,,,,,,,,,,,,,,,,,,,,,,1,0.4862447460000112,,,,,,,,,,,,,,,,,,,,,,,,,,,,,,082919_p2,001,2019_Aug_29_1523,body_behavioural,3.0.4,60.00098521612661,
4,parcelated_audio/41/41_10.aiff,,0,4,4,4,,,,,0,9,9,9,,,,,,,,,,,,,,,,,,,,,,,,,,,,,,,,,,,9,0.9532124950001162,,,,,,,,,,,,,,,,,,,,,,,,,,,,,,082919_p2,001,2019_Aug_29_1523,body_behavioural,3.0.4,60.00098521612661,
4,parcelated_audio/41/41_11.aiff,,0,4,4,4,,,,,0,10,10,10,,,,,,,,,,,,,,,,,,,,,,,,,,,,,,,,,,,1,0.3532163030004085,,,,,,,,,,,,,,,,,,,,,,,,,,,,,,082919_p2,001,2019_Aug_29_1523,body_behavioural,3.0.4,60.00098521612661,
4,parcelated_audio/41/41_12.aiff,,0,4,4,4,,,,,0,11,11,11,,,,,,,,,,,,,,,,,,,,,,,,,,,,,,,,,,,1,1.703461471999617,,,,,,,,,,,,,,,,,,,,,,,,,,,,,,082919_p2,001,2019_Aug_29_1523,body_behavioural,3.0.4,60.00098521612661,
4,parcelated_audio/41/41_13.aiff,,0,4,4,4,,,,,0,12,12,12,,,,,,,,,,,,,,,,,,,,,,,,,,,,,,,,,,,1,0.4531447270001081,,,,,,,,,,,,,,,,,,,,,,,,,,,,,,082919_p2,001,2019_Aug_29_1523,body_behavioural,3.0.4,60.00098521612661,
4,parcelated_audio/41/41_14.aiff,,0,4,4,4,,,,,0,13,13,13,,,,,,,,,,,,,,,,,,,,,,,,,,,,,,,,,,,9,0.31970369499958906,,,,,,,,,,,,,,,,,,,,,,,,,,,,,,082919_p2,001,2019_Aug_29_1523,body_behavioural,3.0.4,60.00098521612661,
4,parcelated_audio/41/41_15.aiff,,0,4,4,4,,,,,0,14,14,14,,,,,,,,,,,,,,,,,,,,,,,,,,,,,,,,,,,1,0.36970924100023694,,,,,,,,,,,,,,,,,,,,,,,,,,,,,,082919_p2,001,2019_Aug_29_1523,body_behavioural,3.0.4,60.00098521612661,
4,parcelated_audio/41/41_16.aiff,,0,4,4,4,,,,,0,15,15,15,,,,,,,,,,,,,,,,,,,,,,,,,,,,,,,,,,,1,0.3356207999995604,,,,,,,,,,,,,,,,,,,,,,,,,,,,,,082919_p2,001,2019_Aug_29_1523,body_behavioural,3.0.4,60.00098521612661,
4,parcelated_audio/41/41_17.aiff,,0,4,4,4,,,,,0,16,16,16,,,,,,,,,,,,,,,,,,,,,,,,,,,,,,,,,,,1,0.43391566799982684,,,,,,,,,,,,,,,,,,,,,,,,,,,,,,082919_p2,001,2019_Aug_29_1523,body_behavioural,3.0.4,60.00098521612661,
4,parcelated_audio/41/41_18.aiff,,0,4,4,4,,,,,0,17,17,17,,,,,,,,,,,,,,,,,,,,,,,,,,,,,,,,,,,1,0.3686386499994114,,,,,,,,,,,,,,,,,,,,,,,,,,,,,,082919_p2,001,2019_Aug_29_1523,body_behavioural,3.0.4,60.00098521612661,
4,parcelated_audio/41/41_19.aiff,,0,4,4,4,,,,,0,18,18,18,,,,,,,,,,,,,,,,,,,,,,,,,,,,,,,,,,,1,0.3863986610003849,,,,,,,,,,,,,,,,,,,,,,,,,,,,,,082919_p2,001,2019_Aug_29_1523,body_behavioural,3.0.4,60.00098521612661,
4,parcelated_audio/41/41_20.aiff,,0,4,4,4,,,,,0,19,19,19,,,,,,,,,,,,,,,,,,,,,,,,,,,,,,,,,,,1,0.31985118000011425,,,,,,,,,,,,,,,,,,,,,,,,,,,,,,082919_p2,001,2019_Aug_29_1523,body_behavioural,3.0.4,60.00098521612661,
4,parcelated_audio/41/41_21.aiff,,0,4,4,4,,,,,0,20,20,20,,,,,,,,,,,,,,,,,,,,,,,,,,,,,,,,,,,1,0.43667760500011354,,,,,,,,,,,,,,,,,,,,,,,,,,,,,,082919_p2,001,2019_Aug_29_1523,body_behavioural,3.0.4,60.00098521612661,
4,parcelated_audio/41/41_22.aiff,,0,4,4,4,,,,,0,21,21,21,,,,,,,,,,,,,,,,,,,,,,,,,,,,,,,,,,,1,0.5839856950005924,,,,,,,,,,,,,,,,,,,,,,,,,,,,,,082919_p2,001,2019_Aug_29_1523,body_behavioural,3.0.4,60.00098521612661,
4,parcelated_audio/41/41_23.aiff,,0,4,4,4,,,,,0,22,22,22,,,,,,,,,,,,,,,,,,,,,,,,,,,,,,,,,,,9,0.6362776240002859,,,,,,,,,,,,,,,,,,,,,,,,,,,,,,082919_p2,001,2019_Aug_29_1523,body_behavioural,3.0.4,60.00098521612661,
4,parcelated_audio/41/41_24.aiff,,0,4,4,4,,,,,0,23,23,23,,,,,,,,,,,,,,,,,,,,,,,,,,,,,,,,,,,1,0.4031126130003031,,,,,,,,,,,,,,,,,,,,,,,,,,,,,,082919_p2,001,2019_Aug_29_1523,body_behavioural,3.0.4,60.00098521612661,
4,parcelated_audio/41/41_25.aiff,,0,4,4,4,,,,,0,24,24,24,,,,,,,,,,,,,,,,,,,,,,,,,,,,,,,,,,,1,0.502759099999821,,,,,,,,,,,,,,,,,,,,,,,,,,,,,,082919_p2,001,2019_Aug_29_1523,body_behavioural,3.0.4,60.00098521612661,
4,parcelated_audio/41/41_26.aiff,,0,4,4,4,,,,,0,25,25,25,,,,,,,,,,,,,,,,,,,,,,,,,,,,,,,,,,,1,0.33393384000009974,,,,,,,,,,,,,,,,,,,,,,,,,,,,,,082919_p2,001,2019_Aug_29_1523,body_behavioural,3.0.4,60.00098521612661,
4,parcelated_audio/41/41_27.aiff,,0,4,4,4,,,,,0,26,26,26,,,,,,,,,,,,,,,,,,,,,,,,,,,,,,,,,,,1,0.4339640349999172,,,,,,,,,,,,,,,,,,,,,,,,,,,,,,082919_p2,001,2019_Aug_29_1523,body_behavioural,3.0.4,60.00098521612661,
4,parcelated_audio/41/41_28.aiff,,0,4,4,4,,,,,0,27,27,27,,,,,,,,,,,,,,,,,,,,,,,,,,,,,,,,,,,9,0.6530717999994522,,,,,,,,,,,,,,,,,,,,,,,,,,,,,,082919_p2,001,2019_Aug_29_1523,body_behavioural,3.0.4,60.00098521612661,
4,parcelated_audio/41/41_29.aiff,,0,4,4,4,,,,,0,28,28,28,,,,,,,,,,,,,,,,,,,,,,,,,,,,,,,,,,,1,0.3025921999997081,,,,,,,,,,,,,,,,,,,,,,,,,,,,,,082919_p2,001,2019_Aug_29_1523,body_behavioural,3.0.4,60.00098521612661,
4,parcelated_audio/41/41_30.aiff,,0,4,4,4,,,,,0,29,29,29,,,,,,,,,,,,,,,,,,,,,,,,,,,,,,,,,,,1,0.2365477869998358,,,,,,,,,,,,,,,,,,,,,,,,,,,,,,082919_p2,001,2019_Aug_29_1523,body_behavioural,3.0.4,60.00098521612661,
4,parcelated_audio/41/41_31.aiff,,0,4,4,4,,,,,0,30,30,30,,,,,,,,,,,,,,,,,,,,,,,,,,,,,,,,,,,1,0.2532650200000717,,,,,,,,,,,,,,,,,,,,,,,,,,,,,,082919_p2,001,2019_Aug_29_1523,body_behavioural,3.0.4,60.00098521612661,
4,parcelated_audio/41/41_32.aiff,,0,4,4,4,,,,,0,31,31,31,,,,,,,,,,,,,,,,,,,,,,,,,,,,,,,,,,,9,0.38645067299967195,,,,,,,,,,,,,,,,,,,,,,,,,,,,,,082919_p2,001,2019_Aug_29_1523,body_behavioural,3.0.4,60.00098521612661,
4,parcelated_audio/41/41_33.aiff,,0,4,4,4,,,,,0,32,32,32,,,,,,,,,,,,,,,,,,,,,,,,,,,,,,,,,,,1,2.169773040000109,,,,,,,,,,,,,,,,,,,,,,,,,,,,,,082919_p2,001,2019_Aug_29_1523,body_behavioural,3.0.4,60.00098521612661,
4,parcelated_audio/41/41_34.aiff,,0,4,4,4,,,,,0,33,33,33,,,,,,,,,,,,,,,,,,,,,,,,,,,,,,,,,,,9,1.2026579620005577,,,,,,,,,,,,,,,,,,,,,,,,,,,,,,082919_p2,001,2019_Aug_29_1523,body_behavioural,3.0.4,60.00098521612661,
4,parcelated_audio/41/41_35.aiff,,0,4,4,4,,,,,0,34,34,34,,,,,,,,,,,,,,,,,,,,,,,,,,,,,,,,,,,9,0.28646228199977486,,,,,,,,,,,,,,,,,,,,,,,,,,,,,,082919_p2,001,2019_Aug_29_1523,body_behavioural,3.0.4,60.00098521612661,
4,parcelated_audio/41/41_36.aiff,,0,4,4,4,,,,,0,35,35,35,,,,,,,,,,,,,,,,,,,,,,,,,,,,,,,,,,,1,0.5031731099998069,,,,,,,,,,,,,,,,,,,,,,,,,,,,,,082919_p2,001,2019_Aug_29_1523,body_behavioural,3.0.4,60.00098521612661,
4,parcelated_audio/41/41_37.aiff,,0,4,4,4,,,,,0,36,36,36,,,,,,,,,,,,,,,,,,,,,,,,,,,,,,,,,,,1,0.4369885769992834,,,,,,,,,,,,,,,,,,,,,,,,,,,,,,082919_p2,001,2019_Aug_29_1523,body_behavioural,3.0.4,60.00098521612661,
4,,,0,4,4,4,,,,,,,,,,,,,,,,,,,,,,,,,,,,,,,,,,,,,,,,,,,,,space,2.8032868500004042,,,,,,,,,,,,,,,,,,,,,,,,,,,,082919_p2,001,2019_Aug_29_1523,body_behavioural,3.0.4,60.00098521612661,
5,,,0,5,5,5,0,0,0,0,,,,,,,,,,,,,,,,,,,,,,,,,,,,,space,1.2865162969992525,space,1.6366063000004942,space,1.3674430529999881,,,,,,,,,,,,,,,,,,,,,,,,,,,,,,,,,,,,082919_p2,001,2019_Aug_29_1523,body_behavioural,3.0.4,60.00098521612661,
5,parcelated_audio/42/42_1.aiff,,0,5,5,5,,,,,0,0,0,0,,,,,,,,,,,,,,,,,,,,,,,,,,,,,,,space,1.302915954999662,space,2.1865984799997022,9,0.4340373779996298,,,,,,,,,,,,,,,,,,,,,,,,,,,,,,082919_p2,001,2019_Aug_29_1523,body_behavioural,3.0.4,60.00098521612661,
5,parcelated_audio/42/42_2.aiff,,0,5,5,5,,,,,0,1,1,1,,,,,,,,,,,,,,,,,,,,,,,,,,,,,,,,,,,1,0.7194413299994267,,,,,,,,,,,,,,,,,,,,,,,,,,,,,,082919_p2,001,2019_Aug_29_1523,body_behavioural,3.0.4,60.00098521612661,
5,parcelated_audio/42/42_3.aiff,,0,5,5,5,,,,,0,2,2,2,,,,,,,,,,,,,,,,,,,,,,,,,,,,,,,,,,,9,0.26982836200022575,,,,,,,,,,,,,,,,,,,,,,,,,,,,,,082919_p2,001,2019_Aug_29_1523,body_behavioural,3.0.4,60.00098521612661,
5,parcelated_audio/42/42_4.aiff,,0,5,5,5,,,,,0,3,3,3,,,,,,,,,,,,,,,,,,,,,,,,,,,,,,,,,,,1,0.36979177800003526,,,,,,,,,,,,,,,,,,,,,,,,,,,,,,082919_p2,001,2019_Aug_29_1523,body_behavioural,3.0.4,60.00098521612661,
5,parcelated_audio/42/42_5.aiff,,0,5,5,5,,,,,0,4,4,4,,,,,,,,,,,,,,,,,,,,,,,,,,,,,,,,,,,1,0.35325684800045565,,,,,,,,,,,,,,,,,,,,,,,,,,,,,,082919_p2,001,2019_Aug_29_1523,body_behavioural,3.0.4,60.00098521612661,
5,parcelated_audio/42/42_6.aiff,,0,5,5,5,,,,,0,5,5,5,,,,,,,,,,,,,,,,,,,,,,,,,,,,,,,,,,,1,0.3365751300007105,,,,,,,,,,,,,,,,,,,,,,,,,,,,,,082919_p2,001,2019_Aug_29_1523,body_behavioural,3.0.4,60.00098521612661,
5,parcelated_audio/42/42_7.aiff,,0,5,5,5,,,,,0,6,6,6,,,,,,,,,,,,,,,,,,,,,,,,,,,,,,,,,,,9,2.236437826999463,,,,,,,,,,,,,,,,,,,,,,,,,,,,,,082919_p2,001,2019_Aug_29_1523,body_behavioural,3.0.4,60.00098521612661,
5,parcelated_audio/42/42_8.aiff,,0,5,5,5,,,,,0,7,7,7,,,,,,,,,,,,,,,,,,,,,,,,,,,,,,,,,,,1,0.6530425749997448,,,,,,,,,,,,,,,,,,,,,,,,,,,,,,082919_p2,001,2019_Aug_29_1523,body_behavioural,3.0.4,60.00098521612661,
5,parcelated_audio/42/42_9.aiff,,0,5,5,5,,,,,0,8,8,8,,,,,,,,,,,,,,,,,,,,,,,,,,,,,,,,,,,1,0.30288534500050446,,,,,,,,,,,,,,,,,,,,,,,,,,,,,,082919_p2,001,2019_Aug_29_1523,body_behavioural,3.0.4,60.00098521612661,
5,parcelated_audio/42/42_10.aiff,,0,5,5,5,,,,,0,9,9,9,,,,,,,,,,,,,,,,,,,,,,,,,,,,,,,,,,,1,1.7697908019999886,,,,,,,,,,,,,,,,,,,,,,,,,,,,,,082919_p2,001,2019_Aug_29_1523,body_behavioural,3.0.4,60.00098521612661,
5,parcelated_audio/42/42_11.aiff,,0,5,5,5,,,,,0,10,10,10,,,,,,,,,,,,,,,,,,,,,,,,,,,,,,,,,,,1,0.3364388250001866,,,,,,,,,,,,,,,,,,,,,,,,,,,,,,082919_p2,001,2019_Aug_29_1523,body_behavioural,3.0.4,60.00098521612661,
5,parcelated_audio/42/42_12.aiff,,0,5,5,5,,,,,0,11,11,11,,,,,,,,,,,,,,,,,,,,,,,,,,,,,,,,,,,9,1.2700581150002108,,,,,,,,,,,,,,,,,,,,,,,,,,,,,,082919_p2,001,2019_Aug_29_1523,body_behavioural,3.0.4,60.00098521612661,
5,parcelated_audio/42/42_13.aiff,,0,5,5,5,,,,,0,12,12,12,,,,,,,,,,,,,,,,,,,,,,,,,,,,,,,,,,,1,0.4031803180005227,,,,,,,,,,,,,,,,,,,,,,,,,,,,,,082919_p2,001,2019_Aug_29_1523,body_behavioural,3.0.4,60.00098521612661,
5,parcelated_audio/42/42_14.aiff,,0,5,5,5,,,,,0,13,13,13,,,,,,,,,,,,,,,,,,,,,,,,,,,,,,,,,,,1,0.25290182900062064,,,,,,,,,,,,,,,,,,,,,,,,,,,,,,082919_p2,001,2019_Aug_29_1523,body_behavioural,3.0.4,60.00098521612661,
5,parcelated_audio/42/42_15.aiff,,0,5,5,5,,,,,0,14,14,14,,,,,,,,,,,,,,,,,,,,,,,,,,,,,,,,,,,1,1.2033253070003411,,,,,,,,,,,,,,,,,,,,,,,,,,,,,,082919_p2,001,2019_Aug_29_1523,body_behavioural,3.0.4,60.00098521612661,
5,parcelated_audio/42/42_16.aiff,,0,5,5,5,,,,,0,15,15,15,,,,,,,,,,,,,,,,,,,,,,,,,,,,,,,,,,,1,0.6199279029997342,,,,,,,,,,,,,,,,,,,,,,,,,,,,,,082919_p2,001,2019_Aug_29_1523,body_behavioural,3.0.4,60.00098521612661,
5,parcelated_audio/42/42_17.aiff,,0,5,5,5,,,,,0,16,16,16,,,,,,,,,,,,,,,,,,,,,,,,,,,,,,,,,,,9,0.35311879999972007,,,,,,,,,,,,,,,,,,,,,,,,,,,,,,082919_p2,001,2019_Aug_29_1523,body_behavioural,3.0.4,60.00098521612661,
5,parcelated_audio/42/42_18.aiff,,0,5,5,5,,,,,0,17,17,17,,,,,,,,,,,,,,,,,,,,,,,,,,,,,,,,,,,1,0.26993822700023884,,,,,,,,,,,,,,,,,,,,,,,,,,,,,,082919_p2,001,2019_Aug_29_1523,body_behavioural,3.0.4,60.00098521612661,
5,parcelated_audio/42/42_19.aiff,,0,5,5,5,,,,,0,18,18,18,,,,,,,,,,,,,,,,,,,,,,,,,,,,,,,,,,,1,0.6195726449996073,,,,,,,,,,,,,,,,,,,,,,,,,,,,,,082919_p2,001,2019_Aug_29_1523,body_behavioural,3.0.4,60.00098521612661,
5,parcelated_audio/42/42_20.aiff,,0,5,5,5,,,,,0,19,19,19,,,,,,,,,,,,,,,,,,,,,,,,,,,,,,,,,,,1,0.45314115100063646,,,,,,,,,,,,,,,,,,,,,,,,,,,,,,082919_p2,001,2019_Aug_29_1523,body_behavioural,3.0.4,60.00098521612661,
5,parcelated_audio/42/42_21.aiff,,0,5,5,5,,,,,0,20,20,20,,,,,,,,,,,,,,,,,,,,,,,,,,,,,,,,,,,1,0.5863772410002639,,,,,,,,,,,,,,,,,,,,,,,,,,,,,,082919_p2,001,2019_Aug_29_1523,body_behavioural,3.0.4,60.00098521612661,
5,parcelated_audio/42/42_22.aiff,,0,5,5,5,,,,,0,21,21,21,,,,,,,,,,,,,,,,,,,,,,,,,,,,,,,,,,,1,0.30302774000028876,,,,,,,,,,,,,,,,,,,,,,,,,,,,,,082919_p2,001,2019_Aug_29_1523,body_behavioural,3.0.4,60.00098521612661,
5,parcelated_audio/42/42_23.aiff,,0,5,5,5,,,,,0,22,22,22,,,,,,,,,,,,,,,,,,,,,,,,,,,,,,,,,,,1,0.8675364020000416,,,,,,,,,,,,,,,,,,,,,,,,,,,,,,082919_p2,001,2019_Aug_29_1523,body_behavioural,3.0.4,60.00098521612661,
5,parcelated_audio/42/42_24.aiff,,0,5,5,5,,,,,0,23,23,23,,,,,,,,,,,,,,,,,,,,,,,,,,,,,,,,,,,9,0.3862701329999254,,,,,,,,,,,,,,,,,,,,,,,,,,,,,,082919_p2,001,2019_Aug_29_1523,body_behavioural,3.0.4,60.00098521612661,
5,parcelated_audio/42/42_25.aiff,,0,5,5,5,,,,,0,24,24,24,,,,,,,,,,,,,,,,,,,,,,,,,,,,,,,,,,,1,0.40066762500009645,,,,,,,,,,,,,,,,,,,,,,,,,,,,,,082919_p2,001,2019_Aug_29_1523,body_behavioural,3.0.4,60.00098521612661,
5,parcelated_audio/42/42_26.aiff,,0,5,5,5,,,,,0,25,25,25,,,,,,,,,,,,,,,,,,,,,,,,,,,,,,,,,,,1,0.4194095569991987,,,,,,,,,,,,,,,,,,,,,,,,,,,,,,082919_p2,001,2019_Aug_29_1523,body_behavioural,3.0.4,60.00098521612661,
5,parcelated_audio/42/42_27.aiff,,0,5,5,5,,,,,0,26,26,26,,,,,,,,,,,,,,,,,,,,,,,,,,,,,,,,,,,9,0.3673420149998492,,,,,,,,,,,,,,,,,,,,,,,,,,,,,,082919_p2,001,2019_Aug_29_1523,body_behavioural,3.0.4,60.00098521612661,
5,parcelated_audio/42/42_28.aiff,,0,5,5,5,,,,,0,27,27,27,,,,,,,,,,,,,,,,,,,,,,,,,,,,,,,,,,,1,0.26992648299983557,,,,,,,,,,,,,,,,,,,,,,,,,,,,,,082919_p2,001,2019_Aug_29_1523,body_behavioural,3.0.4,60.00098521612661,
5,parcelated_audio/42/42_29.aiff,,0,5,5,5,,,,,0,28,28,28,,,,,,,,,,,,,,,,,,,,,,,,,,,,,,,,,,,1,0.9365582149994225,,,,,,,,,,,,,,,,,,,,,,,,,,,,,,082919_p2,001,2019_Aug_29_1523,body_behavioural,3.0.4,60.00098521612661,
5,parcelated_audio/42/42_30.aiff,,0,5,5,5,,,,,0,29,29,29,,,,,,,,,,,,,,,,,,,,,,,,,,,,,,,,,,,1,0.5861793499998385,,,,,,,,,,,,,,,,,,,,,,,,,,,,,,082919_p2,001,2019_Aug_29_1523,body_behavioural,3.0.4,60.00098521612661,
5,parcelated_audio/42/42_31.aiff,,0,5,5,5,,,,,0,30,30,30,,,,,,,,,,,,,,,,,,,,,,,,,,,,,,,,,,,1,1.8529529150000599,,,,,,,,,,,,,,,,,,,,,,,,,,,,,,082919_p2,001,2019_Aug_29_1523,body_behavioural,3.0.4,60.00098521612661,
5,parcelated_audio/42/42_32.aiff,,0,5,5,5,,,,,0,31,31,31,,,,,,,,,,,,,,,,,,,,,,,,,,,,,,,,,,,9,0.36937654000030307,,,,,,,,,,,,,,,,,,,,,,,,,,,,,,082919_p2,001,2019_Aug_29_1523,body_behavioural,3.0.4,60.00098521612661,
5,parcelated_audio/42/42_33.aiff,,0,5,5,5,,,,,0,32,32,32,,,,,,,,,,,,,,,,,,,,,,,,,,,,,,,,,,,1,0.25311328699990554,,,,,,,,,,,,,,,,,,,,,,,,,,,,,,082919_p2,001,2019_Aug_29_1523,body_behavioural,3.0.4,60.00098521612661,
5,parcelated_audio/42/42_34.aiff,,0,5,5,5,,,,,0,33,33,33,,,,,,,,,,,,,,,,,,,,,,,,,,,,,,,,,,,1,0.2864777770000728,,,,,,,,,,,,,,,,,,,,,,,,,,,,,,082919_p2,001,2019_Aug_29_1523,body_behavioural,3.0.4,60.00098521612661,
5,parcelated_audio/42/42_35.aiff,,0,5,5,5,,,,,0,34,34,34,,,,,,,,,,,,,,,,,,,,,,,,,,,,,,,,,,,1,0.2529331129999264,,,,,,,,,,,,,,,,,,,,,,,,,,,,,,082919_p2,001,2019_Aug_29_1523,body_behavioural,3.0.4,60.00098521612661,
5,,,0,5,5,5,,,,,,,,,,,,,,,,,,,,,,,,,,,,,,,,,,,,,,,,,,,,,space,2.136695205000251,,,,,,,,,,,,,,,,,,,,,,,,,,,,082919_p2,001,2019_Aug_29_1523,body_behavioural,3.0.4,60.00098521612661,
6,,,0,6,6,6,0,0,0,0,,,,,,,,,,,,,,,,,,,,,,,,,,,,,space,2.1032567370002653,space,2.0031977250000637,space,2.0199818520004555,,,,,,,,,,,,,,,,,,,,,,,,,,,,,,,,,,,,082919_p2,001,2019_Aug_29_1523,body_behavioural,3.0.4,60.00098521612661,
6,parcelated_audio/12/12_1.aiff,,0,6,6,6,,,,,0,0,0,0,,,,,,,,,,,,,,,,,,,,,,,,,,,,,,,space,1.453323306999664,space,1.7035045350003202,9,1.853085010000541,,,,,,,,,,,,,,,,,,,,,,,,,,,,,,082919_p2,001,2019_Aug_29_1523,body_behavioural,3.0.4,60.00098521612661,
6,parcelated_audio/12/12_2.aiff,,0,6,6,6,,,,,0,1,1,1,,,,,,,,,,,,,,,,,,,,,,,,,,,,,,,,,,,1,0.686556777000078,,,,,,,,,,,,,,,,,,,,,,,,,,,,,,082919_p2,001,2019_Aug_29_1523,body_behavioural,3.0.4,60.00098521612661,
6,parcelated_audio/12/12_3.aiff,,0,6,6,6,,,,,0,2,2,2,,,,,,,,,,,,,,,,,,,,,,,,,,,,,,,,,,,9,0.8027505250001923,,,,,,,,,,,,,,,,,,,,,,,,,,,,,,082919_p2,001,2019_Aug_29_1523,body_behavioural,3.0.4,60.00098521612661,
6,parcelated_audio/12/12_4.aiff,,0,6,6,6,,,,,0,3,3,3,,,,,,,,,,,,,,,,,,,,,,,,,,,,,,,,,,,1,1.0365120750002461,,,,,,,,,,,,,,,,,,,,,,,,,,,,,,082919_p2,001,2019_Aug_29_1523,body_behavioural,3.0.4,60.00098521612661,
6,parcelated_audio/12/12_5.aiff,,0,6,6,6,,,,,0,4,4,4,,,,,,,,,,,,,,,,,,,,,,,,,,,,,,,,,,,9,0.8863355230005254,,,,,,,,,,,,,,,,,,,,,,,,,,,,,,082919_p2,001,2019_Aug_29_1523,body_behavioural,3.0.4,60.00098521612661,
6,parcelated_audio/12/12_6.aiff,,0,6,6,6,,,,,0,5,5,5,,,,,,,,,,,,,,,,,,,,,,,,,,,,,,,,,,,1,0.4198660399997607,,,,,,,,,,,,,,,,,,,,,,,,,,,,,,082919_p2,001,2019_Aug_29_1523,body_behavioural,3.0.4,60.00098521612661,
6,parcelated_audio/12/12_7.aiff,,0,6,6,6,,,,,0,6,6,6,,,,,,,,,,,,,,,,,,,,,,,,,,,,,,,,,,,1,0.5699904849998347,,,,,,,,,,,,,,,,,,,,,,,,,,,,,,082919_p2,001,2019_Aug_29_1523,body_behavioural,3.0.4,60.00098521612661,
6,parcelated_audio/12/12_8.aiff,,0,6,6,6,,,,,0,7,7,7,,,,,,,,,,,,,,,,,,,,,,,,,,,,,,,,,,,9,0.28632204699988506,,,,,,,,,,,,,,,,,,,,,,,,,,,,,,082919_p2,001,2019_Aug_29_1523,body_behavioural,3.0.4,60.00098521612661,
6,parcelated_audio/12/12_9.aiff,,0,6,6,6,,,,,0,8,8,8,,,,,,,,,,,,,,,,,,,,,,,,,,,,,,,,,,,1,0.26981126999999105,,,,,,,,,,,,,,,,,,,,,,,,,,,,,,082919_p2,001,2019_Aug_29_1523,body_behavioural,3.0.4,60.00098521612661,
6,parcelated_audio/12/12_10.aiff,,0,6,6,6,,,,,0,9,9,9,,,,,,,,,,,,,,,,,,,,,,,,,,,,,,,,,,,1,0.10331788100029371,,,,,,,,,,,,,,,,,,,,,,,,,,,,,,082919_p2,001,2019_Aug_29_1523,body_behavioural,3.0.4,60.00098521612661,
6,parcelated_audio/12/12_11.aiff,,0,6,6,6,,,,,0,10,10,10,,,,,,,,,,,,,,,,,,,,,,,,,,,,,,,,,,,1,1.1033471279997684,,,,,,,,,,,,,,,,,,,,,,,,,,,,,,082919_p2,001,2019_Aug_29_1523,body_behavioural,3.0.4,60.00098521612661,
6,parcelated_audio/12/12_12.aiff,,0,6,6,6,,,,,0,11,11,11,,,,,,,,,,,,,,,,,,,,,,,,,,,,,,,,,,,9,0.8032760950000011,,,,,,,,,,,,,,,,,,,,,,,,,,,,,,082919_p2,001,2019_Aug_29_1523,body_behavioural,3.0.4,60.00098521612661,
6,parcelated_audio/12/12_13.aiff,,0,6,6,6,,,,,0,12,12,12,,,,,,,,,,,,,,,,,,,,,,,,,,,,,,,,,,,1,0.4365236529993126,,,,,,,,,,,,,,,,,,,,,,,,,,,,,,082919_p2,001,2019_Aug_29_1523,body_behavioural,3.0.4,60.00098521612661,
6,parcelated_audio/12/12_14.aiff,,0,6,6,6,,,,,0,13,13,13,,,,,,,,,,,,,,,,,,,,,,,,,,,,,,,,,,,1,0.3861121509999066,,,,,,,,,,,,,,,,,,,,,,,,,,,,,,082919_p2,001,2019_Aug_29_1523,body_behavioural,3.0.4,60.00098521612661,
6,parcelated_audio/12/12_15.aiff,,0,6,6,6,,,,,0,14,14,14,,,,,,,,,,,,,,,,,,,,,,,,,,,,,,,,,,,1,2.853309105000335,,,,,,,,,,,,,,,,,,,,,,,,,,,,,,082919_p2,001,2019_Aug_29_1523,body_behavioural,3.0.4,60.00098521612661,
6,parcelated_audio/12/12_16.aiff,,0,6,6,6,,,,,0,15,15,15,,,,,,,,,,,,,,,,,,,,,,,,,,,,,,,,,,,9,1.5864956349996646,,,,,,,,,,,,,,,,,,,,,,,,,,,,,,082919_p2,001,2019_Aug_29_1523,body_behavioural,3.0.4,60.00098521612661,
6,parcelated_audio/12/12_17.aiff,,0,6,6,6,,,,,0,16,16,16,,,,,,,,,,,,,,,,,,,,,,,,,,,,,,,,,,,1,0.2700696849997257,,,,,,,,,,,,,,,,,,,,,,,,,,,,,,082919_p2,001,2019_Aug_29_1523,body_behavioural,3.0.4,60.00098521612661,
6,parcelated_audio/12/12_18.aiff,,0,6,6,6,,,,,0,17,17,17,,,,,,,,,,,,,,,,,,,,,,,,,,,,,,,,,,,1,0.519910534999326,,,,,,,,,,,,,,,,,,,,,,,,,,,,,,082919_p2,001,2019_Aug_29_1523,body_behavioural,3.0.4,60.00098521612661,
6,parcelated_audio/12/12_19.aiff,,0,6,6,6,,,,,0,18,18,18,,,,,,,,,,,,,,,,,,,,,,,,,,,,,,,,,,,1,0.2698086800000965,,,,,,,,,,,,,,,,,,,,,,,,,,,,,,082919_p2,001,2019_Aug_29_1523,body_behavioural,3.0.4,60.00098521612661,
6,parcelated_audio/12/12_20.aiff,,0,6,6,6,,,,,0,19,19,19,,,,,,,,,,,,,,,,,,,,,,,,,,,,,,,,,,,9,0.2844637349999175,,,,,,,,,,,,,,,,,,,,,,,,,,,,,,082919_p2,001,2019_Aug_29_1523,body_behavioural,3.0.4,60.00098521612661,
6,parcelated_audio/12/12_21.aiff,,0,6,6,6,,,,,0,20,20,20,,,,,,,,,,,,,,,,,,,,,,,,,,,,,,,,,,,1,0.21987720299966895,,,,,,,,,,,,,,,,,,,,,,,,,,,,,,082919_p2,001,2019_Aug_29_1523,body_behavioural,3.0.4,60.00098521612661,
6,parcelated_audio/12/12_22.aiff,,0,6,6,6,,,,,0,21,21,21,,,,,,,,,,,,,,,,,,,,,,,,,,,,,,,,,,,1,0.4364732739995816,,,,,,,,,,,,,,,,,,,,,,,,,,,,,,082919_p2,001,2019_Aug_29_1523,body_behavioural,3.0.4,60.00098521612661,
6,parcelated_audio/12/12_23.aiff,,0,6,6,6,,,,,0,22,22,22,,,,,,,,,,,,,,,,,,,,,,,,,,,,,,,,,,,1,0.26977855499990255,,,,,,,,,,,,,,,,,,,,,,,,,,,,,,082919_p2,001,2019_Aug_29_1523,body_behavioural,3.0.4,60.00098521612661,
6,parcelated_audio/12/12_24.aiff,,0,6,6,6,,,,,0,23,23,23,,,,,,,,,,,,,,,,,,,,,,,,,,,,,,,,,,,1,0.25332944999991014,,,,,,,,,,,,,,,,,,,,,,,,,,,,,,082919_p2,001,2019_Aug_29_1523,body_behavioural,3.0.4,60.00098521612661,
6,parcelated_audio/12/12_25.aiff,,0,6,6,6,,,,,0,24,24,24,,,,,,,,,,,,,,,,,,,,,,,,,,,,,,,,,,,9,0.7532809320000524,,,,,,,,,,,,,,,,,,,,,,,,,,,,,,082919_p2,001,2019_Aug_29_1523,body_behavioural,3.0.4,60.00098521612661,
6,parcelated_audio/12/12_26.aiff,,0,6,6,6,,,,,0,25,25,25,,,,,,,,,,,,,,,,,,,,,,,,,,,,,,,,,,,1,0.28668096199999127,,,,,,,,,,,,,,,,,,,,,,,,,,,,,,082919_p2,001,2019_Aug_29_1523,body_behavioural,3.0.4,60.00098521612661,
6,parcelated_audio/12/12_27.aiff,,0,6,6,6,,,,,0,26,26,26,,,,,,,,,,,,,,,,,,,,,,,,,,,,,,,,,,,1,0.7198880269997971,,,,,,,,,,,,,,,,,,,,,,,,,,,,,,082919_p2,001,2019_Aug_29_1523,body_behavioural,3.0.4,60.00098521612661,
6,parcelated_audio/12/12_28.aiff,,0,6,6,6,,,,,0,27,27,27,,,,,,,,,,,,,,,,,,,,,,,,,,,,,,,,,,,1,0.5197043970001687,,,,,,,,,,,,,,,,,,,,,,,,,,,,,,082919_p2,001,2019_Aug_29_1523,body_behavioural,3.0.4,60.00098521612661,
6,parcelated_audio/12/12_29.aiff,,0,6,6,6,,,,,0,28,28,28,,,,,,,,,,,,,,,,,,,,,,,,,,,,,,,,,,,1,2.203096242000356,,,,,,,,,,,,,,,,,,,,,,,,,,,,,,082919_p2,001,2019_Aug_29_1523,body_behavioural,3.0.4,60.00098521612661,
6,parcelated_audio/12/12_30.aiff,,0,6,6,6,,,,,0,29,29,29,,,,,,,,,,,,,,,,,,,,,,,,,,,,,,,,,,,1,0.9864864600003784,,,,,,,,,,,,,,,,,,,,,,,,,,,,,,082919_p2,001,2019_Aug_29_1523,body_behavioural,3.0.4,60.00098521612661,
6,parcelated_audio/12/12_31.aiff,,0,6,6,6,,,,,0,30,30,30,,,,,,,,,,,,,,,,,,,,,,,,,,,,,,,,,,,1,0.33632738100004644,,,,,,,,,,,,,,,,,,,,,,,,,,,,,,082919_p2,001,2019_Aug_29_1523,body_behavioural,3.0.4,60.00098521612661,
6,,,0,6,6,6,,,,,,,,,,,,,,,,,,,,,,,,,,,,,,,,,,,,,,,,,,,,,space,1.7200191109996013,,,,,,,,,,,,,,,,,,,,,,,,,,,,082919_p2,001,2019_Aug_29_1523,body_behavioural,3.0.4,60.00098521612661,
7,,,0,7,7,7,0,0,0,0,,,,,,,,,,,,,,,,,,,,,,,,,,,,,space,1.8865913569998156,space,1.0699403950002306,space,3.20057498999995,,,,,,,,,,,,,,,,,,,,,,,,,,,,,,,,,,,,082919_p2,001,2019_Aug_29_1523,body_behavioural,3.0.4,60.00098521612661,
7,parcelated_audio/33/33_1.aiff,,0,7,7,7,,,,,0,0,0,0,,,,,,,,,,,,,,,,,,,,,,,,,,,,,,,space,1.1365623869996853,space,2.6030726330000107,9,0.3031958849996954,,,,,,,,,,,,,,,,,,,,,,,,,,,,,,082919_p2,001,2019_Aug_29_1523,body_behavioural,3.0.4,60.00098521612661,
7,parcelated_audio/33/33_2.aiff,,0,7,7,7,,,,,0,1,1,1,,,,,,,,,,,,,,,,,,,,,,,,,,,,,,,,,,,9,0.869803956999931,,,,,,,,,,,,,,,,,,,,,,,,,,,,,,082919_p2,001,2019_Aug_29_1523,body_behavioural,3.0.4,60.00098521612661,
7,parcelated_audio/33/33_3.aiff,,0,7,7,7,,,,,0,2,2,2,,,,,,,,,,,,,,,,,,,,,,,,,,,,,,,,,,,9,0.6699248750001061,,,,,,,,,,,,,,,,,,,,,,,,,,,,,,082919_p2,001,2019_Aug_29_1523,body_behavioural,3.0.4,60.00098521612661,
7,parcelated_audio/33/33_4.aiff,,0,7,7,7,,,,,0,3,3,3,,,,,,,,,,,,,,,,,,,,,,,,,,,,,,,,,,,1,0.28406172999984847,,,,,,,,,,,,,,,,,,,,,,,,,,,,,,082919_p2,001,2019_Aug_29_1523,body_behavioural,3.0.4,60.00098521612661,
7,parcelated_audio/33/33_5.aiff,,0,7,7,7,,,,,0,4,4,4,,,,,,,,,,,,,,,,,,,,,,,,,,,,,,,,,,,1,0.4530767129999731,,,,,,,,,,,,,,,,,,,,,,,,,,,,,,082919_p2,001,2019_Aug_29_1523,body_behavioural,3.0.4,60.00098521612661,
7,parcelated_audio/33/33_6.aiff,,0,7,7,7,,,,,0,5,5,5,,,,,,,,,,,,,,,,,,,,,,,,,,,,,,,,,,,1,0.2528972669997529,,,,,,,,,,,,,,,,,,,,,,,,,,,,,,082919_p2,001,2019_Aug_29_1523,body_behavioural,3.0.4,60.00098521612661,
7,parcelated_audio/33/33_7.aiff,,0,7,7,7,,,,,0,6,6,6,,,,,,,,,,,,,,,,,,,,,,,,,,,,,,,,,,,1,1.0367545450008038,,,,,,,,,,,,,,,,,,,,,,,,,,,,,,082919_p2,001,2019_Aug_29_1523,body_behavioural,3.0.4,60.00098521612661,
7,parcelated_audio/33/33_8.aiff,,0,7,7,7,,,,,0,7,7,7,,,,,,,,,,,,,,,,,,,,,,,,,,,,,,,,,,,9,0.7020855279997704,,,,,,,,,,,,,,,,,,,,,,,,,,,,,,082919_p2,001,2019_Aug_29_1523,body_behavioural,3.0.4,60.00098521612661,
7,parcelated_audio/33/33_9.aiff,,0,7,7,7,,,,,0,8,8,8,,,,,,,,,,,,,,,,,,,,,,,,,,,,,,,,,,,1,0.3698216749999119,,,,,,,,,,,,,,,,,,,,,,,,,,,,,,082919_p2,001,2019_Aug_29_1523,body_behavioural,3.0.4,60.00098521612661,
7,parcelated_audio/33/33_10.aiff,,0,7,7,7,,,,,0,9,9,9,,,,,,,,,,,,,,,,,,,,,,,,,,,,,,,,,,,1,0.33658153299984406,,,,,,,,,,,,,,,,,,,,,,,,,,,,,,082919_p2,001,2019_Aug_29_1523,body_behavioural,3.0.4,60.00098521612661,
7,parcelated_audio/33/33_11.aiff,,0,7,7,7,,,,,0,10,10,10,,,,,,,,,,,,,,,,,,,,,,,,,,,,,,,,,,,1,0.2526909979997072,,,,,,,,,,,,,,,,,,,,,,,,,,,,,,082919_p2,001,2019_Aug_29_1523,body_behavioural,3.0.4,60.00098521612661,
7,parcelated_audio/33/33_12.aiff,,0,7,7,7,,,,,0,11,11,11,,,,,,,,,,,,,,,,,,,,,,,,,,,,,,,,,,,1,0.6698930499997005,,,,,,,,,,,,,,,,,,,,,,,,,,,,,,082919_p2,001,2019_Aug_29_1523,body_behavioural,3.0.4,60.00098521612661,
7,parcelated_audio/33/33_13.aiff,,0,7,7,7,,,,,0,12,12,12,,,,,,,,,,,,,,,,,,,,,,,,,,,,,,,,,,,1,0.2697823400003472,,,,,,,,,,,,,,,,,,,,,,,,,,,,,,082919_p2,001,2019_Aug_29_1523,body_behavioural,3.0.4,60.00098521612661,
7,parcelated_audio/33/33_14.aiff,,0,7,7,7,,,,,0,13,13,13,,,,,,,,,,,,,,,,,,,,,,,,,,,,,,,,,,,1,0.25056457800019416,,,,,,,,,,,,,,,,,,,,,,,,,,,,,,082919_p2,001,2019_Aug_29_1523,body_behavioural,3.0.4,60.00098521612661,
7,parcelated_audio/33/33_15.aiff,,0,7,7,7,,,,,0,14,14,14,,,,,,,,,,,,,,,,,,,,,,,,,,,,,,,,,,,1,0.35326334000001225,,,,,,,,,,,,,,,,,,,,,,,,,,,,,,082919_p2,001,2019_Aug_29_1523,body_behavioural,3.0.4,60.00098521612661,
7,parcelated_audio/33/33_16.aiff,,0,7,7,7,,,,,0,15,15,15,,,,,,,,,,,,,,,,,,,,,,,,,,,,,,,,,,,1,0.3505416520001745,,,,,,,,,,,,,,,,,,,,,,,,,,,,,,082919_p2,001,2019_Aug_29_1523,body_behavioural,3.0.4,60.00098521612661,
7,parcelated_audio/33/33_17.aiff,,0,7,7,7,,,,,0,16,16,16,,,,,,,,,,,,,,,,,,,,,,,,,,,,,,,,,,,1,0.2363703249993705,,,,,,,,,,,,,,,,,,,,,,,,,,,,,,082919_p2,001,2019_Aug_29_1523,body_behavioural,3.0.4,60.00098521612661,
7,parcelated_audio/33/33_18.aiff,,0,7,7,7,,,,,0,17,17,17,,,,,,,,,,,,,,,,,,,,,,,,,,,,,,,,,,,1,2.170073969999976,,,,,,,,,,,,,,,,,,,,,,,,,,,,,,082919_p2,001,2019_Aug_29_1523,body_behavioural,3.0.4,60.00098521612661,
7,parcelated_audio/33/33_19.aiff,,0,7,7,7,,,,,0,18,18,18,,,,,,,,,,,,,,,,,,,,,,,,,,,,,,,,,,,9,0.26974030200017296,,,,,,,,,,,,,,,,,,,,,,,,,,,,,,082919_p2,001,2019_Aug_29_1523,body_behavioural,3.0.4,60.00098521612661,
7,parcelated_audio/33/33_20.aiff,,0,7,7,7,,,,,0,19,19,19,,,,,,,,,,,,,,,,,,,,,,,,,,,,,,,,,,,1,0.33644149900010234,,,,,,,,,,,,,,,,,,,,,,,,,,,,,,082919_p2,001,2019_Aug_29_1523,body_behavioural,3.0.4,60.00098521612661,
7,parcelated_audio/33/33_21.aiff,,0,7,7,7,,,,,0,20,20,20,,,,,,,,,,,,,,,,,,,,,,,,,,,,,,,,,,,1,0.2531544829998893,,,,,,,,,,,,,,,,,,,,,,,,,,,,,,082919_p2,001,2019_Aug_29_1523,body_behavioural,3.0.4,60.00098521612661,
7,parcelated_audio/33/33_22.aiff,,0,7,7,7,,,,,0,21,21,21,,,,,,,,,,,,,,,,,,,,,,,,,,,,,,,,,,,9,0.4532482969998455,,,,,,,,,,,,,,,,,,,,,,,,,,,,,,082919_p2,001,2019_Aug_29_1523,body_behavioural,3.0.4,60.00098521612661,
7,parcelated_audio/33/33_23.aiff,,0,7,7,7,,,,,0,22,22,22,,,,,,,,,,,,,,,,,,,,,,,,,,,,,,,,,,,1,0.2536073599994779,,,,,,,,,,,,,,,,,,,,,,,,,,,,,,082919_p2,001,2019_Aug_29_1523,body_behavioural,3.0.4,60.00098521612661,
7,parcelated_audio/33/33_24.aiff,,0,7,7,7,,,,,0,23,23,23,,,,,,,,,,,,,,,,,,,,,,,,,,,,,,,,,,,1,0.2695102749994476,,,,,,,,,,,,,,,,,,,,,,,,,,,,,,082919_p2,001,2019_Aug_29_1523,body_behavioural,3.0.4,60.00098521612661,
7,parcelated_audio/33/33_25.aiff,,0,7,7,7,,,,,0,24,24,24,,,,,,,,,,,,,,,,,,,,,,,,,,,,,,,,,,,1,0.26936986500004423,,,,,,,,,,,,,,,,,,,,,,,,,,,,,,082919_p2,001,2019_Aug_29_1523,body_behavioural,3.0.4,60.00098521612661,
7,parcelated_audio/33/33_26.aiff,,0,7,7,7,,,,,0,25,25,25,,,,,,,,,,,,,,,,,,,,,,,,,,,,,,,,,,,1,0.25319255700014764,,,,,,,,,,,,,,,,,,,,,,,,,,,,,,082919_p2,001,2019_Aug_29_1523,body_behavioural,3.0.4,60.00098521612661,
7,parcelated_audio/33/33_27.aiff,,0,7,7,7,,,,,0,26,26,26,,,,,,,,,,,,,,,,,,,,,,,,,,,,,,,,,,,9,0.28648693899958744,,,,,,,,,,,,,,,,,,,,,,,,,,,,,,082919_p2,001,2019_Aug_29_1523,body_behavioural,3.0.4,60.00098521612661,
7,parcelated_audio/33/33_28.aiff,,0,7,7,7,,,,,0,27,27,27,,,,,,,,,,,,,,,,,,,,,,,,,,,,,,,,,,,1,0.30310858500070026,,,,,,,,,,,,,,,,,,,,,,,,,,,,,,082919_p2,001,2019_Aug_29_1523,body_behavioural,3.0.4,60.00098521612661,
7,parcelated_audio/33/33_29.aiff,,0,7,7,7,,,,,0,28,28,28,,,,,,,,,,,,,,,,,,,,,,,,,,,,,,,,,,,1,0.4172682420003184,,,,,,,,,,,,,,,,,,,,,,,,,,,,,,082919_p2,001,2019_Aug_29_1523,body_behavioural,3.0.4,60.00098521612661,
7,parcelated_audio/33/33_30.aiff,,0,7,7,7,,,,,0,29,29,29,,,,,,,,,,,,,,,,,,,,,,,,,,,,,,,,,,,9,0.4364404199995988,,,,,,,,,,,,,,,,,,,,,,,,,,,,,,082919_p2,001,2019_Aug_29_1523,body_behavioural,3.0.4,60.00098521612661,
7,parcelated_audio/33/33_31.aiff,,0,7,7,7,,,,,0,30,30,30,,,,,,,,,,,,,,,,,,,,,,,,,,,,,,,,,,,1,0.26733083999988594,,,,,,,,,,,,,,,,,,,,,,,,,,,,,,082919_p2,001,2019_Aug_29_1523,body_behavioural,3.0.4,60.00098521612661,
7,parcelated_audio/33/33_32.aiff,,0,7,7,7,,,,,0,31,31,31,,,,,,,,,,,,,,,,,,,,,,,,,,,,,,,,,,,1,0.286541531999319,,,,,,,,,,,,,,,,,,,,,,,,,,,,,,082919_p2,001,2019_Aug_29_1523,body_behavioural,3.0.4,60.00098521612661,
7,,,0,7,7,7,,,,,,,,,,,,,,,,,,,,,,,,,,,,,,,,,,,,,,,,,,,,,space,2.1033100869999544,,,,,,,,,,,,,,,,,,,,,,,,,,,,082919_p2,001,2019_Aug_29_1523,body_behavioural,3.0.4,60.00098521612661,
,,,,,,,,,,,,,,,,,,,,,,,,,,,,,,,,,,,,,,,,,,,,,,,,,,,,,2340.8232741580005,space,2.2866328000000067,,,,,,,,,,,,,,,,,,,,,,,,,082919_p2,001,2019_Aug_29_1523,body_behavioural,3.0.4,60.00098521612661,
,,"In this next part of the experiment, please recall each story to the best of your ability.",,,,,,,,,,,,,0,0,0,0,,,,,,,,,,,,,,,,,,,,,,,,,,,,,,,,,,,,,,space,3.7840576549997422,,,,,,,,,,,,,,,,,,,,,,,082919_p2,001,2019_Aug_29_1523,body_behavioural,3.0.4,60.00098521612661,
,,"You will be presented with the story title, names, the images, and a blank text box for each story.",,,,,,,,,,,,,0,1,1,1,,,,,,,,,,,,,,,,,,,,,,,,,,,,,,,,,,,,,,space,7.301018269999986,,,,,,,,,,,,,,,,,,,,,,,082919_p2,001,2019_Aug_29_1523,body_behavioural,3.0.4,60.00098521612661,
,,Describe the story indicated with as many details as you can remember in the space provided. ,,,,,,,,,,,,,0,2,2,2,,,,,,,,,,,,,,,,,,,,,,,,,,,,,,,,,,,,,,space,2.9174010030001227,,,,,,,,,,,,,,,,,,,,,,,082919_p2,001,2019_Aug_29_1523,body_behavioural,3.0.4,60.00098521612661,
,,"When you are finished recalling one story, to move onto the next one, press the ‘return’ key. ",,,,,,,,,,,,,0,3,3,3,,,,,,,,,,,,,,,,,,,,,,,,,,,,,,,,,,,,,,space,4.370104622000326,,,,,,,,,,,,,,,,,,,,,,,082919_p2,001,2019_Aug_29_1523,body_behavioural,3.0.4,60.00098521612661,
,,There is a 5 minute time limit to make your response. ,,,,,,,,,,,,,0,4,4,4,,,,,,,,,,,,,,,,,,,,,,,,,,,,,,,,,,,,,,space,1.7534415700001773,,,,,,,,,,,,,,,,,,,,,,,082919_p2,001,2019_Aug_29_1523,body_behavioural,3.0.4,60.00098521612661,
,,Please note that you will not be able to capitalize any letters except for the first letter of your answer.,,,,,,,,,,,,,0,5,5,5,,,,,,,,,,,,,,,,,,,,,,,,,,,,,,,,,,,,,,space,2.8009316970001237,,,,,,,,,,,,,,,,,,,,,,,082919_p2,001,2019_Aug_29_1523,body_behavioural,3.0.4,60.00098521612661,
0,,,,,,,,,,,,,,,,,,,0,0,0,0,,,,,,,,,,,,,,,,,,,,,,,,,,,,,,,,,,,,space,1.1370434600003136,"Alma owns a startup but needs investors. she met charlie at a party earlier and they had discussed it. charlie is an investor and his company was interested in alma's startup. they had a class together where the professor was lecturing on augustus. charlie and alma discussed working together throughout the class. inititally, charlie's team only wanted to invest half, 28,000 dollars but alma said it wouldn't be enough to allow them to move forward and she would have to ask charlie's team's competitor for the rest of the money. charlie had been told that the team could make the full investment if necessary. throughout the conversation, the professor was describing augustus and all his achievements, including the beautification of athens. as class ended, charlie told alma that his team would invest the 56,000 dollars for her startup. they hugged to mark the beginning of a good working relationship. ",,,,,,,,,,,,,,,,,,,,082919_p2,001,2019_Aug_29_1523,body_behavioural,3.0.4,60.00098521612661,
1,,,,,,,,,,,,,,,,,,,0,1,1,1,,,,,,,,,,,,,,,,,,,,,,,,,,,,,,,,,,,,space,2.103435105000244,"Alex and chloe had been dating for 23 months. they went to the grocery store before thanksgiving to pick up a few things. alex planned to propose while there because he knew chloe would be surprised. alex was very nervous the whole time and was fidgeting and playing with his phone. chloe wasn't sure if he was more scared or confused and trusted that he would talk to her about whatever was bothering him when he was ready. alex wasn't paying attention to the groceries and was checking the ring in his wallet. they got in line to pay for their groceries and alex saw his friends that were waiting at the entrance of the store. he got down on one knee and proposed to chloe, telling her that he wanted her in his life everyday. people in the checkout line began to take photos and their friends were videotaping. chloe said yes and everyone cheered. the ring was one large diamond on a silver band. alex put it on her hand and she was very emotional. she immediately texted her mom. their friends came over to congradulate them. alex paid 14 dollars for the groceries after the people in the line let them go in front. they left the store with their friends and were deciding where to go to celebrate. ",,,,,,,,,,,,,,,,,,,,082919_p2,001,2019_Aug_29_1523,body_behavioural,3.0.4,60.00098521612661,
2,,,,,,,,,,,,,,,,,,,0,2,2,2,,,,,,,,,,,,,,,,,,,,,,,,,,,,,,,,,,,,space,2.6676211549984146,Aaron and lana met in class in the fanciest lecture hall in princeton. it had chandeliers and a giant projector. they had been dating for three years and aaron was going to propose during the class. lana was busy worrying about the assigment while aaron was worried about proposing. aaron had already talked to the professor who was in on the plan. the professor began his lecture in introduction to chemistry about the number of protons in various ions. the professor called both aaron and lana to the front of the class for a demonstration. lana was confused and brought her worksheet and aaron brought his small notebook where the ring was. aaron got down on one knee in front of a surprised lana and the professor quickly switched to the last slide on his powerpoint which was a collage of pictures of aaron and lana that aaron had sent him. this was the second time they had class together in this lecture hall and aaron wanted to propose there. lana was emotional and yelled yes and the class cheered. aaron and lana hugged and the professor gave aaron a congrulatory handshake. friends in the class took photos. aaron and lana sat back down and the professor ended the class saying there had been more than enough excitiment for the day. lana texted her sister. the profressor reminded the class that there would be a midterm next week on material from the first four weeks of class. ,,,,,,,,,,,,,,,,,,,,082919_p2,001,2019_Aug_29_1523,body_behavioural,3.0.4,60.00098521612661,
3,,,,,,,,,,,,,,,,,,,0,3,3,3,,,,,,,,,,,,,,,,,,,,,,,,,,,,,,,,,,,,space,13.202231266001036,"Thomas and sadie had been dating for a while and thomas had been thinking about breaking up with her for the past two months. they met for dinner at a 70's themed resturant and the waitress, while chewing gum, took them to a booth in the back. thomas didn't return sadie's hug and she clung to him. the two sat at the booth and thomas immediately said that he thought they should take a break from their relationship as he wanted to figure out his career path and it was hard to focus on work and changing jobs. the waitress came back and they ordered their usuals as the menu had funny names for everything and they didn't want to read the descriptions. thomas got a burger with no tomato and sadie got a rueben after asking the waitress if it was good. sadie asked thomas if this is what he wanted and said they could hang out less than they did now. the waitress dropped off their food and asked if they were going to get dessert and thomas said they were all right. sadie picked up half of her rueben and waved it in thomas' face, telling him not to follow or speak to her and that she wanted her beatles poster back. she left after crying in the booth and customer's pretended they didn't know what was going on. thomas bit into his burger and wondered if the resturant was behind the bad taste. ",,,,,,,,,,,,,,,,,,,,082919_p2,001,2019_Aug_29_1523,body_behavioural,3.0.4,60.00098521612661,
4,,,,,,,,,,,,,,,,,,,0,4,4,4,,,,,,,,,,,,,,,,,,,,,,,,,,,,,,,,,,,,space,9.07010814000023,Teresa was texting and ran into a glass door at a new japanese resturant. everyone turned to look at her and james was interested and looked at her over his newspaper several times before she noticed and wrinkled her eyebrows. they were both seated at the bar with a seat between them. james asked teresa if her forehead hurt and she asked if he had ever been stung by a scroprion. he worried that she had a concussion and she explained that she had been stung by a scorpion during her time abroad in egypt and hitting your head didn't really compare. they ordered their food. teresa got a salmon roll and a japanese beer. james got a vegetable roll and another roll. james looked over the menu quickly to decide and teresa took a long time. the waitress placed their food close together. james told teresa about a concert he was going to for an egyptian artist and invited her to join him. she said yes and they ate their meals happily. james had to rush off after they confirmed the plans and he knew he would pick her up. he left a fifty and said it was for both their meals and teresa waved at him with  her chopsticks. ,,,,,,,,,,,,,,,,,,,,082919_p2,001,2019_Aug_29_1523,body_behavioural,3.0.4,60.00098521612661,
5,,,,,,,,,,,,,,,,,,,0,5,5,5,,,,,,,,,,,,,,,,,,,,,,,,,,,,,,,,,,,,space,7.370411328000046,"Anna was in a rush and only had 35 minutes until her flight when she got to the airport. david had three hours until his flight and wasn't in a rush. anna's shoe was untied so she bent down to tie it and someone pushing a large luggage rack almost ran her over. david tackled her and pushed her out of the way. anna was shocked and david asked if she was a gymnast because it was quite a tumble and she said that she was put that tumble would be scored a zero, or maybe a one for his work. david helped her stand since she was wobbly and took her to security. they were let to the front of the security line because anna's flight was soon. there was a slight delay but they both got through security with no issues. david said he would walk anna to her gate and she worried that he would be late, but he assurred her he had time. as they had waited in the line, they learned they graduated from the same high school and she graduated three years before he did. when they found out when they would be back in town, david asked if she would like to get dinner on tuesday and she said yes. they got to her gate five minutes before the flight was set to take off. anna gave david a crumpled business card with her number and hurried onto her flight. she had a window seat. david saw that it was five minutes to 11. anna hugged the plastic blanket and was thankful that she hadn't missed her flight and she was clumsy enough to have an untied shoelace. ",,,,,,,,,,,,,,,,,,,,082919_p2,001,2019_Aug_29_1523,body_behavioural,3.0.4,60.00098521612661,
6,,,,,,,,,,,,,,,,,,,0,6,6,6,,,,,,,,,,,,,,,,,,,,,,,,,,,,,,,,,,,,space,13.621147538000514,"Calvin and jessie were at the airport for their flight from jamica to the united states. it had been planned before jessie had started to want to break up with calvin which occurred six weeks earlier. jessie was not happy on the vacation and calvin knew she wasn't happy but decided to act normal anyway. they went through security and calvin remarked on how lax it was and said that he could have snuck anything in in his shoe. jessie was fed up and said that they should go their own ways when they got back to the states. at first, calvin was too upset and didn't respond. they walked to their gate with jessie following behind calvin, asking why he was quiet now. calvin said that he agreed that they should go their separate ways and jessie said it was because their personalities were too different. calvin was hurt and said that he was sorry his personality bored her. when they boarded the plane with their electronic tickets, they didn't have to sit together because they forgot to get seats together. jessie said in a22 and calvin was three rows behind her. they said they hoped they each had a good flight and sat alone, glad that they could be solitary on the flight back. ",,,,,,,,,,,,,,,,,,,,082919_p2,001,2019_Aug_29_1523,body_behavioural,3.0.4,60.00098521612661,
7,,,,,,,,,,,,,,,,,,,0,7,7,7,,,,,,,,,,,,,,,,,,,,,,,,,,,,,,,,,,,,space,10.701303912001094,"Ms bianchi is selling cheeses from europe and meeting ms. morrison who buys the groceries for her store chain. they met in the store by the cheeses where ms bianchi gives ms morrison her pitch. ms bianchi says that if people buy their cheeses, they will buy more of other things like crackers and olives. ms morrison says that their competitor hasn't branched into european foods yet and they would like to be first. she worries that they don't need more cheeses and ms bianchi says she will buy a box of crackers and they can try some of the cheeses she brought with her. ms morrison agrees but says she will buy the crackers, along with ketchup and some other groceries. it's busy in the store since they are preparing for halloween. ms morrison worries about the high tax imports after ms bianchi suggests they buy 1500 dollars of cheese to try out in some stores. ms bianchi and ms morrison create a plan where they buy 20,000 dollars of cheese to get around the tax imports. ms bianchi finds it funny that ms morrison knows the workers at the store so well. they celebrate their new deal by drinking champagne and ms bianchi decides she likes working with americans. ",,,,,,,,,,,,,,,,,,,,082919_p2,001,2019_Aug_29_1523,body_behavioural,3.0.4,60.00098521612661,
,,,,,,,,,,,,,,,,,,,,,,,,,,,,,,,,,,,,,,,,,,,,,,,,,,,,,,,,,,,,,4549.773770768001,space,4.2865809879986045,,,,,,,,,,,,,,,,,082919_p2,001,2019_Aug_29_1523,body_behavioural,3.0.4,60.00098521612661,
,,"In this last part of the experiment, please answer 8 questions about each story.",,,,,,,,,,,,,,,,,,,,,0,0,0,0,,,,,,,,,,,,,,,,,,,,,,,,,,,,,,,,,,,,,,space,3.9869681279997167,,,,,,,,,,,,,,,082919_p2,001,2019_Aug_29_1523,body_behavioural,3.0.4,60.00098521612661,
,,Some of the questions are not related to the perspective you were asked to assume.,,,,,,,,,,,,,,,,,,,,,0,1,1,1,,,,,,,,,,,,,,,,,,,,,,,,,,,,,,,,,,,,,,space,3.637002154999209,,,,,,,,,,,,,,,082919_p2,001,2019_Aug_29_1523,body_behavioural,3.0.4,60.00098521612661,
,,"We realize that we did not tell you to think of these questions during the story, but please do your best to answer them.",,,,,,,,,,,,,,,,,,,,,0,2,2,2,,,,,,,,,,,,,,,,,,,,,,,,,,,,,,,,,,,,,,space,3.5174837230006233,,,,,,,,,,,,,,,082919_p2,001,2019_Aug_29_1523,body_behavioural,3.0.4,60.00098521612661,
,,"Please answer as much as you remember, and be specific and concrete in your answers. It is best to try to be as faithful as possible to what the story actually said.
",,,,,,,,,,,,,,,,,,,,,0,3,3,3,,,,,,,,,,,,,,,,,,,,,,,,,,,,,,,,,,,,,,space,7.086836767999557,,,,,,,,,,,,,,,082919_p2,001,2019_Aug_29_1523,body_behavioural,3.0.4,60.00098521612661,
,,"When you have finished typing your answer, hit ‘return’ to submit your answer and move onto the next question. ",,,,,,,,,,,,,,,,,,,,,0,4,4,4,,,,,,,,,,,,,,,,,,,,,,,,,,,,,,,,,,,,,,space,3.053673628000979,,,,,,,,,,,,,,,082919_p2,001,2019_Aug_29_1523,body_behavioural,3.0.4,60.00098521612661,
0,,,,,,,,,,,,,,,,,,,,,,,,,,,0,0,0,0,,,,,,,,,,,,,,,,,,,,,,,,,,,,,,They have a paper due next class. ,,,,,,space,1.5197569289994135,Charlie is an investor and alma runs a startup,non-primed first,"The inital offer from alma is 56,000 and charlie counters with 28,000",Sun springs,With a hug,It is large and airy,They are in a history class and the lecture is about augustus.,They learn that augustus beautified athens. ,They have a paper due next class. ,,,,082919_p2,001,2019_Aug_29_1523,body_behavioural,3.0.4,60.00098521612661,
1,,,,,,,,,,,,,,,,,,,,,,,,,,,0,1,1,1,,,,,,,,,,,,,,,,,,,,,,,,,,,,,,She texts her mother,,,,,,space,3.6531939600008627,It's frantic and people have carts piled high with groceries,primed first,"Turkeys, pumpkin pie, cranberry sauce",10 lanes and they get in lane 3,It's 14 dollars and he uses his debit card,For 23 months,1 diamond that is silver,It is in alex's wallet,She texts her mother,,,,082919_p2,001,2019_Aug_29_1523,body_behavioural,3.0.4,60.00098521612661,
2,,,,,,,,,,,,,,,,,,,,,,,,,,,0,2,2,2,,,,,,,,,,,,,,,,,,,,,,,,,,,,,,She texts her sister. ,,,,,,space,1.9532599550002487,"It is the best one at princeton, with chandiliers and a giant projector. ",non-primed first,They are in introduction to chemistry and they are learning about protons in ions. ,Sodium has 11 protons. ,They have a midterm next week. ,They have been dating for three years. ,There are five diamonds and they are red. ,It is in aaron's small notebook. ,She texts her sister. ,,,,082919_p2,001,2019_Aug_29_1523,body_behavioural,3.0.4,60.00098521612661,
3,,,,,,,,,,,,,,,,,,,,,,,,,,,0,3,3,3,,,,,,,,,,,,,,,,,,,,,,,,,,,,,,Sadie doesn't eat hers and takes half with her. thomas said that his has a bad taste. ,,,,,,space,6.251078923000023,For two months,non-primed first,He wants to focus on his career,Sadie doesn't want to break up because she thought they were doing well.,Sadie wants a poster back,It is 70's themed with many booths,They have funny names for each menu item,Thomas orders a burger with no tomatoes and sadie orders a rueben. ,Sadie doesn't eat hers and takes half with her. thomas said that his has a bad taste. ,,,,082919_p2,001,2019_Aug_29_1523,body_behavioural,3.0.4,60.00098521612661,
4,,,,,,,,,,,,,,,,,,,,,,,,,,,0,4,4,4,,,,,,,,,,,,,,,,,,,,,,,,,,,,,,They enjoy the food,,,,,,space,1.6699057249988982,James is holding a newspaper. ,primed first,Is your forehead okay,They will meet for the egyptian concert that night,It is 3 pm,It is a fancy japanese restaurant. ,The menus have large descriptions of japanese dishes in japanese with the english underneath in smaller writing,James orders a vegetable roll and tuna roll and teresa orders a salmon roll and japanese beer,They enjoy the food,,,,082919_p2,001,2019_Aug_29_1523,body_behavioural,3.0.4,60.00098521612661,
5,,,,,,,,,,,,,,,,,,,,,,,,,,,0,5,5,5,,,,,,,,,,,,,,,,,,,,,,,,,,,,,,It is five til 11,,,,,,space,1.7201323099998262,David has three hours before his flight and anna has thirty five minutes,primed first,They are changing guards,They are walking to gate j13,Anna sits in the window in seat a12,David is holding his luggage ,Were you a gymnast,They will meet for dinner on tuesday ,It is five til 11,,,,082919_p2,001,2019_Aug_29_1523,body_behavioural,3.0.4,60.00098521612661,
6,,,,,,,,,,,,,,,,,,,,,,,,,,,0,6,6,6,,,,,,,,,,,,,,,,,,,,,,,,,,,,,,Jessie sits in a window seat in row a23 and calvin is three rows back,,,,,,space,1.336583000000246,For six weeks,primed first,Their personalities are too different,Calvin doesn't want to break up and he thought they were happy,Jessie wants her psychology textbooks back,They have an hour,Metal detector malfunction,A23,Jessie sits in a window seat in row a23 and calvin is three rows back,,,,082919_p2,001,2019_Aug_29_1523,body_behavioural,3.0.4,60.00098521612661,
7,,,,,,,,,,,,,,,,,,,,,,,,,,,0,7,7,7,,,,,,,,,,,,,,,,,,,,,,,,,,,,,,Drinking champagne,,,,,,space,1.0694272950004233,It is decked out in orange and halloween decorations ,non-primed first,Candy,Ten and lane 3,23 dollars and she pays with a check,Ms bianchi is a cheese business women and ms morrison is the buyer for the stores,1500 dollars ,Orange springs,Drinking champagne,,,,082919_p2,001,2019_Aug_29_1523,body_behavioural,3.0.4,60.00098521612661,
,,,,,,,,,,,,,,,,,,,,,,,,,,,,,,,,,,,,,,,,,,,,,,,,,,,,,,,,,,,,,,,,,,,,,,,,,,,,,5284.8902069060005,space,2.2033364649996656,082919_p2,001,2019_Aug_29_1523,body_behavioural,3.0.4,60.00098521612661,
,,,,,,,,,,,,,,,,,,,,,,,,,,,,,,,0,0,0,0,,,,,,,,,,,,,,,,,,,,,,,,,,,,,,,,,,,,,,,,,,,,,,082919_p2,001,2019_Aug_29_1523,body_behavioural,3.0.4,60.00098521612661,
,,,,,,,,,,,,,,,,,,,,,,,,,,,,,,,1,0,1,0,,,,,,,,,,,,,,,,,,,,,,,,,,,,,,,,,,,,,,,,,,,,,,082919_p2,001,2019_Aug_29_1523,body_behavioural,3.0.4,60.00098521612661,
,,,,,,,,,,,,,,,,,,,,,,,,,,,,,,,2,0,2,0,,,,,,,,,,,,,,,,,,,,,,,,,,,,,,,,,,,,,,,,,,,,,,082919_p2,001,2019_Aug_29_1523,body_behavioural,3.0.4,60.00098521612661,
,,,,,,,,,,,,,,,,,,,,,,,,,,,,,,,3,0,3,0,,,,,,,,,,,,,,,,,,,,,,,,,,,,,,,,,,,,,,,,,,,,,,082919_p2,001,2019_Aug_29_1523,body_behavioural,3.0.4,60.00098521612661,
,,,,,,,,,,,,,,,,,,,,,,,,,,,,,,,4,0,4,0,,,,,,,,,,,,,,,,,,,,,,,,,,,,,,,,,,,,,,,,,,,,,,082919_p2,001,2019_Aug_29_1523,body_behavioural,3.0.4,60.00098521612661,
