count,audio,instructText,trials.thisRepN,trials.thisTrialN,trials.thisN,trials.thisIndex,trials_7.thisRepN,trials_7.thisTrialN,trials_7.thisN,trials_7.thisIndex,trials_2.thisRepN,trials_2.thisTrialN,trials_2.thisN,trials_2.thisIndex,trials_3.thisRepN,trials_3.thisTrialN,trials_3.thisN,trials_3.thisIndex,trials_4.thisRepN,trials_4.thisTrialN,trials_4.thisN,trials_4.thisIndex,order of stories,order of perspectives,text_38.started,text_38.stopped,key_resp_8.keys,key_resp_8.rt,key_resp_8.started,key_resp_8.stopped,text_39.started,text_39.stopped,text_33.started,text_33.stopped,key_resp_5.keys,key_resp_5.rt,key_resp_5.started,key_resp_5.stopped,text_4.started,text_4.stopped,image.started,image.stopped,text_5.started,text_5.stopped,text_37.started,text_37.stopped,key_resp_7.keys,key_resp_7.rt,key_resp_7.started,key_resp_7.stopped,question1_2.started,question1_2.stopped,question2_2.started,question2_2.stopped,question3_2.started,question3_2.stopped,question4_2.started,question4_2.stopped,question5_2.started,question5_2.stopped,question6_2.started,question6_2.stopped,image_15.started,image_15.stopped,text_49.started,text_49.stopped,key_resp_15.keys,key_resp_15.rt,key_resp_15.started,key_resp_15.stopped,text_50.started,text_50.stopped,key_resp_14.keys,key_resp_14.rt,key_resp_14.started,key_resp_14.stopped,sound_1.started,sound_1.stopped,pic1.started,pic1.stopped,story_presses.keys,story_presses.rt,story_presses.started,story_presses.stopped,image_2.started,image_2.stopped,text_34.started,text_34.stopped,text_35.started,text_35.stopped,text.started,text.stopped,text_52.started,text_52.stopped,key_resp_16.keys,key_resp_16.rt,key_resp_16.started,key_resp_16.stopped,story time,text_45.started,text_45.stopped,key_resp_6.keys,key_resp_6.rt,key_resp_6.started,key_resp_6.stopped,key_resp_2.keys,key_resp_2.rt,key_resp_2.started,key_resp_2.stopped,text_6.started,text_6.stopped,text_24.started,text_24.stopped,text_41.started,text_41.stopped,key_resp_10.keys,key_resp_10.rt,key_resp_10.started,key_resp_10.stopped,text_42.started,text_42.stopped,text_51.started,text_51.stopped,recall,text_9.started,text_9.stopped,text_10.started,text_10.stopped,image_4.started,image_4.stopped,polygon.started,polygon.stopped,bottom_line.started,bottom_line.stopped,right_line_2.started,right_line_2.stopped,left_line.started,left_line.stopped,text_48.started,text_48.stopped,recall time,participant,session,date,expName,psychopyVersion,frameRate,
0,,,0,0,0,0,0,0,0,0,,,,,,,,,,,,,[24 33 31 11 22 42 13 44],"['Social' 'Social' 'Location' 'Social' 'Location' 'Social' 'Location'
 'Location']",14.106291485019028,None,space,47.54697948999819,14.106291485019028,None,14.106291485019028,None,61.676403275021585,None,space,2.4108314350014552,61.676403275021585,None,64.36009428501711,None,64.36009428501711,None,64.36009428501711,None,66.42700141502428,None,space,1.4508405350206885,66.42700141502428,None,68.19518779500504,None,68.19518779500504,None,68.19518779500504,None,68.19518779500504,None,68.19518779500504,None,68.19518779500504,None,68.19518779500504,None,,,,,,,,,,,,,,,,,,,,,,,,,,,,,,,,,,,,,,,,,,,,,,,,,,,,,,,,,,,,,,,,,,,,,,,,,,,,,,091819_p1,001,2019_Sep_18_1346,body_behavioural,3.2.1,59.77970866605155,
0,parcelated_audio/24/24_1.aiff,,0,0,0,0,,,,,0,0,0,0,,,,,,,,,,,,,,,,,,,,,,,,,85.9119702000171,None,85.9119702000171,None,85.9119702000171,None,,,,,,,,,,,,,,,,,,,,,82.97772356000496,None,space,2.8658053429971915,82.97772356000496,None,86.89433862900478,None,space,1.118882939015748,86.89433862900478,None,88.21144015920291,None,88.21184014499886,None,9,10.766452311974717,98.628922265023,None,98.628922265023,None,98.628922265023,None,98.628922265023,None,,,,,,,,,,,,,,,,,,,,,,,,,,,,,,,,,,,,,,,,,,,,,,,,,,,,091819_p1,001,2019_Sep_18_1346,body_behavioural,3.2.1,59.77970866605155,
0,parcelated_audio/24/24_2.aiff,,0,0,0,0,,,,,0,1,1,1,,,,,,,,,,,,,,,,,,,,,,,,,,,,,,,,,,,,,,,,,,,,,,,,,,,,,,,,,,,,,,,109.49624225420703,None,109.49691837700084,None,1,6.218486441997811,115.79661196001689,None,115.79661196001689,None,115.79661196001689,None,115.79661196001689,None,,,,,,,,,,,,,,,,,,,,,,,,,,,,,,,,,,,,,,,,,,,,,,,,,,,,091819_p1,001,2019_Sep_18_1346,body_behavioural,3.2.1,59.77970866605155,
0,parcelated_audio/24/24_3.aiff,,0,0,0,0,,,,,0,2,2,2,,,,,,,,,,,,,,,,,,,,,,,,,,,,,,,,,,,,,,,,,,,,,,,,,,,,,,,,,,,,,,,122.1144603542256,None,122.1141615450033,None,1,1.5341969019791577,132.53129376700963,None,132.53129376700963,None,132.53129376700963,None,132.53129376700963,None,,,,,,,,,,,,,,,,,,,,,,,,,,,,,,,,,,,,,,,,,,,,,,,,,,,,091819_p1,001,2019_Sep_18_1346,body_behavioural,3.2.1,59.77970866605155,
0,parcelated_audio/24/24_4.aiff,,0,0,0,0,,,,,0,3,3,3,,,,,,,,,,,,,,,,,,,,,,,,,,,,,,,,,,,,,,,,,,,,,,,,,,,,,,,,,,,,,,,134.16440606922552,None,134.16455890701036,None,1,1.4063409800000954,141.04839770201943,None,141.04839770201943,None,141.04839770201943,None,141.04839770201943,None,,,,,,,,,,,,,,,,,,,,,,,,,,,,,,,,,,,,,,,,,,,,,,,,,,,,091819_p1,001,2019_Sep_18_1346,body_behavioural,3.2.1,59.77970866605155,
0,parcelated_audio/24/24_5.aiff,,0,0,0,0,,,,,0,4,4,4,,,,,,,,,,,,,,,,,,,,,,,,,,,,,,,,,,,,,,,,,,,,,,,,,,,,,,,,,,,,,,,142.54931596921816,None,142.5493337950029,None,9,5.1808246840082575,147.49914306000574,None,147.49914306000574,None,147.49914306000574,None,147.49914306000574,None,,,,,,,,,,,,,,,,,,,,,,,,,,,,,,,,,,,,,,,,,,,,,,,,,,,,091819_p1,001,2019_Sep_18_1346,body_behavioural,3.2.1,59.77970866605155,
0,parcelated_audio/24/24_6.aiff,,0,0,0,0,,,,,0,5,5,5,,,,,,,,,,,,,,,,,,,,,,,,,,,,,,,,,,,,,,,,,,,,,,,,,,,,,,,,,,,,,,,152.7658149662224,None,152.76588605501456,None,1,1.2613233280135319,160.2163598150073,None,160.2163598150073,None,160.2163598150073,None,160.2163598150073,None,,,,,,,,,,,,,,,,,,,,,,,,,,,,,,,,,,,,,,,,,,,,,,,,,,,,091819_p1,001,2019_Sep_18_1346,body_behavioural,3.2.1,59.77970866605155,
0,parcelated_audio/24/24_7.aiff,,0,0,0,0,,,,,0,6,6,6,,,,,,,,,,,,,,,,,,,,,,,,,,,,,,,,,,,,,,,,,,,,,,,,,,,,,,,,,,,,,,,161.56725051421964,None,161.5665023449983,None,1,0.7934492450149264,165.95058072701795,None,165.95058072701795,None,165.95058072701795,None,165.95058072701795,None,,,,,,,,,,,,,,,,,,,,,,,,,,,,,,,,,,,,,,,,,,,,,,,,,,,,091819_p1,001,2019_Sep_18_1346,body_behavioural,3.2.1,59.77970866605155,
0,parcelated_audio/24/24_8.aiff,,0,0,0,0,,,,,0,7,7,7,,,,,,,,,,,,,,,,,,,,,,,,,,,,,,,,,,,,,,,,,,,,,,,,,,,,,,,,,,,,,,,166.8335521992034,None,166.8341114600189,None,1,0.7059927200025413,172.86645175202284,None,172.86645175202284,None,172.86645175202284,None,172.86645175202284,None,,,,,,,,,,,,,,,,,,,,,,,,,,,,,,,,,,,,,,,,,,,,,,,,,,,,091819_p1,001,2019_Sep_18_1346,body_behavioural,3.2.1,59.77970866605155,
0,parcelated_audio/24/24_9.aiff,,0,0,0,0,,,,,0,8,8,8,,,,,,,,,,,,,,,,,,,,,,,,,,,,,,,,,,,,,,,,,,,,,,,,,,,,,,,,,,,,,,,173.68380924421072,None,173.68394164001802,None,1,0.7332740070123691,178.0176089570159,None,178.0176089570159,None,178.0176089570159,None,178.0176089570159,None,,,,,,,,,,,,,,,,,,,,,,,,,,,,,,,,,,,,,,,,,,,,,,,,,,,,091819_p1,001,2019_Sep_18_1346,body_behavioural,3.2.1,59.77970866605155,
0,parcelated_audio/24/24_10.aiff,,0,0,0,0,,,,,0,9,9,9,,,,,,,,,,,,,,,,,,,,,,,,,,,,,,,,,,,,,,,,,,,,,,,,,,,,,,,,,,,,,,,178.8351022462215,None,178.8348096749978,None,1,0.3396361680061091,182.58468096502475,None,182.58468096502475,None,182.58468096502475,None,182.58468096502475,None,,,,,,,,,,,,,,,,,,,,,,,,,,,,,,,,,,,,,,,,,,,,,,,,,,,,091819_p1,001,2019_Sep_18_1346,body_behavioural,3.2.1,59.77970866605155,
0,parcelated_audio/24/24_11.aiff,,0,0,0,0,,,,,0,10,10,10,,,,,,,,,,,,,,,,,,,,,,,,,,,,,,,,,,,,,,,,,,,,,,,,,,,,,,,,,,,,,,,183.0186597962078,None,183.0184238050133,None,1,0.5131456950039137,193.13537671000813,None,193.13537671000813,None,193.13537671000813,None,193.13537671000813,None,,,,,,,,,,,,,,,,,,,,,,,,,,,,,,,,,,,,,,,,,,,,,,,,,,,,091819_p1,001,2019_Sep_18_1346,body_behavioural,3.2.1,59.77970866605155,
0,parcelated_audio/24/24_12.aiff,,0,0,0,0,,,,,0,11,11,11,,,,,,,,,,,,,,,,,,,,,,,,,,,,,,,,,,,,,,,,,,,,,,,,,,,,,,,,,,,,,,,193.7526046761981,None,193.75201872500475,None,1,7.785212490009144,202.8192898920097,None,202.8192898920097,None,202.8192898920097,None,202.8192898920097,None,,,,,,,,,,,,,,,,,,,,,,,,,,,,,,,,,,,,,,,,,,,,,,,,,,,,091819_p1,001,2019_Sep_18_1346,body_behavioural,3.2.1,59.77970866605155,
0,parcelated_audio/24/24_13.aiff,,0,0,0,0,,,,,0,12,12,12,,,,,,,,,,,,,,,,,,,,,,,,,,,,,,,,,,,,,,,,,,,,,,,,,,,,,,,,,,,,,,,210.7032708812243,None,210.70330660699983,None,1,2.4413196299865376,214.67016416499973,None,214.67016416499973,None,214.67016416499973,None,214.67016416499973,None,,,,,,,,,,,,,,,,,,,,,,,,,,,,,,,,,,,,,,,,,,,,,,,,,,,,091819_p1,001,2019_Sep_18_1346,body_behavioural,3.2.1,59.77970866605155,
0,parcelated_audio/24/24_14.aiff,,0,0,0,0,,,,,0,13,13,13,,,,,,,,,,,,,,,,,,,,,,,,,,,,,,,,,,,,,,,,,,,,,,,,,,,,,,,,,,,,,,,217.20451856921719,None,217.2048199850251,None,1,2.3059226300101727,224.57094343501376,None,224.57094343501376,None,224.57094343501376,None,224.57094343501376,None,,,,,,,,,,,,,,,,,,,,,,,,,,,,,,,,,,,,,,,,,,,,,,,,,,,,091819_p1,001,2019_Sep_18_1346,body_behavioural,3.2.1,59.77970866605155,
0,parcelated_audio/24/24_15.aiff,,0,0,0,0,,,,,0,14,14,14,,,,,,,,,,,,,,,,,,,,,,,,,,,,,,,,,,,,,,,,,,,,,,,,,,,,,,,,,,,,,,,226.97167480922363,None,226.9709320050024,None,1,0.7419951419869903,233.48811224702513,None,233.48811224702513,None,233.48811224702513,None,233.48811224702513,None,,,,,,,,,,,,,,,,,,,,,,,,,,,,,,,,,,,,,,,,,,,,,,,,,,,,091819_p1,001,2019_Sep_18_1346,body_behavioural,3.2.1,59.77970866605155,
0,parcelated_audio/24/24_16.aiff,,0,0,0,0,,,,,0,15,15,15,,,,,,,,,,,,,,,,,,,,,,,,,,,,,,,,,,,,,,,,,,,,,,,,,,,,,,,,,,,,,,,234.32217083422293,None,234.3221428450197,None,1,0.6415267600095831,241.50530543501372,None,241.50530543501372,None,241.50530543501372,None,241.50530543501372,None,,,,,,,,,,,,,,,,,,,,,,,,,,,,,,,,,,,,,,,,,,,,,,,,,,,,091819_p1,001,2019_Sep_18_1346,body_behavioural,3.2.1,59.77970866605155,
0,parcelated_audio/24/24_17.aiff,,0,0,0,0,,,,,0,16,16,16,,,,,,,,,,,,,,,,,,,,,,,,,,,,,,,,,,,,,,,,,,,,,,,,,,,,,,,,,,,,,,,242.25640502620664,None,242.25605336000444,None,1,0.6353733099822421,248.2392528950004,None,248.2392528950004,None,248.2392528950004,None,248.2392528950004,None,,,,,,,,,,,,,,,,,,,,,,,,,,,,,,,,,,,,,,,,,,,,,,,,,,,,091819_p1,001,2019_Sep_18_1346,body_behavioural,3.2.1,59.77970866605155,
0,parcelated_audio/24/24_18.aiff,,0,0,0,0,,,,,0,17,17,17,,,,,,,,,,,,,,,,,,,,,,,,,,,,,,,,,,,,,,,,,,,,,,,,,,,,,,,,,,,,,,,248.97246107621177,None,248.9727106570208,None,1,0.6224250880186446,257.40696158001083,None,257.40696158001083,None,257.40696158001083,None,257.40696158001083,None,,,,,,,,,,,,,,,,,,,,,,,,,,,,,,,,,,,,,,,,,,,,,,,,,,,,091819_p1,001,2019_Sep_18_1346,body_behavioural,3.2.1,59.77970866605155,
0,parcelated_audio/24/24_19.aiff,,0,0,0,0,,,,,0,18,18,18,,,,,,,,,,,,,,,,,,,,,,,,,,,,,,,,,,,,,,,,,,,,,,,,,,,,,,,,,,,,,,,258.13920199922575,None,258.14044219002244,None,1,1.1970317479863297,267.77465550001943,None,267.77465550001943,None,267.77465550001943,None,267.77465550001943,None,,,,,,,,,,,,,,,,,,,,,,,,,,,,,,,,,,,,,,,,,,,,,,,,,,,,091819_p1,001,2019_Sep_18_1346,body_behavioural,3.2.1,59.77970866605155,
0,parcelated_audio/24/24_20.aiff,,0,0,0,0,,,,,0,19,19,19,,,,,,,,,,,,,,,,,,,,,,,,,,,,,,,,,,,,,,,,,,,,,,,,,,,,,,,,,,,,,,,269.04056343420814,None,269.0406199420104,None,1,1.231570695003029,273.49099340001703,None,273.49099340001703,None,273.49099340001703,None,273.49099340001703,None,,,,,,,,,,,,,,,,,,,,,,,,,,,,,,,,,,,,,,,,,,,,,,,,,,,,091819_p1,001,2019_Sep_18_1346,body_behavioural,3.2.1,59.77970866605155,
0,parcelated_audio/24/24_21.aiff,,0,0,0,0,,,,,0,20,20,20,,,,,,,,,,,,,,,,,,,,,,,,,,,,,,,,,,,,,,,,,,,,,,,,,,,,,,,,,,,,,,,274.82502241620966,None,274.8252448120038,None,9,0.6868542960146442,282.8249392370053,None,282.8249392370053,None,282.8249392370053,None,282.8249392370053,None,,,,,,,,,,,,,,,,,,,,,,,,,,,,,,,,,,,,,,,,,,,,,,,,,,,,091819_p1,001,2019_Sep_18_1346,body_behavioural,3.2.1,59.77970866605155,
0,parcelated_audio/24/24_22.aiff,,0,0,0,0,,,,,0,21,21,21,,,,,,,,,,,,,,,,,,,,,,,,,,,,,,,,,,,,,,,,,,,,,,,,,,,,,,,,,,,,,,,283.6248303392116,None,283.62489446499967,None,1,0.3611013529880438,294.04248048202135,None,294.04248048202135,None,294.04248048202135,None,294.04248048202135,None,,,,,,,,,,,,,,,,,,,,,,,,,,,,,,,,,,,,,,,,,,,,,,,,,,,,091819_p1,001,2019_Sep_18_1346,body_behavioural,3.2.1,59.77970866605155,
0,parcelated_audio/24/24_23.aiff,,0,0,0,0,,,,,0,22,22,22,,,,,,,,,,,,,,,,,,,,,,,,,,,,,,,,,,,,,,,,,,,,,,,,,,,,,,,,,,,,,,,294.50905105622076,None,294.5086773300136,None,1,0.47909663800965063,304.7097742970218,None,304.7097742970218,None,304.7097742970218,None,304.7097742970218,None,,,,,,,,,,,,,,,,,,,,,,,,,,,,,,,,,,,,,,,,,,,,,,,,,,,,091819_p1,001,2019_Sep_18_1346,body_behavioural,3.2.1,59.77970866605155,
0,parcelated_audio/24/24_24.aiff,,0,0,0,0,,,,,0,23,23,23,,,,,,,,,,,,,,,,,,,,,,,,,,,,,,,,,,,,,,,,,,,,,,,,,,,,,,,,,,,,,,,305.27705888620983,None,305.27749432701967,None,1,0.6820096129958984,311.843597744999,None,311.843597744999,None,311.843597744999,None,311.843597744999,None,,,,,,,,,,,,,,,,,,,,,,,,,,,,,,,,,,,,,,,,,,,,,,,,,,,,091819_p1,001,2019_Sep_18_1346,body_behavioural,3.2.1,59.77970866605155,
0,parcelated_audio/24/24_25.aiff,,0,0,0,0,,,,,0,24,24,24,,,,,,,,,,,,,,,,,,,,,,,,,,,,,,,,,,,,,,,,,,,,,,,,,,,,,,,,,,,,,,,312.6111088492238,None,312.6102413799963,None,1,0.8442303049960174,321.3273764400219,None,321.3273764400219,None,321.3273764400219,None,321.3273764400219,None,,,,,,,,,,,,,,,,,,,,,,,,,,,,,,,,,,,,,,,,,,,,,,,,,,,,091819_p1,001,2019_Sep_18_1346,body_behavioural,3.2.1,59.77970866605155,
0,parcelated_audio/24/24_26.aiff,,0,0,0,0,,,,,0,25,25,25,,,,,,,,,,,,,,,,,,,,,,,,,,,,,,,,,,,,,,,,,,,,,,,,,,,,,,,,,,,,,,,322.2775563062081,None,322.2776457100117,None,1,1.0179760929895565,328.8458117550181,None,328.8458117550181,None,328.8458117550181,None,328.8458117550181,None,,,,,,,,,,,,,,,,,,,,,,,,,,,,,,,,,,,,,,,,,,,,,,,,,,,,091819_p1,001,2019_Sep_18_1346,body_behavioural,3.2.1,59.77970866605155,
0,parcelated_audio/24/24_27.aiff,,0,0,0,0,,,,,0,26,26,26,,,,,,,,,,,,,,,,,,,,,,,,,,,,,,,,,,,,,,,,,,,,,,,,,,,,,,,,,,,,,,,329.97795865922524,None,329.97788514199783,None,1,0.7985092620074283,336.0457130470022,None,336.0457130470022,None,336.0457130470022,None,336.0457130470022,None,,,,,,,,,,,,,,,,,,,,,,,,,,,,,,,,,,,,,,,,,,,,,,,,,,,,091819_p1,001,2019_Sep_18_1346,body_behavioural,3.2.1,59.77970866605155,
0,parcelated_audio/24/24_28.aiff,,0,0,0,0,,,,,0,27,27,27,,,,,,,,,,,,,,,,,,,,,,,,,,,,,,,,,,,,,,,,,,,,,,,,,,,,,,,,,,,,,,,336.9451652912161,None,336.9452369270148,None,1,1.348419454996474,341.4461660820234,None,341.4461660820234,None,341.4461660820234,None,341.4461660820234,None,,,,,,,,,,,,,,,,,,,,,,,,,,,,,,,,,,,,,,,,,,,,,,,,,,,,091819_p1,001,2019_Sep_18_1346,body_behavioural,3.2.1,59.77970866605155,
0,parcelated_audio/24/24_29.aiff,,0,0,0,0,,,,,0,28,28,28,,,,,,,,,,,,,,,,,,,,,,,,,,,,,,,,,,,,,,,,,,,,,,,,,,,,,,,,,,,,,,,342.87929149919944,None,342.8799756570079,None,1,0.13757054001325741,349.1628774900164,None,349.1628774900164,None,349.1628774900164,None,349.1628774900164,None,,,,,,,,,,,,,,,,,,,,,,,,,,,,,,,,,,,,,,,,,,,,,,,,,,,,091819_p1,001,2019_Sep_18_1346,body_behavioural,3.2.1,59.77970866605155,
0,parcelated_audio/24/24_30.aiff,,0,0,0,0,,,,,0,29,29,29,,,,,,,,,,,,,,,,,,,,,,,,,,,,,,,,,,,,,,,,,,,,,,,,,,,,,,,,,,,,,,,349.3968440641969,None,349.39605235200725,None,1,0.6095719500153791,355.63071861700155,None,355.63071861700155,None,355.63071861700155,None,355.63071861700155,None,,,,,,,,,,,,,,,,,,,,,,,,,,,,,,,,,,,,,,,,,,,,,,,,,,,,091819_p1,001,2019_Sep_18_1346,body_behavioural,3.2.1,59.77970866605155,
0,parcelated_audio/24/24_31.aiff,,0,0,0,0,,,,,0,30,30,30,,,,,,,,,,,,,,,,,,,,,,,,,,,,,,,,,,,,,,,,,,,,,,,,,,,,,,,,,,,,,,,356.32994366922355,None,356.32986844700645,None,9,0.92041987599805,362.9970446770021,None,362.9970446770021,None,362.9970446770021,None,362.9970446770021,None,,,,,,,,,,,,,,,,,,,,,,,,,,,,,,,,,,,,,,,,,,,,,,,,,,,,091819_p1,001,2019_Sep_18_1346,body_behavioural,3.2.1,59.77970866605155,
0,parcelated_audio/24/24_32.aiff,,0,0,0,0,,,,,0,31,31,31,,,,,,,,,,,,,,,,,,,,,,,,,,,,,,,,,,,,,,,,,,,,,,,,,,,,,,,,,,,,,,,364.0138368492102,None,364.01385494699934,None,1,1.3627016530081164,374.4155278070248,None,374.4155278070248,None,374.4155278070248,None,374.4155278070248,None,,,,,,,,,,,,,,,,,,,,,,,,,,,,,,,,,,,,,,,,,,,,,,,,,,,,091819_p1,001,2019_Sep_18_1346,body_behavioural,3.2.1,59.77970866605155,
0,,,0,0,0,0,,,,,,,,,,,,,,,,,,,,,,,,,,,,,,,,,,,,,,,,,,,,,,,,,,,,,,,,,,,,,,,,,,,,,,,,,,,,,,,,,,,,,375.79794620201574,None,375.79794620201574,None,space,2.600625446997583,375.79794620201574,None,,,,,,,,,,,,,,,,,,,,,,,,,,,,,,,,,,,,,,,,,,,,091819_p1,001,2019_Sep_18_1346,body_behavioural,3.2.1,59.77970866605155,
1,,,0,1,1,1,0,0,0,0,,,,,,,,,,,,,,,378.432008970005,None,space,1.0214008119946811,378.432008970005,None,378.432008970005,None,379.481635085016,None,space,0.5368230919993948,379.481635085016,None,380.11502747499617,None,380.11502747499617,None,380.11502747499617,None,381.0649327870051,None,space,0.5745108169794548,381.0649327870051,None,381.9318526550196,None,381.9318526550196,None,381.9318526550196,None,381.9318526550196,None,381.9318526550196,None,381.9318526550196,None,381.9318526550196,None,,,,,,,,,,,,,,,,,,,,,,,,,,,,,,,,,,,,,,,,,,,,,,,,,,,,,,,,,,,,,,,,,,,,,,,,,,,,,,091819_p1,001,2019_Sep_18_1346,body_behavioural,3.2.1,59.77970866605155,
1,parcelated_audio/33/33_1.aiff,,0,1,1,1,,,,,0,0,0,0,,,,,,,,,,,,,,,,,,,,,,,,,395.0492184100149,None,395.0492184100149,None,395.0492184100149,None,,,,,,,,,,,,,,,,,,,,,392.88246501001413,None,space,2.09496975998627,392.88246501001413,None,395.5492731350241,None,space,0.6960116999980528,395.5492731350241,None,396.4004063942033,None,396.3993774970004,None,9,1.6658393130055629,406.34995563700795,None,406.34995563700795,None,406.34995563700795,None,406.34995563700795,None,,,,,,,,,,,,,,,,,,,,,,,,,,,,,,,,,,,,,,,,,,,,,,,,,,,,091819_p1,001,2019_Sep_18_1346,body_behavioural,3.2.1,59.77970866605155,
1,parcelated_audio/33/33_2.aiff,,0,1,1,1,,,,,0,1,1,1,,,,,,,,,,,,,,,,,,,,,,,,,,,,,,,,,,,,,,,,,,,,,,,,,,,,,,,,,,,,,,,408.1335052342241,None,408.1343573500053,None,1,0.7282919299905188,418.5514940220164,None,418.5514940220164,None,418.5514940220164,None,418.5514940220164,None,,,,,,,,,,,,,,,,,,,,,,,,,,,,,,,,,,,,,,,,,,,,,,,,,,,,091819_p1,001,2019_Sep_18_1346,body_behavioural,3.2.1,59.77970866605155,
1,parcelated_audio/33/33_3.aiff,,0,1,1,1,,,,,0,2,2,2,,,,,,,,,,,,,,,,,,,,,,,,,,,,,,,,,,,,,,,,,,,,,,,,,,,,,,,,,,,,,,,419.3681807092129,None,419.36818787502125,None,9,3.4611855699913576,425.90179647001787,None,425.90179647001787,None,425.90179647001787,None,425.90179647001787,None,,,,,,,,,,,,,,,,,,,,,,,,,,,,,,,,,,,,,,,,,,,,,,,,,,,,091819_p1,001,2019_Sep_18_1346,body_behavioural,3.2.1,59.77970866605155,
1,parcelated_audio/33/33_4.aiff,,0,1,1,1,,,,,0,3,3,3,,,,,,,,,,,,,,,,,,,,,,,,,,,,,,,,,,,,,,,,,,,,,,,,,,,,,,,,,,,,,,,429.46824109920124,None,429.46823591701104,None,1,0.45034356001997367,433.0188192470232,None,433.0188192470232,None,433.0188192470232,None,433.0188192470232,None,,,,,,,,,,,,,,,,,,,,,,,,,,,,,,,,,,,,,,,,,,,,,,,,,,,,091819_p1,001,2019_Sep_18_1346,body_behavioural,3.2.1,59.77970866605155,
1,parcelated_audio/33/33_5.aiff,,0,1,1,1,,,,,0,4,4,4,,,,,,,,,,,,,,,,,,,,,,,,,,,,,,,,,,,,,,,,,,,,,,,,,,,,,,,,,,,,,,,433.5682534561987,None,433.56928260001587,None,9,1.8268394930055365,443.9701790700201,None,443.9701790700201,None,443.9701790700201,None,443.9701790700201,None,,,,,,,,,,,,,,,,,,,,,,,,,,,,,,,,,,,,,,,,,,,,,,,,,,,,091819_p1,001,2019_Sep_18_1346,body_behavioural,3.2.1,59.77970866605155,
1,parcelated_audio/33/33_6.aiff,,0,1,1,1,,,,,0,5,5,5,,,,,,,,,,,,,,,,,,,,,,,,,,,,,,,,,,,,,,,,,,,,,,,,,,,,,,,,,,,,,,,445.90271603620783,None,445.90245959200547,None,1,1.2592395099927671,456.3202553600131,None,456.3202553600131,None,456.3202553600131,None,456.3202553600131,None,,,,,,,,,,,,,,,,,,,,,,,,,,,,,,,,,,,,,,,,,,,,,,,,,,,,091819_p1,001,2019_Sep_18_1346,body_behavioural,3.2.1,59.77970866605155,
1,parcelated_audio/33/33_7.aiff,,0,1,1,1,,,,,0,6,6,6,,,,,,,,,,,,,,,,,,,,,,,,,,,,,,,,,,,,,,,,,,,,,,,,,,,,,,,,,,,,,,,457.6868434992124,None,457.6868934619997,None,1,1.0255425600043964,468.1045750270132,None,468.1045750270132,None,468.1045750270132,None,468.1045750270132,None,,,,,,,,,,,,,,,,,,,,,,,,,,,,,,,,,,,,,,,,,,,,,,,,,,,,091819_p1,001,2019_Sep_18_1346,body_behavioural,3.2.1,59.77970866605155,
1,parcelated_audio/33/33_8.aiff,,0,1,1,1,,,,,0,7,7,7,,,,,,,,,,,,,,,,,,,,,,,,,,,,,,,,,,,,,,,,,,,,,,,,,,,,,,,,,,,,,,,469.2213555211987,None,469.22147077700356,None,9,1.9648648249858525,475.33870692001074,None,475.33870692001074,None,475.33870692001074,None,475.33870692001074,None,,,,,,,,,,,,,,,,,,,,,,,,,,,,,,,,,,,,,,,,,,,,,,,,,,,,091819_p1,001,2019_Sep_18_1346,body_behavioural,3.2.1,59.77970866605155,
1,parcelated_audio/33/33_9.aiff,,0,1,1,1,,,,,0,8,8,8,,,,,,,,,,,,,,,,,,,,,,,,,,,,,,,,,,,,,,,,,,,,,,,,,,,,,,,,,,,,,,,477.38898967921557,None,477.3887289170234,None,1,0.5509687549783848,481.071803407016,None,481.071803407016,None,481.071803407016,None,481.071803407016,None,,,,,,,,,,,,,,,,,,,,,,,,,,,,,,,,,,,,,,,,,,,,,,,,,,,,091819_p1,001,2019_Sep_18_1346,body_behavioural,3.2.1,59.77970866605155,
1,parcelated_audio/33/33_10.aiff,,0,1,1,1,,,,,0,9,9,9,,,,,,,,,,,,,,,,,,,,,,,,,,,,,,,,,,,,,,,,,,,,,,,,,,,,,,,,,,,,,,,481.72204314121916,None,481.72257959502167,None,1,0.7346410850004759,487.0724609300087,None,487.0724609300087,None,487.0724609300087,None,487.0724609300087,None,,,,,,,,,,,,,,,,,,,,,,,,,,,,,,,,,,,,,,,,,,,,,,,,,,,,091819_p1,001,2019_Sep_18_1346,body_behavioural,3.2.1,59.77970866605155,
1,parcelated_audio/33/33_11.aiff,,0,1,1,1,,,,,0,10,10,10,,,,,,,,,,,,,,,,,,,,,,,,,,,,,,,,,,,,,,,,,,,,,,,,,,,,,,,,,,,,,,,487.9063453712064,None,487.90567183701205,None,1,1.3730067549913656,498.32349644001806,None,498.32349644001806,None,498.32349644001806,None,498.32349644001806,None,,,,,,,,,,,,,,,,,,,,,,,,,,,,,,,,,,,,,,,,,,,,,,,,,,,,091819_p1,001,2019_Sep_18_1346,body_behavioural,3.2.1,59.77970866605155,
1,parcelated_audio/33/33_12.aiff,,0,1,1,1,,,,,0,11,11,11,,,,,,,,,,,,,,,,,,,,,,,,,,,,,,,,,,,,,,,,,,,,,,,,,,,,,,,,,,,,,,,499.79034565120526,None,499.79059969002265,None,1,0.723336549999658,505.8742091100139,None,505.8742091100139,None,505.8742091100139,None,505.8742091100139,None,,,,,,,,,,,,,,,,,,,,,,,,,,,,,,,,,,,,,,,,,,,,,,,,,,,,091819_p1,001,2019_Sep_18_1346,body_behavioural,3.2.1,59.77970866605155,
1,parcelated_audio/33/33_13.aiff,,0,1,1,1,,,,,0,12,12,12,,,,,,,,,,,,,,,,,,,,,,,,,,,,,,,,,,,,,,,,,,,,,,,,,,,,,,,,,,,,,,,506.70696195921334,None,506.7069044750242,None,1,0.10292705800384283,514.1074434519978,None,514.1074434519978,None,514.1074434519978,None,514.1074434519978,None,,,,,,,,,,,,,,,,,,,,,,,,,,,,,,,,,,,,,,,,,,,,,,,,,,,,091819_p1,001,2019_Sep_18_1346,body_behavioural,3.2.1,59.77970866605155,
1,parcelated_audio/33/33_14.aiff,,0,1,1,1,,,,,0,13,13,13,,,,,,,,,,,,,,,,,,,,,,,,,,,,,,,,,,,,,,,,,,,,,,,,,,,,,,,,,,,,,,,514.3242728242097,None,514.32419178501,None,1,2.6898362080100924,524.7421148270078,None,524.7421148270078,None,524.7421148270078,None,524.7421148270078,None,,,,,,,,,,,,,,,,,,,,,,,,,,,,,,,,,,,,,,,,,,,,,,,,,,,,091819_p1,001,2019_Sep_18_1346,body_behavioural,3.2.1,59.77970866605155,
1,parcelated_audio/33/33_15.aiff,,0,1,1,1,,,,,0,14,14,14,,,,,,,,,,,,,,,,,,,,,,,,,,,,,,,,,,,,,,,,,,,,,,,,,,,,,,,,,,,,,,,527.54173524121,None,527.5420068399981,None,1,0.5710453630017582,537.942581137002,None,537.942581137002,None,537.942581137002,None,537.942581137002,None,,,,,,,,,,,,,,,,,,,,,,,,,,,,,,,,,,,,,,,,,,,,,,,,,,,,091819_p1,001,2019_Sep_18_1346,body_behavioural,3.2.1,59.77970866605155,
1,parcelated_audio/33/33_16.aiff,,0,1,1,1,,,,,0,15,15,15,,,,,,,,,,,,,,,,,,,,,,,,,,,,,,,,,,,,,,,,,,,,,,,,,,,,,,,,,,,,,,,538.6090778061974,None,538.6093037700048,None,1,0.6866120099730324,549.0274351300031,None,549.0274351300031,None,549.0274351300031,None,549.0274351300031,None,,,,,,,,,,,,,,,,,,,,,,,,,,,,,,,,,,,,,,,,,,,,,,,,,,,,091819_p1,001,2019_Sep_18_1346,body_behavioural,3.2.1,59.77970866605155,
1,parcelated_audio/33/33_17.aiff,,0,1,1,1,,,,,0,16,16,16,,,,,,,,,,,,,,,,,,,,,,,,,,,,,,,,,,,,,,,,,,,,,,,,,,,,,,,,,,,,,,,549.82663189421,None,549.8265523070004,None,1,0.663437014009105,560.2273888470081,None,560.2273888470081,None,560.2273888470081,None,560.2273888470081,None,,,,,,,,,,,,,,,,,,,,,,,,,,,,,,,,,,,,,,,,,,,,,,,,,,,,091819_p1,001,2019_Sep_18_1346,body_behavioural,3.2.1,59.77970866605155,
1,parcelated_audio/33/33_18.aiff,,0,1,1,1,,,,,0,17,17,17,,,,,,,,,,,,,,,,,,,,,,,,,,,,,,,,,,,,,,,,,,,,,,,,,,,,,,,,,,,,,,,560.977857416225,None,560.9779979870073,None,9,0.5538485949800815,569.39573831702,None,569.39573831702,None,569.39573831702,None,569.39573831702,None,,,,,,,,,,,,,,,,,,,,,,,,,,,,,,,,,,,,,,,,,,,,,,,,,,,,091819_p1,001,2019_Sep_18_1346,body_behavioural,3.2.1,59.77970866605155,
1,parcelated_audio/33/33_19.aiff,,0,1,1,1,,,,,0,18,18,18,,,,,,,,,,,,,,,,,,,,,,,,,,,,,,,,,,,,,,,,,,,,,,,,,,,,,,,,,,,,,,,570.0624000962038,None,570.0616512270062,None,1,0.5768365830008406,573.495351945021,None,573.495351945021,None,573.495351945021,None,573.495351945021,None,,,,,,,,,,,,,,,,,,,,,,,,,,,,,,,,,,,,,,,,,,,,,,,,,,,,091819_p1,001,2019_Sep_18_1346,body_behavioural,3.2.1,59.77970866605155,
1,parcelated_audio/33/33_20.aiff,,0,1,1,1,,,,,0,19,19,19,,,,,,,,,,,,,,,,,,,,,,,,,,,,,,,,,,,,,,,,,,,,,,,,,,,,,,,,,,,,,,,574.1786776462017,None,574.1782278350147,None,1,1.5114283400180284,581.0621012970223,None,581.0621012970223,None,581.0621012970223,None,581.0621012970223,None,,,,,,,,,,,,,,,,,,,,,,,,,,,,,,,,,,,,,,,,,,,,,,,,,,,,091819_p1,001,2019_Sep_18_1346,body_behavioural,3.2.1,59.77970866605155,
1,parcelated_audio/33/33_21.aiff,,0,1,1,1,,,,,0,20,20,20,,,,,,,,,,,,,,,,,,,,,,,,,,,,,,,,,,,,,,,,,,,,,,,,,,,,,,,,,,,,,,,582.6624394091981,None,582.6621452970139,None,1,0.6669785199919716,586.6790384619962,None,586.6790384619962,None,586.6790384619962,None,586.6790384619962,None,,,,,,,,,,,,,,,,,,,,,,,,,,,,,,,,,,,,,,,,,,,,,,,,,,,,091819_p1,001,2019_Sep_18_1346,body_behavioural,3.2.1,59.77970866605155,
1,parcelated_audio/33/33_22.aiff,,0,1,1,1,,,,,0,21,21,21,,,,,,,,,,,,,,,,,,,,,,,,,,,,,,,,,,,,,,,,,,,,,,,,,,,,,,,,,,,,,,,587.4292711562215,None,587.4292905670009,None,1,0.9847917929873802,597.8472341170127,None,597.8472341170127,None,597.8472341170127,None,597.8472341170127,None,,,,,,,,,,,,,,,,,,,,,,,,,,,,,,,,,,,,,,,,,,,,,,,,,,,,091819_p1,001,2019_Sep_18_1346,body_behavioural,3.2.1,59.77970866605155,
1,parcelated_audio/33/33_23.aiff,,0,1,1,1,,,,,0,22,22,22,,,,,,,,,,,,,,,,,,,,,,,,,,,,,,,,,,,,,,,,,,,,,,,,,,,,,,,,,,,,,,,598.9300849962077,None,598.9298155819997,None,1,1.3134119900059886,609.3481047950045,None,609.3481047950045,None,609.3481047950045,None,609.3481047950045,None,,,,,,,,,,,,,,,,,,,,,,,,,,,,,,,,,,,,,,,,,,,,,,,,,,,,091819_p1,001,2019_Sep_18_1346,body_behavioural,3.2.1,59.77970866605155,
1,parcelated_audio/33/33_24.aiff,,0,1,1,1,,,,,0,23,23,23,,,,,,,,,,,,,,,,,,,,,,,,,,,,,,,,,,,,,,,,,,,,,,,,,,,,,,,,,,,,,,,610.7479760942136,None,610.7475084050093,None,9,1.4070076319912914,616.9812296100135,None,616.9812296100135,None,616.9812296100135,None,616.9812296100135,None,,,,,,,,,,,,,,,,,,,,,,,,,,,,,,,,,,,,,,,,,,,,,,,,,,,,091819_p1,001,2019_Sep_18_1346,body_behavioural,3.2.1,59.77970866605155,
1,parcelated_audio/33/33_25.aiff,,0,1,1,1,,,,,0,24,24,24,,,,,,,,,,,,,,,,,,,,,,,,,,,,,,,,,,,,,,,,,,,,,,,,,,,,,,,,,,,,,,,618.49781248121,None,618.4980868770217,None,1,0.5709226789767854,626.6652820570162,None,626.6652820570162,None,626.6652820570162,None,626.6652820570162,None,,,,,,,,,,,,,,,,,,,,,,,,,,,,,,,,,,,,,,,,,,,,,,,,,,,,091819_p1,001,2019_Sep_18_1346,body_behavioural,3.2.1,59.77970866605155,
1,parcelated_audio/33/33_26.aiff,,0,1,1,1,,,,,0,25,25,25,,,,,,,,,,,,,,,,,,,,,,,,,,,,,,,,,,,,,,,,,,,,,,,,,,,,,,,,,,,,,,,627.3319689692202,None,627.3318996500166,None,1,1.993152361974353,634.3990665120073,None,634.3990665120073,None,634.3990665120073,None,634.3990665120073,None,,,,,,,,,,,,,,,,,,,,,,,,,,,,,,,,,,,,,,,,,,,,,,,,,,,,091819_p1,001,2019_Sep_18_1346,body_behavioural,3.2.1,59.77970866605155,
1,parcelated_audio/33/33_27.aiff,,0,1,1,1,,,,,0,26,26,26,,,,,,,,,,,,,,,,,,,,,,,,,,,,,,,,,,,,,,,,,,,,,,,,,,,,,,,,,,,,,,,636.4833846792084,None,636.483562302019,None,1,0.8711626080039423,644.0172571669973,None,644.0172571669973,None,644.0172571669973,None,644.0172571669973,None,,,,,,,,,,,,,,,,,,,,,,,,,,,,,,,,,,,,,,,,,,,,,,,,,,,,091819_p1,001,2019_Sep_18_1346,body_behavioural,3.2.1,59.77970866605155,
1,parcelated_audio/33/33_28.aiff,,0,1,1,1,,,,,0,27,27,27,,,,,,,,,,,,,,,,,,,,,,,,,,,,,,,,,,,,,,,,,,,,,,,,,,,,,,,,,,,,,,,644.9839683492231,None,644.9831158000161,None,1,1.1793323780002538,650.6498476520064,None,650.6498476520064,None,650.6498476520064,None,650.6498476520064,None,,,,,,,,,,,,,,,,,,,,,,,,,,,,,,,,,,,,,,,,,,,,,,,,,,,,091819_p1,001,2019_Sep_18_1346,body_behavioural,3.2.1,59.77970866605155,
1,parcelated_audio/33/33_29.aiff,,0,1,1,1,,,,,0,28,28,28,,,,,,,,,,,,,,,,,,,,,,,,,,,,,,,,,,,,,,,,,,,,,,,,,,,,,,,,,,,,,,,651.9006750341999,None,651.9005439870234,None,1,0.5372392419958487,659.7847743949969,None,659.7847743949969,None,659.7847743949969,None,659.7847743949969,None,,,,,,,,,,,,,,,,,,,,,,,,,,,,,,,,,,,,,,,,,,,,,,,,,,,,091819_p1,001,2019_Sep_18_1346,body_behavioural,3.2.1,59.77970866605155,
1,parcelated_audio/33/33_30.aiff,,0,1,1,1,,,,,0,29,29,29,,,,,,,,,,,,,,,,,,,,,,,,,,,,,,,,,,,,,,,,,,,,,,,,,,,,,,,,,,,,,,,660.4182383992214,None,660.4175188070221,None,1,0.5016984700050671,670.868389412004,None,670.868389412004,None,670.868389412004,None,670.868389412004,None,,,,,,,,,,,,,,,,,,,,,,,,,,,,,,,,,,,,,,,,,,,,,,,,,,,,091819_p1,001,2019_Sep_18_1346,body_behavioural,3.2.1,59.77970866605155,
1,parcelated_audio/33/33_31.aiff,,0,1,1,1,,,,,0,30,30,30,,,,,,,,,,,,,,,,,,,,,,,,,,,,,,,,,,,,,,,,,,,,,,,,,,,,,,,,,,,,,,,671.4850046991982,None,671.4850196000189,None,1,0.4271131480054464,681.2198770499963,None,681.2198770499963,None,681.2198770499963,None,681.2198770499963,None,,,,,,,,,,,,,,,,,,,,,,,,,,,,,,,,,,,,,,,,,,,,,,,,,,,,091819_p1,001,2019_Sep_18_1346,body_behavioural,3.2.1,59.77970866605155,
1,parcelated_audio/33/33_32.aiff,,0,1,1,1,,,,,0,31,31,31,,,,,,,,,,,,,,,,,,,,,,,,,,,,,,,,,,,,,,,,,,,,,,,,,,,,,,,,,,,,,,,681.7522586161998,None,681.7525994270109,None,9,1.8600448729994241,687.3701643820095,None,687.3701643820095,None,687.3701643820095,None,687.3701643820095,None,,,,,,,,,,,,,,,,,,,,,,,,,,,,,,,,,,,,,,,,,,,,,,,,,,,,091819_p1,001,2019_Sep_18_1346,body_behavioural,3.2.1,59.77970866605155,
1,,,0,1,1,1,,,,,,,,,,,,,,,,,,,,,,,,,,,,,,,,,,,,,,,,,,,,,,,,,,,,,,,,,,,,,,,,,,,,,,,,,,,,,,,,,,,,,689.2539636500005,None,689.2539636500005,None,space,1.5791949020058382,689.2539636500005,None,,,,,,,,,,,,,,,,,,,,,,,,,,,,,,,,,,,,,,,,,,,,091819_p1,001,2019_Sep_18_1346,body_behavioural,3.2.1,59.77970866605155,
2,,,0,2,2,2,0,0,0,0,,,,,,,,,,,,,,,690.8533417300205,None,space,0.4638301049999427,690.8533417300205,None,690.8533417300205,None,691.3365219400148,None,space,0.3935301350138616,691.3365219400148,None,691.8031380070024,None,691.8031380070024,None,691.8031380070024,None,692.3363744950038,None,space,0.46468347997870296,692.3363744950038,None,693.0700493449986,None,693.0700493449986,None,693.0700493449986,None,693.0700493449986,None,693.0700493449986,None,693.0700493449986,None,693.0700493449986,None,,,,,,,,,,,,,,,,,,,,,,,,,,,,,,,,,,,,,,,,,,,,,,,,,,,,,,,,,,,,,,,,,,,,,,,,,,,,,,091819_p1,001,2019_Sep_18_1346,body_behavioural,3.2.1,59.77970866605155,
2,parcelated_audio/31/31_1.aiff,,0,2,2,2,,,,,0,0,0,0,,,,,,,,,,,,,,,,,,,,,,,,,706.8384395370085,None,706.8384395370085,None,706.8384395370085,None,,,,,,,,,,,,,,,,,,,,,705.7206116770103,None,space,1.0381409300025553,705.7206116770103,None,707.305132575013,None,space,0.6894457520102151,707.305132575013,None,708.1876295112219,None,708.1881456870178,None,9,0.4940664920140989,716.8545669350133,None,716.8545669350133,None,716.8545669350133,None,716.8545669350133,None,,,,,,,,,,,,,,,,,,,,,,,,,,,,,,,,,,,,,,,,,,,,,,,,,,,,091819_p1,001,2019_Sep_18_1346,body_behavioural,3.2.1,59.77970866605155,
2,parcelated_audio/31/31_2.aiff,,0,2,2,2,,,,,0,1,1,1,,,,,,,,,,,,,,,,,,,,,,,,,,,,,,,,,,,,,,,,,,,,,,,,,,,,,,,,,,,,,,,717.4548126642097,None,717.4550151150033,None,1,4.309901210013777,721.9051532820158,None,721.9051532820158,None,721.9051532820158,None,721.9051532820158,None,,,,,,,,,,,,,,,,,,,,,,,,,,,,,,,,,,,,,,,,,,,,,,,,,,,,091819_p1,001,2019_Sep_18_1346,body_behavioural,3.2.1,59.77970866605155,
2,parcelated_audio/31/31_3.aiff,,0,2,2,2,,,,,0,2,2,2,,,,,,,,,,,,,,,,,,,,,,,,,,,,,,,,,,,,,,,,,,,,,,,,,,,,,,,,,,,,,,,726.3225214262114,None,726.3229775270156,None,9,1.3997514880029485,734.6067082800146,None,734.6067082800146,None,734.6067082800146,None,734.6067082800146,None,,,,,,,,,,,,,,,,,,,,,,,,,,,,,,,,,,,,,,,,,,,,,,,,,,,,091819_p1,001,2019_Sep_18_1346,body_behavioural,3.2.1,59.77970866605155,
2,parcelated_audio/31/31_4.aiff,,0,2,2,2,,,,,0,3,3,3,,,,,,,,,,,,,,,,,,,,,,,,,,,,,,,,,,,,,,,,,,,,,,,,,,,,,,,,,,,,,,,736.1067626291973,None,736.1068966550229,None,9,0.6772464519890491,746.1574881470005,None,746.1574881470005,None,746.1574881470005,None,746.1574881470005,None,,,,,,,,,,,,,,,,,,,,,,,,,,,,,,,,,,,,,,,,,,,,,,,,,,,,091819_p1,001,2019_Sep_18_1346,body_behavioural,3.2.1,59.77970866605155,
2,parcelated_audio/31/31_5.aiff,,0,2,2,2,,,,,0,4,4,4,,,,,,,,,,,,,,,,,,,,,,,,,,,,,,,,,,,,,,,,,,,,,,,,,,,,,,,,,,,,,,,746.9401729212171,None,746.9402603250055,None,1,0.9418629769934341,757.3581361450197,None,757.3581361450197,None,757.3581361450197,None,757.3581361450197,None,,,,,,,,,,,,,,,,,,,,,,,,,,,,,,,,,,,,,,,,,,,,,,,,,,,,091819_p1,001,2019_Sep_18_1346,body_behavioural,3.2.1,59.77970866605155,
2,parcelated_audio/31/31_6.aiff,,0,2,2,2,,,,,0,5,5,5,,,,,,,,,,,,,,,,,,,,,,,,,,,,,,,,,,,,,,,,,,,,,,,,,,,,,,,,,,,,,,,758.3917687462148,None,758.3910889350227,None,1,1.2881264979951084,763.6754533270141,None,763.6754533270141,None,763.6754533270141,None,763.6754533270141,None,,,,,,,,,,,,,,,,,,,,,,,,,,,,,,,,,,,,,,,,,,,,,,,,,,,,091819_p1,001,2019_Sep_18_1346,body_behavioural,3.2.1,59.77970866605155,
2,parcelated_audio/31/31_7.aiff,,0,2,2,2,,,,,0,6,6,6,,,,,,,,,,,,,,,,,,,,,,,,,,,,,,,,,,,,,,,,,,,,,,,,,,,,,,,,,,,,,,,765.0750567442068,None,765.0757748300093,None,1,0.5997504580009263,769.9075178980129,None,769.9075178980129,None,769.9075178980129,None,769.9075178980129,None,,,,,,,,,,,,,,,,,,,,,,,,,,,,,,,,,,,,,,,,,,,,,,,,,,,,091819_p1,001,2019_Sep_18_1346,body_behavioural,3.2.1,59.77970866605155,
2,parcelated_audio/31/31_8.aiff,,0,2,2,2,,,,,0,7,7,7,,,,,,,,,,,,,,,,,,,,,,,,,,,,,,,,,,,,,,,,,,,,,,,,,,,,,,,,,,,,,,,770.5923638942098,None,770.5922732470208,None,1,0.6831303699873388,779.0265789100085,None,779.0265789100085,None,779.0265789100085,None,779.0265789100085,None,,,,,,,,,,,,,,,,,,,,,,,,,,,,,,,,,,,,,,,,,,,,,,,,,,,,091819_p1,001,2019_Sep_18_1346,body_behavioural,3.2.1,59.77970866605155,
2,parcelated_audio/31/31_9.aiff,,0,2,2,2,,,,,0,8,8,8,,,,,,,,,,,,,,,,,,,,,,,,,,,,,,,,,,,,,,,,,,,,,,,,,,,,,,,,,,,,,,,779.8096021842124,None,779.8101929819968,None,1,1.1854014779964928,784.876670335012,None,784.876670335012,None,784.876670335012,None,784.876670335012,None,,,,,,,,,,,,,,,,,,,,,,,,,,,,,,,,,,,,,,,,,,,,,,,,,,,,091819_p1,001,2019_Sep_18_1346,body_behavioural,3.2.1,59.77970866605155,
2,parcelated_audio/31/31_10.aiff,,0,2,2,2,,,,,0,9,9,9,,,,,,,,,,,,,,,,,,,,,,,,,,,,,,,,,,,,,,,,,,,,,,,,,,,,,,,,,,,,,,,786.1599420762126,None,786.1593692970055,None,9,2.6949228449957445,791.6597874550207,None,791.6597874550207,None,791.6597874550207,None,791.6597874550207,None,,,,,,,,,,,,,,,,,,,,,,,,,,,,,,,,,,,,,,,,,,,,,,,,,,,,091819_p1,001,2019_Sep_18_1346,body_behavioural,3.2.1,59.77970866605155,
2,parcelated_audio/31/31_11.aiff,,0,2,2,2,,,,,0,10,10,10,,,,,,,,,,,,,,,,,,,,,,,,,,,,,,,,,,,,,,,,,,,,,,,,,,,,,,,,,,,,,,,794.4437904512073,None,794.4445319600054,None,1,1.3086534799949732,804.6452907549974,None,804.6452907549974,None,804.6452907549974,None,804.6452907549974,None,,,,,,,,,,,,,,,,,,,,,,,,,,,,,,,,,,,,,,,,,,,,,,,,,,,,091819_p1,001,2019_Sep_18_1346,body_behavioural,3.2.1,59.77970866605155,
2,parcelated_audio/31/31_12.aiff,,0,2,2,2,,,,,0,11,11,11,,,,,,,,,,,,,,,,,,,,,,,,,,,,,,,,,,,,,,,,,,,,,,,,,,,,,,,,,,,,,,,806.0448790092108,None,806.0445551100129,None,1,0.09800976500264369,810.8286936920194,None,810.8286936920194,None,810.8286936920194,None,810.8286936920194,None,,,,,,,,,,,,,,,,,,,,,,,,,,,,,,,,,,,,,,,,,,,,,,,,,,,,091819_p1,001,2019_Sep_18_1346,body_behavioural,3.2.1,59.77970866605155,
2,parcelated_audio/31/31_13.aiff,,0,2,2,2,,,,,0,12,12,12,,,,,,,,,,,,,,,,,,,,,,,,,,,,,,,,,,,,,,,,,,,,,,,,,,,,,,,,,,,,,,,811.011392284205,None,811.0126294100191,None,1,1.3544072470103856,818.3117855370219,None,818.3117855370219,None,818.3117855370219,None,818.3117855370219,None,,,,,,,,,,,,,,,,,,,,,,,,,,,,,,,,,,,,,,,,,,,,,,,,,,,,091819_p1,001,2019_Sep_18_1346,body_behavioural,3.2.1,59.77970866605155,
2,parcelated_audio/31/31_14.aiff,,0,2,2,2,,,,,0,13,13,13,,,,,,,,,,,,,,,,,,,,,,,,,,,,,,,,,,,,,,,,,,,,,,,,,,,,,,,,,,,,,,,819.7624286862177,None,819.7625227050157,None,1,0.6034107810119167,825.8792435650248,None,825.8792435650248,None,825.8792435650248,None,825.8792435650248,None,,,,,,,,,,,,,,,,,,,,,,,,,,,,,,,,,,,,,,,,,,,,,,,,,,,,091819_p1,001,2019_Sep_18_1346,body_behavioural,3.2.1,59.77970866605155,
2,parcelated_audio/31/31_15.aiff,,0,2,2,2,,,,,0,14,14,14,,,,,,,,,,,,,,,,,,,,,,,,,,,,,,,,,,,,,,,,,,,,,,,,,,,,,,,,,,,,,,,826.5956381942,None,826.5966801170143,None,1,0.6631079780054279,833.2799681750184,None,833.2799681750184,None,833.2799681750184,None,833.2799681750184,None,,,,,,,,,,,,,,,,,,,,,,,,,,,,,,,,,,,,,,,,,,,,,,,,,,,,091819_p1,001,2019_Sep_18_1346,body_behavioural,3.2.1,59.77970866605155,
2,parcelated_audio/31/31_16.aiff,,0,2,2,2,,,,,0,15,15,15,,,,,,,,,,,,,,,,,,,,,,,,,,,,,,,,,,,,,,,,,,,,,,,,,,,,,,,,,,,,,,,834.0299102712219,None,834.0295625950093,None,1,0.5630224380001891,840.4467883350153,None,840.4467883350153,None,840.4467883350153,None,840.4467883350153,None,,,,,,,,,,,,,,,,,,,,,,,,,,,,,,,,,,,,,,,,,,,,,,,,,,,,091819_p1,001,2019_Sep_18_1346,body_behavioural,3.2.1,59.77970866605155,
2,parcelated_audio/31/31_17.aiff,,0,2,2,2,,,,,0,16,16,16,,,,,,,,,,,,,,,,,,,,,,,,,,,,,,,,,,,,,,,,,,,,,,,,,,,,,,,,,,,,,,,841.097112649199,None,841.0967721799971,None,1,0.6593131349945907,844.5302235700074,None,844.5302235700074,None,844.5302235700074,None,844.5302235700074,None,,,,,,,,,,,,,,,,,,,,,,,,,,,,,,,,,,,,,,,,,,,,,,,,,,,,091819_p1,001,2019_Sep_18_1346,body_behavioural,3.2.1,59.77970866605155,
2,parcelated_audio/31/31_18.aiff,,0,2,2,2,,,,,0,17,17,17,,,,,,,,,,,,,,,,,,,,,,,,,,,,,,,,,,,,,,,,,,,,,,,,,,,,,,,,,,,,,,,845.2812481541972,None,845.2804852670233,None,1,0.9581722400034778,849.8808332850167,None,849.8808332850167,None,849.8808332850167,None,849.8808332850167,None,,,,,,,,,,,,,,,,,,,,,,,,,,,,,,,,,,,,,,,,,,,,,,,,,,,,091819_p1,001,2019_Sep_18_1346,body_behavioural,3.2.1,59.77970866605155,
2,parcelated_audio/31/31_19.aiff,,0,2,2,2,,,,,0,18,18,18,,,,,,,,,,,,,,,,,,,,,,,,,,,,,,,,,,,,,,,,,,,,,,,,,,,,,,,,,,,,,,,850.9307547792181,None,850.9307996770076,None,1,1.547628217987949,859.1313876600179,None,859.1313876600179,None,859.1313876600179,None,859.1313876600179,None,,,,,,,,,,,,,,,,,,,,,,,,,,,,,,,,,,,,,,,,,,,,,,,,,,,,091819_p1,001,2019_Sep_18_1346,body_behavioural,3.2.1,59.77970866605155,
2,parcelated_audio/31/31_20.aiff,,0,2,2,2,,,,,0,19,19,19,,,,,,,,,,,,,,,,,,,,,,,,,,,,,,,,,,,,,,,,,,,,,,,,,,,,,,,,,,,,,,,860.7813559741975,None,860.7814938750234,None,9,2.4218834130151663,871.1987742200145,None,871.1987742200145,None,871.1987742200145,None,871.1987742200145,None,,,,,,,,,,,,,,,,,,,,,,,,,,,,,,,,,,,,,,,,,,,,,,,,,,,,091819_p1,001,2019_Sep_18_1346,body_behavioural,3.2.1,59.77970866605155,
2,parcelated_audio/31/31_21.aiff,,0,2,2,2,,,,,0,20,20,20,,,,,,,,,,,,,,,,,,,,,,,,,,,,,,,,,,,,,,,,,,,,,,,,,,,,,,,,,,,,,,,873.7329352442088,None,873.7322848900221,None,1,1.854430314997444,883.9675664050155,None,883.9675664050155,None,883.9675664050155,None,883.9675664050155,None,,,,,,,,,,,,,,,,,,,,,,,,,,,,,,,,,,,,,,,,,,,,,,,,,,,,091819_p1,001,2019_Sep_18_1346,body_behavioural,3.2.1,59.77970866605155,
2,parcelated_audio/31/31_22.aiff,,0,2,2,2,,,,,0,21,21,21,,,,,,,,,,,,,,,,,,,,,,,,,,,,,,,,,,,,,,,,,,,,,,,,,,,,,,,,,,,,,,,885.916483729225,None,885.9163801270188,None,1,1.4624478199984878,891.6508300870191,None,891.6508300870191,None,891.6508300870191,None,891.6508300870191,None,,,,,,,,,,,,,,,,,,,,,,,,,,,,,,,,,,,,,,,,,,,,,,,,,,,,091819_p1,001,2019_Sep_18_1346,body_behavioural,3.2.1,59.77970866605155,
2,parcelated_audio/31/31_23.aiff,,0,2,2,2,,,,,0,22,22,22,,,,,,,,,,,,,,,,,,,,,,,,,,,,,,,,,,,,,,,,,,,,,,,,,,,,,,,,,,,,,,,893.200095119208,None,893.2006941850123,None,9,2.2980108929914422,897.8016239069984,None,897.8016239069984,None,897.8016239069984,None,897.8016239069984,None,,,,,,,,,,,,,,,,,,,,,,,,,,,,,,,,,,,,,,,,,,,,,,,,,,,,091819_p1,001,2019_Sep_18_1346,body_behavioural,3.2.1,59.77970866605155,
2,parcelated_audio/31/31_24.aiff,,0,2,2,2,,,,,0,23,23,23,,,,,,,,,,,,,,,,,,,,,,,,,,,,,,,,,,,,,,,,,,,,,,,,,,,,,,,,,,,,,,,900.184789499201,None,900.1840291550034,None,1,1.159843492001528,907.0523894600046,None,907.0523894600046,None,907.0523894600046,None,907.0523894600046,None,,,,,,,,,,,,,,,,,,,,,,,,,,,,,,,,,,,,,,,,,,,,,,,,,,,,091819_p1,001,2019_Sep_18_1346,body_behavioural,3.2.1,59.77970866605155,
2,parcelated_audio/31/31_25.aiff,,0,2,2,2,,,,,0,24,24,24,,,,,,,,,,,,,,,,,,,,,,,,,,,,,,,,,,,,,,,,,,,,,,,,,,,,,,,,,,,,,,,908.3189632542111,None,908.3179443150002,None,1,1.5494701779971365,918.7354501020163,None,918.7354501020163,None,918.7354501020163,None,918.7354501020163,None,,,,,,,,,,,,,,,,,,,,,,,,,,,,,,,,,,,,,,,,,,,,,,,,,,,,091819_p1,001,2019_Sep_18_1346,body_behavioural,3.2.1,59.77970866605155,
2,parcelated_audio/31/31_26.aiff,,0,2,2,2,,,,,0,25,25,25,,,,,,,,,,,,,,,,,,,,,,,,,,,,,,,,,,,,,,,,,,,,,,,,,,,,,,,,,,,,,,,920.3693655661976,None,920.369322322018,None,1,0.7769259949855041,927.8694001320109,None,927.8694001320109,None,927.8694001320109,None,927.8694001320109,None,,,,,,,,,,,,,,,,,,,,,,,,,,,,,,,,,,,,,,,,,,,,,,,,,,,,091819_p1,001,2019_Sep_18_1346,body_behavioural,3.2.1,59.77970866605155,
2,parcelated_audio/31/31_27.aiff,,0,2,2,2,,,,,0,26,26,26,,,,,,,,,,,,,,,,,,,,,,,,,,,,,,,,,,,,,,,,,,,,,,,,,,,,,,,,,,,,,,,928.7362089042057,None,928.7359390970087,None,1,3.8141233179776464,933.1203374199977,None,933.1203374199977,None,933.1203374199977,None,933.1203374199977,None,,,,,,,,,,,,,,,,,,,,,,,,,,,,,,,,,,,,,,,,,,,,,,,,,,,,091819_p1,001,2019_Sep_18_1346,body_behavioural,3.2.1,59.77970866605155,
2,parcelated_audio/31/31_28.aiff,,0,2,2,2,,,,,0,27,27,27,,,,,,,,,,,,,,,,,,,,,,,,,,,,,,,,,,,,,,,,,,,,,,,,,,,,,,,,,,,,,,,937.020601769202,None,937.0208818200044,None,1,3.9842233450035565,942.0370606869983,None,942.0370606869983,None,942.0370606869983,None,942.0370606869983,None,,,,,,,,,,,,,,,,,,,,,,,,,,,,,,,,,,,,,,,,,,,,,,,,,,,,091819_p1,001,2019_Sep_18_1346,body_behavioural,3.2.1,59.77970866605155,
2,parcelated_audio/31/31_29.aiff,,0,2,2,2,,,,,0,28,28,28,,,,,,,,,,,,,,,,,,,,,,,,,,,,,,,,,,,,,,,,,,,,,,,,,,,,,,,,,,,,,,,946.1208942912257,None,946.120848505001,None,1,0.11487009501433931,950.4543199370091,None,950.4543199370091,None,950.4543199370091,None,950.4543199370091,None,,,,,,,,,,,,,,,,,,,,,,,,,,,,,,,,,,,,,,,,,,,,,,,,,,,,091819_p1,001,2019_Sep_18_1346,body_behavioural,3.2.1,59.77970866605155,
2,parcelated_audio/31/31_30.aiff,,0,2,2,2,,,,,0,29,29,29,,,,,,,,,,,,,,,,,,,,,,,,,,,,,,,,,,,,,,,,,,,,,,,,,,,,,,,,,,,,,,,950.6714902362058,None,950.6709499550052,None,9,2.0201869620068464,954.4544362270099,None,954.4544362270099,None,954.4544362270099,None,954.4544362270099,None,,,,,,,,,,,,,,,,,,,,,,,,,,,,,,,,,,,,,,,,,,,,,,,,,,,,091819_p1,001,2019_Sep_18_1346,body_behavioural,3.2.1,59.77970866605155,
2,parcelated_audio/31/31_31.aiff,,0,2,2,2,,,,,0,30,30,30,,,,,,,,,,,,,,,,,,,,,,,,,,,,,,,,,,,,,,,,,,,,,,,,,,,,,,,,,,,,,,,956.5880674162094,None,956.5886929749977,None,1,1.4788690849964041,962.5394853200123,None,962.5394853200123,None,962.5394853200123,None,962.5394853200123,None,,,,,,,,,,,,,,,,,,,,,,,,,,,,,,,,,,,,,,,,,,,,,,,,,,,,091819_p1,001,2019_Sep_18_1346,body_behavioural,3.2.1,59.77970866605155,
2,parcelated_audio/31/31_32.aiff,,0,2,2,2,,,,,0,31,31,31,,,,,,,,,,,,,,,,,,,,,,,,,,,,,,,,,,,,,,,,,,,,,,,,,,,,,,,,,,,,,,,964.1217721492197,None,964.1220896200102,None,1,1.4088028419937473,974.0901028650114,None,974.0901028650114,None,974.0901028650114,None,974.0901028650114,None,,,,,,,,,,,,,,,,,,,,,,,,,,,,,,,,,,,,,,,,,,,,,,,,,,,,091819_p1,001,2019_Sep_18_1346,body_behavioural,3.2.1,59.77970866605155,
2,parcelated_audio/31/31_33.aiff,,0,2,2,2,,,,,0,32,32,32,,,,,,,,,,,,,,,,,,,,,,,,,,,,,,,,,,,,,,,,,,,,,,,,,,,,,,,,,,,,,,,975.6059633292228,None,975.6059442050173,None,1,0.41671133000636473,983.9565530870168,None,983.9565530870168,None,983.9565530870168,None,983.9565530870168,None,,,,,,,,,,,,,,,,,,,,,,,,,,,,,,,,,,,,,,,,,,,,,,,,,,,,091819_p1,001,2019_Sep_18_1346,body_behavioural,3.2.1,59.77970866605155,
2,parcelated_audio/31/31_34.aiff,,0,2,2,2,,,,,0,33,33,33,,,,,,,,,,,,,,,,,,,,,,,,,,,,,,,,,,,,,,,,,,,,,,,,,,,,,,,,,,,,,,,984.4565115892241,None,984.4566556670179,None,1,3.964700793992961,988.8235643549997,None,988.8235643549997,None,988.8235643549997,None,988.8235643549997,None,,,,,,,,,,,,,,,,,,,,,,,,,,,,,,,,,,,,,,,,,,,,,,,,,,,,091819_p1,001,2019_Sep_18_1346,body_behavioural,3.2.1,59.77970866605155,
2,parcelated_audio/31/31_35.aiff,,0,2,2,2,,,,,0,34,34,34,,,,,,,,,,,,,,,,,,,,,,,,,,,,,,,,,,,,,,,,,,,,,,,,,,,,,,,,,,,,,,,992.8570319892227,None,992.8572353449999,None,1,8.386647962994175,998.5909010070027,None,998.5909010070027,None,998.5909010070027,None,998.5909010070027,None,,,,,,,,,,,,,,,,,,,,,,,,,,,,,,,,,,,,,,,,,,,,,,,,,,,,091819_p1,001,2019_Sep_18_1346,body_behavioural,3.2.1,59.77970866605155,
2,parcelated_audio/31/31_36.aiff,,0,2,2,2,,,,,0,35,35,35,,,,,,,,,,,,,,,,,,,,,,,,,,,,,,,,,,,,,,,,,,,,,,,,,,,,,,,,,,,,,,,1007.075713089222,None,1007.0748454999994,None,1,0.911524912022287,1013.3762615200249,None,1013.3762615200249,None,1013.3762615200249,None,1013.3762615200249,None,,,,,,,,,,,,,,,,,,,,,,,,,,,,,,,,,,,,,,,,,,,,,,,,,,,,091819_p1,001,2019_Sep_18_1346,body_behavioural,3.2.1,59.77970866605155,
2,,,0,2,2,2,,,,,,,,,,,,,,,,,,,,,,,,,,,,,,,,,,,,,,,,,,,,,,,,,,,,,,,,,,,,,,,,,,,,,,,,,,,,,,,,,,,,,1014.3095404750202,None,1014.3095404750202,None,space,1.297105890000239,1014.3095404750202,None,,,,,,,,,,,,,,,,,,,,,,,,,,,,,,,,,,,,,,,,,,,,091819_p1,001,2019_Sep_18_1346,body_behavioural,3.2.1,59.77970866605155,
3,,,0,3,3,3,0,0,0,0,,,,,,,,,,,,,,,1015.6257949270075,None,space,0.452762034983607,1015.6257949270075,None,1015.6257949270075,None,1016.1098595870135,None,space,0.397740864980733,1016.1098595870135,None,1016.5928668700217,None,1016.5928668700217,None,1016.5928668700217,None,1017.4092973670049,None,space,1.080198579991702,1017.4092973670049,None,1018.8428121670149,None,1018.8428121670149,None,1018.8428121670149,None,1018.8428121670149,None,1018.8428121670149,None,1018.8428121670149,None,1018.8428121670149,None,,,,,,,,,,,,,,,,,,,,,,,,,,,,,,,,,,,,,,,,,,,,,,,,,,,,,,,,,,,,,,,,,,,,,,,,,,,,,,091819_p1,001,2019_Sep_18_1346,body_behavioural,3.2.1,59.77970866605155,
3,parcelated_audio/11/11_1.aiff,,0,3,3,3,,,,,0,0,0,0,,,,,,,,,,,,,,,,,,,,,,,,,1038.1277739049983,None,1038.1277739049983,None,1038.1277739049983,None,,,,,,,,,,,,,,,,,,,,,1037.2103516750212,None,space,0.8428586829977576,1037.2103516750212,None,1039.677264137019,None,space,0.9132051150081679,1039.677264137019,None,1040.7271550092178,None,1040.7275059420208,None,9,1.096103249990847,1051.1444664270093,None,1051.1444664270093,None,1051.1444664270093,None,1051.1444664270093,None,,,,,,,,,,,,,,,,,,,,,,,,,,,,,,,,,,,,,,,,,,,,,,,,,,,,091819_p1,001,2019_Sep_18_1346,body_behavioural,3.2.1,59.77970866605155,
3,parcelated_audio/11/11_2.aiff,,0,3,3,3,,,,,0,1,1,1,,,,,,,,,,,,,,,,,,,,,,,,,,,,,,,,,,,,,,,,,,,,,,,,,,,,,,,,,,,,,,,1052.3286460362056,None,1052.3278658350173,None,1,1.2700504699896555,1056.778329517023,None,1056.778329517023,None,1056.778329517023,None,1056.778329517023,None,,,,,,,,,,,,,,,,,,,,,,,,,,,,,,,,,,,,,,,,,,,,,,,,,,,,091819_p1,001,2019_Sep_18_1346,body_behavioural,3.2.1,59.77970866605155,
3,parcelated_audio/11/11_3.aiff,,0,3,3,3,,,,,0,2,2,2,,,,,,,,,,,,,,,,,,,,,,,,,,,,,,,,,,,,,,,,,,,,,,,,,,,,,,,,,,,,,,,1058.1453916662053,None,1058.1456471920246,None,1,3.8789158280123957,1063.1293001870217,None,1063.1293001870217,None,1063.1293001870217,None,1063.1293001870217,None,,,,,,,,,,,,,,,,,,,,,,,,,,,,,,,,,,,,,,,,,,,,,,,,,,,,091819_p1,001,2019_Sep_18_1346,body_behavioural,3.2.1,59.77970866605155,
3,parcelated_audio/11/11_4.aiff,,0,3,3,3,,,,,0,3,3,3,,,,,,,,,,,,,,,,,,,,,,,,,,,,,,,,,,,,,,,,,,,,,,,,,,,,,,,,,,,,,,,1067.112320906212,None,1067.1131329650234,None,1,2.911808779987041,1076.1795847400208,None,1076.1795847400208,None,1076.1795847400208,None,1076.1795847400208,None,,,,,,,,,,,,,,,,,,,,,,,,,,,,,,,,,,,,,,,,,,,,,,,,,,,,091819_p1,001,2019_Sep_18_1346,body_behavioural,3.2.1,59.77970866605155,
3,parcelated_audio/11/11_5.aiff,,0,3,3,3,,,,,0,4,4,4,,,,,,,,,,,,,,,,,,,,,,,,,,,,,,,,,,,,,,,,,,,,,,,,,,,,,,,,,,,,,,,1079.179856984198,None,1079.1797108949977,None,9,2.179733942000894,1084.8968194850022,None,1084.8968194850022,None,1084.8968194850022,None,1084.8968194850022,None,,,,,,,,,,,,,,,,,,,,,,,,,,,,,,,,,,,,,,,,,,,,,,,,,,,,091819_p1,001,2019_Sep_18_1346,body_behavioural,3.2.1,59.77970866605155,
3,parcelated_audio/11/11_6.aiff,,0,3,3,3,,,,,0,5,5,5,,,,,,,,,,,,,,,,,,,,,,,,,,,,,,,,,,,,,,,,,,,,,,,,,,,,,,,,,,,,,,,1087.1639706612245,None,1087.1641533570073,None,1,1.6122448829992209,1091.730670992023,None,1091.730670992023,None,1091.730670992023,None,1091.730670992023,None,,,,,,,,,,,,,,,,,,,,,,,,,,,,,,,,,,,,,,,,,,,,,,,,,,,,091819_p1,001,2019_Sep_18_1346,body_behavioural,3.2.1,59.77970866605155,
3,parcelated_audio/11/11_7.aiff,,0,3,3,3,,,,,0,6,6,6,,,,,,,,,,,,,,,,,,,,,,,,,,,,,,,,,,,,,,,,,,,,,,,,,,,,,,,,,,,,,,,1093.4316172942258,None,1093.4313146570057,None,1,1.0197531930170953,1099.9648059120227,None,1099.9648059120227,None,1099.9648059120227,None,1099.9648059120227,None,,,,,,,,,,,,,,,,,,,,,,,,,,,,,,,,,,,,,,,,,,,,,,,,,,,,091819_p1,001,2019_Sep_18_1346,body_behavioural,3.2.1,59.77970866605155,
3,parcelated_audio/11/11_8.aiff,,0,3,3,3,,,,,0,7,7,7,,,,,,,,,,,,,,,,,,,,,,,,,,,,,,,,,,,,,,,,,,,,,,,,,,,,,,,,,,,,,,,1101.0818128092128,None,1101.0822729119973,None,1,0.6585795920109376,1106.8326379500213,None,1106.8326379500213,None,1106.8326379500213,None,1106.8326379500213,None,,,,,,,,,,,,,,,,,,,,,,,,,,,,,,,,,,,,,,,,,,,,,,,,,,,,091819_p1,001,2019_Sep_18_1346,body_behavioural,3.2.1,59.77970866605155,
3,parcelated_audio/11/11_9.aiff,,0,3,3,3,,,,,0,8,8,8,,,,,,,,,,,,,,,,,,,,,,,,,,,,,,,,,,,,,,,,,,,,,,,,,,,,,,,,,,,,,,,1107.5817805292231,None,1107.582661190012,None,1,5.124933463026537,1111.8654219520104,None,1111.8654219520104,None,1111.8654219520104,None,1111.8654219520104,None,,,,,,,,,,,,,,,,,,,,,,,,,,,,,,,,,,,,,,,,,,,,,,,,,,,,091819_p1,001,2019_Sep_18_1346,body_behavioural,3.2.1,59.77970866605155,
3,parcelated_audio/11/11_10.aiff,,0,3,3,3,,,,,0,9,9,9,,,,,,,,,,,,,,,,,,,,,,,,,,,,,,,,,,,,,,,,,,,,,,,,,,,,,,,,,,,,,,,1117.0828748961999,None,1117.0824257670029,None,1,8.927787079999689,1121.6668499450025,None,1121.6668499450025,None,1121.6668499450025,None,1121.6668499450025,None,,,,,,,,,,,,,,,,,,,,,,,,,,,,,,,,,,,,,,,,,,,,,,,,,,,,091819_p1,001,2019_Sep_18_1346,body_behavioural,3.2.1,59.77970866605155,
3,parcelated_audio/11/11_11.aiff,,0,3,3,3,,,,,0,10,10,10,,,,,,,,,,,,,,,,,,,,,,,,,,,,,,,,,,,,,,,,,,,,,,,,,,,,,,,,,,,,,,,1130.6839899142128,None,1130.6835591900162,None,1,1.4902167999825906,1133.8341061100073,None,1133.8341061100073,None,1133.8341061100073,None,1133.8341061100073,None,,,,,,,,,,,,,,,,,,,,,,,,,,,,,,,,,,,,,,,,,,,,,,,,,,,,091819_p1,001,2019_Sep_18_1346,body_behavioural,3.2.1,59.77970866605155,
3,parcelated_audio/11/11_12.aiff,,0,3,3,3,,,,,0,11,11,11,,,,,,,,,,,,,,,,,,,,,,,,,,,,,,,,,,,,,,,,,,,,,,,,,,,,,,,,,,,,,,,1135.4177007062158,None,1135.417025947012,None,9,1.9434762969904114,1138.250566290022,None,1138.250566290022,None,1138.250566290022,None,1138.250566290022,None,,,,,,,,,,,,,,,,,,,,,,,,,,,,,,,,,,,,,,,,,,,,,,,,,,,,091819_p1,001,2019_Sep_18_1346,body_behavioural,3.2.1,59.77970866605155,
3,parcelated_audio/11/11_13.aiff,,0,3,3,3,,,,,0,12,12,12,,,,,,,,,,,,,,,,,,,,,,,,,,,,,,,,,,,,,,,,,,,,,,,,,,,,,,,,,,,,,,,1140.284075366208,None,1140.2841836200096,None,1,1.1105443869892042,1143.5852683600096,None,1143.5852683600096,None,1143.5852683600096,None,1143.5852683600096,None,,,,,,,,,,,,,,,,,,,,,,,,,,,,,,,,,,,,,,,,,,,,,,,,,,,,091819_p1,001,2019_Sep_18_1346,body_behavioural,3.2.1,59.77970866605155,
3,parcelated_audio/11/11_14.aiff,,0,3,3,3,,,,,0,13,13,13,,,,,,,,,,,,,,,,,,,,,,,,,,,,,,,,,,,,,,,,,,,,,,,,,,,,,,,,,,,,,,,1144.7842869162182,None,1144.784313901997,None,1,1.889501180005027,1147.467824190011,None,1147.467824190011,None,1147.467824190011,None,1147.467824190011,None,,,,,,,,,,,,,,,,,,,,,,,,,,,,,,,,,,,,,,,,,,,,,,,,,,,,091819_p1,001,2019_Sep_18_1346,body_behavioural,3.2.1,59.77970866605155,
3,parcelated_audio/11/11_15.aiff,,0,3,3,3,,,,,0,14,14,14,,,,,,,,,,,,,,,,,,,,,,,,,,,,,,,,,,,,,,,,,,,,,,,,,,,,,,,,,,,,,,,1149.467904639218,None,1149.468062030006,None,1,0.549615210009506,1159.8694230950205,None,1159.8694230950205,None,1159.8694230950205,None,1159.8694230950205,None,,,,,,,,,,,,,,,,,,,,,,,,,,,,,,,,,,,,,,,,,,,,,,,,,,,,091819_p1,001,2019_Sep_18_1346,body_behavioural,3.2.1,59.77970866605155,
3,parcelated_audio/11/11_16.aiff,,0,3,3,3,,,,,0,15,15,15,,,,,,,,,,,,,,,,,,,,,,,,,,,,,,,,,,,,,,,,,,,,,,,,,,,,,,,,,,,,,,,1160.5199835542212,None,1160.518637472007,None,1,0.7319885729812086,1163.519598134997,None,1163.519598134997,None,1163.519598134997,None,1163.519598134997,None,,,,,,,,,,,,,,,,,,,,,,,,,,,,,,,,,,,,,,,,,,,,,,,,,,,,091819_p1,001,2019_Sep_18_1346,body_behavioural,3.2.1,59.77970866605155,
3,parcelated_audio/11/11_17.aiff,,0,3,3,3,,,,,0,16,16,16,,,,,,,,,,,,,,,,,,,,,,,,,,,,,,,,,,,,,,,,,,,,,,,,,,,,,,,,,,,,,,,1164.3356029042247,None,1164.3363299570046,None,1,0.6702374290034641,1171.2866757000156,None,1171.2866757000156,None,1171.2866757000156,None,1171.2866757000156,None,,,,,,,,,,,,,,,,,,,,,,,,,,,,,,,,,,,,,,,,,,,,,,,,,,,,091819_p1,001,2019_Sep_18_1346,body_behavioural,3.2.1,59.77970866605155,
3,parcelated_audio/11/11_18.aiff,,0,3,3,3,,,,,0,17,17,17,,,,,,,,,,,,,,,,,,,,,,,,,,,,,,,,,,,,,,,,,,,,,,,,,,,,,,,,,,,,,,,1172.0364620362147,None,1172.0361365099961,None,1,1.016483329993207,1179.4877485820034,None,1179.4877485820034,None,1179.4877485820034,None,1179.4877485820034,None,,,,,,,,,,,,,,,,,,,,,,,,,,,,,,,,,,,,,,,,,,,,,,,,,,,,091819_p1,001,2019_Sep_18_1346,body_behavioural,3.2.1,59.77970866605155,
3,parcelated_audio/11/11_19.aiff,,0,3,3,3,,,,,0,18,18,18,,,,,,,,,,,,,,,,,,,,,,,,,,,,,,,,,,,,,,,,,,,,,,,,,,,,,,,,,,,,,,,1180.6040256642068,None,1180.603819550015,None,1,1.2419221849995665,1185.1547494470142,None,1185.1547494470142,None,1185.1547494470142,None,1185.1547494470142,None,,,,,,,,,,,,,,,,,,,,,,,,,,,,,,,,,,,,,,,,,,,,,,,,,,,,091819_p1,001,2019_Sep_18_1346,body_behavioural,3.2.1,59.77970866605155,
3,parcelated_audio/11/11_20.aiff,,0,3,3,3,,,,,0,19,19,19,,,,,,,,,,,,,,,,,,,,,,,,,,,,,,,,,,,,,,,,,,,,,,,,,,,,,,,,,,,,,,,1186.4879805962178,None,1186.4876887270075,None,1,1.7024077330133878,1191.4050167899986,None,1191.4050167899986,None,1191.4050167899986,None,1191.4050167899986,None,,,,,,,,,,,,,,,,,,,,,,,,,,,,,,,,,,,,,,,,,,,,,,,,,,,,091819_p1,001,2019_Sep_18_1346,body_behavioural,3.2.1,59.77970866605155,
3,parcelated_audio/11/11_21.aiff,,0,3,3,3,,,,,0,20,20,20,,,,,,,,,,,,,,,,,,,,,,,,,,,,,,,,,,,,,,,,,,,,,,,,,,,,,,,,,,,,,,,1193.221667216209,None,1193.2219907370163,None,1,1.9862772199849132,1201.956010887021,None,1201.956010887021,None,1201.956010887021,None,1201.956010887021,None,,,,,,,,,,,,,,,,,,,,,,,,,,,,,,,,,,,,,,,,,,,,,,,,,,,,091819_p1,001,2019_Sep_18_1346,body_behavioural,3.2.1,59.77970866605155,
3,parcelated_audio/11/11_22.aiff,,0,3,3,3,,,,,0,21,21,21,,,,,,,,,,,,,,,,,,,,,,,,,,,,,,,,,,,,,,,,,,,,,,,,,,,,,,,,,,,,,,,1204.055093721216,None,1204.0550183470186,None,1,2.281316976994276,1207.3559741250065,None,1207.3559741250065,None,1207.3559741250065,None,1207.3559741250065,None,,,,,,,,,,,,,,,,,,,,,,,,,,,,,,,,,,,,,,,,,,,,,,,,,,,,091819_p1,001,2019_Sep_18_1346,body_behavioural,3.2.1,59.77970866605155,
3,parcelated_audio/11/11_23.aiff,,0,3,3,3,,,,,0,22,22,22,,,,,,,,,,,,,,,,,,,,,,,,,,,,,,,,,,,,,,,,,,,,,,,,,,,,,,,,,,,,,,,1209.7221436192253,None,1209.7228466450179,None,1,0.7429483419982716,1214.489213355002,None,1214.489213355002,None,1214.489213355002,None,1214.489213355002,None,,,,,,,,,,,,,,,,,,,,,,,,,,,,,,,,,,,,,,,,,,,,,,,,,,,,091819_p1,001,2019_Sep_18_1346,body_behavioural,3.2.1,59.77970866605155,
3,parcelated_audio/11/11_24.aiff,,0,3,3,3,,,,,0,23,23,23,,,,,,,,,,,,,,,,,,,,,,,,,,,,,,,,,,,,,,,,,,,,,,,,,,,,,,,,,,,,,,,1215.322321914215,None,1215.3224699069979,None,1,1.4805501980008557,1218.9396008950134,None,1218.9396008950134,None,1218.9396008950134,None,1218.9396008950134,None,,,,,,,,,,,,,,,,,,,,,,,,,,,,,,,,,,,,,,,,,,,,,,,,,,,,091819_p1,001,2019_Sep_18_1346,body_behavioural,3.2.1,59.77970866605155,
3,parcelated_audio/11/11_25.aiff,,0,3,3,3,,,,,0,24,24,24,,,,,,,,,,,,,,,,,,,,,,,,,,,,,,,,,,,,,,,,,,,,,,,,,,,,,,,,,,,,,,,1220.506219434223,None,1220.5062716350076,None,9,1.4968403780076187,1225.2400152250193,None,1225.2400152250193,None,1225.2400152250193,None,1225.2400152250193,None,,,,,,,,,,,,,,,,,,,,,,,,,,,,,,,,,,,,,,,,,,,,,,,,,,,,091819_p1,001,2019_Sep_18_1346,body_behavioural,3.2.1,59.77970866605155,
3,parcelated_audio/11/11_26.aiff,,0,3,3,3,,,,,0,25,25,25,,,,,,,,,,,,,,,,,,,,,,,,,,,,,,,,,,,,,,,,,,,,,,,,,,,,,,,,,,,,,,,1226.823238171221,None,1226.8243112770142,None,1,0.7646747380204033,1231.790695542004,None,1231.790695542004,None,1231.790695542004,None,1231.790695542004,None,,,,,,,,,,,,,,,,,,,,,,,,,,,,,,,,,,,,,,,,,,,,,,,,,,,,091819_p1,001,2019_Sep_18_1346,body_behavioural,3.2.1,59.77970866605155,
3,parcelated_audio/11/11_27.aiff,,0,3,3,3,,,,,0,26,26,26,,,,,,,,,,,,,,,,,,,,,,,,,,,,,,,,,,,,,,,,,,,,,,,,,,,,,,,,,,,,,,,1232.6405126662198,None,1232.6409255970211,None,1,0.7276175419974606,1236.5906272220018,None,1236.5906272220018,None,1236.5906272220018,None,1236.5906272220018,None,,,,,,,,,,,,,,,,,,,,,,,,,,,,,,,,,,,,,,,,,,,,,,,,,,,,091819_p1,001,2019_Sep_18_1346,body_behavioural,3.2.1,59.77970866605155,
3,parcelated_audio/11/11_28.aiff,,0,3,3,3,,,,,0,27,27,27,,,,,,,,,,,,,,,,,,,,,,,,,,,,,,,,,,,,,,,,,,,,,,,,,,,,,,,,,,,,,,,1237.4246880691994,None,1237.4239775970054,None,1,0.9733420150005259,1240.840989725024,None,1240.840989725024,None,1240.840989725024,None,1240.840989725024,None,,,,,,,,,,,,,,,,,,,,,,,,,,,,,,,,,,,,,,,,,,,,,,,,,,,,091819_p1,001,2019_Sep_18_1346,body_behavioural,3.2.1,59.77970866605155,
3,parcelated_audio/11/11_29.aiff,,0,3,3,3,,,,,0,28,28,28,,,,,,,,,,,,,,,,,,,,,,,,,,,,,,,,,,,,,,,,,,,,,,,,,,,,,,,,,,,,,,,1241.9079762292008,None,1241.907539902022,None,1,0.6337009269918781,1246.075256097014,None,1246.075256097014,None,1246.075256097014,None,1246.075256097014,None,,,,,,,,,,,,,,,,,,,,,,,,,,,,,,,,,,,,,,,,,,,,,,,,,,,,091819_p1,001,2019_Sep_18_1346,body_behavioural,3.2.1,59.77970866605155,
3,parcelated_audio/11/11_30.aiff,,0,3,3,3,,,,,0,29,29,29,,,,,,,,,,,,,,,,,,,,,,,,,,,,,,,,,,,,,,,,,,,,,,,,,,,,,,,,,,,,,,,1246.7921534142138,None,1246.7921320199966,None,1,1.1600973249878734,1251.3083705450117,None,1251.3083705450117,None,1251.3083705450117,None,1251.3083705450117,None,,,,,,,,,,,,,,,,,,,,,,,,,,,,,,,,,,,,,,,,,,,,,,,,,,,,091819_p1,001,2019_Sep_18_1346,body_behavioural,3.2.1,59.77970866605155,
3,parcelated_audio/11/11_31.aiff,,0,3,3,3,,,,,0,30,30,30,,,,,,,,,,,,,,,,,,,,,,,,,,,,,,,,,,,,,,,,,,,,,,,,,,,,,,,,,,,,,,,1252.5585205592129,None,1252.558473957004,None,1,0.6019683199992869,1257.3920532850025,None,1257.3920532850025,None,1257.3920532850025,None,1257.3920532850025,None,,,,,,,,,,,,,,,,,,,,,,,,,,,,,,,,,,,,,,,,,,,,,,,,,,,,091819_p1,001,2019_Sep_18_1346,body_behavioural,3.2.1,59.77970866605155,
3,parcelated_audio/11/11_32.aiff,,0,3,3,3,,,,,0,31,31,31,,,,,,,,,,,,,,,,,,,,,,,,,,,,,,,,,,,,,,,,,,,,,,,,,,,,,,,,,,,,,,,1258.0920950842178,None,1258.0921070570184,None,1,0.8174242000095546,1262.1268993050035,None,1262.1268993050035,None,1262.1268993050035,None,1262.1268993050035,None,,,,,,,,,,,,,,,,,,,,,,,,,,,,,,,,,,,,,,,,,,,,,,,,,,,,091819_p1,001,2019_Sep_18_1346,body_behavioural,3.2.1,59.77970866605155,
3,parcelated_audio/11/11_33.aiff,,0,3,3,3,,,,,0,32,32,32,,,,,,,,,,,,,,,,,,,,,,,,,,,,,,,,,,,,,,,,,,,,,,,,,,,,,,,,,,,,,,,1263.0257924141974,None,1263.0257445250172,None,1,1.3023138279968407,1265.543489540025,None,1265.543489540025,None,1265.543489540025,None,1265.543489540025,None,,,,,,,,,,,,,,,,,,,,,,,,,,,,,,,,,,,,,,,,,,,,,,,,,,,,091819_p1,001,2019_Sep_18_1346,body_behavioural,3.2.1,59.77970866605155,
3,parcelated_audio/11/11_34.aiff,,0,3,3,3,,,,,0,33,33,33,,,,,,,,,,,,,,,,,,,,,,,,,,,,,,,,,,,,,,,,,,,,,,,,,,,,,,,,,,,,,,,1266.9431865762076,None,1266.942739317019,None,1,0.39697801001602784,1270.259662312019,None,1270.259662312019,None,1270.259662312019,None,1270.259662312019,None,,,,,,,,,,,,,,,,,,,,,,,,,,,,,,,,,,,,,,,,,,,,,,,,,,,,091819_p1,001,2019_Sep_18_1346,body_behavioural,3.2.1,59.77970866605155,
3,parcelated_audio/11/11_35.aiff,,0,3,3,3,,,,,0,34,34,34,,,,,,,,,,,,,,,,,,,,,,,,,,,,,,,,,,,,,,,,,,,,,,,,,,,,,,,,,,,,,,,1270.7429622612167,None,1270.7435365200217,None,1,0.8793465719791129,1275.076949755021,None,1275.076949755021,None,1275.076949755021,None,1275.076949755021,None,,,,,,,,,,,,,,,,,,,,,,,,,,,,,,,,,,,,,,,,,,,,,,,,,,,,091819_p1,001,2019_Sep_18_1346,body_behavioural,3.2.1,59.77970866605155,
3,parcelated_audio/11/11_36.aiff,,0,3,3,3,,,,,0,35,35,35,,,,,,,,,,,,,,,,,,,,,,,,,,,,,,,,,,,,,,,,,,,,,,,,,,,,,,,,,,,,,,,1276.0435675292015,None,1276.0438077849976,None,1,0.7926343680010177,1285.045097240014,None,1285.045097240014,None,1285.045097240014,None,1285.045097240014,None,,,,,,,,,,,,,,,,,,,,,,,,,,,,,,,,,,,,,,,,,,,,,,,,,,,,091819_p1,001,2019_Sep_18_1346,body_behavioural,3.2.1,59.77970866605155,
3,parcelated_audio/11/11_37.aiff,,0,3,3,3,,,,,0,36,36,36,,,,,,,,,,,,,,,,,,,,,,,,,,,,,,,,,,,,,,,,,,,,,,,,,,,,,,,,,,,,,,,1285.9268254842232,None,1285.928365615022,None,1,3.347975951997796,1290.0784580699983,None,1290.0784580699983,None,1290.0784580699983,None,1290.0784580699983,None,,,,,,,,,,,,,,,,,,,,,,,,,,,,,,,,,,,,,,,,,,,,,,,,,,,,091819_p1,001,2019_Sep_18_1346,body_behavioural,3.2.1,59.77970866605155,
3,parcelated_audio/11/11_38.aiff,,0,3,3,3,,,,,0,37,37,37,,,,,,,,,,,,,,,,,,,,,,,,,,,,,,,,,,,,,,,,,,,,,,,,,,,,,,,,,,,,,,,1293.511985669224,None,1293.5118100969994,None,1,3.015591584990034,1299.6450106770208,None,1299.6450106770208,None,1299.6450106770208,None,1299.6450106770208,None,,,,,,,,,,,,,,,,,,,,,,,,,,,,,,,,,,,,,,,,,,,,,,,,,,,,091819_p1,001,2019_Sep_18_1346,body_behavioural,3.2.1,59.77970866605155,
3,parcelated_audio/11/11_39.aiff,,0,3,3,3,,,,,0,38,38,38,,,,,,,,,,,,,,,,,,,,,,,,,,,,,,,,,,,,,,,,,,,,,,,,,,,,,,,,,,,,,,,1302.7455238242023,None,1302.7454199070053,None,9,1.3011340100201778,1307.9465666820179,None,1307.9465666820179,None,1307.9465666820179,None,1307.9465666820179,None,,,,,,,,,,,,,,,,,,,,,,,,,,,,,,,,,,,,,,,,,,,,,,,,,,,,091819_p1,001,2019_Sep_18_1346,body_behavioural,3.2.1,59.77970866605155,
3,parcelated_audio/11/11_40.aiff,,0,3,3,3,,,,,0,39,39,39,,,,,,,,,,,,,,,,,,,,,,,,,,,,,,,,,,,,,,,,,,,,,,,,,,,,,,,,,,,,,,,1309.345814269202,None,1309.3458123900054,None,1,0.6264846400008537,1314.9801597970072,None,1314.9801597970072,None,1314.9801597970072,None,1314.9801597970072,None,,,,,,,,,,,,,,,,,,,,,,,,,,,,,,,,,,,,,,,,,,,,,,,,,,,,091819_p1,001,2019_Sep_18_1346,body_behavioural,3.2.1,59.77970866605155,
3,parcelated_audio/11/11_41.aiff,,0,3,3,3,,,,,0,40,40,40,,,,,,,,,,,,,,,,,,,,,,,,,,,,,,,,,,,,,,,,,,,,,,,,,,,,,,,,,,,,,,,1315.6964491542226,None,1315.69612814,None,9,1.1470899679989088,1321.84672211,None,1321.84672211,None,1321.84672211,None,1321.84672211,None,,,,,,,,,,,,,,,,,,,,,,,,,,,,,,,,,,,,,,,,,,,,,,,,,,,,091819_p1,001,2019_Sep_18_1346,body_behavioural,3.2.1,59.77970866605155,
3,,,0,3,3,3,,,,,,,,,,,,,,,,,,,,,,,,,,,,,,,,,,,,,,,,,,,,,,,,,,,,,,,,,,,,,,,,,,,,,,,,,,,,,,,,,,,,,1323.014273000008,None,1323.014273000008,None,space,2.3283991920179687,1323.014273000008,None,,,,,,,,,,,,,,,,,,,,,,,,,,,,,,,,,,,,,,,,,,,,091819_p1,001,2019_Sep_18_1346,body_behavioural,3.2.1,59.77970866605155,
4,,,0,4,4,4,0,0,0,0,,,,,,,,,,,,,,,1325.364601606998,None,space,0.8568902749975678,1325.364601606998,None,1325.364601606998,None,1326.2477996550151,None,space,0.7927152399788611,1326.2477996550151,None,1327.1647259500169,None,1327.1647259500169,None,1327.1647259500169,None,1329.163763700024,None,space,0.57658162000007,1329.163763700024,None,1330.0479469170095,None,1330.0479469170095,None,1330.0479469170095,None,1330.0479469170095,None,1330.0479469170095,None,1330.0479469170095,None,1330.0479469170095,None,,,,,,,,,,,,,,,,,,,,,,,,,,,,,,,,,,,,,,,,,,,,,,,,,,,,,,,,,,,,,,,,,,,,,,,,,,,,,,091819_p1,001,2019_Sep_18_1346,body_behavioural,3.2.1,59.77970866605155,
4,parcelated_audio/22/22_1.aiff,,0,4,4,4,,,,,0,0,0,0,,,,,,,,,,,,,,,,,,,,,,,,,1343.5981763050077,None,1343.5981763050077,None,1343.5981763050077,None,,,,,,,,,,,,,,,,,,,,,1341.631280110014,None,space,1.8481241499830503,1341.631280110014,None,1344.6313917399966,None,space,1.7016590569983236,1344.6313917399966,None,1346.4649057742122,None,1346.4650957450212,None,9,1.9125774500134867,1356.8831214520033,None,1356.8831214520033,None,1356.8831214520033,None,1356.8831214520033,None,,,,,,,,,,,,,,,,,,,,,,,,,,,,,,,,,,,,,,,,,,,,,,,,,,,,091819_p1,001,2019_Sep_18_1346,body_behavioural,3.2.1,59.77970866605155,
4,parcelated_audio/22/22_2.aiff,,0,4,4,4,,,,,0,1,1,1,,,,,,,,,,,,,,,,,,,,,,,,,,,,,,,,,,,,,,,,,,,,,,,,,,,,,,,,,,,,,,,1358.8997943242052,None,1358.8991491170018,None,1,1.143938724999316,1365.166811855015,None,1365.166811855015,None,1365.166811855015,None,1365.166811855015,None,,,,,,,,,,,,,,,,,,,,,,,,,,,,,,,,,,,,,,,,,,,,,,,,,,,,091819_p1,001,2019_Sep_18_1346,body_behavioural,3.2.1,59.77970866605155,
4,parcelated_audio/22/22_3.aiff,,0,4,4,4,,,,,0,2,2,2,,,,,,,,,,,,,,,,,,,,,,,,,,,,,,,,,,,,,,,,,,,,,,,,,,,,,,,,,,,,,,,1366.4162083162141,None,1366.4162142770074,None,1,0.4963574199937284,1376.8337788350182,None,1376.8337788350182,None,1376.8337788350182,None,1376.8337788350182,None,,,,,,,,,,,,,,,,,,,,,,,,,,,,,,,,,,,,,,,,,,,,,,,,,,,,091819_p1,001,2019_Sep_18_1346,body_behavioural,3.2.1,59.77970866605155,
4,parcelated_audio/22/22_4.aiff,,0,4,4,4,,,,,0,3,3,3,,,,,,,,,,,,,,,,,,,,,,,,,,,,,,,,,,,,,,,,,,,,,,,,,,,,,,,,,,,,,,,1377.4510314692075,None,1377.4513760450063,None,9,1.523995378986001,1387.8677618899965,None,1387.8677618899965,None,1387.8677618899965,None,1387.8677618899965,None,,,,,,,,,,,,,,,,,,,,,,,,,,,,,,,,,,,,,,,,,,,,,,,,,,,,091819_p1,001,2019_Sep_18_1346,body_behavioural,3.2.1,59.77970866605155,
4,parcelated_audio/22/22_5.aiff,,0,4,4,4,,,,,0,4,4,4,,,,,,,,,,,,,,,,,,,,,,,,,,,,,,,,,,,,,,,,,,,,,,,,,,,,,,,,,,,,,,,1389.4673069892074,None,1389.4674331000133,None,1,1.4090522670012433,1395.4021121500118,None,1395.4021121500118,None,1395.4021121500118,None,1395.4021121500118,None,,,,,,,,,,,,,,,,,,,,,,,,,,,,,,,,,,,,,,,,,,,,,,,,,,,,091819_p1,001,2019_Sep_18_1346,body_behavioural,3.2.1,59.77970866605155,
4,parcelated_audio/22/22_6.aiff,,0,4,4,4,,,,,0,5,5,5,,,,,,,,,,,,,,,,,,,,,,,,,,,,,,,,,,,,,,,,,,,,,,,,,,,,,,,,,,,,,,,1396.9180146012136,None,1396.918892400019,None,1,0.6628540300007444,1406.1025314569997,None,1406.1025314569997,None,1406.1025314569997,None,1406.1025314569997,None,,,,,,,,,,,,,,,,,,,,,,,,,,,,,,,,,,,,,,,,,,,,,,,,,,,,091819_p1,001,2019_Sep_18_1346,body_behavioural,3.2.1,59.77970866605155,
4,parcelated_audio/22/22_7.aiff,,0,4,4,4,,,,,0,6,6,6,,,,,,,,,,,,,,,,,,,,,,,,,,,,,,,,,,,,,,,,,,,,,,,,,,,,,,,,,,,,,,,1406.852767946219,None,1406.8527074670128,None,1,3.548773305985378,1411.83554034002,None,1411.83554034002,None,1411.83554034002,None,1411.83554034002,None,,,,,,,,,,,,,,,,,,,,,,,,,,,,,,,,,,,,,,,,,,,,,,,,,,,,091819_p1,001,2019_Sep_18_1346,body_behavioural,3.2.1,59.77970866605155,
4,parcelated_audio/22/22_8.aiff,,0,4,4,4,,,,,0,7,7,7,,,,,,,,,,,,,,,,,,,,,,,,,,,,,,,,,,,,,,,,,,,,,,,,,,,,,,,,,,,,,,,1415.4703069662123,None,1415.4699590470118,None,1,2.2670087279984728,1419.004017905012,None,1419.004017905012,None,1419.004017905012,None,1419.004017905012,None,,,,,,,,,,,,,,,,,,,,,,,,,,,,,,,,,,,,,,,,,,,,,,,,,,,,091819_p1,001,2019_Sep_18_1346,body_behavioural,3.2.1,59.77970866605155,
4,parcelated_audio/22/22_9.aiff,,0,4,4,4,,,,,0,8,8,8,,,,,,,,,,,,,,,,,,,,,,,,,,,,,,,,,,,,,,,,,,,,,,,,,,,,,,,,,,,,,,,1421.3698575942167,None,1421.3700336720212,None,1,0.7819861219904851,1425.270430125005,None,1425.270430125005,None,1425.270430125005,None,1425.270430125005,None,,,,,,,,,,,,,,,,,,,,,,,,,,,,,,,,,,,,,,,,,,,,,,,,,,,,091819_p1,001,2019_Sep_18_1346,body_behavioural,3.2.1,59.77970866605155,
4,parcelated_audio/22/22_10.aiff,,0,4,4,4,,,,,0,9,9,9,,,,,,,,,,,,,,,,,,,,,,,,,,,,,,,,,,,,,,,,,,,,,,,,,,,,,,,,,,,,,,,1426.154849706209,None,1426.153819594998,None,1,5.138039175013546,1430.920713790023,None,1430.920713790023,None,1430.920713790023,None,1430.920713790023,None,,,,,,,,,,,,,,,,,,,,,,,,,,,,,,,,,,,,,,,,,,,,,,,,,,,,091819_p1,001,2019_Sep_18_1346,body_behavioural,3.2.1,59.77970866605155,
4,parcelated_audio/22/22_11.aiff,,0,4,4,4,,,,,0,10,10,10,,,,,,,,,,,,,,,,,,,,,,,,,,,,,,,,,,,,,,,,,,,,,,,,,,,,,,,,,,,,,,,1436.1711034391979,None,1436.1710346650216,None,9,0.7205533430096693,1443.4549853600038,None,1443.4549853600038,None,1443.4549853600038,None,1443.4549853600038,None,,,,,,,,,,,,,,,,,,,,,,,,,,,,,,,,,,,,,,,,,,,,,,,,,,,,091819_p1,001,2019_Sep_18_1346,body_behavioural,3.2.1,59.77970866605155,
4,parcelated_audio/22/22_12.aiff,,0,4,4,4,,,,,0,11,11,11,,,,,,,,,,,,,,,,,,,,,,,,,,,,,,,,,,,,,,,,,,,,,,,,,,,,,,,,,,,,,,,1444.2717597962096,None,1444.2725678870047,None,1,1.2594749179843348,1451.9397481470078,None,1451.9397481470078,None,1451.9397481470078,None,1451.9397481470078,None,,,,,,,,,,,,,,,,,,,,,,,,,,,,,,,,,,,,,,,,,,,,,,,,,,,,091819_p1,001,2019_Sep_18_1346,body_behavioural,3.2.1,59.77970866605155,
4,parcelated_audio/22/22_13.aiff,,0,4,4,4,,,,,0,12,12,12,,,,,,,,,,,,,,,,,,,,,,,,,,,,,,,,,,,,,,,,,,,,,,,,,,,,,,,,,,,,,,,1453.3061135111989,None,1453.30563945201,None,1,1.2120920949964784,1460.5727895699965,None,1460.5727895699965,None,1460.5727895699965,None,1460.5727895699965,None,,,,,,,,,,,,,,,,,,,,,,,,,,,,,,,,,,,,,,,,,,,,,,,,,,,,091819_p1,001,2019_Sep_18_1346,body_behavioural,3.2.1,59.77970866605155,
4,parcelated_audio/22/22_14.aiff,,0,4,4,4,,,,,0,13,13,13,,,,,,,,,,,,,,,,,,,,,,,,,,,,,,,,,,,,,,,,,,,,,,,,,,,,,,,,,,,,,,,1461.8737675312063,None,1461.873812417005,None,1,0.18999406800139695,1467.4899753270147,None,1467.4899753270147,None,1467.4899753270147,None,1467.4899753270147,None,,,,,,,,,,,,,,,,,,,,,,,,,,,,,,,,,,,,,,,,,,,,,,,,,,,,091819_p1,001,2019_Sep_18_1346,body_behavioural,3.2.1,59.77970866605155,
4,parcelated_audio/22/22_15.aiff,,0,4,4,4,,,,,0,14,14,14,,,,,,,,,,,,,,,,,,,,,,,,,,,,,,,,,,,,,,,,,,,,,,,,,,,,,,,,,,,,,,,1467.7741996162135,None,1467.7741855650092,None,1,0.9351476249867119,1475.5573710949975,None,1475.5573710949975,None,1475.5573710949975,None,1475.5573710949975,None,,,,,,,,,,,,,,,,,,,,,,,,,,,,,,,,,,,,,,,,,,,,,,,,,,,,091819_p1,001,2019_Sep_18_1346,body_behavioural,3.2.1,59.77970866605155,
4,parcelated_audio/22/22_16.aiff,,0,4,4,4,,,,,0,15,15,15,,,,,,,,,,,,,,,,,,,,,,,,,,,,,,,,,,,,,,,,,,,,,,,,,,,,,,,,,,,,,,,1476.5911959862192,None,1476.5906196600117,None,9,0.5657654120004736,1485.2260070670163,None,1485.2260070670163,None,1485.2260070670163,None,1485.2260070670163,None,,,,,,,,,,,,,,,,,,,,,,,,,,,,,,,,,,,,,,,,,,,,,,,,,,,,091819_p1,001,2019_Sep_18_1346,body_behavioural,3.2.1,59.77970866605155,
4,parcelated_audio/22/22_17.aiff,,0,4,4,4,,,,,0,16,16,16,,,,,,,,,,,,,,,,,,,,,,,,,,,,,,,,,,,,,,,,,,,,,,,,,,,,,,,,,,,,,,,1485.891421219209,None,1485.8911017400096,None,1,0.8806671950151213,1489.0414454050187,None,1489.0414454050187,None,1489.0414454050187,None,1489.0414454050187,None,,,,,,,,,,,,,,,,,,,,,,,,,,,,,,,,,,,,,,,,,,,,,,,,,,,,091819_p1,001,2019_Sep_18_1346,body_behavioural,3.2.1,59.77970866605155,
4,parcelated_audio/22/22_18.aiff,,0,4,4,4,,,,,0,17,17,17,,,,,,,,,,,,,,,,,,,,,,,,,,,,,,,,,,,,,,,,,,,,,,,,,,,,,,,,,,,,,,,1490.0080689712108,None,1490.008141505008,None,1,0.3553605650085956,1496.7427120550128,None,1496.7427120550128,None,1496.7427120550128,None,1496.7427120550128,None,,,,,,,,,,,,,,,,,,,,,,,,,,,,,,,,,,,,,,,,,,,,,,,,,,,,091819_p1,001,2019_Sep_18_1346,body_behavioural,3.2.1,59.77970866605155,
4,parcelated_audio/22/22_19.aiff,,0,4,4,4,,,,,0,18,18,18,,,,,,,,,,,,,,,,,,,,,,,,,,,,,,,,,,,,,,,,,,,,,,,,,,,,,,,,,,,,,,,1497.1919395062055,None,1497.1925884050142,None,1,1.1596754299825989,1502.1427282670047,None,1502.1427282670047,None,1502.1427282670047,None,1502.1427282670047,None,,,,,,,,,,,,,,,,,,,,,,,,,,,,,,,,,,,,,,,,,,,,,,,,,,,,091819_p1,001,2019_Sep_18_1346,body_behavioural,3.2.1,59.77970866605155,
4,parcelated_audio/22/22_20.aiff,,0,4,4,4,,,,,0,19,19,19,,,,,,,,,,,,,,,,,,,,,,,,,,,,,,,,,,,,,,,,,,,,,,,,,,,,,,,,,,,,,,,1503.4089230892046,None,1503.4097171820176,None,9,0.8334117070189677,1513.8274441969988,None,1513.8274441969988,None,1513.8274441969988,None,1513.8274441969988,None,,,,,,,,,,,,,,,,,,,,,,,,,,,,,,,,,,,,,,,,,,,,,,,,,,,,091819_p1,001,2019_Sep_18_1346,body_behavioural,3.2.1,59.77970866605155,
4,parcelated_audio/22/22_21.aiff,,0,4,4,4,,,,,0,20,20,20,,,,,,,,,,,,,,,,,,,,,,,,,,,,,,,,,,,,,,,,,,,,,,,,,,,,,,,,,,,,,,,1514.7440557942232,None,1514.743182707025,None,1,1.8061506999947596,1516.7439767500036,None,1516.7439767500036,None,1516.7439767500036,None,1516.7439767500036,None,,,,,,,,,,,,,,,,,,,,,,,,,,,,,,,,,,,,,,,,,,,,,,,,,,,,091819_p1,001,2019_Sep_18_1346,body_behavioural,3.2.1,59.77970866605155,
4,parcelated_audio/22/22_22.aiff,,0,4,4,4,,,,,0,21,21,21,,,,,,,,,,,,,,,,,,,,,,,,,,,,,,,,,,,,,,,,,,,,,,,,,,,,,,,,,,,,,,,1518.660323704206,None,1518.6600824650086,None,1,1.2687942549819127,1521.79375863701,None,1521.79375863701,None,1521.79375863701,None,1521.79375863701,None,,,,,,,,,,,,,,,,,,,,,,,,,,,,,,,,,,,,,,,,,,,,,,,,,,,,091819_p1,001,2019_Sep_18_1346,body_behavioural,3.2.1,59.77970866605155,
4,parcelated_audio/22/22_23.aiff,,0,4,4,4,,,,,0,22,22,22,,,,,,,,,,,,,,,,,,,,,,,,,,,,,,,,,,,,,,,,,,,,,,,,,,,,,,,,,,,,,,,1523.160444334199,None,1523.1610657270066,None,1,0.450899510004092,1529.678688134998,None,1529.678688134998,None,1529.678688134998,None,1529.678688134998,None,,,,,,,,,,,,,,,,,,,,,,,,,,,,,,,,,,,,,,,,,,,,,,,,,,,,091819_p1,001,2019_Sep_18_1346,body_behavioural,3.2.1,59.77970866605155,
4,parcelated_audio/22/22_24.aiff,,0,4,4,4,,,,,0,23,23,23,,,,,,,,,,,,,,,,,,,,,,,,,,,,,,,,,,,,,,,,,,,,,,,,,,,,,,,,,,,,,,,1530.2277593562235,None,1530.22779196201,None,1,0.5844275749986991,1535.9612096250057,None,1535.9612096250057,None,1535.9612096250057,None,1535.9612096250057,None,,,,,,,,,,,,,,,,,,,,,,,,,,,,,,,,,,,,,,,,,,,,,,,,,,,,091819_p1,001,2019_Sep_18_1346,body_behavioural,3.2.1,59.77970866605155,
4,parcelated_audio/22/22_25.aiff,,0,4,4,4,,,,,0,24,24,24,,,,,,,,,,,,,,,,,,,,,,,,,,,,,,,,,,,,,,,,,,,,,,,,,,,,,,,,,,,,,,,1536.6613407842146,None,1536.661342307023,None,9,2.6262669499847107,1545.5125593050034,None,1545.5125593050034,None,1545.5125593050034,None,1545.5125593050034,None,,,,,,,,,,,,,,,,,,,,,,,,,,,,,,,,,,,,,,,,,,,,,,,,,,,,091819_p1,001,2019_Sep_18_1346,body_behavioural,3.2.1,59.77970866605155,
4,parcelated_audio/22/22_26.aiff,,0,4,4,4,,,,,0,25,25,25,,,,,,,,,,,,,,,,,,,,,,,,,,,,,,,,,,,,,,,,,,,,,,,,,,,,,,,,,,,,,,,1548.2287890192151,None,1548.228644835006,None,1,0.9178937230026349,1555.4483704550075,None,1555.4483704550075,None,1555.4483704550075,None,1555.4483704550075,None,,,,,,,,,,,,,,,,,,,,,,,,,,,,,,,,,,,,,,,,,,,,,,,,,,,,091819_p1,001,2019_Sep_18_1346,body_behavioural,3.2.1,59.77970866605155,
4,parcelated_audio/22/22_27.aiff,,0,4,4,4,,,,,0,26,26,26,,,,,,,,,,,,,,,,,,,,,,,,,,,,,,,,,,,,,,,,,,,,,,,,,,,,,,,,,,,,,,,1556.4630653962,None,1556.4626839350094,None,1,0.8469391049875412,1560.8797090700245,None,1560.8797090700245,None,1560.8797090700245,None,1560.8797090700245,None,,,,,,,,,,,,,,,,,,,,,,,,,,,,,,,,,,,,,,,,,,,,,,,,,,,,091819_p1,001,2019_Sep_18_1346,body_behavioural,3.2.1,59.77970866605155,
4,parcelated_audio/22/22_28.aiff,,0,4,4,4,,,,,0,27,27,27,,,,,,,,,,,,,,,,,,,,,,,,,,,,,,,,,,,,,,,,,,,,,,,,,,,,,,,,,,,,,,,1561.8297900642124,None,1561.830191177025,None,1,0.9321687149931677,1567.5469253420015,None,1567.5469253420015,None,1567.5469253420015,None,1567.5469253420015,None,,,,,,,,,,,,,,,,,,,,,,,,,,,,,,,,,,,,,,,,,,,,,,,,,,,,091819_p1,001,2019_Sep_18_1346,body_behavioural,3.2.1,59.77970866605155,
4,parcelated_audio/22/22_29.aiff,,0,4,4,4,,,,,0,28,28,28,,,,,,,,,,,,,,,,,,,,,,,,,,,,,,,,,,,,,,,,,,,,,,,,,,,,,,,,,,,,,,,1568.547651074207,None,1568.5474861170223,None,1,0.7361341979994904,1574.2316837650142,None,1574.2316837650142,None,1574.2316837650142,None,1574.2316837650142,None,,,,,,,,,,,,,,,,,,,,,,,,,,,,,,,,,,,,,,,,,,,,,,,,,,,,091819_p1,001,2019_Sep_18_1346,body_behavioural,3.2.1,59.77970866605155,
4,parcelated_audio/22/22_30.aiff,,0,4,4,4,,,,,0,29,29,29,,,,,,,,,,,,,,,,,,,,,,,,,,,,,,,,,,,,,,,,,,,,,,,,,,,,,,,,,,,,,,,1575.0644817362104,None,1575.0640398170217,None,1,1.2438508780032862,1577.748372580012,None,1577.748372580012,None,1577.748372580012,None,1577.748372580012,None,,,,,,,,,,,,,,,,,,,,,,,,,,,,,,,,,,,,,,,,,,,,,,,,,,,,091819_p1,001,2019_Sep_18_1346,body_behavioural,3.2.1,59.77970866605155,
4,parcelated_audio/22/22_31.aiff,,0,4,4,4,,,,,0,30,30,30,,,,,,,,,,,,,,,,,,,,,,,,,,,,,,,,,,,,,,,,,,,,,,,,,,,,,,,,,,,,,,,1579.081328526218,None,1579.0809953499993,None,1,1.479213417012943,1584.2314673119981,None,1584.2314673119981,None,1584.2314673119981,None,1584.2314673119981,None,,,,,,,,,,,,,,,,,,,,,,,,,,,,,,,,,,,,,,,,,,,,,,,,,,,,091819_p1,001,2019_Sep_18_1346,body_behavioural,3.2.1,59.77970866605155,
4,parcelated_audio/22/22_32.aiff,,0,4,4,4,,,,,0,31,31,31,,,,,,,,,,,,,,,,,,,,,,,,,,,,,,,,,,,,,,,,,,,,,,,,,,,,,,,,,,,,,,,1585.7989500342142,None,1585.7980562250013,None,1,0.5309546699863859,1592.11582146,None,1592.11582146,None,1592.11582146,None,1592.11582146,None,,,,,,,,,,,,,,,,,,,,,,,,,,,,,,,,,,,,,,,,,,,,,,,,,,,,091819_p1,001,2019_Sep_18_1346,body_behavioural,3.2.1,59.77970866605155,
4,parcelated_audio/22/22_33.aiff,,0,4,4,4,,,,,0,32,32,32,,,,,,,,,,,,,,,,,,,,,,,,,,,,,,,,,,,,,,,,,,,,,,,,,,,,,,,,,,,,,,,1592.716031759212,None,1592.7155320199963,None,1,0.48126644498552196,1597.1167514749977,None,1597.1167514749977,None,1597.1167514749977,None,1597.1167514749977,None,,,,,,,,,,,,,,,,,,,,,,,,,,,,,,,,,,,,,,,,,,,,,,,,,,,,091819_p1,001,2019_Sep_18_1346,body_behavioural,3.2.1,59.77970866605155,
4,parcelated_audio/22/22_34.aiff,,0,4,4,4,,,,,0,33,33,33,,,,,,,,,,,,,,,,,,,,,,,,,,,,,,,,,,,,,,,,,,,,,,,,,,,,,,,,,,,,,,,1597.698809849206,None,1597.6991233150184,None,1,0.7227689179999288,1605.7008383750217,None,1605.7008383750217,None,1605.7008383750217,None,1605.7008383750217,None,,,,,,,,,,,,,,,,,,,,,,,,,,,,,,,,,,,,,,,,,,,,,,,,,,,,091819_p1,001,2019_Sep_18_1346,body_behavioural,3.2.1,59.77970866605155,
4,parcelated_audio/22/22_35.aiff,,0,4,4,4,,,,,0,34,34,34,,,,,,,,,,,,,,,,,,,,,,,,,,,,,,,,,,,,,,,,,,,,,,,,,,,,,,,,,,,,,,,1606.5333424892074,None,1606.5331637519994,None,1,0.261881149985129,1614.0500273049984,None,1614.0500273049984,None,1614.0500273049984,None,1614.0500273049984,None,,,,,,,,,,,,,,,,,,,,,,,,,,,,,,,,,,,,,,,,,,,,,,,,,,,,091819_p1,001,2019_Sep_18_1346,body_behavioural,3.2.1,59.77970866605155,
4,parcelated_audio/22/22_36.aiff,,0,4,4,4,,,,,0,35,35,35,,,,,,,,,,,,,,,,,,,,,,,,,,,,,,,,,,,,,,,,,,,,,,,,,,,,,,,,,,,,,,,1614.4166553192103,None,1614.41673682502,None,1,0.9943607829918619,1624.8341493900225,None,1624.8341493900225,None,1624.8341493900225,None,1624.8341493900225,None,,,,,,,,,,,,,,,,,,,,,,,,,,,,,,,,,,,,,,,,,,,,,,,,,,,,091819_p1,001,2019_Sep_18_1346,body_behavioural,3.2.1,59.77970866605155,
4,parcelated_audio/22/22_37.aiff,,0,4,4,4,,,,,0,36,36,36,,,,,,,,,,,,,,,,,,,,,,,,,,,,,,,,,,,,,,,,,,,,,,,,,,,,,,,,,,,,,,,1625.9182987192094,None,1625.9185098300222,None,1,0.6794789900013711,1633.0846526200185,None,1633.0846526200185,None,1633.0846526200185,None,1633.0846526200185,None,,,,,,,,,,,,,,,,,,,,,,,,,,,,,,,,,,,,,,,,,,,,,,,,,,,,091819_p1,001,2019_Sep_18_1346,body_behavioural,3.2.1,59.77970866605155,
4,,,0,4,4,4,,,,,,,,,,,,,,,,,,,,,,,,,,,,,,,,,,,,,,,,,,,,,,,,,,,,,,,,,,,,,,,,,,,,,,,,,,,,,,,,,,,,,1633.7850327220222,None,1633.7850327220222,None,space,0.8837785720243119,1633.7850327220222,None,,,,,,,,,,,,,,,,,,,,,,,,,,,,,,,,,,,,,,,,,,,,091819_p1,001,2019_Sep_18_1346,body_behavioural,3.2.1,59.77970866605155,
5,,,0,5,5,5,0,0,0,0,,,,,,,,,,,,,,,1634.7014808719978,None,space,0.49622095000813715,1634.7014808719978,None,1634.7014808719978,None,1635.2181586649967,None,space,0.4895869799947832,1635.2181586649967,None,1635.8012506600062,None,1635.8012506600062,None,1635.8012506600062,None,1636.4182486450009,None,space,0.7444136450067163,1636.4182486450009,None,1637.4854061870137,None,1637.4854061870137,None,1637.4854061870137,None,1637.4854061870137,None,1637.4854061870137,None,1637.4854061870137,None,1637.4854061870137,None,,,,,,,,,,,,,,,,,,,,,,,,,,,,,,,,,,,,,,,,,,,,,,,,,,,,,,,,,,,,,,,,,,,,,,,,,,,,,,091819_p1,001,2019_Sep_18_1346,body_behavioural,3.2.1,59.77970866605155,
5,parcelated_audio/42/42_1.aiff,,0,5,5,5,,,,,0,0,0,0,,,,,,,,,,,,,,,,,,,,,,,,,1651.502608892013,None,1651.502608892013,None,1651.502608892013,None,,,,,,,,,,,,,,,,,,,,,1650.7524629350228,None,space,0.6749227949767374,1650.7524629350228,None,1652.486628106999,None,space,1.3862232849933207,1652.486628106999,None,1654.0036396542187,None,1654.002706697007,None,9,0.6287229449953884,1662.353412735014,None,1662.353412735014,None,1662.353412735014,None,1662.353412735014,None,,,,,,,,,,,,,,,,,,,,,,,,,,,,,,,,,,,,,,,,,,,,,,,,,,,,091819_p1,001,2019_Sep_18_1346,body_behavioural,3.2.1,59.77970866605155,
5,parcelated_audio/42/42_2.aiff,,0,5,5,5,,,,,0,1,1,1,,,,,,,,,,,,,,,,,,,,,,,,,,,,,,,,,,,,,,,,,,,,,,,,,,,,,,,,,,,,,,,1663.0873172092165,None,1663.0868100050138,None,1,2.056436170008965,1673.4875259870023,None,1673.4875259870023,None,1673.4875259870023,None,1673.4875259870023,None,,,,,,,,,,,,,,,,,,,,,,,,,,,,,,,,,,,,,,,,,,,,,,,,,,,,091819_p1,001,2019_Sep_18_1346,body_behavioural,3.2.1,59.77970866605155,
5,parcelated_audio/42/42_3.aiff,,0,5,5,5,,,,,0,2,2,2,,,,,,,,,,,,,,,,,,,,,,,,,,,,,,,,,,,,,,,,,,,,,,,,,,,,,,,,,,,,,,,1675.655121229202,None,1675.6544213470188,None,1,0.703991793008754,1685.9390317000216,None,1685.9390317000216,None,1685.9390317000216,None,1685.9390317000216,None,,,,,,,,,,,,,,,,,,,,,,,,,,,,,,,,,,,,,,,,,,,,,,,,,,,,091819_p1,001,2019_Sep_18_1346,body_behavioural,3.2.1,59.77970866605155,
5,parcelated_audio/42/42_4.aiff,,0,5,5,5,,,,,0,3,3,3,,,,,,,,,,,,,,,,,,,,,,,,,,,,,,,,,,,,,,,,,,,,,,,,,,,,,,,,,,,,,,,1686.7550223542116,None,1686.7550765900232,None,9,1.383327392017236,1697.1734142570058,None,1697.1734142570058,None,1697.1734142570058,None,1697.1734142570058,None,,,,,,,,,,,,,,,,,,,,,,,,,,,,,,,,,,,,,,,,,,,,,,,,,,,,091819_p1,001,2019_Sep_18_1346,body_behavioural,3.2.1,59.77970866605155,
5,parcelated_audio/42/42_5.aiff,,0,5,5,5,,,,,0,4,4,4,,,,,,,,,,,,,,,,,,,,,,,,,,,,,,,,,,,,,,,,,,,,,,,,,,,,,,,,,,,,,,,1698.656925064212,None,1698.656505922001,None,1,1.4003487269801553,1709.0574380400067,None,1709.0574380400067,None,1709.0574380400067,None,1709.0574380400067,None,,,,,,,,,,,,,,,,,,,,,,,,,,,,,,,,,,,,,,,,,,,,,,,,,,,,091819_p1,001,2019_Sep_18_1346,body_behavioural,3.2.1,59.77970866605155,
5,parcelated_audio/42/42_6.aiff,,0,5,5,5,,,,,0,5,5,5,,,,,,,,,,,,,,,,,,,,,,,,,,,,,,,,,,,,,,,,,,,,,,,,,,,,,,,,,,,,,,,1710.5574893361977,None,1710.5567021400202,None,1,0.5391312369902153,1717.0405003520136,None,1717.0405003520136,None,1717.0405003520136,None,1717.0405003520136,None,,,,,,,,,,,,,,,,,,,,,,,,,,,,,,,,,,,,,,,,,,,,,,,,,,,,091819_p1,001,2019_Sep_18_1346,body_behavioural,3.2.1,59.77970866605155,
5,parcelated_audio/42/42_7.aiff,,0,5,5,5,,,,,0,6,6,6,,,,,,,,,,,,,,,,,,,,,,,,,,,,,,,,,,,,,,,,,,,,,,,,,,,,,,,,,,,,,,,1717.6746520442161,None,1717.6749957670108,None,1,1.1568492000224069,1722.8413578620239,None,1722.8413578620239,None,1722.8413578620239,None,1722.8413578620239,None,,,,,,,,,,,,,,,,,,,,,,,,,,,,,,,,,,,,,,,,,,,,,,,,,,,,091819_p1,001,2019_Sep_18_1346,body_behavioural,3.2.1,59.77970866605155,
5,parcelated_audio/42/42_8.aiff,,0,5,5,5,,,,,0,7,7,7,,,,,,,,,,,,,,,,,,,,,,,,,,,,,,,,,,,,,,,,,,,,,,,,,,,,,,,,,,,,,,,1724.0914762092202,None,1724.0915681570186,None,1,1.143928647012217,1727.2412338450085,None,1727.2412338450085,None,1727.2412338450085,None,1727.2412338450085,None,,,,,,,,,,,,,,,,,,,,,,,,,,,,,,,,,,,,,,,,,,,,,,,,,,,,091819_p1,001,2019_Sep_18_1346,body_behavioural,3.2.1,59.77970866605155,
5,parcelated_audio/42/42_9.aiff,,0,5,5,5,,,,,0,8,8,8,,,,,,,,,,,,,,,,,,,,,,,,,,,,,,,,,,,,,,,,,,,,,,,,,,,,,,,,,,,,,,,1728.492241849212,None,1728.4909330020018,None,1,1.136599940015003,1737.0419162519975,None,1737.0419162519975,None,1737.0419162519975,None,1737.0419162519975,None,,,,,,,,,,,,,,,,,,,,,,,,,,,,,,,,,,,,,,,,,,,,,,,,,,,,091819_p1,001,2019_Sep_18_1346,body_behavioural,3.2.1,59.77970866605155,
5,parcelated_audio/42/42_10.aiff,,0,5,5,5,,,,,0,9,9,9,,,,,,,,,,,,,,,,,,,,,,,,,,,,,,,,,,,,,,,,,,,,,,,,,,,,,,,,,,,,,,,1738.2759102762125,None,1738.2753141350113,None,1,0.6624642050010152,1742.5755790820112,None,1742.5755790820112,None,1742.5755790820112,None,1742.5755790820112,None,,,,,,,,,,,,,,,,,,,,,,,,,,,,,,,,,,,,,,,,,,,,,,,,,,,,091819_p1,001,2019_Sep_18_1346,body_behavioural,3.2.1,59.77970866605155,
5,parcelated_audio/42/42_11.aiff,,0,5,5,5,,,,,0,10,10,10,,,,,,,,,,,,,,,,,,,,,,,,,,,,,,,,,,,,,,,,,,,,,,,,,,,,,,,,,,,,,,,1743.3265342012078,None,1743.325915221998,None,1,0.6644338649930432,1748.325975105021,None,1748.325975105021,None,1748.325975105021,None,1748.325975105021,None,,,,,,,,,,,,,,,,,,,,,,,,,,,,,,,,,,,,,,,,,,,,,,,,,,,,091819_p1,001,2019_Sep_18_1346,body_behavioural,3.2.1,59.77970866605155,
5,parcelated_audio/42/42_12.aiff,,0,5,5,5,,,,,0,11,11,11,,,,,,,,,,,,,,,,,,,,,,,,,,,,,,,,,,,,,,,,,,,,,,,,,,,,,,,,,,,,,,,1749.0763993011992,None,1749.0765088900225,None,1,2.6717416669998784,1755.0432306069997,None,1755.0432306069997,None,1755.0432306069997,None,1755.0432306069997,None,,,,,,,,,,,,,,,,,,,,,,,,,,,,,,,,,,,,,,,,,,,,,,,,,,,,091819_p1,001,2019_Sep_18_1346,body_behavioural,3.2.1,59.77970866605155,
5,parcelated_audio/42/42_13.aiff,,0,5,5,5,,,,,0,12,12,12,,,,,,,,,,,,,,,,,,,,,,,,,,,,,,,,,,,,,,,,,,,,,,,,,,,,,,,,,,,,,,,1757.8271164242092,None,1757.826535100001,None,1,2.0033400480169803,1764.9771797450085,None,1764.9771797450085,None,1764.9771797450085,None,1764.9771797450085,None,,,,,,,,,,,,,,,,,,,,,,,,,,,,,,,,,,,,,,,,,,,,,,,,,,,,091819_p1,001,2019_Sep_18_1346,body_behavioural,3.2.1,59.77970866605155,
5,parcelated_audio/42/42_14.aiff,,0,5,5,5,,,,,0,13,13,13,,,,,,,,,,,,,,,,,,,,,,,,,,,,,,,,,,,,,,,,,,,,,,,,,,,,,,,,,,,,,,,1767.0779874962086,None,1767.0782528470154,None,1,3.986111862992402,1771.795121550007,None,1771.795121550007,None,1771.795121550007,None,1771.795121550007,None,,,,,,,,,,,,,,,,,,,,,,,,,,,,,,,,,,,,,,,,,,,,,,,,,,,,091819_p1,001,2019_Sep_18_1346,body_behavioural,3.2.1,59.77970866605155,
5,parcelated_audio/42/42_15.aiff,,0,5,5,5,,,,,0,14,14,14,,,,,,,,,,,,,,,,,,,,,,,,,,,,,,,,,,,,,,,,,,,,,,,,,,,,,,,,,,,,,,,1775.8783189292212,None,1775.8785584770085,None,1,1.958728700003121,1781.7116504200094,None,1781.7116504200094,None,1781.7116504200094,None,1781.7116504200094,None,,,,,,,,,,,,,,,,,,,,,,,,,,,,,,,,,,,,,,,,,,,,,,,,,,,,091819_p1,001,2019_Sep_18_1346,body_behavioural,3.2.1,59.77970866605155,
5,parcelated_audio/42/42_16.aiff,,0,5,5,5,,,,,0,15,15,15,,,,,,,,,,,,,,,,,,,,,,,,,,,,,,,,,,,,,,,,,,,,,,,,,,,,,,,,,,,,,,,1783.761964386204,None,1783.7617040270125,None,1,1.8329762850189582,1789.3288499750197,None,1789.3288499750197,None,1789.3288499750197,None,1789.3288499750197,None,,,,,,,,,,,,,,,,,,,,,,,,,,,,,,,,,,,,,,,,,,,,,,,,,,,,091819_p1,001,2019_Sep_18_1346,body_behavioural,3.2.1,59.77970866605155,
5,parcelated_audio/42/42_17.aiff,,0,5,5,5,,,,,0,16,16,16,,,,,,,,,,,,,,,,,,,,,,,,,,,,,,,,,,,,,,,,,,,,,,,,,,,,,,,,,,,,,,,1791.262217096219,None,1791.2627558100212,None,1,0.21528240499901585,1800.946105682,None,1800.946105682,None,1800.946105682,None,1800.946105682,None,,,,,,,,,,,,,,,,,,,,,,,,,,,,,,,,,,,,,,,,,,,,,,,,,,,,091819_p1,001,2019_Sep_18_1346,body_behavioural,3.2.1,59.77970866605155,
5,parcelated_audio/42/42_18.aiff,,0,5,5,5,,,,,0,17,17,17,,,,,,,,,,,,,,,,,,,,,,,,,,,,,,,,,,,,,,,,,,,,,,,,,,,,,,,,,,,,,,,1801.247121086219,None,1801.2462298070022,None,1,0.9898029229952954,1806.6466376169992,None,1806.6466376169992,None,1806.6466376169992,None,1806.6466376169992,None,,,,,,,,,,,,,,,,,,,,,,,,,,,,,,,,,,,,,,,,,,,,,,,,,,,,091819_p1,001,2019_Sep_18_1346,body_behavioural,3.2.1,59.77970866605155,
5,parcelated_audio/42/42_19.aiff,,0,5,5,5,,,,,0,18,18,18,,,,,,,,,,,,,,,,,,,,,,,,,,,,,,,,,,,,,,,,,,,,,,,,,,,,,,,,,,,,,,,1807.763478634201,None,1807.7633844299999,None,1,0.9735946499858983,1816.8983383550076,None,1816.8983383550076,None,1816.8983383550076,None,1816.8983383550076,None,,,,,,,,,,,,,,,,,,,,,,,,,,,,,,,,,,,,,,,,,,,,,,,,,,,,091819_p1,001,2019_Sep_18_1346,body_behavioural,3.2.1,59.77970866605155,
5,parcelated_audio/42/42_20.aiff,,0,5,5,5,,,,,0,19,19,19,,,,,,,,,,,,,,,,,,,,,,,,,,,,,,,,,,,,,,,,,,,,,,,,,,,,,,,,,,,,,,,1817.9647260892002,None,1817.9646910600131,None,1,0.5171119500009809,1822.5977992220141,None,1822.5977992220141,None,1822.5977992220141,None,1822.5977992220141,None,,,,,,,,,,,,,,,,,,,,,,,,,,,,,,,,,,,,,,,,,,,,,,,,,,,,091819_p1,001,2019_Sep_18_1346,body_behavioural,3.2.1,59.77970866605155,
5,parcelated_audio/42/42_21.aiff,,0,5,5,5,,,,,0,20,20,20,,,,,,,,,,,,,,,,,,,,,,,,,,,,,,,,,,,,,,,,,,,,,,,,,,,,,,,,,,,,,,,1823.230938036219,None,1823.231241415022,None,1,0.5336111070064362,1833.1151422820112,None,1833.1151422820112,None,1833.1151422820112,None,1833.1151422820112,None,,,,,,,,,,,,,,,,,,,,,,,,,,,,,,,,,,,,,,,,,,,,,,,,,,,,091819_p1,001,2019_Sep_18_1346,body_behavioural,3.2.1,59.77970866605155,
5,parcelated_audio/42/42_22.aiff,,0,5,5,5,,,,,0,21,21,21,,,,,,,,,,,,,,,,,,,,,,,,,,,,,,,,,,,,,,,,,,,,,,,,,,,,,,,,,,,,,,,1833.7491913592007,None,1833.74841556701,None,1,0.3034906190005131,1838.499813937,None,1838.499813937,None,1838.499813937,None,1838.499813937,None,,,,,,,,,,,,,,,,,,,,,,,,,,,,,,,,,,,,,,,,,,,,,,,,,,,,091819_p1,001,2019_Sep_18_1346,body_behavioural,3.2.1,59.77970866605155,
5,parcelated_audio/42/42_23.aiff,,0,5,5,5,,,,,0,22,22,22,,,,,,,,,,,,,,,,,,,,,,,,,,,,,,,,,,,,,,,,,,,,,,,,,,,,,,,,,,,,,,,1838.8996114962124,None,1838.8996915419993,None,9,1.1622453150048386,1845.100163177005,None,1845.100163177005,None,1845.100163177005,None,1845.100163177005,None,,,,,,,,,,,,,,,,,,,,,,,,,,,,,,,,,,,,,,,,,,,,,,,,,,,,091819_p1,001,2019_Sep_18_1346,body_behavioural,3.2.1,59.77970866605155,
5,parcelated_audio/42/42_24.aiff,,0,5,5,5,,,,,0,23,23,23,,,,,,,,,,,,,,,,,,,,,,,,,,,,,,,,,,,,,,,,,,,,,,,,,,,,,,,,,,,,,,,1846.3493041542156,None,1846.349861440016,None,1,0.041211595002096146,1854.783469565009,None,1854.783469565009,None,1854.783469565009,None,1854.783469565009,None,,,,,,,,,,,,,,,,,,,,,,,,,,,,,,,,,,,,,,,,,,,,,,,,,,,,091819_p1,001,2019_Sep_18_1346,body_behavioural,3.2.1,59.77970866605155,
5,parcelated_audio/42/42_25.aiff,,0,5,5,5,,,,,0,24,24,24,,,,,,,,,,,,,,,,,,,,,,,,,,,,,,,,,,,,,,,,,,,,,,,,,,,,,,,,,,,,,,,1854.899810316207,None,1854.900329015014,None,1,1.4362942800216842,1861.1178036950005,None,1861.1178036950005,None,1861.1178036950005,None,1861.1178036950005,None,,,,,,,,,,,,,,,,,,,,,,,,,,,,,,,,,,,,,,,,,,,,,,,,,,,,091819_p1,001,2019_Sep_18_1346,body_behavioural,3.2.1,59.77970866605155,
5,parcelated_audio/42/42_26.aiff,,0,5,5,5,,,,,0,25,25,25,,,,,,,,,,,,,,,,,,,,,,,,,,,,,,,,,,,,,,,,,,,,,,,,,,,,,,,,,,,,,,,1862.6504704942258,None,1862.6511801099987,None,1,0.4809809880098328,1868.5342443470145,None,1868.5342443470145,None,1868.5342443470145,None,1868.5342443470145,None,,,,,,,,,,,,,,,,,,,,,,,,,,,,,,,,,,,,,,,,,,,,,,,,,,,,091819_p1,001,2019_Sep_18_1346,body_behavioural,3.2.1,59.77970866605155,
5,parcelated_audio/42/42_27.aiff,,0,5,5,5,,,,,0,26,26,26,,,,,,,,,,,,,,,,,,,,,,,,,,,,,,,,,,,,,,,,,,,,,,,,,,,,,,,,,,,,,,,1869.1014413762227,None,1869.1007863300038,None,1,3.4305224700074177,1876.7680581470195,None,1876.7680581470195,None,1876.7680581470195,None,1876.7680581470195,None,,,,,,,,,,,,,,,,,,,,,,,,,,,,,,,,,,,,,,,,,,,,,,,,,,,,091819_p1,001,2019_Sep_18_1346,body_behavioural,3.2.1,59.77970866605155,
5,parcelated_audio/42/42_28.aiff,,0,5,5,5,,,,,0,27,27,27,,,,,,,,,,,,,,,,,,,,,,,,,,,,,,,,,,,,,,,,,,,,,,,,,,,,,,,,,,,,,,,1880.2849272462104,None,1880.2850820220192,None,1,3.7082513049826957,1885.9354831300152,None,1885.9354831300152,None,1885.9354831300152,None,1885.9354831300152,None,,,,,,,,,,,,,,,,,,,,,,,,,,,,,,,,,,,,,,,,,,,,,,,,,,,,091819_p1,001,2019_Sep_18_1346,body_behavioural,3.2.1,59.77970866605155,
5,parcelated_audio/42/42_29.aiff,,0,5,5,5,,,,,0,28,28,28,,,,,,,,,,,,,,,,,,,,,,,,,,,,,,,,,,,,,,,,,,,,,,,,,,,,,,,,,,,,,,,1889.802356824212,None,1889.8024452250102,None,1,0.761477924999781,1896.7036343150248,None,1896.7036343150248,None,1896.7036343150248,None,1896.7036343150248,None,,,,,,,,,,,,,,,,,,,,,,,,,,,,,,,,,,,,,,,,,,,,,,,,,,,,091819_p1,001,2019_Sep_18_1346,body_behavioural,3.2.1,59.77970866605155,
5,parcelated_audio/42/42_30.aiff,,0,5,5,5,,,,,0,29,29,29,,,,,,,,,,,,,,,,,,,,,,,,,,,,,,,,,,,,,,,,,,,,,,,,,,,,,,,,,,,,,,,1897.5695892442222,None,1897.5695669350098,None,1,0.6889944770082366,1907.970375857025,None,1907.970375857025,None,1907.970375857025,None,1907.970375857025,None,,,,,,,,,,,,,,,,,,,,,,,,,,,,,,,,,,,,,,,,,,,,,,,,,,,,091819_p1,001,2019_Sep_18_1346,body_behavioural,3.2.1,59.77970866605155,
5,parcelated_audio/42/42_31.aiff,,0,5,5,5,,,,,0,30,30,30,,,,,,,,,,,,,,,,,,,,,,,,,,,,,,,,,,,,,,,,,,,,,,,,,,,,,,,,,,,,,,,1908.7703900062102,None,1908.7703230870247,None,1,0.9625055369979236,1914.9383387200069,None,1914.9383387200069,None,1914.9383387200069,None,1914.9383387200069,None,,,,,,,,,,,,,,,,,,,,,,,,,,,,,,,,,,,,,,,,,,,,,,,,,,,,091819_p1,001,2019_Sep_18_1346,body_behavioural,3.2.1,59.77970866605155,
5,parcelated_audio/42/42_32.aiff,,0,5,5,5,,,,,0,31,31,31,,,,,,,,,,,,,,,,,,,,,,,,,,,,,,,,,,,,,,,,,,,,,,,,,,,,,,,,,,,,,,,1915.9879009042256,None,1915.9877858100226,None,1,0.5231577800004743,1924.1212045249995,None,1924.1212045249995,None,1924.1212045249995,None,1924.1212045249995,None,,,,,,,,,,,,,,,,,,,,,,,,,,,,,,,,,,,,,,,,,,,,,,,,,,,,091819_p1,001,2019_Sep_18_1346,body_behavioural,3.2.1,59.77970866605155,
5,parcelated_audio/42/42_33.aiff,,0,5,5,5,,,,,0,32,32,32,,,,,,,,,,,,,,,,,,,,,,,,,,,,,,,,,,,,,,,,,,,,,,,,,,,,,,,,,,,,,,,1924.7386748242047,None,1924.7381250770122,None,1,0.9897042649972718,1931.7728263250028,None,1931.7728263250028,None,1931.7728263250028,None,1931.7728263250028,None,,,,,,,,,,,,,,,,,,,,,,,,,,,,,,,,,,,,,,,,,,,,,,,,,,,,091819_p1,001,2019_Sep_18_1346,body_behavioural,3.2.1,59.77970866605155,
5,parcelated_audio/42/42_34.aiff,,0,5,5,5,,,,,0,33,33,33,,,,,,,,,,,,,,,,,,,,,,,,,,,,,,,,,,,,,,,,,,,,,,,,,,,,,,,,,,,,,,,1932.871941304204,None,1932.8719354369969,None,1,0.39536746198427863,1943.2728944670234,None,1943.2728944670234,None,1943.2728944670234,None,1943.2728944670234,None,,,,,,,,,,,,,,,,,,,,,,,,,,,,,,,,,,,,,,,,,,,,,,,,,,,,091819_p1,001,2019_Sep_18_1346,body_behavioural,3.2.1,59.77970866605155,
5,parcelated_audio/42/42_35.aiff,,0,5,5,5,,,,,0,34,34,34,,,,,,,,,,,,,,,,,,,,,,,,,,,,,,,,,,,,,,,,,,,,,,,,,,,,,,,,,,,,,,,1943.755901661198,None,1943.7567614120198,None,1,0.8127001530083362,1953.4910952270147,None,1953.4910952270147,None,1953.4910952270147,None,1953.4910952270147,None,,,,,,,,,,,,,,,,,,,,,,,,,,,,,,,,,,,,,,,,,,,,,,,,,,,,091819_p1,001,2019_Sep_18_1346,body_behavioural,3.2.1,59.77970866605155,
5,,,0,5,5,5,,,,,,,,,,,,,,,,,,,,,,,,,,,,,,,,,,,,,,,,,,,,,,,,,,,,,,,,,,,,,,,,,,,,,,,,,,,,,,,,,,,,,1954.3245361470035,None,1954.3245361470035,None,space,2.1921911299868952,1954.3245361470035,None,,,,,,,,,,,,,,,,,,,,,,,,,,,,,,,,,,,,,,,,,,,,091819_p1,001,2019_Sep_18_1346,body_behavioural,3.2.1,59.77970866605155,
6,,,0,6,6,6,0,0,0,0,,,,,,,,,,,,,,,1956.5570055349963,None,space,0.5095191799919121,1956.5570055349963,None,1956.5570055349963,None,1957.091254747007,None,space,0.5234113799815532,1957.091254747007,None,1957.7244540970132,None,1957.7244540970132,None,1957.7244540970132,None,1958.5915008700103,None,space,0.6279050649900455,1958.5915008700103,None,1959.5413759970106,None,1959.5413759970106,None,1959.5413759970106,None,1959.5413759970106,None,1959.5413759970106,None,1959.5413759970106,None,1959.5413759970106,None,,,,,,,,,,,,,,,,,,,,,,,,,,,,,,,,,,,,,,,,,,,,,,,,,,,,,,,,,,,,,,,,,,,,,,,,,,,,,,091819_p1,001,2019_Sep_18_1346,body_behavioural,3.2.1,59.77970866605155,
6,parcelated_audio/13/13_1.aiff,,0,6,6,6,,,,,0,0,0,0,,,,,,,,,,,,,,,,,,,,,,,,,1983.7598566570086,None,1983.7598566570086,None,1983.7598566570086,None,,,,,,,,,,,,,,,,,,,,,1982.9754384600092,None,space,0.7004716299998108,1982.9754384600092,None,1985.2587586570007,None,space,1.110800388007192,1985.2587586570007,None,1986.5763899361978,None,1986.5760352600191,None,1,1.7830175699782558,1996.9931755670113,None,1996.9931755670113,None,1996.9931755670113,None,1996.9931755670113,None,,,,,,,,,,,,,,,,,,,,,,,,,,,,,,,,,,,,,,,,,,,,,,,,,,,,091819_p1,001,2019_Sep_18_1346,body_behavioural,3.2.1,59.77970866605155,
6,parcelated_audio/13/13_2.aiff,,0,6,6,6,,,,,0,1,1,1,,,,,,,,,,,,,,,,,,,,,,,,,,,,,,,,,,,,,,,,,,,,,,,,,,,,,,,,,,,,,,,1998.8765751792148,None,1998.8774807220034,None,1,1.0022898449969944,2004.9604153920081,None,2004.9604153920081,None,2004.9604153920081,None,2004.9604153920081,None,,,,,,,,,,,,,,,,,,,,,,,,,,,,,,,,,,,,,,,,,,,,,,,,,,,,091819_p1,001,2019_Sep_18_1346,body_behavioural,3.2.1,59.77970866605155,
6,parcelated_audio/13/13_3.aiff,,0,6,6,6,,,,,0,2,2,2,,,,,,,,,,,,,,,,,,,,,,,,,,,,,,,,,,,,,,,,,,,,,,,,,,,,,,,,,,,,,,,2006.0604762962234,None,2006.0605455269979,None,9,1.4080089749768376,2014.4276943550212,None,2014.4276943550212,None,2014.4276943550212,None,2014.4276943550212,None,,,,,,,,,,,,,,,,,,,,,,,,,,,,,,,,,,,,,,,,,,,,,,,,,,,,091819_p1,001,2019_Sep_18_1346,body_behavioural,3.2.1,59.77970866605155,
6,parcelated_audio/13/13_4.aiff,,0,6,6,6,,,,,0,3,3,3,,,,,,,,,,,,,,,,,,,,,,,,,,,,,,,,,,,,,,,,,,,,,,,,,,,,,,,,,,,,,,,2015.9443178792048,None,2015.9447158650146,None,1,0.5593010100128595,2026.161792777013,None,2026.161792777013,None,2026.161792777013,None,2026.161792777013,None,,,,,,,,,,,,,,,,,,,,,,,,,,,,,,,,,,,,,,,,,,,,,,,,,,,,091819_p1,001,2019_Sep_18_1346,body_behavioural,3.2.1,59.77970866605155,
6,parcelated_audio/13/13_5.aiff,,0,6,6,6,,,,,0,4,4,4,,,,,,,,,,,,,,,,,,,,,,,,,,,,,,,,,,,,,,,,,,,,,,,,,,,,,,,,,,,,,,,2026.8122412792204,None,2026.8126644050062,None,1,2.4197104439954273,2032.8289070970204,None,2032.8289070970204,None,2032.8289070970204,None,2032.8289070970204,None,,,,,,,,,,,,,,,,,,,,,,,,,,,,,,,,,,,,,,,,,,,,,,,,,,,,091819_p1,001,2019_Sep_18_1346,body_behavioural,3.2.1,59.77970866605155,
6,parcelated_audio/13/13_6.aiff,,0,6,6,6,,,,,0,5,5,5,,,,,,,,,,,,,,,,,,,,,,,,,,,,,,,,,,,,,,,,,,,,,,,,,,,,,,,,,,,,,,,2035.346180366198,None,2035.3457602700219,None,1,1.6851372649834957,2040.0132071050175,None,2040.0132071050175,None,2040.0132071050175,None,2040.0132071050175,None,,,,,,,,,,,,,,,,,,,,,,,,,,,,,,,,,,,,,,,,,,,,,,,,,,,,091819_p1,001,2019_Sep_18_1346,body_behavioural,3.2.1,59.77970866605155,
6,parcelated_audio/13/13_7.aiff,,0,6,6,6,,,,,0,6,6,6,,,,,,,,,,,,,,,,,,,,,,,,,,,,,,,,,,,,,,,,,,,,,,,,,,,,,,,,,,,,,,,2041.79608822421,None,2041.7961975850048,None,1,0.7849583479983266,2049.4468829150137,None,2049.4468829150137,None,2049.4468829150137,None,2049.4468829150137,None,,,,,,,,,,,,,,,,,,,,,,,,,,,,,,,,,,,,,,,,,,,,,,,,,,,,091819_p1,001,2019_Sep_18_1346,body_behavioural,3.2.1,59.77970866605155,
6,parcelated_audio/13/13_8.aiff,,0,6,6,6,,,,,0,7,7,7,,,,,,,,,,,,,,,,,,,,,,,,,,,,,,,,,,,,,,,,,,,,,,,,,,,,,,,,,,,,,,,2050.330975354204,None,2050.330276004999,None,1,0.5185383350180928,2055.631198442017,None,2055.631198442017,None,2055.631198442017,None,2055.631198442017,None,,,,,,,,,,,,,,,,,,,,,,,,,,,,,,,,,,,,,,,,,,,,,,,,,,,,091819_p1,001,2019_Sep_18_1346,body_behavioural,3.2.1,59.77970866605155,
6,parcelated_audio/13/13_9.aiff,,0,6,6,6,,,,,0,8,8,8,,,,,,,,,,,,,,,,,,,,,,,,,,,,,,,,,,,,,,,,,,,,,,,,,,,,,,,,,,,,,,,2056.247262504205,None,2056.2472754670016,None,1,0.7410693170095328,2060.8159296950034,None,2060.8159296950034,None,2060.8159296950034,None,2060.8159296950034,None,,,,,,,,,,,,,,,,,,,,,,,,,,,,,,,,,,,,,,,,,,,,,,,,,,,,091819_p1,001,2019_Sep_18_1346,body_behavioural,3.2.1,59.77970866605155,
