count,audio,instructText,trials.thisRepN,trials.thisTrialN,trials.thisN,trials.thisIndex,trials_7.thisRepN,trials_7.thisTrialN,trials_7.thisN,trials_7.thisIndex,trials_2.thisRepN,trials_2.thisTrialN,trials_2.thisN,trials_2.thisIndex,trials_3.thisRepN,trials_3.thisTrialN,trials_3.thisN,trials_3.thisIndex,trials_4.thisRepN,trials_4.thisTrialN,trials_4.thisN,trials_4.thisIndex,order of stories,order of perspectives,participant 2 order - stories,participant 2 order  - schemas types,text_38.started,text_38.stopped,key_resp_8.keys,key_resp_8.rt,key_resp_8.started,key_resp_8.stopped,text_39.started,text_39.stopped,text_33.started,text_33.stopped,key_resp_5.keys,key_resp_5.rt,key_resp_5.started,key_resp_5.stopped,text_4.started,text_4.stopped,image.started,image.stopped,text_5.started,text_5.stopped,text_37.started,text_37.stopped,key_resp_7.keys,key_resp_7.rt,key_resp_7.started,key_resp_7.stopped,question1_2.started,question1_2.stopped,question2_2.started,question2_2.stopped,question3_2.started,question3_2.stopped,question4_2.started,question4_2.stopped,question5_2.started,question5_2.stopped,question6_2.started,question6_2.stopped,image_15.started,image_15.stopped,text_49.started,text_49.stopped,key_resp_15.keys,key_resp_15.rt,key_resp_15.started,key_resp_15.stopped,text_50.started,text_50.stopped,key_resp_14.keys,key_resp_14.rt,key_resp_14.started,key_resp_14.stopped,sound_1.started,sound_1.stopped,pic1.started,pic1.stopped,story_presses.keys,story_presses.rt,story_presses.started,story_presses.stopped,image_2.started,image_2.stopped,text_34.started,text_34.stopped,text_35.started,text_35.stopped,text.started,text.stopped,text_52.started,text_52.stopped,key_resp_16.keys,key_resp_16.rt,key_resp_16.started,key_resp_16.stopped,story time,text_45.started,text_45.stopped,key_resp_6.keys,key_resp_6.rt,key_resp_6.started,key_resp_6.stopped,key_resp_2.keys,key_resp_2.rt,key_resp_2.started,key_resp_2.stopped,text_6.started,text_6.stopped,text_24.started,text_24.stopped,text_41.started,text_41.stopped,key_resp_10.keys,key_resp_10.rt,key_resp_10.started,key_resp_10.stopped,text_42.started,text_42.stopped,text_51.started,text_51.stopped,text_9.started,text_9.stopped,text_10.started,text_10.stopped,image_4.started,image_4.stopped,polygon.started,polygon.stopped,bottom_line.started,bottom_line.stopped,right_line_2.started,right_line_2.stopped,left_line.started,left_line.stopped,text_48.started,text_48.stopped,recall,participant,session,date,expName,psychopyVersion,frameRate,
0,,,0,0,0,0,0,0,0,0,,,,,,,,,,,,,[32 24 31 11 43 12 23 44 21 13 34 22 33 42 14 41],"['Social' 'Location' 'Location' 'Social' 'Location' 'Location' 'Social'
 'Social' 'Location' 'Location' 'Location' 'Social' 'Social' 'Location'
 'Social' 'Social']",[21 13 34 22 33 42 14 41],"['Location' 'Location' 'Location' 'Social' 'Social' 'Location' 'Social'
 'Social']",40.98618108202936,None,space,37.74114905798342,40.98618108202936,None,40.98618108202936,None,78.77230090898229,None,space,2.2246451129904017,78.77230090898229,None,81.2730078320019,None,81.2730078320019,None,81.2730078320019,None,84.32337160903262,None,space,1.8434051250224002,84.32337160903262,None,86.49073525698623,None,86.49073525698623,None,86.49073525698623,None,86.49073525698623,None,86.49073525698623,None,86.49073525698623,None,86.49073525698623,None,,,,,,,,,,,,,,,,,,,,,,,,,,,,,,,,,,,,,,,,,,,,,,,,,,,,,,,,,,,,,,,,,,,,,,,,,,,,,092319_p1,001,2019_Sep_23_1028,body_behavioural,3.2.1,60.034142263742076,
0,,,0,0,0,0,1,0,1,0,,,,,,,,,,,,,,,,,,,,,,,,,,,,,,,95.64052074798383,None,95.64052074798383,None,95.64052074798383,None,96.35689072898822,None,space,0.5288453479879536,96.35689072898822,None,97.19104787899414,None,97.19104787899414,None,97.19104787899414,None,97.19104787899414,None,97.19104787899414,None,97.19104787899414,None,97.19104787899414,None,,,,,,,,,,,,,,,,,,,,,,,,,,,,,,,,,,,,,,,,,,,,,,,,,,,,,,,,,,,,,,,,,,,,,,,,,,,,,092319_p1,001,2019_Sep_23_1028,body_behavioural,3.2.1,60.034142263742076,
0,parcelated_audio/32/32_1.aiff,,0,0,0,0,,,,,0,0,0,0,,,,,,,,,,,,,,,,,,,,,,,,,,,120.8101090270211,None,120.8101090270211,None,120.8101090270211,None,,,,,,,,,,,,,,,,,,,,,118.29230101703433,None,space,2.449766124947928,118.29230101703433,None,122.39266764203785,None,space,5.075147767027374,122.39266764203785,None,127.64298265870893,None,127.64239990402712,None,9,4.860199870017823,138.9931684670155,None,138.9931684670155,None,138.9931684670155,None,138.9931684670155,None,,,,,,,,,,,,,,,,,,,,,,,,,,,,,,,,,,,,,,,,,,,,,,,,,,,092319_p1,001,2019_Sep_23_1028,body_behavioural,3.2.1,60.034142263742076,
0,parcelated_audio/32/32_2.aiff,,0,0,0,0,,,,,0,1,1,1,,,,,,,,,,,,,,,,,,,,,,,,,,,,,,,,,,,,,,,,,,,,,,,,,,,,,,,,,,,,,,,,,143.96048010368833,None,143.96121088700602,None,1,4.838128447008785,152.29414103698218,None,152.29414103698218,None,152.29414103698218,None,152.29414103698218,None,,,,,,,,,,,,,,,,,,,,,,,,,,,,,,,,,,,,,,,,,,,,,,,,,,,092319_p1,001,2019_Sep_23_1028,body_behavioural,3.2.1,60.034142263742076,
0,parcelated_audio/32/32_3.aiff,,0,0,0,0,,,,,0,2,2,2,,,,,,,,,,,,,,,,,,,,,,,,,,,,,,,,,,,,,,,,,,,,,,,,,,,,,,,,,,,,,,,,,157.22780905368273,None,157.22880591702415,None,1,5.572918815014418,162.7947811789927,None,162.7947811789927,None,162.7947811789927,None,162.7947811789927,None,,,,,,,,,,,,,,,,,,,,,,,,,,,,,,,,,,,,,,,,,,,,,,,,,,,092319_p1,001,2019_Sep_23_1028,body_behavioural,3.2.1,60.034142263742076,
0,parcelated_audio/32/32_4.aiff,,0,0,0,0,,,,,0,3,3,3,,,,,,,,,,,,,,,,,,,,,,,,,,,,,,,,,,,,,,,,,,,,,,,,,,,,,,,,,,,,,,,,,168.47873579368462,None,168.47872380702756,None,1,2.314886559965089,175.16333212400787,None,175.16333212400787,None,175.16333212400787,None,175.16333212400787,None,,,,,,,,,,,,,,,,,,,,,,,,,,,,,,,,,,,,,,,,,,,,,,,,,,,092319_p1,001,2019_Sep_23_1028,body_behavioural,3.2.1,60.034142263742076,
0,parcelated_audio/32/32_5.aiff,,0,0,0,0,,,,,0,4,4,4,,,,,,,,,,,,,,,,,,,,,,,,,,,,,,,,,,,,,,,,,,,,,,,,,,,,,,,,,,,,,,,,,177.56304908073508,None,177.56362216902198,None,1,3.7797842050204054,188.91342342901044,None,188.91342342901044,None,188.91342342901044,None,188.91342342901044,None,,,,,,,,,,,,,,,,,,,,,,,,,,,,,,,,,,,,,,,,,,,,,,,,,,,092319_p1,001,2019_Sep_23_1028,body_behavioural,3.2.1,60.034142263742076,
0,parcelated_audio/32/32_6.aiff,,0,0,0,0,,,,,0,5,5,5,,,,,,,,,,,,,,,,,,,,,,,,,,,,,,,,,,,,,,,,,,,,,,,,,,,,,,,,,,,,,,,,,192.78037551372546,None,192.7802075340296,None,1,2.122059924993664,201.26413850899553,None,201.26413850899553,None,201.26413850899553,None,201.26413850899553,None,,,,,,,,,,,,,,,,,,,,,,,,,,,,,,,,,,,,,,,,,,,,,,,,,,,092319_p1,001,2019_Sep_23_1028,body_behavioural,3.2.1,60.034142263742076,
0,parcelated_audio/32/32_7.aiff,,0,0,0,0,,,,,0,6,6,6,,,,,,,,,,,,,,,,,,,,,,,,,,,,,,,,,,,,,,,,,,,,,,,,,,,,,,,,,,,,,,,,,203.48168627569686,None,203.4809672870324,None,1,0.9581497649778612,206.86519320402294,None,206.86519320402294,None,206.86519320402294,None,206.86519320402294,None,,,,,,,,,,,,,,,,,,,,,,,,,,,,,,,,,,,,,,,,,,,,,,,,,,,092319_p1,001,2019_Sep_23_1028,body_behavioural,3.2.1,60.034142263742076,
0,parcelated_audio/32/32_8.aiff,,0,0,0,0,,,,,0,7,7,7,,,,,,,,,,,,,,,,,,,,,,,,,,,,,,,,,,,,,,,,,,,,,,,,,,,,,,,,,,,,,,,,,207.91522420373514,None,207.91493448900292,None,9,1.3627873600344174,212.3982484320295,None,212.3982484320295,None,212.3982484320295,None,212.3982484320295,None,,,,,,,,,,,,,,,,,,,,,,,,,,,,,,,,,,,,,,,,,,,,,,,,,,,092319_p1,001,2019_Sep_23_1028,body_behavioural,3.2.1,60.034142263742076,
0,parcelated_audio/32/32_9.aiff,,0,0,0,0,,,,,0,8,8,8,,,,,,,,,,,,,,,,,,,,,,,,,,,,,,,,,,,,,,,,,,,,,,,,,,,,,,,,,,,,,,,,,213.84932405572619,None,213.84921616700012,None,1,1.6467238600016572,222.53297668200685,None,222.53297668200685,None,222.53297668200685,None,222.53297668200685,None,,,,,,,,,,,,,,,,,,,,,,,,,,,,,,,,,,,,,,,,,,,,,,,,,,,092319_p1,001,2019_Sep_23_1028,body_behavioural,3.2.1,60.034142263742076,
0,parcelated_audio/32/32_10.aiff,,0,0,0,0,,,,,0,9,9,9,,,,,,,,,,,,,,,,,,,,,,,,,,,,,,,,,,,,,,,,,,,,,,,,,,,,,,,,,,,,,,,,,224.2823690307094,None,224.28245029202662,None,1,1.451289220014587,228.9494439639966,None,228.9494439639966,None,228.9494439639966,None,228.9494439639966,None,,,,,,,,,,,,,,,,,,,,,,,,,,,,,,,,,,,,,,,,,,,,,,,,,,,092319_p1,001,2019_Sep_23_1028,body_behavioural,3.2.1,60.034142263742076,
0,parcelated_audio/32/32_11.aiff,,0,0,0,0,,,,,0,10,10,10,,,,,,,,,,,,,,,,,,,,,,,,,,,,,,,,,,,,,,,,,,,,,,,,,,,,,,,,,,,,,,,,,230.49969419873088,None,230.50057316198945,None,1,2.255073264008388,236.56673355202656,None,236.56673355202656,None,236.56673355202656,None,236.56673355202656,None,,,,,,,,,,,,,,,,,,,,,,,,,,,,,,,,,,,,,,,,,,,,,,,,,,,092319_p1,001,2019_Sep_23_1028,body_behavioural,3.2.1,60.034142263742076,
0,parcelated_audio/32/32_12.aiff,,0,0,0,0,,,,,0,11,11,11,,,,,,,,,,,,,,,,,,,,,,,,,,,,,,,,,,,,,,,,,,,,,,,,,,,,,,,,,,,,,,,,,238.91681826371934,None,238.9177106639836,None,9,5.921268822043203,248.35153845703462,None,248.35153845703462,None,248.35153845703462,None,248.35153845703462,None,,,,,,,,,,,,,,,,,,,,,,,,,,,,,,,,,,,,,,,,,,,,,,,,,,,092319_p1,001,2019_Sep_23_1028,body_behavioural,3.2.1,60.034142263742076,
0,parcelated_audio/32/32_13.aiff,,0,0,0,0,,,,,0,12,12,12,,,,,,,,,,,,,,,,,,,,,,,,,,,,,,,,,,,,,,,,,,,,,,,,,,,,,,,,,,,,,,,,,254.3848897736869,None,254.38489596702857,None,1,1.3235500629525632,263.9852005020366,None,263.9852005020366,None,263.9852005020366,None,263.9852005020366,None,,,,,,,,,,,,,,,,,,,,,,,,,,,,,,,,,,,,,,,,,,,,,,,,,,,092319_p1,001,2019_Sep_23_1028,body_behavioural,3.2.1,60.034142263742076,
0,parcelated_audio/32/32_14.aiff,,0,0,0,0,,,,,0,13,13,13,,,,,,,,,,,,,,,,,,,,,,,,,,,,,,,,,,,,,,,,,,,,,,,,,,,,,,,,,,,,,,,,,265.4194938537083,None,265.4191990190302,None,1,0.7982737499987707,273.4858127569896,None,273.4858127569896,None,273.4858127569896,None,273.4858127569896,None,,,,,,,,,,,,,,,,,,,,,,,,,,,,,,,,,,,,,,,,,,,,,,,,,,,092319_p1,001,2019_Sep_23_1028,body_behavioural,3.2.1,60.034142263742076,
0,parcelated_audio/32/32_15.aiff,,0,0,0,0,,,,,0,14,14,14,,,,,,,,,,,,,,,,,,,,,,,,,,,,,,,,,,,,,,,,,,,,,,,,,,,,,,,,,,,,,,,,,274.3695631786948,None,274.3702904820093,None,1,0.8930167719954625,281.2196731590084,None,281.2196731590084,None,281.2196731590084,None,281.2196731590084,None,,,,,,,,,,,,,,,,,,,,,,,,,,,,,,,,,,,,,,,,,,,,,,,,,,,092319_p1,001,2019_Sep_23_1028,body_behavioural,3.2.1,60.034142263742076,
0,parcelated_audio/32/32_16.aiff,,0,0,0,0,,,,,0,15,15,15,,,,,,,,,,,,,,,,,,,,,,,,,,,,,,,,,,,,,,,,,,,,,,,,,,,,,,,,,,,,,,,,,282.2197178336908,None,282.2196929170168,None,1,0.7034390089684166,289.8380670020124,None,289.8380670020124,None,289.8380670020124,None,289.8380670020124,None,,,,,,,,,,,,,,,,,,,,,,,,,,,,,,,,,,,,,,,,,,,,,,,,,,,092319_p1,001,2019_Sep_23_1028,body_behavioural,3.2.1,60.034142263742076,
0,parcelated_audio/32/32_17.aiff,,0,0,0,0,,,,,0,16,16,16,,,,,,,,,,,,,,,,,,,,,,,,,,,,,,,,,,,,,,,,,,,,,,,,,,,,,,,,,,,,,,,,,290.6536343856831,None,290.6543911920162,None,1,1.5474867930170149,298.9208498990047,None,298.9208498990047,None,298.9208498990047,None,298.9208498990047,None,,,,,,,,,,,,,,,,,,,,,,,,,,,,,,,,,,,,,,,,,,,,,,,,,,,092319_p1,001,2019_Sep_23_1028,body_behavioural,3.2.1,60.034142263742076,
0,parcelated_audio/32/32_18.aiff,,0,0,0,0,,,,,0,17,17,17,,,,,,,,,,,,,,,,,,,,,,,,,,,,,,,,,,,,,,,,,,,,,,,,,,,,,,,,,,,,,,,,,300.55484207371484,None,300.55433593702037,None,9,14.588014195032883,304.83851949701784,None,304.83851949701784,None,304.83851949701784,None,304.83851949701784,None,,,,,,,,,,,,,,,,,,,,,,,,,,,,,,,,,,,,,,,,,,,,,,,,,,,092319_p1,001,2019_Sep_23_1028,body_behavioural,3.2.1,60.034142263742076,
0,parcelated_audio/32/32_19.aiff,,0,0,0,0,,,,,0,18,18,18,,,,,,,,,,,,,,,,,,,,,,,,,,,,,,,,,,,,,,,,,,,,,,,,,,,,,,,,,,,,,,,,,319.5389053007355,None,319.53902236401336,None,1,0.530400778981857,327.57318095403025,None,327.57318095403025,None,327.57318095403025,None,327.57318095403025,None,,,,,,,,,,,,,,,,,,,,,,,,,,,,,,,,,,,,,,,,,,,,,,,,,,,092319_p1,001,2019_Sep_23_1028,body_behavioural,3.2.1,60.034142263742076,
0,parcelated_audio/32/32_20.aiff,,0,0,0,0,,,,,0,19,19,19,,,,,,,,,,,,,,,,,,,,,,,,,,,,,,,,,,,,,,,,,,,,,,,,,,,,,,,,,,,,,,,,,328.20621112368536,None,328.2071099570021,None,1,0.8748951699817553,339.07363403902855,None,339.07363403902855,None,339.07363403902855,None,339.07363403902855,None,,,,,,,,,,,,,,,,,,,,,,,,,,,,,,,,,,,,,,,,,,,,,,,,,,,092319_p1,001,2019_Sep_23_1028,body_behavioural,3.2.1,60.034142263742076,
0,parcelated_audio/32/32_21.aiff,,0,0,0,0,,,,,0,20,20,20,,,,,,,,,,,,,,,,,,,,,,,,,,,,,,,,,,,,,,,,,,,,,,,,,,,,,,,,,,,,,,,,,340.041307053715,None,340.0415436720359,None,1,0.8784187320270576,348.8743706890382,None,348.8743706890382,None,348.8743706890382,None,348.8743706890382,None,,,,,,,,,,,,,,,,,,,,,,,,,,,,,,,,,,,,,,,,,,,,,,,,,,,092319_p1,001,2019_Sep_23_1028,body_behavioural,3.2.1,60.034142263742076,
0,parcelated_audio/32/32_22.aiff,,0,0,0,0,,,,,0,21,21,21,,,,,,,,,,,,,,,,,,,,,,,,,,,,,,,,,,,,,,,,,,,,,,,,,,,,,,,,,,,,,,,,,349.85774055368967,None,349.8577472320176,None,1,2.557864768023137,361.2084474340081,None,361.2084474340081,None,361.2084474340081,None,361.2084474340081,None,,,,,,,,,,,,,,,,,,,,,,,,,,,,,,,,,,,,,,,,,,,,,,,,,,,092319_p1,001,2019_Sep_23_1028,body_behavioural,3.2.1,60.034142263742076,
0,parcelated_audio/32/32_23.aiff,,0,0,0,0,,,,,0,22,22,22,,,,,,,,,,,,,,,,,,,,,,,,,,,,,,,,,,,,,,,,,,,,,,,,,,,,,,,,,,,,,,,,,363.89225412772504,None,363.8924648920074,None,1,0.5127852469449863,372.9425667540054,None,372.9425667540054,None,372.9425667540054,None,372.9425667540054,None,,,,,,,,,,,,,,,,,,,,,,,,,,,,,,,,,,,,,,,,,,,,,,,,,,,092319_p1,001,2019_Sep_23_1028,body_behavioural,3.2.1,60.034142263742076,
0,parcelated_audio/32/32_24.aiff,,0,0,0,0,,,,,0,23,23,23,,,,,,,,,,,,,,,,,,,,,,,,,,,,,,,,,,,,,,,,,,,,,,,,,,,,,,,,,,,,,,,,,373.5592828536872,None,373.559423624014,None,1,3.8245537729817443,384.8435152739985,None,384.8435152739985,None,384.8435152739985,None,384.8435152739985,None,,,,,,,,,,,,,,,,,,,,,,,,,,,,,,,,,,,,,,,,,,,,,,,,,,,092319_p1,001,2019_Sep_23_1028,body_behavioural,3.2.1,60.034142263742076,
0,parcelated_audio/32/32_25.aiff,,0,0,0,0,,,,,0,24,24,24,,,,,,,,,,,,,,,,,,,,,,,,,,,,,,,,,,,,,,,,,,,,,,,,,,,,,,,,,,,,,,,,,388.7779858107213,None,388.7782213190221,None,9,0.3587454800144769,394.8275141720078,None,394.8275141720078,None,394.8275141720078,None,394.8275141720078,None,,,,,,,,,,,,,,,,,,,,,,,,,,,,,,,,,,,,,,,,,,,,,,,,,,,092319_p1,001,2019_Sep_23_1028,body_behavioural,3.2.1,60.034142263742076,
0,parcelated_audio/32/32_26.aiff,,0,0,0,0,,,,,0,25,25,25,,,,,,,,,,,,,,,,,,,,,,,,,,,,,,,,,,,,,,,,,,,,,,,,,,,,,,,,,,,,,,,,,395.29458248872544,None,395.29425115702907,None,1,1.3036758279777132,406.6287475419813,None,406.6287475419813,None,406.6287475419813,None,406.6287475419813,None,,,,,,,,,,,,,,,,,,,,,,,,,,,,,,,,,,,,,,,,,,,,,,,,,,,092319_p1,001,2019_Sep_23_1028,body_behavioural,3.2.1,60.034142263742076,
0,parcelated_audio/32/32_27.aiff,,0,0,0,0,,,,,0,26,26,26,,,,,,,,,,,,,,,,,,,,,,,,,,,,,,,,,,,,,,,,,,,,,,,,,,,,,,,,,,,,,,,,,408.02917010373204,None,408.0284651989932,None,9,2.318857458012644,414.96315626899013,None,414.96315626899013,None,414.96315626899013,None,414.96315626899013,None,,,,,,,,,,,,,,,,,,,,,,,,,,,,,,,,,,,,,,,,,,,,,,,,,,,092319_p1,001,2019_Sep_23_1028,body_behavioural,3.2.1,60.034142263742076,
0,parcelated_audio/32/32_28.aiff,,0,0,0,0,,,,,0,27,27,27,,,,,,,,,,,,,,,,,,,,,,,,,,,,,,,,,,,,,,,,,,,,,,,,,,,,,,,,,,,,,,,,,417.3790695536998,None,417.37964316201396,None,1,0.6484888450358994,424.0629146519932,None,424.0629146519932,None,424.0629146519932,None,424.0629146519932,None,,,,,,,,,,,,,,,,,,,,,,,,,,,,,,,,,,,,,,,,,,,,,,,,,,,092319_p1,001,2019_Sep_23_1028,body_behavioural,3.2.1,60.034142263742076,
0,parcelated_audio/32/32_29.aiff,,0,0,0,0,,,,,0,28,28,28,,,,,,,,,,,,,,,,,,,,,,,,,,,,,,,,,,,,,,,,,,,,,,,,,,,,,,,,,,,,,,,,,424.7970096006873,None,424.79624443902867,None,1,1.5064997150329873,427.463592404034,None,427.463592404034,None,427.463592404034,None,427.463592404034,None,,,,,,,,,,,,,,,,,,,,,,,,,,,,,,,,,,,,,,,,,,,,,,,,,,,092319_p1,001,2019_Sep_23_1028,body_behavioural,3.2.1,60.034142263742076,
0,parcelated_audio/32/32_30.aiff,,0,0,0,0,,,,,0,29,29,29,,,,,,,,,,,,,,,,,,,,,,,,,,,,,,,,,,,,,,,,,,,,,,,,,,,,,,,,,,,,,,,,,429.0810300086858,None,429.0799119590083,None,1,1.8358546509989537,436.1136940169963,None,436.1136940169963,None,436.1136940169963,None,436.1136940169963,None,,,,,,,,,,,,,,,,,,,,,,,,,,,,,,,,,,,,,,,,,,,,,,,,,,,092319_p1,001,2019_Sep_23_1028,body_behavioural,3.2.1,60.034142263742076,
0,parcelated_audio/32/32_31.aiff,,0,0,0,0,,,,,0,30,30,30,,,,,,,,,,,,,,,,,,,,,,,,,,,,,,,,,,,,,,,,,,,,,,,,,,,,,,,,,,,,,,,,,438.04768182373374,None,438.0475566620007,None,1,0.6577778380014934,444.3810035440256,None,444.3810035440256,None,444.3810035440256,None,444.3810035440256,None,,,,,,,,,,,,,,,,,,,,,,,,,,,,,,,,,,,,,,,,,,,,,,,,,,,092319_p1,001,2019_Sep_23_1028,body_behavioural,3.2.1,60.034142263742076,
0,parcelated_audio/32/32_32.aiff,,0,0,0,0,,,,,0,31,31,31,,,,,,,,,,,,,,,,,,,,,,,,,,,,,,,,,,,,,,,,,,,,,,,,,,,,,,,,,,,,,,,,,445.1476354707382,None,445.14856991701527,None,1,1.5765833249897696,454.8653206889867,None,454.8653206889867,None,454.8653206889867,None,454.8653206889867,None,,,,,,,,,,,,,,,,,,,,,,,,,,,,,,,,,,,,,,,,,,,,,,,,,,,092319_p1,001,2019_Sep_23_1028,body_behavioural,3.2.1,60.034142263742076,
0,parcelated_audio/32/32_33.aiff,,0,0,0,0,,,,,0,32,32,32,,,,,,,,,,,,,,,,,,,,,,,,,,,,,,,,,,,,,,,,,,,,,,,,,,,,,,,,,,,,,,,,,456.53207266570536,None,456.5318220619811,None,1,1.267688745050691,462.2663700240082,None,462.2663700240082,None,462.2663700240082,None,462.2663700240082,None,,,,,,,,,,,,,,,,,,,,,,,,,,,,,,,,,,,,,,,,,,,,,,,,,,,092319_p1,001,2019_Sep_23_1028,body_behavioural,3.2.1,60.034142263742076,
0,,,0,0,0,0,,,,,,,,,,,,,,,,,,,,,,,,,,,,,,,,,,,,,,,,,,,,,,,,,,,,,,,,,,,,,,,,,,,,,,,,,,,,,,,,,,,,,,,463.5663585989969,None,463.5663585989969,None,space,5.646900199993979,463.5663585989969,None,,,,,,,,,,,,,,,,,,,,,,,,,,,,,,,,,,,,,,,,,,,092319_p1,001,2019_Sep_23_1028,body_behavioural,3.2.1,60.034142263742076,
1,,,0,1,1,1,0,0,0,0,,,,,,,,,,,,,,,,,469.23346745199524,None,space,1.5324329150025733,469.23346745199524,None,469.23346745199524,None,470.78356802702183,None,space,5.521356426994316,470.78356802702183,None,476.3997625220218,None,476.3997625220218,None,476.3997625220218,None,478.23317729198607,None,space,1.0623807570082135,478.23317729198607,None,479.61753695702646,None,479.61753695702646,None,479.61753695702646,None,479.61753695702646,None,479.61753695702646,None,479.61753695702646,None,479.61753695702646,None,,,,,,,,,,,,,,,,,,,,,,,,,,,,,,,,,,,,,,,,,,,,,,,,,,,,,,,,,,,,,,,,,,,,,,,,,,,,,092319_p1,001,2019_Sep_23_1028,body_behavioural,3.2.1,60.034142263742076,
1,parcelated_audio/24/24_1.aiff,,0,1,1,1,,,,,0,0,0,0,,,,,,,,,,,,,,,,,,,,,,,,,,,504.71880387701094,None,504.71880387701094,None,504.71880387701094,None,,,,,,,,,,,,,,,,,,,,,502.51886165398173,None,space,2.1214885960216634,502.51886165398173,None,506.0518055619905,None,space,1.315881829999853,506.0518055619905,None,507.51958257368534,None,507.5186655269936,None,9,1.6199877969920635,517.9364323620102,None,517.9364323620102,None,517.9364323620102,None,517.9364323620102,None,,,,,,,,,,,,,,,,,,,,,,,,,,,,,,,,,,,,,,,,,,,,,,,,,,,092319_p1,001,2019_Sep_23_1028,body_behavioural,3.2.1,60.034142263742076,
1,parcelated_audio/24/24_2.aiff,,0,1,1,1,,,,,0,1,1,1,,,,,,,,,,,,,,,,,,,,,,,,,,,,,,,,,,,,,,,,,,,,,,,,,,,,,,,,,,,,,,,,,519.6704007536871,None,519.6696606689948,None,1,3.503185025998391,525.9865091739921,None,525.9865091739921,None,525.9865091739921,None,525.9865091739921,None,,,,,,,,,,,,,,,,,,,,,,,,,,,,,,,,,,,,,,,,,,,,,,,,,,,092319_p1,001,2019_Sep_23_1028,body_behavioural,3.2.1,60.034142263742076,
1,parcelated_audio/24/24_3.aiff,,0,1,1,1,,,,,0,2,2,2,,,,,,,,,,,,,,,,,,,,,,,,,,,,,,,,,,,,,,,,,,,,,,,,,,,,,,,,,,,,,,,,,529.6034365887288,None,529.6035415169899,None,1,8.314022307982668,540.9547803089954,None,540.9547803089954,None,540.9547803089954,None,540.9547803089954,None,,,,,,,,,,,,,,,,,,,,,,,,,,,,,,,,,,,,,,,,,,,,,,,,,,,092319_p1,001,2019_Sep_23_1028,body_behavioural,3.2.1,60.034142263742076,
1,parcelated_audio/24/24_4.aiff,,0,1,1,1,,,,,0,3,3,3,,,,,,,,,,,,,,,,,,,,,,,,,,,,,,,,,,,,,,,,,,,,,,,,,,,,,,,,,,,,,,,,,549.3556955056963,None,549.3547756070038,None,1,2.5552587030106224,556.2219619069947,None,556.2219619069947,None,556.2219619069947,None,556.2219619069947,None,,,,,,,,,,,,,,,,,,,,,,,,,,,,,,,,,,,,,,,,,,,,,,,,,,,092319_p1,001,2019_Sep_23_1028,body_behavioural,3.2.1,60.034142263742076,
1,parcelated_audio/24/24_5.aiff,,0,1,1,1,,,,,0,4,4,4,,,,,,,,,,,,,,,,,,,,,,,,,,,,,,,,,,,,,,,,,,,,,,,,,,,,,,,,,,,,,,,,,558.8728846887359,None,558.8721202019951,None,1,1.7797892200178467,563.8234374470194,None,563.8234374470194,None,563.8234374470194,None,563.8234374470194,None,,,,,,,,,,,,,,,,,,,,,,,,,,,,,,,,,,,,,,,,,,,,,,,,,,,092319_p1,001,2019_Sep_23_1028,body_behavioural,3.2.1,60.034142263742076,
1,parcelated_audio/24/24_6.aiff,,0,1,1,1,,,,,0,5,5,5,,,,,,,,,,,,,,,,,,,,,,,,,,,,,,,,,,,,,,,,,,,,,,,,,,,,,,,,,,,,,,,,,565.7059062437154,None,565.7059510219842,None,9,1.0990963650401682,573.1397733340273,None,573.1397733340273,None,573.1397733340273,None,573.1397733340273,None,,,,,,,,,,,,,,,,,,,,,,,,,,,,,,,,,,,,,,,,,,,,,,,,,,,092319_p1,001,2019_Sep_23_1028,body_behavioural,3.2.1,60.034142263742076,
1,parcelated_audio/24/24_7.aiff,,0,1,1,1,,,,,0,6,6,6,,,,,,,,,,,,,,,,,,,,,,,,,,,,,,,,,,,,,,,,,,,,,,,,,,,,,,,,,,,,,,,,,574.3402450237306,None,574.339856414008,None,1,1.656528205028735,578.7077839319827,None,578.7077839319827,None,578.7077839319827,None,578.7077839319827,None,,,,,,,,,,,,,,,,,,,,,,,,,,,,,,,,,,,,,,,,,,,,,,,,,,,092319_p1,001,2019_Sep_23_1028,body_behavioural,3.2.1,60.034142263742076,
1,parcelated_audio/24/24_8.aiff,,0,1,1,1,,,,,0,7,7,7,,,,,,,,,,,,,,,,,,,,,,,,,,,,,,,,,,,,,,,,,,,,,,,,,,,,,,,,,,,,,,,,,580.4571672686841,None,580.4569307219936,None,9,5.3639504500315525,586.5083184540272,None,586.5083184540272,None,586.5083184540272,None,586.5083184540272,None,,,,,,,,,,,,,,,,,,,,,,,,,,,,,,,,,,,,,,,,,,,,,,,,,,,092319_p1,001,2019_Sep_23_1028,body_behavioural,3.2.1,60.034142263742076,
1,parcelated_audio/24/24_9.aiff,,0,1,1,1,,,,,0,8,8,8,,,,,,,,,,,,,,,,,,,,,,,,,,,,,,,,,,,,,,,,,,,,,,,,,,,,,,,,,,,,,,,,,591.9578877437277,None,591.9577837620163,None,1,0.5129406570340507,596.2914184519905,None,596.2914184519905,None,596.2914184519905,None,596.2914184519905,None,,,,,,,,,,,,,,,,,,,,,,,,,,,,,,,,,,,,,,,,,,,,,,,,,,,092319_p1,001,2019_Sep_23_1028,body_behavioural,3.2.1,60.034142263742076,
1,parcelated_audio/24/24_10.aiff,,0,1,1,1,,,,,0,9,9,9,,,,,,,,,,,,,,,,,,,,,,,,,,,,,,,,,,,,,,,,,,,,,,,,,,,,,,,,,,,,,,,,,596.8752341637271,None,596.8747205639957,None,1,1.3662554569891654,600.6089475190383,None,600.6089475190383,None,600.6089475190383,None,600.6089475190383,None,,,,,,,,,,,,,,,,,,,,,,,,,,,,,,,,,,,,,,,,,,,,,,,,,,,092319_p1,001,2019_Sep_23_1028,body_behavioural,3.2.1,60.034142263742076,
1,parcelated_audio/24/24_11.aiff,,0,1,1,1,,,,,0,10,10,10,,,,,,,,,,,,,,,,,,,,,,,,,,,,,,,,,,,,,,,,,,,,,,,,,,,,,,,,,,,,,,,,,602.0586941837216,None,602.0584378890344,None,1,0.6733943600556813,612.1591199940303,None,612.1591199940303,None,612.1591199940303,None,612.1591199940303,None,,,,,,,,,,,,,,,,,,,,,,,,,,,,,,,,,,,,,,,,,,,,,,,,,,,092319_p1,001,2019_Sep_23_1028,body_behavioural,3.2.1,60.034142263742076,
1,parcelated_audio/24/24_12.aiff,,0,1,1,1,,,,,0,11,11,11,,,,,,,,,,,,,,,,,,,,,,,,,,,,,,,,,,,,,,,,,,,,,,,,,,,,,,,,,,,,,,,,,612.9263873607385,None,612.925815974013,None,1,13.586447828973178,622.0098601619829,None,622.0098601619829,None,622.0098601619829,None,622.0098601619829,None,,,,,,,,,,,,,,,,,,,,,,,,,,,,,,,,,,,,,,,,,,,,,,,,,,,092319_p1,001,2019_Sep_23_1028,body_behavioural,3.2.1,60.034142263742076,
1,parcelated_audio/24/24_13.aiff,,0,1,1,1,,,,,0,12,12,12,,,,,,,,,,,,,,,,,,,,,,,,,,,,,,,,,,,,,,,,,,,,,,,,,,,,,,,,,,,,,,,,,635.6940881887101,None,635.6941378969932,None,1,1.7030711880070157,639.6617438020185,None,639.6617438020185,None,639.6617438020185,None,639.6617438020185,None,,,,,,,,,,,,,,,,,,,,,,,,,,,,,,,,,,,,,,,,,,,,,,,,,,,092319_p1,001,2019_Sep_23_1028,body_behavioural,3.2.1,60.034142263742076,
1,parcelated_audio/24/24_14.aiff,,0,1,1,1,,,,,0,13,13,13,,,,,,,,,,,,,,,,,,,,,,,,,,,,,,,,,,,,,,,,,,,,,,,,,,,,,,,,,,,,,,,,,641.4617551636882,None,641.4613173769903,None,1,2.5872448979644105,648.8283523719874,None,648.8283523719874,None,648.8283523719874,None,648.8283523719874,None,,,,,,,,,,,,,,,,,,,,,,,,,,,,,,,,,,,,,,,,,,,,,,,,,,,092319_p1,001,2019_Sep_23_1028,body_behavioural,3.2.1,60.034142263742076,
1,parcelated_audio/24/24_15.aiff,,0,1,1,1,,,,,0,14,14,14,,,,,,,,,,,,,,,,,,,,,,,,,,,,,,,,,,,,,,,,,,,,,,,,,,,,,,,,,,,,,,,,,651.512555518723,None,651.5122616440058,None,1,0.34655529499286786,658.0297406369937,None,658.0297406369937,None,658.0297406369937,None,658.0297406369937,None,,,,,,,,,,,,,,,,,,,,,,,,,,,,,,,,,,,,,,,,,,,,,,,,,,,092319_p1,001,2019_Sep_23_1028,body_behavioural,3.2.1,60.034142263742076,
1,parcelated_audio/24/24_16.aiff,,0,1,1,1,,,,,0,15,15,15,,,,,,,,,,,,,,,,,,,,,,,,,,,,,,,,,,,,,,,,,,,,,,,,,,,,,,,,,,,,,,,,,658.4630538307363,None,658.4623709070147,None,1,15.623912137991283,665.6461788419983,None,665.6461788419983,None,665.6461788419983,None,665.6461788419983,None,,,,,,,,,,,,,,,,,,,,,,,,,,,,,,,,,,,,,,,,,,,,,,,,,,,092319_p1,001,2019_Sep_23_1028,body_behavioural,3.2.1,60.034142263742076,
1,parcelated_audio/24/24_17.aiff,,0,1,1,1,,,,,0,16,16,16,,,,,,,,,,,,,,,,,,,,,,,,,,,,,,,,,,,,,,,,,,,,,,,,,,,,,,,,,,,,,,,,,681.3638945057289,None,681.3639640370384,None,1,0.30502624198561534,687.3473878320074,None,687.3473878320074,None,687.3473878320074,None,687.3473878320074,None,,,,,,,,,,,,,,,,,,,,,,,,,,,,,,,,,,,,,,,,,,,,,,,,,,,092319_p1,001,2019_Sep_23_1028,body_behavioural,3.2.1,60.034142263742076,
1,parcelated_audio/24/24_18.aiff,,0,1,1,1,,,,,0,17,17,17,,,,,,,,,,,,,,,,,,,,,,,,,,,,,,,,,,,,,,,,,,,,,,,,,,,,,,,,,,,,,,,,,687.7812657957081,None,687.7818642589846,None,1,0.3048022470320575,696.2150205670041,None,696.2150205670041,None,696.2150205670041,None,696.2150205670041,None,,,,,,,,,,,,,,,,,,,,,,,,,,,,,,,,,,,,,,,,,,,,,,,,,,,092319_p1,001,2019_Sep_23_1028,body_behavioural,3.2.1,60.034142263742076,
1,parcelated_audio/24/24_19.aiff,,0,1,1,1,,,,,0,18,18,18,,,,,,,,,,,,,,,,,,,,,,,,,,,,,,,,,,,,,,,,,,,,,,,,,,,,,,,,,,,,,,,,,696.6325159107334,None,696.6318539640051,None,1,0.257920942036435,706.2657447039965,None,706.2657447039965,None,706.2657447039965,None,706.2657447039965,None,,,,,,,,,,,,,,,,,,,,,,,,,,,,,,,,,,,,,,,,,,,,,,,,,,,092319_p1,001,2019_Sep_23_1028,body_behavioural,3.2.1,60.034142263742076,
1,parcelated_audio/24/24_20.aiff,,0,1,1,1,,,,,0,19,19,19,,,,,,,,,,,,,,,,,,,,,,,,,,,,,,,,,,,,,,,,,,,,,,,,,,,,,,,,,,,,,,,,,706.6156144917011,None,706.6163975939853,None,1,0.3408865099772811,711.082604559022,None,711.082604559022,None,711.082604559022,None,711.082604559022,None,,,,,,,,,,,,,,,,,,,,,,,,,,,,,,,,,,,,,,,,,,,,,,,,,,,092319_p1,001,2019_Sep_23_1028,body_behavioural,3.2.1,60.034142263742076,
1,parcelated_audio/24/24_21.aiff,,0,1,1,1,,,,,0,20,20,20,,,,,,,,,,,,,,,,,,,,,,,,,,,,,,,,,,,,,,,,,,,,,,,,,,,,,,,,,,,,,,,,,711.5336137986858,None,711.5332897870103,None,9,0.2799195399857126,719.518044158991,None,719.518044158991,None,719.518044158991,None,719.518044158991,None,,,,,,,,,,,,,,,,,,,,,,,,,,,,,,,,,,,,,,,,,,,,,,,,,,,092319_p1,001,2019_Sep_23_1028,body_behavioural,3.2.1,60.034142263742076,
1,parcelated_audio/24/24_22.aiff,,0,1,1,1,,,,,0,21,21,21,,,,,,,,,,,,,,,,,,,,,,,,,,,,,,,,,,,,,,,,,,,,,,,,,,,,,,,,,,,,,,,,,719.9004494837252,None,719.8999218620011,None,1,0.40616025298368186,730.3506542519899,None,730.3506542519899,None,730.3506542519899,None,730.3506542519899,None,,,,,,,,,,,,,,,,,,,,,,,,,,,,,,,,,,,,,,,,,,,,,,,,,,,092319_p1,001,2019_Sep_23_1028,body_behavioural,3.2.1,60.034142263742076,
1,parcelated_audio/24/24_23.aiff,,0,1,1,1,,,,,0,22,22,22,,,,,,,,,,,,,,,,,,,,,,,,,,,,,,,,,,,,,,,,,,,,,,,,,,,,,,,,,,,,,,,,,730.8514641337213,None,730.8515412120032,None,1,0.3445974980131723,741.0347368590301,None,741.0347368590301,None,741.0347368590301,None,741.0347368590301,None,,,,,,,,,,,,,,,,,,,,,,,,,,,,,,,,,,,,,,,,,,,,,,,,,,,092319_p1,001,2019_Sep_23_1028,body_behavioural,3.2.1,60.034142263742076,
1,parcelated_audio/24/24_24.aiff,,0,1,1,1,,,,,0,23,23,23,,,,,,,,,,,,,,,,,,,,,,,,,,,,,,,,,,,,,,,,,,,,,,,,,,,,,,,,,,,,,,,,,741.4849515787325,None,741.4848291020025,None,1,0.7718342379666865,748.0201631020172,None,748.0201631020172,None,748.0201631020172,None,748.0201631020172,None,,,,,,,,,,,,,,,,,,,,,,,,,,,,,,,,,,,,,,,,,,,,,,,,,,,092319_p1,001,2019_Sep_23_1028,body_behavioural,3.2.1,60.034142263742076,
1,parcelated_audio/24/24_25.aiff,,0,1,1,1,,,,,0,24,24,24,,,,,,,,,,,,,,,,,,,,,,,,,,,,,,,,,,,,,,,,,,,,,,,,,,,,,,,,,,,,,,,,,748.9028855186887,None,748.9031532070367,None,1,1.2351607619784772,757.6202297119889,None,757.6202297119889,None,757.6202297119889,None,757.6202297119889,None,,,,,,,,,,,,,,,,,,,,,,,,,,,,,,,,,,,,,,,,,,,,,,,,,,,092319_p1,001,2019_Sep_23_1028,body_behavioural,3.2.1,60.034142263742076,
1,parcelated_audio/24/24_26.aiff,,0,1,1,1,,,,,0,25,25,25,,,,,,,,,,,,,,,,,,,,,,,,,,,,,,,,,,,,,,,,,,,,,,,,,,,,,,,,,,,,,,,,,758.9692293056985,None,758.9695060690283,None,1,0.4123929269844666,765.5198824320105,None,765.5198824320105,None,765.5198824320105,None,765.5198824320105,None,,,,,,,,,,,,,,,,,,,,,,,,,,,,,,,,,,,,,,,,,,,,,,,,,,,092319_p1,001,2019_Sep_23_1028,body_behavioural,3.2.1,60.034142263742076,
1,parcelated_audio/24/24_27.aiff,,0,1,1,1,,,,,0,26,26,26,,,,,,,,,,,,,,,,,,,,,,,,,,,,,,,,,,,,,,,,,,,,,,,,,,,,,,,,,,,,,,,,,766.0201010637218,None,766.0200189169846,None,1,0.4420590930385515,772.070215173997,None,772.070215173997,None,772.070215173997,None,772.070215173997,None,,,,,,,,,,,,,,,,,,,,,,,,,,,,,,,,,,,,,,,,,,,,,,,,,,,092319_p1,001,2019_Sep_23_1028,body_behavioural,3.2.1,60.034142263742076,
1,parcelated_audio/24/24_28.aiff,,0,1,1,1,,,,,0,27,27,27,,,,,,,,,,,,,,,,,,,,,,,,,,,,,,,,,,,,,,,,,,,,,,,,,,,,,,,,,,,,,,,,,772.6202228007139,None,772.620210619003,None,1,0.39823847002116963,777.1043382390053,None,777.1043382390053,None,777.1043382390053,None,777.1043382390053,None,,,,,,,,,,,,,,,,,,,,,,,,,,,,,,,,,,,,,,,,,,,,,,,,,,,092319_p1,001,2019_Sep_23_1028,body_behavioural,3.2.1,60.034142263742076,
1,parcelated_audio/24/24_29.aiff,,0,1,1,1,,,,,0,28,28,28,,,,,,,,,,,,,,,,,,,,,,,,,,,,,,,,,,,,,,,,,,,,,,,,,,,,,,,,,,,,,,,,,777.5873621757025,None,777.5873099470045,None,1,1.9549004100263119,783.8553822870017,None,783.8553822870017,None,783.8553822870017,None,783.8553822870017,None,,,,,,,,,,,,,,,,,,,,,,,,,,,,,,,,,,,,,,,,,,,,,,,,,,,092319_p1,001,2019_Sep_23_1028,body_behavioural,3.2.1,60.034142263742076,
1,parcelated_audio/24/24_30.aiff,,0,1,1,1,,,,,0,29,29,29,,,,,,,,,,,,,,,,,,,,,,,,,,,,,,,,,,,,,,,,,,,,,,,,,,,,,,,,,,,,,,,,,785.904539100721,None,785.9046864770353,None,9,2.735612210002728,792.1715149939992,None,792.1715149939992,None,792.1715149939992,None,792.1715149939992,None,,,,,,,,,,,,,,,,,,,,,,,,,,,,,,,,,,,,,,,,,,,,,,,,,,,092319_p1,001,2019_Sep_23_1028,body_behavioural,3.2.1,60.034142263742076,
1,parcelated_audio/24/24_31.aiff,,0,1,1,1,,,,,0,30,30,30,,,,,,,,,,,,,,,,,,,,,,,,,,,,,,,,,,,,,,,,,,,,,,,,,,,,,,,,,,,,,,,,,795.0054541907273,None,795.0054697470041,None,1,0.4505833279690705,801.6727579790168,None,801.6727579790168,None,801.6727579790168,None,801.6727579790168,None,,,,,,,,,,,,,,,,,,,,,,,,,,,,,,,,,,,,,,,,,,,,,,,,,,,092319_p1,001,2019_Sep_23_1028,body_behavioural,3.2.1,60.034142263742076,
1,parcelated_audio/24/24_32.aiff,,0,1,1,1,,,,,0,31,31,31,,,,,,,,,,,,,,,,,,,,,,,,,,,,,,,,,,,,,,,,,,,,,,,,,,,,,,,,,,,,,,,,,802.2399040887365,None,802.2390393670066,None,1,0.4961000169860199,813.0230859370204,None,813.0230859370204,None,813.0230859370204,None,813.0230859370204,None,,,,,,,,,,,,,,,,,,,,,,,,,,,,,,,,,,,,,,,,,,,,,,,,,,,092319_p1,001,2019_Sep_23_1028,body_behavioural,3.2.1,60.034142263742076,
1,,,0,1,1,1,,,,,,,,,,,,,,,,,,,,,,,,,,,,,,,,,,,,,,,,,,,,,,,,,,,,,,,,,,,,,,,,,,,,,,,,,,,,,,,,,,,,,,,813.5404431340285,None,813.5404431340285,None,space,1.8854285300476477,813.5404431340285,None,,,,,,,,,,,,,,,,,,,,,,,,,,,,,,,,,,,,,,,,,,,092319_p1,001,2019_Sep_23_1028,body_behavioural,3.2.1,60.034142263742076,
2,,,0,2,2,2,0,0,0,0,,,,,,,,,,,,,,,,,815.4564771470032,None,space,0.9315535849891603,815.4564771470032,None,815.4564771470032,None,816.4066215570201,None,space,0.9771339980070479,816.4066215570201,None,817.4740594390314,None,817.4740594390314,None,817.4740594390314,None,819.0734233839903,None,space,1.5202115700230934,819.0734233839903,None,820.8906867569895,None,820.8906867569895,None,820.8906867569895,None,820.8906867569895,None,820.8906867569895,None,820.8906867569895,None,820.8906867569895,None,,,,,,,,,,,,,,,,,,,,,,,,,,,,,,,,,,,,,,,,,,,,,,,,,,,,,,,,,,,,,,,,,,,,,,,,,,,,,092319_p1,001,2019_Sep_23_1028,body_behavioural,3.2.1,60.034142263742076,
2,,,0,2,2,2,1,0,1,0,,,,,,,,,,,,,,,,,,,,,,,,,,,,,,,836.0747889489867,None,836.0747889489867,None,836.0747889489867,None,836.5750534739927,None,space,0.33810470695607364,836.5750534739927,None,837.2423130520037,None,837.2423130520037,None,837.2423130520037,None,837.2423130520037,None,837.2423130520037,None,837.2423130520037,None,837.2423130520037,None,,,,,,,,,,,,,,,,,,,,,,,,,,,,,,,,,,,,,,,,,,,,,,,,,,,,,,,,,,,,,,,,,,,,,,,,,,,,,092319_p1,001,2019_Sep_23_1028,body_behavioural,3.2.1,60.034142263742076,
2,parcelated_audio/31/31_1.aiff,,0,2,2,2,,,,,0,0,0,0,,,,,,,,,,,,,,,,,,,,,,,,,,,854.1103396569961,None,854.1103396569961,None,854.1103396569961,None,,,,,,,,,,,,,,,,,,,,,852.2597326770192,None,space,1.771900964959059,852.2597326770192,None,858.9602480190224,None,space,1.208249245013576,858.9602480190224,None,860.3105046607204,None,860.3096535520162,None,9,1.403881773003377,868.9769736939925,None,868.9769736939925,None,868.9769736939925,None,868.9769736939925,None,,,,,,,,,,,,,,,,,,,,,,,,,,,,,,,,,,,,,,,,,,,,,,,,,,,092319_p1,001,2019_Sep_23_1028,body_behavioural,3.2.1,60.034142263742076,
2,parcelated_audio/31/31_2.aiff,,0,2,2,2,,,,,0,1,1,1,,,,,,,,,,,,,,,,,,,,,,,,,,,,,,,,,,,,,,,,,,,,,,,,,,,,,,,,,,,,,,,,,870.4780045757186,None,870.4771690820344,None,1,3.623940492980182,874.9285328540136,None,874.9285328540136,None,874.9285328540136,None,874.9285328540136,None,,,,,,,,,,,,,,,,,,,,,,,,,,,,,,,,,,,,,,,,,,,,,,,,,,,092319_p1,001,2019_Sep_23_1028,body_behavioural,3.2.1,60.034142263742076,
2,parcelated_audio/31/31_3.aiff,,0,2,2,2,,,,,0,2,2,2,,,,,,,,,,,,,,,,,,,,,,,,,,,,,,,,,,,,,,,,,,,,,,,,,,,,,,,,,,,,,,,,,878.6441747536999,None,878.6449599670013,None,1,0.9372198900091462,886.9294837519992,None,886.9294837519992,None,886.9294837519992,None,886.9294837519992,None,,,,,,,,,,,,,,,,,,,,,,,,,,,,,,,,,,,,,,,,,,,,,,,,,,,092319_p1,001,2019_Sep_23_1028,body_behavioural,3.2.1,60.034142263742076,
2,parcelated_audio/31/31_4.aiff,,0,2,2,2,,,,,0,3,3,3,,,,,,,,,,,,,,,,,,,,,,,,,,,,,,,,,,,,,,,,,,,,,,,,,,,,,,,,,,,,,,,,,887.9782057806849,None,887.9783398819854,None,1,1.1011112880078144,898.0122520320001,None,898.0122520320001,None,898.0122520320001,None,898.0122520320001,None,,,,,,,,,,,,,,,,,,,,,,,,,,,,,,,,,,,,,,,,,,,,,,,,,,,092319_p1,001,2019_Sep_23_1028,body_behavioural,3.2.1,60.034142263742076,
2,parcelated_audio/31/31_5.aiff,,0,2,2,2,,,,,0,4,4,4,,,,,,,,,,,,,,,,,,,,,,,,,,,,,,,,,,,,,,,,,,,,,,,,,,,,,,,,,,,,,,,,,899.2292970836977,None,899.2301485839998,None,1,0.4489726070314646,910.3463824869832,None,910.3463824869832,None,910.3463824869832,None,910.3463824869832,None,,,,,,,,,,,,,,,,,,,,,,,,,,,,,,,,,,,,,,,,,,,,,,,,,,,092319_p1,001,2019_Sep_23_1028,body_behavioural,3.2.1,60.034142263742076,
2,parcelated_audio/31/31_6.aiff,,0,2,2,2,,,,,0,5,5,5,,,,,,,,,,,,,,,,,,,,,,,,,,,,,,,,,,,,,,,,,,,,,,,,,,,,,,,,,,,,,,,,,910.8968555686995,None,910.8967140120221,None,9,0.43524393503321335,916.1975860770326,None,916.1975860770326,None,916.1975860770326,None,916.1975860770326,None,,,,,,,,,,,,,,,,,,,,,,,,,,,,,,,,,,,,,,,,,,,,,,,,,,,092319_p1,001,2019_Sep_23_1028,body_behavioural,3.2.1,60.034142263742076,
2,parcelated_audio/31/31_7.aiff,,0,2,2,2,,,,,0,6,6,6,,,,,,,,,,,,,,,,,,,,,,,,,,,,,,,,,,,,,,,,,,,,,,,,,,,,,,,,,,,,,,,,,916.7310227637179,None,916.7304474019911,None,1,0.5359779950231314,921.5639494220377,None,921.5639494220377,None,921.5639494220377,None,921.5639494220377,None,,,,,,,,,,,,,,,,,,,,,,,,,,,,,,,,,,,,,,,,,,,,,,,,,,,092319_p1,001,2019_Sep_23_1028,body_behavioural,3.2.1,60.034142263742076,
2,parcelated_audio/31/31_8.aiff,,0,2,2,2,,,,,0,7,7,7,,,,,,,,,,,,,,,,,,,,,,,,,,,,,,,,,,,,,,,,,,,,,,,,,,,,,,,,,,,,,,,,,922.2138607087079,None,922.213965117,None,1,0.9673725499887951,930.6478196490207,None,930.6478196490207,None,930.6478196490207,None,930.6478196490207,None,,,,,,,,,,,,,,,,,,,,,,,,,,,,,,,,,,,,,,,,,,,,,,,,,,,092319_p1,001,2019_Sep_23_1028,body_behavioural,3.2.1,60.034142263742076,
2,parcelated_audio/31/31_9.aiff,,0,2,2,2,,,,,0,8,8,8,,,,,,,,,,,,,,,,,,,,,,,,,,,,,,,,,,,,,,,,,,,,,,,,,,,,,,,,,,,,,,,,,931.7151534757111,None,931.714523327013,None,1,4.704096565023065,936.7660531239817,None,936.7660531239817,None,936.7660531239817,None,936.7660531239817,None,,,,,,,,,,,,,,,,,,,,,,,,,,,,,,,,,,,,,,,,,,,,,,,,,,,092319_p1,001,2019_Sep_23_1028,body_behavioural,3.2.1,60.034142263742076,
2,parcelated_audio/31/31_10.aiff,,0,2,2,2,,,,,0,9,9,9,,,,,,,,,,,,,,,,,,,,,,,,,,,,,,,,,,,,,,,,,,,,,,,,,,,,,,,,,,,,,,,,,941.5651646987069,None,941.5661058989936,None,9,0.5241083500441164,947.0656446570065,None,947.0656446570065,None,947.0656446570065,None,947.0656446570065,None,,,,,,,,,,,,,,,,,,,,,,,,,,,,,,,,,,,,,,,,,,,,,,,,,,,092319_p1,001,2019_Sep_23_1028,body_behavioural,3.2.1,60.034142263742076,
2,parcelated_audio/31/31_11.aiff,,0,2,2,2,,,,,0,10,10,10,,,,,,,,,,,,,,,,,,,,,,,,,,,,,,,,,,,,,,,,,,,,,,,,,,,,,,,,,,,,,,,,,947.6998040637234,None,947.699769777013,None,1,5.679474909964483,957.9163624240318,None,957.9163624240318,None,957.9163624240318,None,957.9163624240318,None,,,,,,,,,,,,,,,,,,,,,,,,,,,,,,,,,,,,,,,,,,,,,,,,,,,092319_p1,001,2019_Sep_23_1028,body_behavioural,3.2.1,60.034142263742076,
2,parcelated_audio/31/31_12.aiff,,0,2,2,2,,,,,0,11,11,11,,,,,,,,,,,,,,,,,,,,,,,,,,,,,,,,,,,,,,,,,,,,,,,,,,,,,,,,,,,,,,,,,963.6998855206882,None,963.699726256018,None,1,1.5555947629618458,968.4837833089987,None,968.4837833089987,None,968.4837833089987,None,968.4837833089987,None,,,,,,,,,,,,,,,,,,,,,,,,,,,,,,,,,,,,,,,,,,,,,,,,,,,092319_p1,001,2019_Sep_23_1028,body_behavioural,3.2.1,60.034142263742076,
2,parcelated_audio/31/31_13.aiff,,0,2,2,2,,,,,0,12,12,12,,,,,,,,,,,,,,,,,,,,,,,,,,,,,,,,,,,,,,,,,,,,,,,,,,,,,,,,,,,,,,,,,970.1350008507259,None,970.1339022520115,None,1,0.7370049690362066,977.4508800070034,None,977.4508800070034,None,977.4508800070034,None,977.4508800070034,None,,,,,,,,,,,,,,,,,,,,,,,,,,,,,,,,,,,,,,,,,,,,,,,,,,,092319_p1,001,2019_Sep_23_1028,body_behavioural,3.2.1,60.034142263742076,
2,parcelated_audio/31/31_14.aiff,,0,2,2,2,,,,,0,13,13,13,,,,,,,,,,,,,,,,,,,,,,,,,,,,,,,,,,,,,,,,,,,,,,,,,,,,,,,,,,,,,,,,,978.3022090987185,None,978.3019851489807,None,1,0.7737009669654071,984.4181355640176,None,984.4181355640176,None,984.4181355640176,None,984.4181355640176,None,,,,,,,,,,,,,,,,,,,,,,,,,,,,,,,,,,,,,,,,,,,,,,,,,,,092319_p1,001,2019_Sep_23_1028,body_behavioural,3.2.1,60.034142263742076,
2,parcelated_audio/31/31_15.aiff,,0,2,2,2,,,,,0,14,14,14,,,,,,,,,,,,,,,,,,,,,,,,,,,,,,,,,,,,,,,,,,,,,,,,,,,,,,,,,,,,,,,,,985.2854445107048,None,985.2849815569934,None,1,3.4393309130100533,991.9687205340015,None,991.9687205340015,None,991.9687205340015,None,991.9687205340015,None,,,,,,,,,,,,,,,,,,,,,,,,,,,,,,,,,,,,,,,,,,,,,,,,,,,092319_p1,001,2019_Sep_23_1028,body_behavioural,3.2.1,60.034142263742076,
2,parcelated_audio/31/31_16.aiff,,0,2,2,2,,,,,0,15,15,15,,,,,,,,,,,,,,,,,,,,,,,,,,,,,,,,,,,,,,,,,,,,,,,,,,,,,,,,,,,,,,,,,995.5022825757158,None,995.502343909,None,1,3.643695984967053,1001.9200606690138,None,1001.9200606690138,None,1001.9200606690138,None,1001.9200606690138,None,,,,,,,,,,,,,,,,,,,,,,,,,,,,,,,,,,,,,,,,,,,,,,,,,,,092319_p1,001,2019_Sep_23_1028,body_behavioural,3.2.1,60.034142263742076,
2,parcelated_audio/31/31_17.aiff,,0,2,2,2,,,,,0,16,16,16,,,,,,,,,,,,,,,,,,,,,,,,,,,,,,,,,,,,,,,,,,,,,,,,,,,,,,,,,,,,,,,,,1005.6538878897088,None,1005.6539340220043,None,1,0.3199480999610387,1009.086585588986,None,1009.086585588986,None,1009.086585588986,None,1009.086585588986,None,,,,,,,,,,,,,,,,,,,,,,,,,,,,,,,,,,,,,,,,,,,,,,,,,,,092319_p1,001,2019_Sep_23_1028,body_behavioural,3.2.1,60.034142263742076,
2,parcelated_audio/31/31_18.aiff,,0,2,2,2,,,,,0,17,17,17,,,,,,,,,,,,,,,,,,,,,,,,,,,,,,,,,,,,,,,,,,,,,,,,,,,,,,,,,,,,,,,,,1009.5033975637168,None,1009.5042777369963,None,9,0.46246432000771165,1014.1045701770345,None,1014.1045701770345,None,1014.1045701770345,None,1014.1045701770345,None,,,,,,,,,,,,,,,,,,,,,,,,,,,,,,,,,,,,,,,,,,,,,,,,,,,092319_p1,001,2019_Sep_23_1028,body_behavioural,3.2.1,60.034142263742076,
2,parcelated_audio/31/31_19.aiff,,0,2,2,2,,,,,0,18,18,18,,,,,,,,,,,,,,,,,,,,,,,,,,,,,,,,,,,,,,,,,,,,,,,,,,,,,,,,,,,,,,,,,1014.6539561197394,None,1014.653531724005,None,1,0.5511490769567899,1022.8375445639831,None,1022.8375445639831,None,1022.8375445639831,None,1022.8375445639831,None,,,,,,,,,,,,,,,,,,,,,,,,,,,,,,,,,,,,,,,,,,,,,,,,,,,092319_p1,001,2019_Sep_23_1028,body_behavioural,3.2.1,60.034142263742076,
2,parcelated_audio/31/31_20.aiff,,0,2,2,2,,,,,0,19,19,19,,,,,,,,,,,,,,,,,,,,,,,,,,,,,,,,,,,,,,,,,,,,,,,,,,,,,,,,,,,,,,,,,1023.5041848337394,None,1023.5045376039925,None,9,2.1345490970415995,1034.8561770489905,None,1034.8561770489905,None,1034.8561770489905,None,1034.8561770489905,None,,,,,,,,,,,,,,,,,,,,,,,,,,,,,,,,,,,,,,,,,,,,,,,,,,,092319_p1,001,2019_Sep_23_1028,body_behavioural,3.2.1,60.034142263742076,
2,parcelated_audio/31/31_21.aiff,,0,2,2,2,,,,,0,20,20,20,,,,,,,,,,,,,,,,,,,,,,,,,,,,,,,,,,,,,,,,,,,,,,,,,,,,,,,,,,,,,,,,,1037.0891296737361,None,1037.0885234440211,None,1,0.4099601770285517,1047.3391546939965,None,1047.3391546939965,None,1047.3391546939965,None,1047.3391546939965,None,,,,,,,,,,,,,,,,,,,,,,,,,,,,,,,,,,,,,,,,,,,,,,,,,,,092319_p1,001,2019_Sep_23_1028,body_behavioural,3.2.1,60.034142263742076,
2,parcelated_audio/31/31_22.aiff,,0,2,2,2,,,,,0,21,21,21,,,,,,,,,,,,,,,,,,,,,,,,,,,,,,,,,,,,,,,,,,,,,,,,,,,,,,,,,,,,,,,,,1047.8401060206932,None,1047.8403472140199,None,1,0.38586545299040154,1053.5562587539898,None,1053.5562587539898,None,1053.5562587539898,None,1053.5562587539898,None,,,,,,,,,,,,,,,,,,,,,,,,,,,,,,,,,,,,,,,,,,,,,,,,,,,092319_p1,001,2019_Sep_23_1028,body_behavioural,3.2.1,60.034142263742076,
2,parcelated_audio/31/31_23.aiff,,0,2,2,2,,,,,0,22,22,22,,,,,,,,,,,,,,,,,,,,,,,,,,,,,,,,,,,,,,,,,,,,,,,,,,,,,,,,,,,,,,,,,1054.040527633694,None,1054.0396706940373,None,9,5.108181394985877,1058.6232412070385,None,1058.6232412070385,None,1058.6232412070385,None,1058.6232412070385,None,,,,,,,,,,,,,,,,,,,,,,,,,,,,,,,,,,,,,,,,,,,,,,,,,,,092319_p1,001,2019_Sep_23_1028,body_behavioural,3.2.1,60.034142263742076,
2,parcelated_audio/31/31_24.aiff,,0,2,2,2,,,,,0,23,23,23,,,,,,,,,,,,,,,,,,,,,,,,,,,,,,,,,,,,,,,,,,,,,,,,,,,,,,,,,,,,,,,,,1063.8244277287274,None,1063.8244004590088,None,1,0.6840486099827103,1070.6907631070353,None,1070.6907631070353,None,1070.6907631070353,None,1070.6907631070353,None,,,,,,,,,,,,,,,,,,,,,,,,,,,,,,,,,,,,,,,,,,,,,,,,,,,092319_p1,001,2019_Sep_23_1028,body_behavioural,3.2.1,60.034142263742076,
2,parcelated_audio/31/31_25.aiff,,0,2,2,2,,,,,0,24,24,24,,,,,,,,,,,,,,,,,,,,,,,,,,,,,,,,,,,,,,,,,,,,,,,,,,,,,,,,,,,,,,,,,1071.4748663306934,None,1071.4752010490047,None,1,0.5955801480449736,1082.8248808869976,None,1082.8248808869976,None,1082.8248808869976,None,1082.8248808869976,None,,,,,,,,,,,,,,,,,,,,,,,,,,,,,,,,,,,,,,,,,,,,,,,,,,,092319_p1,001,2019_Sep_23_1028,body_behavioural,3.2.1,60.034142263742076,
2,parcelated_audio/31/31_26.aiff,,0,2,2,2,,,,,0,25,25,25,,,,,,,,,,,,,,,,,,,,,,,,,,,,,,,,,,,,,,,,,,,,,,,,,,,,,,,,,,,,,,,,,1083.5081916037132,None,1083.5092389989877,None,1,0.4025111770024523,1091.0255843669875,None,1091.0255843669875,None,1091.0255843669875,None,1091.0255843669875,None,,,,,,,,,,,,,,,,,,,,,,,,,,,,,,,,,,,,,,,,,,,,,,,,,,,092319_p1,001,2019_Sep_23_1028,body_behavioural,3.2.1,60.034142263742076,
2,parcelated_audio/31/31_27.aiff,,0,2,2,2,,,,,0,26,26,26,,,,,,,,,,,,,,,,,,,,,,,,,,,,,,,,,,,,,,,,,,,,,,,,,,,,,,,,,,,,,,,,,1091.525681893702,None,1091.525553109008,None,9,0.49577140499604866,1095.9102947720094,None,1095.9102947720094,None,1095.9102947720094,None,1095.9102947720094,None,,,,,,,,,,,,,,,,,,,,,,,,,,,,,,,,,,,,,,,,,,,,,,,,,,,092319_p1,001,2019_Sep_23_1028,body_behavioural,3.2.1,60.034142263742076,
2,parcelated_audio/31/31_28.aiff,,0,2,2,2,,,,,0,27,27,27,,,,,,,,,,,,,,,,,,,,,,,,,,,,,,,,,,,,,,,,,,,,,,,,,,,,,,,,,,,,,,,,,1096.5098526537301,None,1096.5093326070346,None,1,0.6615158120403066,1101.526523039036,None,1101.526523039036,None,1101.526523039036,None,1101.526523039036,None,,,,,,,,,,,,,,,,,,,,,,,,,,,,,,,,,,,,,,,,,,,,,,,,,,,092319_p1,001,2019_Sep_23_1028,body_behavioural,3.2.1,60.034142263742076,
2,parcelated_audio/31/31_29.aiff,,0,2,2,2,,,,,0,28,28,28,,,,,,,,,,,,,,,,,,,,,,,,,,,,,,,,,,,,,,,,,,,,,,,,,,,,,,,,,,,,,,,,,1102.2763009357266,None,1102.2763172539999,None,1,0.34594422503141686,1106.6441094990005,None,1106.6441094990005,None,1106.6441094990005,None,1106.6441094990005,None,,,,,,,,,,,,,,,,,,,,,,,,,,,,,,,,,,,,,,,,,,,,,,,,,,,092319_p1,001,2019_Sep_23_1028,body_behavioural,3.2.1,60.034142263742076,
2,parcelated_audio/31/31_30.aiff,,0,2,2,2,,,,,0,29,29,29,,,,,,,,,,,,,,,,,,,,,,,,,,,,,,,,,,,,,,,,,,,,,,,,,,,,,,,,,,,,,,,,,1107.0768256406998,None,1107.0766549939872,None,1,0.30709363298956305,1110.8612728519947,None,1110.8612728519947,None,1110.8612728519947,None,1110.8612728519947,None,,,,,,,,,,,,,,,,,,,,,,,,,,,,,,,,,,,,,,,,,,,,,,,,,,,092319_p1,001,2019_Sep_23_1028,body_behavioural,3.2.1,60.034142263742076,
2,parcelated_audio/31/31_31.aiff,,0,2,2,2,,,,,0,30,30,30,,,,,,,,,,,,,,,,,,,,,,,,,,,,,,,,,,,,,,,,,,,,,,,,,,,,,,,,,,,,,,,,,1111.2779296537162,None,1111.2777474420145,None,1,0.3790187150007114,1117.210625687032,None,1117.210625687032,None,1117.210625687032,None,1117.210625687032,None,,,,,,,,,,,,,,,,,,,,,,,,,,,,,,,,,,,,,,,,,,,,,,,,,,,092319_p1,001,2019_Sep_23_1028,body_behavioural,3.2.1,60.034142263742076,
2,parcelated_audio/31/31_32.aiff,,0,2,2,2,,,,,0,31,31,31,,,,,,,,,,,,,,,,,,,,,,,,,,,,,,,,,,,,,,,,,,,,,,,,,,,,,,,,,,,,,,,,,1117.6939880336984,None,1117.6950490970048,None,1,4.801497748994734,1127.6454709119862,None,1127.6454709119862,None,1127.6454709119862,None,1127.6454709119862,None,,,,,,,,,,,,,,,,,,,,,,,,,,,,,,,,,,,,,,,,,,,,,,,,,,,092319_p1,001,2019_Sep_23_1028,body_behavioural,3.2.1,60.034142263742076,
2,parcelated_audio/31/31_33.aiff,,0,2,2,2,,,,,0,32,32,32,,,,,,,,,,,,,,,,,,,,,,,,,,,,,,,,,,,,,,,,,,,,,,,,,,,,,,,,,,,,,,,,,1132.545679360698,None,1132.5453858770197,None,1,0.3445558230159804,1140.8789421840338,None,1140.8789421840338,None,1140.8789421840338,None,1140.8789421840338,None,,,,,,,,,,,,,,,,,,,,,,,,,,,,,,,,,,,,,,,,,,,,,,,,,,,092319_p1,001,2019_Sep_23_1028,body_behavioural,3.2.1,60.034142263742076,
2,parcelated_audio/31/31_34.aiff,,0,2,2,2,,,,,0,33,33,33,,,,,,,,,,,,,,,,,,,,,,,,,,,,,,,,,,,,,,,,,,,,,,,,,,,,,,,,,,,,,,,,,1141.3130183887085,None,1141.3125009590294,None,1,0.8538154110428877,1145.67929648899,None,1145.67929648899,None,1145.67929648899,None,1145.67929648899,None,,,,,,,,,,,,,,,,,,,,,,,,,,,,,,,,,,,,,,,,,,,,,,,,,,,092319_p1,001,2019_Sep_23_1028,body_behavioural,3.2.1,60.034142263742076,
2,parcelated_audio/31/31_35.aiff,,0,2,2,2,,,,,0,34,34,34,,,,,,,,,,,,,,,,,,,,,,,,,,,,,,,,,,,,,,,,,,,,,,,,,,,,,,,,,,,,,,,,,1146.6291956057073,None,1146.629376944038,None,1,0.32041390700032935,1152.3631190340384,None,1152.3631190340384,None,1152.3631190340384,None,1152.3631190340384,None,,,,,,,,,,,,,,,,,,,,,,,,,,,,,,,,,,,,,,,,,,,,,,,,,,,092319_p1,001,2019_Sep_23_1028,body_behavioural,3.2.1,60.034142263742076,
2,parcelated_audio/31/31_36.aiff,,0,2,2,2,,,,,0,35,35,35,,,,,,,,,,,,,,,,,,,,,,,,,,,,,,,,,,,,,,,,,,,,,,,,,,,,,,,,,,,,,,,,,1152.7804746886948,None,1152.7800643190276,None,1,0.7519785030162893,1159.08030801703,None,1159.08030801703,None,1159.08030801703,None,1159.08030801703,None,,,,,,,,,,,,,,,,,,,,,,,,,,,,,,,,,,,,,,,,,,,,,,,,,,,092319_p1,001,2019_Sep_23_1028,body_behavioural,3.2.1,60.034142263742076,
2,,,0,2,2,2,,,,,,,,,,,,,,,,,,,,,,,,,,,,,,,,,,,,,,,,,,,,,,,,,,,,,,,,,,,,,,,,,,,,,,,,,,,,,,,,,,,,,,,1159.8642421920085,None,1159.8642421920085,None,space,2.348426152020693,1159.8642421920085,None,,,,,,,,,,,,,,,,,,,,,,,,,,,,,,,,,,,,,,,,,,,092319_p1,001,2019_Sep_23_1028,body_behavioural,3.2.1,60.034142263742076,
3,,,0,3,3,3,0,0,0,0,,,,,,,,,,,,,,,,,1162.2308361920295,None,space,0.9176585300010629,1162.2308361920295,None,1162.2308361920295,None,1163.1813370870077,None,space,1.1279617680120282,1163.1813370870077,None,1164.398122138984,None,1164.398122138984,None,1164.398122138984,None,1166.8149327139836,None,space,1.714241142035462,1166.8149327139836,None,1168.8985464720172,None,1168.8985464720172,None,1168.8985464720172,None,1168.8985464720172,None,1168.8985464720172,None,1168.8985464720172,None,1168.8985464720172,None,,,,,,,,,,,,,,,,,,,,,,,,,,,,,,,,,,,,,,,,,,,,,,,,,,,,,,,,,,,,,,,,,,,,,,,,,,,,,092319_p1,001,2019_Sep_23_1028,body_behavioural,3.2.1,60.034142263742076,
3,parcelated_audio/11/11_1.aiff,,0,3,3,3,,,,,0,0,0,0,,,,,,,,,,,,,,,,,,,,,,,,,,,1194.333281729021,None,1194.333281729021,None,1194.333281729021,None,,,,,,,,,,,,,,,,,,,,,1192.7164087840356,None,space,1.5338662750436924,1192.7164087840356,None,1195.4999063740252,None,space,1.3137568500242196,1195.4999063740252,None,1197.0343946687178,None,1197.0335690589854,None,9,1.0334844880271703,1208.3844771420117,None,1208.3844771420117,None,1208.3844771420117,None,1208.3844771420117,None,,,,,,,,,,,,,,,,,,,,,,,,,,,,,,,,,,,,,,,,,,,,,,,,,,,092319_p1,001,2019_Sep_23_1028,body_behavioural,3.2.1,60.034142263742076,
3,parcelated_audio/11/11_2.aiff,,0,3,3,3,,,,,0,1,1,1,,,,,,,,,,,,,,,,,,,,,,,,,,,,,,,,,,,,,,,,,,,,,,,,,,,,,,,,,,,,,,,,,1209.5171444236883,None,1209.517176622001,None,1,2.423683070053812,1213.968442514015,None,1213.968442514015,None,1213.968442514015,None,1213.968442514015,None,,,,,,,,,,,,,,,,,,,,,,,,,,,,,,,,,,,,,,,,,,,,,,,,,,,092319_p1,001,2019_Sep_23_1028,body_behavioural,3.2.1,60.034142263742076,
3,parcelated_audio/11/11_3.aiff,,0,3,3,3,,,,,0,2,2,2,,,,,,,,,,,,,,,,,,,,,,,,,,,,,,,,,,,,,,,,,,,,,,,,,,,,,,,,,,,,,,,,,1216.484589700715,None,1216.4842899990035,None,1,7.90041669504717,1221.452931776992,None,1221.452931776992,None,1221.452931776992,None,1221.452931776992,None,,,,,,,,,,,,,,,,,,,,,,,,,,,,,,,,,,,,,,,,,,,,,,,,,,,092319_p1,001,2019_Sep_23_1028,body_behavioural,3.2.1,60.034142263742076,
3,parcelated_audio/11/11_4.aiff,,0,3,3,3,,,,,0,3,3,3,,,,,,,,,,,,,,,,,,,,,,,,,,,,,,,,,,,,,,,,,,,,,,,,,,,,,,,,,,,,,,,,,1229.4520485437358,None,1229.4527406319976,None,1,0.45305150403873995,1238.5354459800292,None,1238.5354459800292,None,1238.5354459800292,None,1238.5354459800292,None,,,,,,,,,,,,,,,,,,,,,,,,,,,,,,,,,,,,,,,,,,,,,,,,,,,092319_p1,001,2019_Sep_23_1028,body_behavioural,3.2.1,60.034142263742076,
3,parcelated_audio/11/11_5.aiff,,0,3,3,3,,,,,0,4,4,4,,,,,,,,,,,,,,,,,,,,,,,,,,,,,,,,,,,,,,,,,,,,,,,,,,,,,,,,,,,,,,,,,1239.119332493702,None,1239.1196951540187,None,9,1.2598839329439215,1244.852857377031,None,1244.852857377031,None,1244.852857377031,None,1244.852857377031,None,,,,,,,,,,,,,,,,,,,,,,,,,,,,,,,,,,,,,,,,,,,,,,,,,,,092319_p1,001,2019_Sep_23_1028,body_behavioural,3.2.1,60.034142263742076,
3,parcelated_audio/11/11_6.aiff,,0,3,3,3,,,,,0,5,5,5,,,,,,,,,,,,,,,,,,,,,,,,,,,,,,,,,,,,,,,,,,,,,,,,,,,,,,,,,,,,,,,,,1246.2037549837376,None,1246.2039929269813,None,1,0.9917293030302972,1250.7708220619825,None,1250.7708220619825,None,1250.7708220619825,None,1250.7708220619825,None,,,,,,,,,,,,,,,,,,,,,,,,,,,,,,,,,,,,,,,,,,,,,,,,,,,092319_p1,001,2019_Sep_23_1028,body_behavioural,3.2.1,60.034142263742076,
3,parcelated_audio/11/11_7.aiff,,0,3,3,3,,,,,0,6,6,6,,,,,,,,,,,,,,,,,,,,,,,,,,,,,,,,,,,,,,,,,,,,,,,,,,,,,,,,,,,,,,,,,1251.8699855887214,None,1251.8700399640366,None,1,1.7078644969733432,1258.3870559270144,None,1258.3870559270144,None,1258.3870559270144,None,1258.3870559270144,None,,,,,,,,,,,,,,,,,,,,,,,,,,,,,,,,,,,,,,,,,,,,,,,,,,,092319_p1,001,2019_Sep_23_1028,body_behavioural,3.2.1,60.034142263742076,
3,parcelated_audio/11/11_8.aiff,,0,3,3,3,,,,,0,7,7,7,,,,,,,,,,,,,,,,,,,,,,,,,,,,,,,,,,,,,,,,,,,,,,,,,,,,,,,,,,,,,,,,,1260.203859278711,None,1260.2038342769956,None,1,1.5873766629956663,1265.954322353995,None,1265.954322353995,None,1265.954322353995,None,1265.954322353995,None,,,,,,,,,,,,,,,,,,,,,,,,,,,,,,,,,,,,,,,,,,,,,,,,,,,092319_p1,001,2019_Sep_23_1028,body_behavioural,3.2.1,60.034142263742076,
3,parcelated_audio/11/11_9.aiff,,0,3,3,3,,,,,0,8,8,8,,,,,,,,,,,,,,,,,,,,,,,,,,,,,,,,,,,,,,,,,,,,,,,,,,,,,,,,,,,,,,,,,1267.6380176207283,None,1267.6377721070312,None,9,0.9615860800258815,1271.9213877519942,None,1271.9213877519942,None,1271.9213877519942,None,1271.9213877519942,None,,,,,,,,,,,,,,,,,,,,,,,,,,,,,,,,,,,,,,,,,,,,,,,,,,,092319_p1,001,2019_Sep_23_1028,body_behavioural,3.2.1,60.034142263742076,
3,parcelated_audio/11/11_10.aiff,,0,3,3,3,,,,,0,9,9,9,,,,,,,,,,,,,,,,,,,,,,,,,,,,,,,,,,,,,,,,,,,,,,,,,,,,,,,,,,,,,,,,,1272.9556219737394,None,1272.9547701770207,None,1,2.566471242986154,1277.5227520869812,None,1277.5227520869812,None,1277.5227520869812,None,1277.5227520869812,None,,,,,,,,,,,,,,,,,,,,,,,,,,,,,,,,,,,,,,,,,,,,,,,,,,,092319_p1,001,2019_Sep_23_1028,body_behavioural,3.2.1,60.034142263742076,
3,parcelated_audio/11/11_11.aiff,,0,3,3,3,,,,,0,10,10,10,,,,,,,,,,,,,,,,,,,,,,,,,,,,,,,,,,,,,,,,,,,,,,,,,,,,,,,,,,,,,,,,,1280.172407193703,None,1280.1716730670305,None,1,1.581753563019447,1283.323192498996,None,1283.323192498996,None,1283.323192498996,None,1283.323192498996,None,,,,,,,,,,,,,,,,,,,,,,,,,,,,,,,,,,,,,,,,,,,,,,,,,,,092319_p1,001,2019_Sep_23_1028,body_behavioural,3.2.1,60.034142263742076,
3,parcelated_audio/11/11_12.aiff,,0,3,3,3,,,,,0,11,11,11,,,,,,,,,,,,,,,,,,,,,,,,,,,,,,,,,,,,,,,,,,,,,,,,,,,,,,,,,,,,,,,,,1284.989283480693,None,1284.9889816769864,None,1,1.9422183080459945,1287.8225598690333,None,1287.8225598690333,None,1287.8225598690333,None,1287.8225598690333,None,,,,,,,,,,,,,,,,,,,,,,,,,,,,,,,,,,,,,,,,,,,,,,,,,,,092319_p1,001,2019_Sep_23_1028,body_behavioural,3.2.1,60.034142263742076,
3,parcelated_audio/11/11_13.aiff,,0,3,3,3,,,,,0,12,12,12,,,,,,,,,,,,,,,,,,,,,,,,,,,,,,,,,,,,,,,,,,,,,,,,,,,,,,,,,,,,,,,,,1289.8566871706978,None,1289.855890567007,None,9,1.8165791819919832,1293.1729910270078,None,1293.1729910270078,None,1293.1729910270078,None,1293.1729910270078,None,,,,,,,,,,,,,,,,,,,,,,,,,,,,,,,,,,,,,,,,,,,,,,,,,,,092319_p1,001,2019_Sep_23_1028,body_behavioural,3.2.1,60.034142263742076,
3,parcelated_audio/11/11_14.aiff,,0,3,3,3,,,,,0,13,13,13,,,,,,,,,,,,,,,,,,,,,,,,,,,,,,,,,,,,,,,,,,,,,,,,,,,,,,,,,,,,,,,,,1295.0736317706876,None,1295.073274491995,None,1,1.3120214770315215,1297.739856389002,None,1297.739856389002,None,1297.739856389002,None,1297.739856389002,None,,,,,,,,,,,,,,,,,,,,,,,,,,,,,,,,,,,,,,,,,,,,,,,,,,,092319_p1,001,2019_Sep_23_1028,body_behavioural,3.2.1,60.034142263742076,
3,parcelated_audio/11/11_15.aiff,,0,3,3,3,,,,,0,14,14,14,,,,,,,,,,,,,,,,,,,,,,,,,,,,,,,,,,,,,,,,,,,,,,,,,,,,,,,,,,,,,,,,,1299.1566202787333,None,1299.156842831988,None,1,0.7986282719648443,1310.3415202490287,None,1310.3415202490287,None,1310.3415202490287,None,1310.3415202490287,None,,,,,,,,,,,,,,,,,,,,,,,,,,,,,,,,,,,,,,,,,,,,,,,,,,,092319_p1,001,2019_Sep_23_1028,body_behavioural,3.2.1,60.034142263742076,
3,parcelated_audio/11/11_16.aiff,,0,3,3,3,,,,,0,15,15,15,,,,,,,,,,,,,,,,,,,,,,,,,,,,,,,,,,,,,,,,,,,,,,,,,,,,,,,,,,,,,,,,,1311.2418838637066,None,1311.2417134739808,None,9,2.7835841099731624,1314.2409833120182,None,1314.2409833120182,None,1314.2409833120182,None,1314.2409833120182,None,,,,,,,,,,,,,,,,,,,,,,,,,,,,,,,,,,,,,,,,,,,,,,,,,,,092319_p1,001,2019_Sep_23_1028,body_behavioural,3.2.1,60.034142263742076,
3,parcelated_audio/11/11_17.aiff,,0,3,3,3,,,,,0,16,16,16,,,,,,,,,,,,,,,,,,,,,,,,,,,,,,,,,,,,,,,,,,,,,,,,,,,,,,,,,,,,,,,,,1317.1244877237011,None,1317.1254543990362,None,1,0.5680523340124637,1324.0749696290004,None,1324.0749696290004,None,1324.0749696290004,None,1324.0749696290004,None,,,,,,,,,,,,,,,,,,,,,,,,,,,,,,,,,,,,,,,,,,,,,,,,,,,092319_p1,001,2019_Sep_23_1028,body_behavioural,3.2.1,60.034142263742076,
3,parcelated_audio/11/11_18.aiff,,0,3,3,3,,,,,0,17,17,17,,,,,,,,,,,,,,,,,,,,,,,,,,,,,,,,,,,,,,,,,,,,,,,,,,,,,,,,,,,,,,,,,1324.74176658371,None,1324.7416711940314,None,1,0.5724467050167732,1332.192977134022,None,1332.192977134022,None,1332.192977134022,None,1332.192977134022,None,,,,,,,,,,,,,,,,,,,,,,,,,,,,,,,,,,,,,,,,,,,,,,,,,,,092319_p1,001,2019_Sep_23_1028,body_behavioural,3.2.1,60.034142263742076,
3,parcelated_audio/11/11_19.aiff,,0,3,3,3,,,,,0,18,18,18,,,,,,,,,,,,,,,,,,,,,,,,,,,,,,,,,,,,,,,,,,,,,,,,,,,,,,,,,,,,,,,,,1332.8596628587227,None,1332.8588511990383,None,1,1.4781319129979238,1337.4102606190136,None,1337.4102606190136,None,1337.4102606190136,None,1337.4102606190136,None,,,,,,,,,,,,,,,,,,,,,,,,,,,,,,,,,,,,,,,,,,,,,,,,,,,092319_p1,001,2019_Sep_23_1028,body_behavioural,3.2.1,60.034142263742076,
3,parcelated_audio/11/11_20.aiff,,0,3,3,3,,,,,0,19,19,19,,,,,,,,,,,,,,,,,,,,,,,,,,,,,,,,,,,,,,,,,,,,,,,,,,,,,,,,,,,,,,,,,1338.977015038731,None,1338.976376902021,None,1,0.48329111299244687,1343.8773136670352,None,1343.8773136670352,None,1343.8773136670352,None,1343.8773136670352,None,,,,,,,,,,,,,,,,,,,,,,,,,,,,,,,,,,,,,,,,,,,,,,,,,,,092319_p1,001,2019_Sep_23_1028,body_behavioural,3.2.1,60.034142263742076,
3,parcelated_audio/11/11_21.aiff,,0,3,3,3,,,,,0,20,20,20,,,,,,,,,,,,,,,,,,,,,,,,,,,,,,,,,,,,,,,,,,,,,,,,,,,,,,,,,,,,,,,,,1344.4599965956993,None,1344.4605728040333,None,1,0.4027792599517852,1353.1935994090163,None,1353.1935994090163,None,1353.1935994090163,None,1353.1935994090163,None,,,,,,,,,,,,,,,,,,,,,,,,,,,,,,,,,,,,,,,,,,,,,,,,,,,092319_p1,001,2019_Sep_23_1028,body_behavioural,3.2.1,60.034142263742076,
3,parcelated_audio/11/11_22.aiff,,0,3,3,3,,,,,0,21,21,21,,,,,,,,,,,,,,,,,,,,,,,,,,,,,,,,,,,,,,,,,,,,,,,,,,,,,,,,,,,,,,,,,1353.6941425757366,None,1353.693677467003,None,1,0.6721950600040145,1356.977244862006,None,1356.977244862006,None,1356.977244862006,None,1356.977244862006,None,,,,,,,,,,,,,,,,,,,,,,,,,,,,,,,,,,,,,,,,,,,,,,,,,,,092319_p1,001,2019_Sep_23_1028,body_behavioural,3.2.1,60.034142263742076,
3,parcelated_audio/11/11_23.aiff,,0,3,3,3,,,,,0,22,22,22,,,,,,,,,,,,,,,,,,,,,,,,,,,,,,,,,,,,,,,,,,,,,,,,,,,,,,,,,,,,,,,,,1357.7447213137173,None,1357.7440727690118,None,1,0.7632728610187769,1362.511674154026,None,1362.511674154026,None,1362.511674154026,None,1362.511674154026,None,,,,,,,,,,,,,,,,,,,,,,,,,,,,,,,,,,,,,,,,,,,,,,,,,,,092319_p1,001,2019_Sep_23_1028,body_behavioural,3.2.1,60.034142263742076,
3,parcelated_audio/11/11_24.aiff,,0,3,3,3,,,,,0,23,23,23,,,,,,,,,,,,,,,,,,,,,,,,,,,,,,,,,,,,,,,,,,,,,,,,,,,,,,,,,,,,,,,,,1363.3776973786996,None,1363.3780706539983,None,1,1.7449076379998587,1366.9946368290111,None,1366.9946368290111,None,1366.9946368290111,None,1366.9946368290111,None,,,,,,,,,,,,,,,,,,,,,,,,,,,,,,,,,,,,,,,,,,,,,,,,,,,092319_p1,001,2019_Sep_23_1028,body_behavioural,3.2.1,60.034142263742076,
3,parcelated_audio/11/11_25.aiff,,0,3,3,3,,,,,0,24,24,24,,,,,,,,,,,,,,,,,,,,,,,,,,,,,,,,,,,,,,,,,,,,,,,,,,,,,,,,,,,,,,,,,1368.8288252106984,None,1368.8283391789882,None,9,0.4815510750049725,1373.5616848469945,None,1373.5616848469945,None,1373.5616848469945,None,1373.5616848469945,None,,,,,,,,,,,,,,,,,,,,,,,,,,,,,,,,,,,,,,,,,,,,,,,,,,,092319_p1,001,2019_Sep_23_1028,body_behavioural,3.2.1,60.034142263742076,
3,parcelated_audio/11/11_26.aiff,,0,3,3,3,,,,,0,25,25,25,,,,,,,,,,,,,,,,,,,,,,,,,,,,,,,,,,,,,,,,,,,,,,,,,,,,,,,,,,,,,,,,,1374.129254640732,None,1374.1285308090155,None,1,0.5836186630185694,1379.0954384490033,None,1379.0954384490033,None,1379.0954384490033,None,1379.0954384490033,None,,,,,,,,,,,,,,,,,,,,,,,,,,,,,,,,,,,,,,,,,,,,,,,,,,,092319_p1,001,2019_Sep_23_1028,body_behavioural,3.2.1,60.034142263742076,
3,parcelated_audio/11/11_27.aiff,,0,3,3,3,,,,,0,26,26,26,,,,,,,,,,,,,,,,,,,,,,,,,,,,,,,,,,,,,,,,,,,,,,,,,,,,,,,,,,,,,,,,,1379.7791013736976,None,1379.7789313290268,None,1,0.5104695070185699,1383.7631590469973,None,1383.7631590469973,None,1383.7631590469973,None,1383.7631590469973,None,,,,,,,,,,,,,,,,,,,,,,,,,,,,,,,,,,,,,,,,,,,,,,,,,,,092319_p1,001,2019_Sep_23_1028,body_behavioural,3.2.1,60.034142263742076,
3,parcelated_audio/11/11_28.aiff,,0,3,3,3,,,,,0,27,27,27,,,,,,,,,,,,,,,,,,,,,,,,,,,,,,,,,,,,,,,,,,,,,,,,,,,,,,,,,,,,,,,,,1384.36248665374,None,1384.3626264740014,None,1,1.0835822049994022,1387.7626716719824,None,1387.7626716719824,None,1387.7626716719824,None,1387.7626716719824,None,,,,,,,,,,,,,,,,,,,,,,,,,,,,,,,,,,,,,,,,,,,,,,,,,,,092319_p1,001,2019_Sep_23_1028,body_behavioural,3.2.1,60.034142263742076,
3,parcelated_audio/11/11_29.aiff,,0,3,3,3,,,,,0,28,28,28,,,,,,,,,,,,,,,,,,,,,,,,,,,,,,,,,,,,,,,,,,,,,,,,,,,,,,,,,,,,,,,,,1388.9299250036827,None,1388.9294164539897,None,1,0.4747523400001228,1393.097247814003,None,1393.097247814003,None,1393.097247814003,None,1393.097247814003,None,,,,,,,,,,,,,,,,,,,,,,,,,,,,,,,,,,,,,,,,,,,,,,,,,,,092319_p1,001,2019_Sep_23_1028,body_behavioural,3.2.1,60.034142263742076,
3,parcelated_audio/11/11_30.aiff,,0,3,3,3,,,,,0,29,29,29,,,,,,,,,,,,,,,,,,,,,,,,,,,,,,,,,,,,,,,,,,,,,,,,,,,,,,,,,,,,,,,,,1393.6630776357022,None,1393.6632138669956,None,1,0.5355786790023558,1398.1479873320204,None,1398.1479873320204,None,1398.1479873320204,None,1398.1479873320204,None,,,,,,,,,,,,,,,,,,,,,,,,,,,,,,,,,,,,,,,,,,,,,,,,,,,092319_p1,001,2019_Sep_23_1028,body_behavioural,3.2.1,60.034142263742076,
3,parcelated_audio/11/11_31.aiff,,0,3,3,3,,,,,0,30,30,30,,,,,,,,,,,,,,,,,,,,,,,,,,,,,,,,,,,,,,,,,,,,,,,,,,,,,,,,,,,,,,,,,1398.780486260727,None,1398.7803796890075,None,9,3.7564247450209223,1403.5824371640338,None,1403.5824371640338,None,1403.5824371640338,None,1403.5824371640338,None,,,,,,,,,,,,,,,,,,,,,,,,,,,,,,,,,,,,,,,,,,,,,,,,,,,092319_p1,001,2019_Sep_23_1028,body_behavioural,3.2.1,60.034142263742076,
3,parcelated_audio/11/11_32.aiff,,0,3,3,3,,,,,0,31,31,31,,,,,,,,,,,,,,,,,,,,,,,,,,,,,,,,,,,,,,,,,,,,,,,,,,,,,,,,,,,,,,,,,1407.4139806637074,None,1407.413988432032,None,1,0.5496700200019404,1411.4498948670225,None,1411.4498948670225,None,1411.4498948670225,None,1411.4498948670225,None,,,,,,,,,,,,,,,,,,,,,,,,,,,,,,,,,,,,,,,,,,,,,,,,,,,092319_p1,001,2019_Sep_23_1028,body_behavioural,3.2.1,60.034142263742076,
3,parcelated_audio/11/11_33.aiff,,0,3,3,3,,,,,0,32,32,32,,,,,,,,,,,,,,,,,,,,,,,,,,,,,,,,,,,,,,,,,,,,,,,,,,,,,,,,,,,,,,,,,1412.0816293537034,None,1412.0813369590323,None,1,0.37360502197407186,1414.5659030170063,None,1414.5659030170063,None,1414.5659030170063,None,1414.5659030170063,None,,,,,,,,,,,,,,,,,,,,,,,,,,,,,,,,,,,,,,,,,,,,,,,,,,,092319_p1,001,2019_Sep_23_1028,body_behavioural,3.2.1,60.034142263742076,
3,parcelated_audio/11/11_34.aiff,,0,3,3,3,,,,,0,33,33,33,,,,,,,,,,,,,,,,,,,,,,,,,,,,,,,,,,,,,,,,,,,,,,,,,,,,,,,,,,,,,,,,,1415.0311189707252,None,1415.0322582140216,None,1,0.43668434501159936,1418.3167472170317,None,1418.3167472170317,None,1418.3167472170317,None,1418.3167472170317,None,,,,,,,,,,,,,,,,,,,,,,,,,,,,,,,,,,,,,,,,,,,,,,,,,,,092319_p1,001,2019_Sep_23_1028,body_behavioural,3.2.1,60.034142263742076,
3,parcelated_audio/11/11_35.aiff,,0,3,3,3,,,,,0,34,34,34,,,,,,,,,,,,,,,,,,,,,,,,,,,,,,,,,,,,,,,,,,,,,,,,,,,,,,,,,,,,,,,,,1418.8490563407074,None,1418.8484247790184,None,1,0.29012566298479214,1423.2152462390368,None,1423.2152462390368,None,1423.2152462390368,None,1423.2152462390368,None,,,,,,,,,,,,,,,,,,,,,,,,,,,,,,,,,,,,,,,,,,,,,,,,,,,092319_p1,001,2019_Sep_23_1028,body_behavioural,3.2.1,60.034142263742076,
3,parcelated_audio/11/11_36.aiff,,0,3,3,3,,,,,0,35,35,35,,,,,,,,,,,,,,,,,,,,,,,,,,,,,,,,,,,,,,,,,,,,,,,,,,,,,,,,,,,,,,,,,1423.6151543256826,None,1423.6162872019922,None,9,5.075174216995947,1432.6334025990218,None,1432.6334025990218,None,1432.6334025990218,None,1432.6334025990218,None,,,,,,,,,,,,,,,,,,,,,,,,,,,,,,,,,,,,,,,,,,,,,,,,,,,092319_p1,001,2019_Sep_23_1028,body_behavioural,3.2.1,60.034142263742076,
3,parcelated_audio/11/11_37.aiff,,0,3,3,3,,,,,0,36,36,36,,,,,,,,,,,,,,,,,,,,,,,,,,,,,,,,,,,,,,,,,,,,,,,,,,,,,,,,,,,,,,,,,1437.7995988957234,None,1437.800302552001,None,1,0.8274552299990319,1441.949915922014,None,1441.949915922014,None,1441.949915922014,None,1441.949915922014,None,,,,,,,,,,,,,,,,,,,,,,,,,,,,,,,,,,,,,,,,,,,,,,,,,,,092319_p1,001,2019_Sep_23_1028,body_behavioural,3.2.1,60.034142263742076,
3,parcelated_audio/11/11_38.aiff,,0,3,3,3,,,,,0,37,37,37,,,,,,,,,,,,,,,,,,,,,,,,,,,,,,,,,,,,,,,,,,,,,,,,,,,,,,,,,,,,,,,,,1442.8666596337105,None,1442.8669043090194,None,1,0.4043771880096756,1449.000252352038,None,1449.000252352038,None,1449.000252352038,None,1449.000252352038,None,,,,,,,,,,,,,,,,,,,,,,,,,,,,,,,,,,,,,,,,,,,,,,,,,,,092319_p1,001,2019_Sep_23_1028,body_behavioural,3.2.1,60.034142263742076,
3,parcelated_audio/11/11_39.aiff,,0,3,3,3,,,,,0,38,38,38,,,,,,,,,,,,,,,,,,,,,,,,,,,,,,,,,,,,,,,,,,,,,,,,,,,,,,,,,,,,,,,,,1449.5006931236828,None,1449.5004776470014,None,1,1.0796902650035918,1454.7006418090314,None,1454.7006418090314,None,1454.7006418090314,None,1454.7006418090314,None,,,,,,,,,,,,,,,,,,,,,,,,,,,,,,,,,,,,,,,,,,,,,,,,,,,092319_p1,001,2019_Sep_23_1028,body_behavioural,3.2.1,60.034142263742076,
3,parcelated_audio/11/11_40.aiff,,0,3,3,3,,,,,0,39,39,39,,,,,,,,,,,,,,,,,,,,,,,,,,,,,,,,,,,,,,,,,,,,,,,,,,,,,,,,,,,,,,,,,1455.8683138057356,None,1455.8673602589988,None,1,6.684636890015099,1461.5014519320102,None,1461.5014519320102,None,1461.5014519320102,None,1461.5014519320102,None,,,,,,,,,,,,,,,,,,,,,,,,,,,,,,,,,,,,,,,,,,,,,,,,,,,092319_p1,001,2019_Sep_23_1028,body_behavioural,3.2.1,60.034142263742076,
3,parcelated_audio/11/11_41.aiff,,0,3,3,3,,,,,0,40,40,40,,,,,,,,,,,,,,,,,,,,,,,,,,,,,,,,,,,,,,,,,,,,,,,,,,,,,,,,,,,,,,,,,1468.2853414807003,None,1468.2852133170236,None,9,0.8985585549962707,1474.4186344920308,None,1474.4186344920308,None,1474.4186344920308,None,1474.4186344920308,None,,,,,,,,,,,,,,,,,,,,,,,,,,,,,,,,,,,,,,,,,,,,,,,,,,,092319_p1,001,2019_Sep_23_1028,body_behavioural,3.2.1,60.034142263742076,
3,,,0,3,3,3,,,,,,,,,,,,,,,,,,,,,,,,,,,,,,,,,,,,,,,,,,,,,,,,,,,,,,,,,,,,,,,,,,,,,,,,,,,,,,,,,,,,,,,1475.3522214789991,None,1475.3522214789991,None,space,2.861176737002097,1475.3522214789991,None,,,,,,,,,,,,,,,,,,,,,,,,,,,,,,,,,,,,,,,,,,,092319_p1,001,2019_Sep_23_1028,body_behavioural,3.2.1,60.034142263742076,
4,,,0,4,4,4,0,0,0,0,,,,,,,,,,,,,,,,,1478.2530466170283,None,space,1.7315585130127147,1478.2530466170283,None,1478.2530466170283,None,1480.00241693703,None,space,0.8459260949748568,1480.00241693703,None,1480.9857976390049,None,1480.9857976390049,None,1480.9857976390049,None,1482.9691944789956,None,space,0.49197446001926437,1482.9691944789956,None,1483.7870687189861,None,1483.7870687189861,None,1483.7870687189861,None,1483.7870687189861,None,1483.7870687189861,None,1483.7870687189861,None,1483.7870687189861,None,,,,,,,,,,,,,,,,,,,,,,,,,,,,,,,,,,,,,,,,,,,,,,,,,,,,,,,,,,,,,,,,,,,,,,,,,,,,,092319_p1,001,2019_Sep_23_1028,body_behavioural,3.2.1,60.034142263742076,
4,parcelated_audio/43/43_1.aiff,,0,4,4,4,,,,,0,0,0,0,,,,,,,,,,,,,,,,,,,,,,,,,,,1512.7887191190384,None,1512.7887191190384,None,1512.7887191190384,None,,,,,,,,,,,,,,,,,,,,,1511.6885094220052,None,space,1.017939644982107,1511.6885094220052,None,1514.138550022035,None,space,1.29646063700784,1514.138550022035,None,1515.6547347037238,None,1515.655539459025,None,9,1.7242702749790624,1523.2387341189897,None,1523.2387341189897,None,1523.2387341189897,None,1523.2387341189897,None,,,,,,,,,,,,,,,,,,,,,,,,,,,,,,,,,,,,,,,,,,,,,,,,,,,092319_p1,001,2019_Sep_23_1028,body_behavioural,3.2.1,60.034142263742076,
4,parcelated_audio/43/43_2.aiff,,0,4,4,4,,,,,0,1,1,1,,,,,,,,,,,,,,,,,,,,,,,,,,,,,,,,,,,,,,,,,,,,,,,,,,,,,,,,,,,,,,,,,1525.0721768107148,None,1525.0722690540133,None,1,0.6217686000163667,1528.8557109920075,None,1528.8557109920075,None,1528.8557109920075,None,1528.8557109920075,None,,,,,,,,,,,,,,,,,,,,,,,,,,,,,,,,,,,,,,,,,,,,,,,,,,,092319_p1,001,2019_Sep_23_1028,body_behavioural,3.2.1,60.034142263742076,
4,parcelated_audio/43/43_3.aiff,,0,4,4,4,,,,,0,2,2,2,,,,,,,,,,,,,,,,,,,,,,,,,,,,,,,,,,,,,,,,,,,,,,,,,,,,,,,,,,,,,,,,,1529.589119553694,None,1529.5893810020061,None,1,0.26529859501169994,1538.456501431996,None,1538.456501431996,None,1538.456501431996,None,1538.456501431996,None,,,,,,,,,,,,,,,,,,,,,,,,,,,,,,,,,,,,,,,,,,,,,,,,,,,092319_p1,001,2019_Sep_23_1028,body_behavioural,3.2.1,60.034142263742076,
4,parcelated_audio/43/43_4.aiff,,0,4,4,4,,,,,0,3,3,3,,,,,,,,,,,,,,,,,,,,,,,,,,,,,,,,,,,,,,,,,,,,,,,,,,,,,,,,,,,,,,,,,1538.8230837457347,None,1538.8237371789874,None,9,0.46801832696655765,1547.324689031986,None,1547.324689031986,None,1547.324689031986,None,1547.324689031986,None,,,,,,,,,,,,,,,,,,,,,,,,,,,,,,,,,,,,,,,,,,,,,,,,,,,092319_p1,001,2019_Sep_23_1028,body_behavioural,3.2.1,60.034142263742076,
4,parcelated_audio/43/43_5.aiff,,0,4,4,4,,,,,0,4,4,4,,,,,,,,,,,,,,,,,,,,,,,,,,,,,,,,,,,,,,,,,,,,,,,,,,,,,,,,,,,,,,,,,1547.9070332307135,None,1547.9080690440023,None,1,0.30316901998594403,1557.157700279029,None,1557.157700279029,None,1557.157700279029,None,1557.157700279029,None,,,,,,,,,,,,,,,,,,,,,,,,,,,,,,,,,,,,,,,,,,,,,,,,,,,092319_p1,001,2019_Sep_23_1028,body_behavioural,3.2.1,60.034142263742076,
4,parcelated_audio/43/43_6.aiff,,0,4,4,4,,,,,0,5,5,5,,,,,,,,,,,,,,,,,,,,,,,,,,,,,,,,,,,,,,,,,,,,,,,,,,,,,,,,,,,,,,,,,1557.575184848695,None,1557.5748545069946,None,1,0.9540066340123303,1566.7247484800173,None,1566.7247484800173,None,1566.7247484800173,None,1566.7247484800173,None,,,,,,,,,,,,,,,,,,,,,,,,,,,,,,,,,,,,,,,,,,,,,,,,,,,092319_p1,001,2019_Sep_23_1028,body_behavioural,3.2.1,60.034142263742076,
4,parcelated_audio/43/43_7.aiff,,0,4,4,4,,,,,0,6,6,6,,,,,,,,,,,,,,,,,,,,,,,,,,,,,,,,,,,,,,,,,,,,,,,,,,,,,,,,,,,,,,,,,1567.7751675737206,None,1567.775464904029,None,1,0.6642608090187423,1572.5251408499898,None,1572.5251408499898,None,1572.5251408499898,None,1572.5251408499898,None,,,,,,,,,,,,,,,,,,,,,,,,,,,,,,,,,,,,,,,,,,,,,,,,,,,092319_p1,001,2019_Sep_23_1028,body_behavioural,3.2.1,60.034142263742076,
4,parcelated_audio/43/43_8.aiff,,0,4,4,4,,,,,0,7,7,7,,,,,,,,,,,,,,,,,,,,,,,,,,,,,,,,,,,,,,,,,,,,,,,,,,,,,,,,,,,,,,,,,1573.2924689336912,None,1573.2924498679931,None,1,0.4751256350427866,1579.8259144090116,None,1579.8259144090116,None,1579.8259144090116,None,1579.8259144090116,None,,,,,,,,,,,,,,,,,,,,,,,,,,,,,,,,,,,,,,,,,,,,,,,,,,,092319_p1,001,2019_Sep_23_1028,body_behavioural,3.2.1,60.034142263742076,
4,parcelated_audio/43/43_9.aiff,,0,4,4,4,,,,,0,8,8,8,,,,,,,,,,,,,,,,,,,,,,,,,,,,,,,,,,,,,,,,,,,,,,,,,,,,,,,,,,,,,,,,,1580.4097653107135,None,1580.4102024320164,None,1,0.9283497679862194,1584.9096491020173,None,1584.9096491020173,None,1584.9096491020173,None,1584.9096491020173,None,,,,,,,,,,,,,,,,,,,,,,,,,,,,,,,,,,,,,,,,,,,,,,,,,,,092319_p1,001,2019_Sep_23_1028,body_behavioural,3.2.1,60.034142263742076,
4,parcelated_audio/43/43_10.aiff,,0,4,4,4,,,,,0,9,9,9,,,,,,,,,,,,,,,,,,,,,,,,,,,,,,,,,,,,,,,,,,,,,,,,,,,,,,,,,,,,,,,,,1585.9430547506897,None,1585.9430114190327,None,1,3.654865720018279,1590.8266941719921,None,1590.8266941719921,None,1590.8266941719921,None,1590.8266941719921,None,,,,,,,,,,,,,,,,,,,,,,,,,,,,,,,,,,,,,,,,,,,,,,,,,,,092319_p1,001,2019_Sep_23_1028,body_behavioural,3.2.1,60.034142263742076,
4,parcelated_audio/43/43_11.aiff,,0,4,4,4,,,,,0,10,10,10,,,,,,,,,,,,,,,,,,,,,,,,,,,,,,,,,,,,,,,,,,,,,,,,,,,,,,,,,,,,,,,,,1594.5936698836856,None,1594.5937389070168,None,1,0.25121636502444744,1605.6447923619999,None,1605.6447923619999,None,1605.6447923619999,None,1605.6447923619999,None,,,,,,,,,,,,,,,,,,,,,,,,,,,,,,,,,,,,,,,,,,,,,,,,,,,092319_p1,001,2019_Sep_23_1028,body_behavioural,3.2.1,60.034142263742076,
4,parcelated_audio/43/43_12.aiff,,0,4,4,4,,,,,0,11,11,11,,,,,,,,,,,,,,,,,,,,,,,,,,,,,,,,,,,,,,,,,,,,,,,,,,,,,,,,,,,,,,,,,1605.9943914036965,None,1605.9954673289903,None,9,0.8389787880005315,1612.0793366589933,None,1612.0793366589933,None,1612.0793366589933,None,1612.0793366589933,None,,,,,,,,,,,,,,,,,,,,,,,,,,,,,,,,,,,,,,,,,,,,,,,,,,,092319_p1,001,2019_Sep_23_1028,body_behavioural,3.2.1,60.034142263742076,
4,parcelated_audio/43/43_13.aiff,,0,4,4,4,,,,,0,12,12,12,,,,,,,,,,,,,,,,,,,,,,,,,,,,,,,,,,,,,,,,,,,,,,,,,,,,,,,,,,,,,,,,,1613.0283296337118,None,1613.0281715770252,None,1,0.4900233799708076,1621.2788497289876,None,1621.2788497289876,None,1621.2788497289876,None,1621.2788497289876,None,,,,,,,,,,,,,,,,,,,,,,,,,,,,,,,,,,,,,,,,,,,,,,,,,,,092319_p1,001,2019_Sep_23_1028,body_behavioural,3.2.1,60.034142263742076,
4,parcelated_audio/43/43_14.aiff,,0,4,4,4,,,,,0,13,13,13,,,,,,,,,,,,,,,,,,,,,,,,,,,,,,,,,,,,,,,,,,,,,,,,,,,,,,,,,,,,,,,,,1621.878819620714,None,1621.879514734028,None,1,0.8626996570383199,1630.3794294869876,None,1630.3794294869876,None,1630.3794294869876,None,1630.3794294869876,None,,,,,,,,,,,,,,,,,,,,,,,,,,,,,,,,,,,,,,,,,,,,,,,,,,,092319_p1,001,2019_Sep_23_1028,body_behavioural,3.2.1,60.034142263742076,
4,parcelated_audio/43/43_15.aiff,,0,4,4,4,,,,,0,14,14,14,,,,,,,,,,,,,,,,,,,,,,,,,,,,,,,,,,,,,,,,,,,,,,,,,,,,,,,,,,,,,,,,,1631.3295430757105,None,1631.3294378740247,None,1,0.6507430429919623,1635.663070362003,None,1635.663070362003,None,1635.663070362003,None,1635.663070362003,None,,,,,,,,,,,,,,,,,,,,,,,,,,,,,,,,,,,,,,,,,,,,,,,,,,,092319_p1,001,2019_Sep_23_1028,body_behavioural,3.2.1,60.034142263742076,
4,parcelated_audio/43/43_16.aiff,,0,4,4,4,,,,,0,15,15,15,,,,,,,,,,,,,,,,,,,,,,,,,,,,,,,,,,,,,,,,,,,,,,,,,,,,,,,,,,,,,,,,,1636.3969367987127,None,1636.3973949670326,None,1,0.44342341198353097,1640.914634292014,None,1640.914634292014,None,1640.914634292014,None,1640.914634292014,None,,,,,,,,,,,,,,,,,,,,,,,,,,,,,,,,,,,,,,,,,,,,,,,,,,,092319_p1,001,2019_Sep_23_1028,body_behavioural,3.2.1,60.034142263742076,
4,parcelated_audio/43/43_17.aiff,,0,4,4,4,,,,,0,16,16,16,,,,,,,,,,,,,,,,,,,,,,,,,,,,,,,,,,,,,,,,,,,,,,,,,,,,,,,,,,,,,,,,,1641.4478585537406,None,1641.4478052170016,None,1,1.0379912400385365,1645.1971800639876,None,1645.1971800639876,None,1645.1971800639876,None,1645.1971800639876,None,,,,,,,,,,,,,,,,,,,,,,,,,,,,,,,,,,,,,,,,,,,,,,,,,,,092319_p1,001,2019_Sep_23_1028,body_behavioural,3.2.1,60.034142263742076,
4,parcelated_audio/43/43_18.aiff,,0,4,4,4,,,,,0,17,17,17,,,,,,,,,,,,,,,,,,,,,,,,,,,,,,,,,,,,,,,,,,,,,,,,,,,,,,,,,,,,,,,,,1646.3309824207215,None,1646.3305355340126,None,1,0.4846740369684994,1648.5307453069836,None,1648.5307453069836,None,1648.5307453069836,None,1648.5307453069836,None,,,,,,,,,,,,,,,,,,,,,,,,,,,,,,,,,,,,,,,,,,,,,,,,,,,092319_p1,001,2019_Sep_23_1028,body_behavioural,3.2.1,60.034142263742076,
4,parcelated_audio/43/43_19.aiff,,0,4,4,4,,,,,0,18,18,18,,,,,,,,,,,,,,,,,,,,,,,,,,,,,,,,,,,,,,,,,,,,,,,,,,,,,,,,,,,,,,,,,1649.0976197687094,None,1649.0973865269916,None,9,6.681902556971181,1652.714481493982,None,1652.714481493982,None,1652.714481493982,None,1652.714481493982,None,,,,,,,,,,,,,,,,,,,,,,,,,,,,,,,,,,,,,,,,,,,,,,,,,,,092319_p1,001,2019_Sep_23_1028,body_behavioural,3.2.1,60.034142263742076,
4,parcelated_audio/43/43_20.aiff,,0,4,4,4,,,,,0,19,19,19,,,,,,,,,,,,,,,,,,,,,,,,,,,,,,,,,,,,,,,,,,,,,,,,,,,,,,,,,,,,,,,,,1659.481365715689,None,1659.4823296270333,None,1,1.3571696180151775,1666.6485901870183,None,1666.6485901870183,None,1666.6485901870183,None,1666.6485901870183,None,,,,,,,,,,,,,,,,,,,,,,,,,,,,,,,,,,,,,,,,,,,,,,,,,,,092319_p1,001,2019_Sep_23_1028,body_behavioural,3.2.1,60.034142263742076,
4,parcelated_audio/43/43_21.aiff,,0,4,4,4,,,,,0,20,20,20,,,,,,,,,,,,,,,,,,,,,,,,,,,,,,,,,,,,,,,,,,,,,,,,,,,,,,,,,,,,,,,,,1668.099507683725,None,1668.0996005390189,None,1,0.4004270549630746,1670.548880241986,None,1670.548880241986,None,1670.548880241986,None,1670.548880241986,None,,,,,,,,,,,,,,,,,,,,,,,,,,,,,,,,,,,,,,,,,,,,,,,,,,,092319_p1,001,2019_Sep_23_1028,body_behavioural,3.2.1,60.034142263742076,
4,parcelated_audio/43/43_22.aiff,,0,4,4,4,,,,,0,21,21,21,,,,,,,,,,,,,,,,,,,,,,,,,,,,,,,,,,,,,,,,,,,,,,,,,,,,,,,,,,,,,,,,,1671.0488655007327,None,1671.0498905720306,None,1,0.6592267400119454,1674.4325899790274,None,1674.4325899790274,None,1674.4325899790274,None,1674.4325899790274,None,,,,,,,,,,,,,,,,,,,,,,,,,,,,,,,,,,,,,,,,,,,,,,,,,,,092319_p1,001,2019_Sep_23_1028,body_behavioural,3.2.1,60.034142263742076,
4,parcelated_audio/43/43_23.aiff,,0,4,4,4,,,,,0,22,22,22,,,,,,,,,,,,,,,,,,,,,,,,,,,,,,,,,,,,,,,,,,,,,,,,,,,,,,,,,,,,,,,,,1675.1834850686835,None,1675.1829959040042,None,1,0.43155803001718596,1681.2163427839987,None,1681.2163427839987,None,1681.2163427839987,None,1681.2163427839987,None,,,,,,,,,,,,,,,,,,,,,,,,,,,,,,,,,,,,,,,,,,,,,,,,,,,092319_p1,001,2019_Sep_23_1028,body_behavioural,3.2.1,60.034142263742076,
4,parcelated_audio/43/43_24.aiff,,0,4,4,4,,,,,0,23,23,23,,,,,,,,,,,,,,,,,,,,,,,,,,,,,,,,,,,,,,,,,,,,,,,,,,,,,,,,,,,,,,,,,1681.7331885087303,None,1681.7330009870348,None,1,0.20976553298532963,1688.066721854033,None,1688.066721854033,None,1688.066721854033,None,1688.066721854033,None,,,,,,,,,,,,,,,,,,,,,,,,,,,,,,,,,,,,,,,,,,,,,,,,,,,092319_p1,001,2019_Sep_23_1028,body_behavioural,3.2.1,60.034142263742076,
4,parcelated_audio/43/43_25.aiff,,0,4,4,4,,,,,0,24,24,24,,,,,,,,,,,,,,,,,,,,,,,,,,,,,,,,,,,,,,,,,,,,,,,,,,,,,,,,,,,,,,,,,1688.3673295037122,None,1688.3671043689828,None,1,1.784932865994051,1693.4012163440348,None,1693.4012163440348,None,1693.4012163440348,None,1693.4012163440348,None,,,,,,,,,,,,,,,,,,,,,,,,,,,,,,,,,,,,,,,,,,,,,,,,,,,092319_p1,001,2019_Sep_23_1028,body_behavioural,3.2.1,60.034142263742076,
4,parcelated_audio/43/43_26.aiff,,0,4,4,4,,,,,0,25,25,25,,,,,,,,,,,,,,,,,,,,,,,,,,,,,,,,,,,,,,,,,,,,,,,,,,,,,,,,,,,,,,,,,1695.2845721336896,None,1695.284000292013,None,9,1.2306909579783678,1703.8345173920388,None,1703.8345173920388,None,1703.8345173920388,None,1703.8345173920388,None,,,,,,,,,,,,,,,,,,,,,,,,,,,,,,,,,,,,,,,,,,,,,,,,,,,092319_p1,001,2019_Sep_23_1028,body_behavioural,3.2.1,60.034142263742076,
4,parcelated_audio/43/43_27.aiff,,0,4,4,4,,,,,0,26,26,26,,,,,,,,,,,,,,,,,,,,,,,,,,,,,,,,,,,,,,,,,,,,,,,,,,,,,,,,,,,,,,,,,1705.1514012537198,None,1705.1522923220182,None,1,0.2755762630258687,1709.5352632669965,None,1709.5352632669965,None,1709.5352632669965,None,1709.5352632669965,None,,,,,,,,,,,,,,,,,,,,,,,,,,,,,,,,,,,,,,,,,,,,,,,,,,,092319_p1,001,2019_Sep_23_1028,body_behavioural,3.2.1,60.034142263742076,
4,parcelated_audio/43/43_28.aiff,,0,4,4,4,,,,,0,27,27,27,,,,,,,,,,,,,,,,,,,,,,,,,,,,,,,,,,,,,,,,,,,,,,,,,,,,,,,,,,,,,,,,,1709.9026176037266,None,1709.902120571991,None,1,0.714139050047379,1714.868638429034,None,1714.868638429034,None,1714.868638429034,None,1714.868638429034,None,,,,,,,,,,,,,,,,,,,,,,,,,,,,,,,,,,,,,,,,,,,,,,,,,,,092319_p1,001,2019_Sep_23_1028,body_behavioural,3.2.1,60.034142263742076,
4,parcelated_audio/43/43_29.aiff,,0,4,4,4,,,,,0,28,28,28,,,,,,,,,,,,,,,,,,,,,,,,,,,,,,,,,,,,,,,,,,,,,,,,,,,,,,,,,,,,,,,,,1715.6685724237002,None,1715.669225308986,None,1,0.2848161800066009,1721.7865262620035,None,1721.7865262620035,None,1721.7865262620035,None,1721.7865262620035,None,,,,,,,,,,,,,,,,,,,,,,,,,,,,,,,,,,,,,,,,,,,,,,,,,,,092319_p1,001,2019_Sep_23_1028,body_behavioural,3.2.1,60.034142263742076,
4,,,0,4,4,4,,,,,,,,,,,,,,,,,,,,,,,,,,,,,,,,,,,,,,,,,,,,,,,,,,,,,,,,,,,,,,,,,,,,,,,,,,,,,,,,,,,,,,,1722.1532509190147,None,1722.1532509190147,None,space,2.1219920549774542,1722.1532509190147,None,,,,,,,,,,,,,,,,,,,,,,,,,,,,,,,,,,,,,,,,,,,092319_p1,001,2019_Sep_23_1028,body_behavioural,3.2.1,60.034142263742076,
5,,,0,5,5,5,0,0,0,0,,,,,,,,,,,,,,,,,1724.3035411069868,None,space,1.0785931929713115,1724.3035411069868,None,1724.3035411069868,None,1725.4026030119858,None,space,2.163397780037485,1725.4026030119858,None,1727.6526893440168,None,1727.6526893440168,None,1727.6526893440168,None,1736.5700306540239,None,space,0.8858307270566002,1736.5700306540239,None,1737.7882999820285,None,1737.7882999820285,None,1737.7882999820285,None,1737.7882999820285,None,1737.7882999820285,None,1737.7882999820285,None,1737.7882999820285,None,,,,,,,,,,,,,,,,,,,,,,,,,,,,,,,,,,,,,,,,,,,,,,,,,,,,,,,,,,,,,,,,,,,,,,,,,,,,,092319_p1,001,2019_Sep_23_1028,body_behavioural,3.2.1,60.034142263742076,
5,parcelated_audio/12/12_1.aiff,,0,5,5,5,,,,,0,0,0,0,,,,,,,,,,,,,,,,,,,,,,,,,,,1780.1564400540083,None,1780.1564400540083,None,1780.1564400540083,None,,,,,,,,,,,,,,,,,,,,,1779.2078076970065,None,space,0.8712450430030003,1779.2078076970065,None,1782.2071424020105,None,space,0.8999011620180681,1782.2071424020105,None,1783.2398761637276,None,1783.240747726988,None,9,1.3440598950255662,1793.0739804389887,None,1793.0739804389887,None,1793.0739804389887,None,1793.0739804389887,None,,,,,,,,,,,,,,,,,,,,,,,,,,,,,,,,,,,,,,,,,,,,,,,,,,,092319_p1,001,2019_Sep_23_1028,body_behavioural,3.2.1,60.034142263742076,
5,parcelated_audio/12/12_2.aiff,,0,5,5,5,,,,,0,1,1,1,,,,,,,,,,,,,,,,,,,,,,,,,,,,,,,,,,,,,,,,,,,,,,,,,,,,,,,,,,,,,,,,,1794.5081485837115,None,1794.5079008190078,None,1,0.48914149997290224,1802.2421106839902,None,1802.2421106839902,None,1802.2421106839902,None,1802.2421106839902,None,,,,,,,,,,,,,,,,,,,,,,,,,,,,,,,,,,,,,,,,,,,,,,,,,,,092319_p1,001,2019_Sep_23_1028,body_behavioural,3.2.1,60.034142263742076,
5,parcelated_audio/12/12_3.aiff,,0,5,5,5,,,,,0,2,2,2,,,,,,,,,,,,,,,,,,,,,,,,,,,,,,,,,,,,,,,,,,,,,,,,,,,,,,,,,,,,,,,,,1802.8255117687047,None,1802.8252927440335,None,1,2.953113276977092,1810.1423909370205,None,1810.1423909370205,None,1810.1423909370205,None,1810.1423909370205,None,,,,,,,,,,,,,,,,,,,,,,,,,,,,,,,,,,,,,,,,,,,,,,,,,,,092319_p1,001,2019_Sep_23_1028,body_behavioural,3.2.1,60.034142263742076,
5,parcelated_audio/12/12_4.aiff,,0,5,5,5,,,,,0,3,3,3,,,,,,,,,,,,,,,,,,,,,,,,,,,,,,,,,,,,,,,,,,,,,,,,,,,,,,,,,,,,,,,,,1813.1928639087243,None,1813.1920702839852,None,1,0.3306552529684268,1819.7257904889993,None,1819.7257904889993,None,1819.7257904889993,None,1819.7257904889993,None,,,,,,,,,,,,,,,,,,,,,,,,,,,,,,,,,,,,,,,,,,,,,,,,,,,092319_p1,001,2019_Sep_23_1028,body_behavioural,3.2.1,60.034142263742076,
5,parcelated_audio/12/12_5.aiff,,0,5,5,5,,,,,0,4,4,4,,,,,,,,,,,,,,,,,,,,,,,,,,,,,,,,,,,,,,,,,,,,,,,,,,,,,,,,,,,,,,,,,1820.143352365715,None,1820.1429857889889,None,9,0.2767412170069292,1828.0449517670204,None,1828.0449517670204,None,1828.0449517670204,None,1828.0449517670204,None,,,,,,,,,,,,,,,,,,,,,,,,,,,,,,,,,,,,,,,,,,,,,,,,,,,092319_p1,001,2019_Sep_23_1028,body_behavioural,3.2.1,60.034142263742076,
5,parcelated_audio/12/12_6.aiff,,0,5,5,5,,,,,0,5,5,5,,,,,,,,,,,,,,,,,,,,,,,,,,,,,,,,,,,,,,,,,,,,,,,,,,,,,,,,,,,,,,,,,1828.409647655685,None,1828.4097710620263,None,1,1.1589934850344434,1832.009889776993,None,1832.009889776993,None,1832.009889776993,None,1832.009889776993,None,,,,,,,,,,,,,,,,,,,,,,,,,,,,,,,,,,,,,,,,,,,,,,,,,,,092319_p1,001,2019_Sep_23_1028,body_behavioural,3.2.1,60.034142263742076,
5,parcelated_audio/12/12_7.aiff,,0,5,5,5,,,,,0,6,6,6,,,,,,,,,,,,,,,,,,,,,,,,,,,,,,,,,,,,,,,,,,,,,,,,,,,,,,,,,,,,,,,,,1833.2767834087251,None,1833.2768148070318,None,1,0.2925347479758784,1843.5775252290186,None,1843.5775252290186,None,1843.5775252290186,None,1843.5775252290186,None,,,,,,,,,,,,,,,,,,,,,,,,,,,,,,,,,,,,,,,,,,,,,,,,,,,092319_p1,001,2019_Sep_23_1028,body_behavioural,3.2.1,60.034142263742076,
5,parcelated_audio/12/12_8.aiff,,0,5,5,5,,,,,0,7,7,7,,,,,,,,,,,,,,,,,,,,,,,,,,,,,,,,,,,,,,,,,,,,,,,,,,,,,,,,,,,,,,,,,1843.961553805694,None,1843.9618144389824,None,1,2.1198862599558197,1852.712348497007,None,1852.712348497007,None,1852.712348497007,None,1852.712348497007,None,,,,,,,,,,,,,,,,,,,,,,,,,,,,,,,,,,,,,,,,,,,,,,,,,,,092319_p1,001,2019_Sep_23_1028,body_behavioural,3.2.1,60.034142263742076,
5,parcelated_audio/12/12_9.aiff,,0,5,5,5,,,,,0,8,8,8,,,,,,,,,,,,,,,,,,,,,,,,,,,,,,,,,,,,,,,,,,,,,,,,,,,,,,,,,,,,,,,,,1854.9287484387285,None,1854.9292117489967,None,1,0.38462035200791433,1858.7285789290327,None,1858.7285789290327,None,1858.7285789290327,None,1858.7285789290327,None,,,,,,,,,,,,,,,,,,,,,,,,,,,,,,,,,,,,,,,,,,,,,,,,,,,092319_p1,001,2019_Sep_23_1028,body_behavioural,3.2.1,60.034142263742076,
5,parcelated_audio/12/12_10.aiff,,0,5,5,5,,,,,0,9,9,9,,,,,,,,,,,,,,,,,,,,,,,,,,,,,,,,,,,,,,,,,,,,,,,,,,,,,,,,,,,,,,,,,1859.2125356437289,None,1859.2118783890037,None,1,0.3253655729931779,1864.012210644025,None,1864.012210644025,None,1864.012210644025,None,1864.012210644025,None,,,,,,,,,,,,,,,,,,,,,,,,,,,,,,,,,,,,,,,,,,,,,,,,,,,092319_p1,001,2019_Sep_23_1028,body_behavioural,3.2.1,60.034142263742076,
5,parcelated_audio/12/12_11.aiff,,0,5,5,5,,,,,0,10,10,10,,,,,,,,,,,,,,,,,,,,,,,,,,,,,,,,,,,,,,,,,,,,,,,,,,,,,,,,,,,,,,,,,1864.4292987036868,None,1864.4291583489976,None,1,0.2814587900065817,1867.2793081540149,None,1867.2793081540149,None,1867.2793081540149,None,1867.2793081540149,None,,,,,,,,,,,,,,,,,,,,,,,,,,,,,,,,,,,,,,,,,,,,,,,,,,,092319_p1,001,2019_Sep_23_1028,body_behavioural,3.2.1,60.034142263742076,
5,parcelated_audio/12/12_12.aiff,,0,5,5,5,,,,,0,11,11,11,,,,,,,,,,,,,,,,,,,,,,,,,,,,,,,,,,,,,,,,,,,,,,,,,,,,,,,,,,,,,,,,,1867.646700518683,None,1867.6460767770186,None,1,0.734639430011157,1876.5130582870333,None,1876.5130582870333,None,1876.5130582870333,None,1876.5130582870333,None,,,,,,,,,,,,,,,,,,,,,,,,,,,,,,,,,,,,,,,,,,,,,,,,,,,092319_p1,001,2019_Sep_23_1028,body_behavioural,3.2.1,60.034142263742076,
5,parcelated_audio/12/12_13.aiff,,0,5,5,5,,,,,0,12,12,12,,,,,,,,,,,,,,,,,,,,,,,,,,,,,,,,,,,,,,,,,,,,,,,,,,,,,,,,,,,,,,,,,1877.3473895136965,None,1877.3464519060217,None,1,0.3996450080303475,1882.5802344069816,None,1882.5802344069816,None,1882.5802344069816,None,1882.5802344069816,None,,,,,,,,,,,,,,,,,,,,,,,,,,,,,,,,,,,,,,,,,,,,,,,,,,,092319_p1,001,2019_Sep_23_1028,body_behavioural,3.2.1,60.034142263742076,
5,parcelated_audio/12/12_14.aiff,,0,5,5,5,,,,,0,13,13,13,,,,,,,,,,,,,,,,,,,,,,,,,,,,,,,,,,,,,,,,,,,,,,,,,,,,,,,,,,,,,,,,,1883.064322195726,None,1883.0642893770128,None,9,0.2306647360092029,1887.9638187690289,None,1887.9638187690289,None,1887.9638187690289,None,1887.9638187690289,None,,,,,,,,,,,,,,,,,,,,,,,,,,,,,,,,,,,,,,,,,,,,,,,,,,,092319_p1,001,2019_Sep_23_1028,body_behavioural,3.2.1,60.034142263742076,
5,parcelated_audio/12/12_15.aiff,,0,5,5,5,,,,,0,14,14,14,,,,,,,,,,,,,,,,,,,,,,,,,,,,,,,,,,,,,,,,,,,,,,,,,,,,,,,,,,,,,,,,,1888.280834580725,None,1888.281185717031,None,1,0.4017824570182711,1894.2644322540145,None,1894.2644322540145,None,1894.2644322540145,None,1894.2644322540145,None,,,,,,,,,,,,,,,,,,,,,,,,,,,,,,,,,,,,,,,,,,,,,,,,,,,092319_p1,001,2019_Sep_23_1028,body_behavioural,3.2.1,60.034142263742076,
5,parcelated_audio/12/12_16.aiff,,0,5,5,5,,,,,0,15,15,15,,,,,,,,,,,,,,,,,,,,,,,,,,,,,,,,,,,,,,,,,,,,,,,,,,,,,,,,,,,,,,,,,1894.764319118706,None,1894.7648223990109,None,1,0.30352061899611726,1898.9313314870233,None,1898.9313314870233,None,1898.9313314870233,None,1898.9313314870233,None,,,,,,,,,,,,,,,,,,,,,,,,,,,,,,,,,,,,,,,,,,,,,,,,,,,092319_p1,001,2019_Sep_23_1028,body_behavioural,3.2.1,60.034142263742076,
5,parcelated_audio/12/12_17.aiff,,0,5,5,5,,,,,0,16,16,16,,,,,,,,,,,,,,,,,,,,,,,,,,,,,,,,,,,,,,,,,,,,,,,,,,,,,,,,,,,,,,,,,1899.3315649906988,None,1899.3322637579986,None,1,0.9827099120011553,1904.283171157993,None,1904.283171157993,None,1904.283171157993,None,1904.283171157993,None,,,,,,,,,,,,,,,,,,,,,,,,,,,,,,,,,,,,,,,,,,,,,,,,,,,092319_p1,001,2019_Sep_23_1028,body_behavioural,3.2.1,60.034142263742076,
5,parcelated_audio/12/12_18.aiff,,0,5,5,5,,,,,0,17,17,17,,,,,,,,,,,,,,,,,,,,,,,,,,,,,,,,,,,,,,,,,,,,,,,,,,,,,,,,,,,,,,,,,1905.3667662087362,None,1905.382965961995,None,1,0.5208171079866588,1914.532380856981,None,1914.532380856981,None,1914.532380856981,None,1914.532380856981,None,,,,,,,,,,,,,,,,,,,,,,,,,,,,,,,,,,,,,,,,,,,,,,,,,,,092319_p1,001,2019_Sep_23_1028,body_behavioural,3.2.1,60.034142263742076,
5,parcelated_audio/12/12_19.aiff,,0,5,5,5,,,,,0,18,18,18,,,,,,,,,,,,,,,,,,,,,,,,,,,,,,,,,,,,,,,,,,,,,,,,,,,,,,,,,,,,,,,,,1915.1667961087194,None,1915.1659206270124,None,1,0.4200299800140783,1925.1497475919896,None,1925.1497475919896,None,1925.1497475919896,None,1925.1497475919896,None,,,,,,,,,,,,,,,,,,,,,,,,,,,,,,,,,,,,,,,,,,,,,,,,,,,092319_p1,001,2019_Sep_23_1028,body_behavioural,3.2.1,60.034142263742076,
5,parcelated_audio/12/12_20.aiff,,0,5,5,5,,,,,0,19,19,19,,,,,,,,,,,,,,,,,,,,,,,,,,,,,,,,,,,,,,,,,,,,,,,,,,,,,,,,,,,,,,,,,1925.6831941456883,None,1925.6831021520193,None,9,11.759702493029181,1933.4503745320253,None,1933.4503745320253,None,1933.4503745320253,None,1933.4503745320253,None,,,,,,,,,,,,,,,,,,,,,,,,,,,,,,,,,,,,,,,,,,,,,,,,,,,092319_p1,001,2019_Sep_23_1028,body_behavioural,3.2.1,60.034142263742076,
5,parcelated_audio/12/12_21.aiff,,0,5,5,5,,,,,0,20,20,20,,,,,,,,,,,,,,,,,,,,,,,,,,,,,,,,,,,,,,,,,,,,,,,,,,,,,,,,,,,,,,,,,1945.3019020106992,None,1945.301252242003,None,1,0.24902479496086016,1950.802522062033,None,1950.802522062033,None,1950.802522062033,None,1950.802522062033,None,,,,,,,,,,,,,,,,,,,,,,,,,,,,,,,,,,,,,,,,,,,,,,,,,,,092319_p1,001,2019_Sep_23_1028,body_behavioural,3.2.1,60.034142263742076,
5,parcelated_audio/12/12_22.aiff,,0,5,5,5,,,,,0,21,21,21,,,,,,,,,,,,,,,,,,,,,,,,,,,,,,,,,,,,,,,,,,,,,,,,,,,,,,,,,,,,,,,,,1951.134887860692,None,1951.1348199300119,None,1,0.32146192697109655,1954.969142794027,None,1954.969142794027,None,1954.969142794027,None,1954.969142794027,None,,,,,,,,,,,,,,,,,,,,,,,,,,,,,,,,,,,,,,,,,,,,,,,,,,,092319_p1,001,2019_Sep_23_1028,body_behavioural,3.2.1,60.034142263742076,
5,parcelated_audio/12/12_23.aiff,,0,5,5,5,,,,,0,22,22,22,,,,,,,,,,,,,,,,,,,,,,,,,,,,,,,,,,,,,,,,,,,,,,,,,,,,,,,,,,,,,,,,,1955.3854052607319,None,1955.385405322013,None,1,0.2782997899921611,1962.2191020669998,None,1962.2191020669998,None,1962.2191020669998,None,1962.2191020669998,None,,,,,,,,,,,,,,,,,,,,,,,,,,,,,,,,,,,,,,,,,,,,,,,,,,,092319_p1,001,2019_Sep_23_1028,body_behavioural,3.2.1,60.034142263742076,
5,parcelated_audio/12/12_24.aiff,,0,5,5,5,,,,,0,23,23,23,,,,,,,,,,,,,,,,,,,,,,,,,,,,,,,,,,,,,,,,,,,,,,,,,,,,,,,,,,,,,,,,,1962.5856941657373,None,1962.5857654270367,None,1,0.31397686497075483,1966.7192933440092,None,1966.7192933440092,None,1966.7192933440092,None,1966.7192933440092,None,,,,,,,,,,,,,,,,,,,,,,,,,,,,,,,,,,,,,,,,,,,,,,,,,,,092319_p1,001,2019_Sep_23_1028,body_behavioural,3.2.1,60.034142263742076,
5,parcelated_audio/12/12_25.aiff,,0,5,5,5,,,,,0,24,24,24,,,,,,,,,,,,,,,,,,,,,,,,,,,,,,,,,,,,,,,,,,,,,,,,,,,,,,,,,,,,,,,,,1967.136988250725,None,1967.1369665469974,None,9,0.4117411350016482,1977.4381644470268,None,1977.4381644470268,None,1977.4381644470268,None,1977.4381644470268,None,,,,,,,,,,,,,,,,,,,,,,,,,,,,,,,,,,,,,,,,,,,,,,,,,,,092319_p1,001,2019_Sep_23_1028,body_behavioural,3.2.1,60.034142263742076,
5,parcelated_audio/12/12_26.aiff,,0,5,5,5,,,,,0,25,25,25,,,,,,,,,,,,,,,,,,,,,,,,,,,,,,,,,,,,,,,,,,,,,,,,,,,,,,,,,,,,,,,,,1977.9377313086995,None,1977.936868689023,None,9,1.3972200870048255,1983.155135346984,None,1983.155135346984,None,1983.155135346984,None,1983.155135346984,None,,,,,,,,,,,,,,,,,,,,,,,,,,,,,,,,,,,,,,,,,,,,,,,,,,,092319_p1,001,2019_Sep_23_1028,body_behavioural,3.2.1,60.034142263742076,
5,parcelated_audio/12/12_27.aiff,,0,5,5,5,,,,,0,26,26,26,,,,,,,,,,,,,,,,,,,,,,,,,,,,,,,,,,,,,,,,,,,,,,,,,,,,,,,,,,,,,,,,,1984.6538835606887,None,1984.6543963419972,None,1,1.6899125979980454,1992.3216512469808,None,1992.3216512469808,None,1992.3216512469808,None,1992.3216512469808,None,,,,,,,,,,,,,,,,,,,,,,,,,,,,,,,,,,,,,,,,,,,,,,,,,,,092319_p1,001,2019_Sep_23_1028,body_behavioural,3.2.1,60.034142263742076,
5,parcelated_audio/12/12_28.aiff,,0,5,5,5,,,,,0,27,27,27,,,,,,,,,,,,,,,,,,,,,,,,,,,,,,,,,,,,,,,,,,,,,,,,,,,,,,,,,,,,,,,,,1994.1388628237298,None,1994.137770376983,None,1,0.544680590974167,2005.1053021689877,None,2005.1053021689877,None,2005.1053021689877,None,2005.1053021689877,None,,,,,,,,,,,,,,,,,,,,,,,,,,,,,,,,,,,,,,,,,,,,,,,,,,,092319_p1,001,2019_Sep_23_1028,body_behavioural,3.2.1,60.034142263742076,
5,parcelated_audio/12/12_29.aiff,,0,5,5,5,,,,,0,28,28,28,,,,,,,,,,,,,,,,,,,,,,,,,,,,,,,,,,,,,,,,,,,,,,,,,,,,,,,,,,,,,,,,,2005.7553363207378,None,2005.7553134990158,None,1,0.2922179320012219,2011.822415178991,None,2011.822415178991,None,2011.822415178991,None,2011.822415178991,None,,,,,,,,,,,,,,,,,,,,,,,,,,,,,,,,,,,,,,,,,,,,,,,,,,,092319_p1,001,2019_Sep_23_1028,body_behavioural,3.2.1,60.034142263742076,
5,parcelated_audio/12/12_30.aiff,,0,5,5,5,,,,,0,29,29,29,,,,,,,,,,,,,,,,,,,,,,,,,,,,,,,,,,,,,,,,,,,,,,,,,,,,,,,,,,,,,,,,,2012.2735028106952,None,2012.2732338139904,None,1,1.4119943619589321,2019.2062106470112,None,2019.2062106470112,None,2019.2062106470112,None,2019.2062106470112,None,,,,,,,,,,,,,,,,,,,,,,,,,,,,,,,,,,,,,,,,,,,,,,,,,,,092319_p1,001,2019_Sep_23_1028,body_behavioural,3.2.1,60.034142263742076,
5,parcelated_audio/12/12_31.aiff,,0,5,5,5,,,,,0,30,30,30,,,,,,,,,,,,,,,,,,,,,,,,,,,,,,,,,,,,,,,,,,,,,,,,,,,,,,,,,,,,,,,,,2020.7070315086864,None,2020.706329099019,None,1,0.39012602699222043,2027.8413492020336,None,2027.8413492020336,None,2027.8413492020336,None,2027.8413492020336,None,,,,,,,,,,,,,,,,,,,,,,,,,,,,,,,,,,,,,,,,,,,,,,,,,,,092319_p1,001,2019_Sep_23_1028,body_behavioural,3.2.1,60.034142263742076,
5,,,0,5,5,5,,,,,,,,,,,,,,,,,,,,,,,,,,,,,,,,,,,,,,,,,,,,,,,,,,,,,,,,,,,,,,,,,,,,,,,,,,,,,,,,,,,,,,,2028.257284752035,None,2028.257284752035,None,space,1.6881672499584965,2028.257284752035,None,,,,,,,,,,,,,,,,,,,,,,,,,,,,,,,,,,,,,,,,,,,092319_p1,001,2019_Sep_23_1028,body_behavioural,3.2.1,60.034142263742076,
6,,,0,6,6,6,0,0,0,0,,,,,,,,,,,,,,,,,2029.9909144690027,None,space,0.7035827619838528,2029.9909144690027,None,2029.9909144690027,None,2030.7245002590353,None,space,1.0428032169584185,2030.7245002590353,None,2031.8571128839976,None,2031.8571128839976,None,2031.8571128839976,None,2037.1408477289951,None,space,1.0181281570112333,2037.1408477289951,None,2038.4586295770132,None,2038.4586295770132,None,2038.4586295770132,None,2038.4586295770132,None,2038.4586295770132,None,2038.4586295770132,None,2038.4586295770132,None,,,,,,,,,,,,,,,,,,,,,,,,,,,,,,,,,,,,,,,,,,,,,,,,,,,,,,,,,,,,,,,,,,,,,,,,,,,,,092319_p1,001,2019_Sep_23_1028,body_behavioural,3.2.1,60.034142263742076,
6,parcelated_audio/23/23_1.aiff,,0,6,6,6,,,,,0,0,0,0,,,,,,,,,,,,,,,,,,,,,,,,,,,2057.22617334401,None,2057.22617334401,None,2057.22617334401,None,,,,,,,,,,,,,,,,,,,,,2056.3761594120297,None,space,0.7728694020188414,2056.3761594120297,None,2058.1592678219895,None,space,1.3164375149644911,2058.1592678219895,None,2059.6931597537014,None,2059.6929324690136,None,9,0.6115448380005546,2070.093090604001,None,2070.093090604001,None,2070.093090604001,None,2070.093090604001,None,,,,,,,,,,,,,,,,,,,,,,,,,,,,,,,,,,,,,,,,,,,,,,,,,,,092319_p1,001,2019_Sep_23_1028,body_behavioural,3.2.1,60.034142263742076,
6,parcelated_audio/23/23_2.aiff,,0,6,6,6,,,,,0,1,1,1,,,,,,,,,,,,,,,,,,,,,,,,,,,,,,,,,,,,,,,,,,,,,,,,,,,,,,,,,,,,,,,,,2070.810105108726,None,2070.8106427690363,None,1,1.0165655930177309,2077.6937874070136,None,2077.6937874070136,None,2077.6937874070136,None,2077.6937874070136,None,,,,,,,,,,,,,,,,,,,,,,,,,,,,,,,,,,,,,,,,,,,,,,,,,,,092319_p1,001,2019_Sep_23_1028,body_behavioural,3.2.1,60.034142263742076,
6,parcelated_audio/23/23_3.aiff,,0,6,6,6,,,,,0,2,2,2,,,,,,,,,,,,,,,,,,,,,,,,,,,,,,,,,,,,,,,,,,,,,,,,,,,,,,,,,,,,,,,,,2078.7770485117335,None,2078.7769356269855,None,1,0.5700589219923131,2084.5613070870168,None,2084.5613070870168,None,2084.5613070870168,None,2084.5613070870168,None,,,,,,,,,,,,,,,,,,,,,,,,,,,,,,,,,,,,,,,,,,,,,,,,,,,092319_p1,001,2019_Sep_23_1028,body_behavioural,3.2.1,60.034142263742076,
6,parcelated_audio/23/23_4.aiff,,0,6,6,6,,,,,0,3,3,3,,,,,,,,,,,,,,,,,,,,,,,,,,,,,,,,,,,,,,,,,,,,,,,,,,,,,,,,,,,,,,,,,2085.2441293887214,None,2085.2450582190068,None,1,0.3757860379992053,2096.5115960520343,None,2096.5115960520343,None,2096.5115960520343,None,2096.5115960520343,None,,,,,,,,,,,,,,,,,,,,,,,,,,,,,,,,,,,,,,,,,,,,,,,,,,,092319_p1,001,2019_Sep_23_1028,body_behavioural,3.2.1,60.034142263742076,
6,parcelated_audio/23/23_5.aiff,,0,6,6,6,,,,,0,4,4,4,,,,,,,,,,,,,,,,,,,,,,,,,,,,,,,,,,,,,,,,,,,,,,,,,,,,,,,,,,,,,,,,,2096.978714013717,None,2096.9784143620054,None,1,0.5631421079742722,2103.195579838997,None,2103.195579838997,None,2103.195579838997,None,2103.195579838997,None,,,,,,,,,,,,,,,,,,,,,,,,,,,,,,,,,,,,,,,,,,,,,,,,,,,092319_p1,001,2019_Sep_23_1028,body_behavioural,3.2.1,60.034142263742076,
6,parcelated_audio/23/23_6.aiff,,0,6,6,6,,,,,0,5,5,5,,,,,,,,,,,,,,,,,,,,,,,,,,,,,,,,,,,,,,,,,,,,,,,,,,,,,,,,,,,,,,,,,2103.8462712186856,None,2103.845759842021,None,1,0.5079376199864782,2111.2298563389922,None,2111.2298563389922,None,2111.2298563389922,None,2111.2298563389922,None,,,,,,,,,,,,,,,,,,,,,,,,,,,,,,,,,,,,,,,,,,,,,,,,,,,092319_p1,001,2019_Sep_23_1028,body_behavioural,3.2.1,60.034142263742076,
6,parcelated_audio/23/23_7.aiff,,0,6,6,6,,,,,0,6,6,6,,,,,,,,,,,,,,,,,,,,,,,,,,,,,,,,,,,,,,,,,,,,,,,,,,,,,,,,,,,,,,,,,2111.830311498733,None,2111.8292336390004,None,9,0.15177192498231307,2118.5798225190374,None,2118.5798225190374,None,2118.5798225190374,None,2118.5798225190374,None,,,,,,,,,,,,,,,,,,,,,,,,,,,,,,,,,,,,,,,,,,,,,,,,,,,092319_p1,001,2019_Sep_23_1028,body_behavioural,3.2.1,60.034142263742076,
6,parcelated_audio/23/23_8.aiff,,0,6,6,6,,,,,0,7,7,7,,,,,,,,,,,,,,,,,,,,,,,,,,,,,,,,,,,,,,,,,,,,,,,,,,,,,,,,,,,,,,,,,2118.8303143507337,None,2118.830971852003,None,1,0.2591996550327167,2124.213893326989,None,2124.213893326989,None,2124.213893326989,None,2124.213893326989,None,,,,,,,,,,,,,,,,,,,,,,,,,,,,,,,,,,,,,,,,,,,,,,,,,,,092319_p1,001,2019_Sep_23_1028,body_behavioural,3.2.1,60.034142263742076,
6,parcelated_audio/23/23_9.aiff,,0,6,6,6,,,,,0,8,8,8,,,,,,,,,,,,,,,,,,,,,,,,,,,,,,,,,,,,,,,,,,,,,,,,,,,,,,,,,,,,,,,,,2124.5642418087346,None,2124.5638686569873,None,1,0.3387033910257742,2128.913755807036,None,2128.913755807036,None,2128.913755807036,None,2128.913755807036,None,,,,,,,,,,,,,,,,,,,,,,,,,,,,,,,,,,,,,,,,,,,,,,,,,,,092319_p1,001,2019_Sep_23_1028,body_behavioural,3.2.1,60.034142263742076,
6,parcelated_audio/23/23_10.aiff,,0,6,6,6,,,,,0,9,9,9,,,,,,,,,,,,,,,,,,,,,,,,,,,,,,,,,,,,,,,,,,,,,,,,,,,,,,,,,,,,,,,,,2129.347859998711,None,2129.3481896190206,None,1,0.4585004299879074,2133.2818657989847,None,2133.2818657989847,None,2133.2818657989847,None,2133.2818657989847,None,,,,,,,,,,,,,,,,,,,,,,,,,,,,,,,,,,,,,,,,,,,,,,,,,,,092319_p1,001,2019_Sep_23_1028,body_behavioural,3.2.1,60.034142263742076,
6,parcelated_audio/23/23_11.aiff,,0,6,6,6,,,,,0,10,10,10,,,,,,,,,,,,,,,,,,,,,,,,,,,,,,,,,,,,,,,,,,,,,,,,,,,,,,,,,,,,,,,,,2133.8307853757406,None,2133.8311290320125,None,1,1.2175878090201877,2141.9482041419833,None,2141.9482041419833,None,2141.9482041419833,None,2141.9482041419833,None,,,,,,,,,,,,,,,,,,,,,,,,,,,,,,,,,,,,,,,,,,,,,,,,,,,092319_p1,001,2019_Sep_23_1028,body_behavioural,3.2.1,60.034142263742076,
6,parcelated_audio/23/23_12.aiff,,0,6,6,6,,,,,0,11,11,11,,,,,,,,,,,,,,,,,,,,,,,,,,,,,,,,,,,,,,,,,,,,,,,,,,,,,,,,,,,,,,,,,2143.264764950739,None,2143.2648425570223,None,9,0.28678848303388804,2150.416289227025,None,2150.416289227025,None,2150.416289227025,None,2150.416289227025,None,,,,,,,,,,,,,,,,,,,,,,,,,,,,,,,,,,,,,,,,,,,,,,,,,,,092319_p1,001,2019_Sep_23_1028,body_behavioural,3.2.1,60.034142263742076,
6,parcelated_audio/23/23_13.aiff,,0,6,6,6,,,,,0,12,12,12,,,,,,,,,,,,,,,,,,,,,,,,,,,,,,,,,,,,,,,,,,,,,,,,,,,,,,,,,,,,,,,,,2150.815280368738,None,2150.8152097869897,None,1,0.3355442779720761,2157.5828662620042,None,2157.5828662620042,None,2157.5828662620042,None,2157.5828662620042,None,,,,,,,,,,,,,,,,,,,,,,,,,,,,,,,,,,,,,,,,,,,,,,,,,,,092319_p1,001,2019_Sep_23_1028,body_behavioural,3.2.1,60.034142263742076,
6,parcelated_audio/23/23_14.aiff,,0,6,6,6,,,,,0,13,13,13,,,,,,,,,,,,,,,,,,,,,,,,,,,,,,,,,,,,,,,,,,,,,,,,,,,,,,,,,,,,,,,,,2158.0164732406965,None,2158.0158334019943,None,1,1.4166117110289633,2162.366961362015,None,2162.366961362015,None,2162.366961362015,None,2162.366961362015,None,,,,,,,,,,,,,,,,,,,,,,,,,,,,,,,,,,,,,,,,,,,,,,,,,,,092319_p1,001,2019_Sep_23_1028,body_behavioural,3.2.1,60.034142263742076,
6,parcelated_audio/23/23_15.aiff,,0,6,6,6,,,,,0,14,14,14,,,,,,,,,,,,,,,,,,,,,,,,,,,,,,,,,,,,,,,,,,,,,,,,,,,,,,,,,,,,,,,,,2163.8826980057174,None,2163.8825814099982,None,1,0.7175879980204627,2168.299921134021,None,2168.299921134021,None,2168.299921134021,None,2168.299921134021,None,,,,,,,,,,,,,,,,,,,,,,,,,,,,,,,,,,,,,,,,,,,,,,,,,,,092319_p1,001,2019_Sep_23_1028,body_behavioural,3.2.1,60.034142263742076,
