count,audio,instructText,trials.thisRepN,trials.thisTrialN,trials.thisN,trials.thisIndex,trials_7.thisRepN,trials_7.thisTrialN,trials_7.thisN,trials_7.thisIndex,trials_2.thisRepN,trials_2.thisTrialN,trials_2.thisN,trials_2.thisIndex,trials_3.thisRepN,trials_3.thisTrialN,trials_3.thisN,trials_3.thisIndex,trials_4.thisRepN,trials_4.thisTrialN,trials_4.thisN,trials_4.thisIndex,order of stories,order of perspectives,participant 2 order - stories,participant 2 order  - schemas types,text_38.started,text_38.stopped,key_resp_8.keys,key_resp_8.rt,key_resp_8.started,key_resp_8.stopped,text_39.started,text_39.stopped,text_33.started,text_33.stopped,key_resp_5.keys,key_resp_5.rt,key_resp_5.started,key_resp_5.stopped,text_4.started,text_4.stopped,image.started,image.stopped,text_5.started,text_5.stopped,text_37.started,text_37.stopped,key_resp_7.keys,key_resp_7.rt,key_resp_7.started,key_resp_7.stopped,question1_2.started,question1_2.stopped,question2_2.started,question2_2.stopped,question3_2.started,question3_2.stopped,question4_2.started,question4_2.stopped,question5_2.started,question5_2.stopped,question6_2.started,question6_2.stopped,image_15.started,image_15.stopped,text_49.started,text_49.stopped,key_resp_15.keys,key_resp_15.rt,key_resp_15.started,key_resp_15.stopped,text_50.started,text_50.stopped,key_resp_14.keys,key_resp_14.rt,key_resp_14.started,key_resp_14.stopped,story_presses.keys,story_presses.rt,story_presses.started,story_presses.stopped,text_34.started,text_34.stopped,text_35.started,text_35.stopped,text.started,text.stopped,text_52.started,text_52.stopped,key_resp_16.keys,key_resp_16.rt,key_resp_16.started,key_resp_16.stopped,story time,text_45.started,text_45.stopped,key_resp_6.keys,key_resp_6.rt,key_resp_6.started,key_resp_6.stopped,key_resp_2.keys,key_resp_2.rt,key_resp_2.started,key_resp_2.stopped,text_6.started,text_6.stopped,text_24.started,text_24.stopped,text_41.started,text_41.stopped,key_resp_10.keys,key_resp_10.rt,key_resp_10.started,key_resp_10.stopped,text_42.started,text_42.stopped,text_51.started,text_51.stopped,recall,text_9.started,text_9.stopped,text_10.started,text_10.stopped,image_4.started,image_4.stopped,polygon.started,polygon.stopped,bottom_line.started,bottom_line.stopped,right_line_2.started,right_line_2.stopped,left_line.started,left_line.stopped,text_48.started,text_48.stopped,participant,session,date,expName,psychopyVersion,frameRate,
0,,,0,0,0,0,0,0,0,0,,,,,,,,,,,,,[33 11 21 32 43 14 24 42 34 13 12 22 23 44 31 41],"['Location' 'Location' 'Social' 'Social' 'Social' 'Social' 'Location'
 'Location' 'Location' 'Social' 'Location' 'Social' 'Location' 'Social'
 'Social' 'Location']",[34 13 12 22 23 44 31 41],"['Location' 'Social' 'Location' 'Social' 'Location' 'Social' 'Social'
 'Location']",69.15299885799959,None,space,29.455759273000695,69.15299885799959,None,69.15299885799959,None,98.63502727099967,None,space,1.1335737119998157,98.63502727099967,None,99.86965849399985,None,99.86965849399985,None,99.86965849399985,None,111.20283388999997,None,space,3.4936488660005125,111.20283388999997,None,114.85550392599907,None,114.85550392599907,None,114.85550392599907,None,114.85550392599907,None,114.85550392599907,None,114.85550392599907,None,114.85550392599907,None,,,,,,,,,,,,,,,,,,,,,,,,,,,,,,,,,,,,,,,,,,,,,,,,,,,,,,,,,,,,,,,,,,,,,,,100419_p1,001,2019_Oct_04_1318,body_behavioural,3.2.2,60.1264201274072,
0,parcelated_audio/33/33_1.ogg,,0,0,0,0,,,,,0,0,0,0,,,,,,,,,,,,,,,,,,,,,,,,,,,146.75981996200062,None,146.75981996200062,None,146.75981996200062,None,,,,,,,,,,,,,,,,,,,,,145.0153936129991,None,space,1.7017282460001297,145.0153936129991,None,148.9436257159996,None,space,2.1814586050004436,148.9436257159996,None,1,17.36887367199961,161.3448657959998,None,161.3448657959998,None,161.3448657959998,None,,,,,,,,,,,,,,,,,,,,,,,,,,,,,,,,,,,,,,,,,,,,,,,,,,,100419_p1,001,2019_Oct_04_1318,body_behavioural,3.2.2,60.1264201274072,
0,parcelated_audio/33/33_2.ogg,,0,0,0,0,,,,,0,1,1,1,,,,,,,,,,,,,,,,,,,,,,,,,,,,,,,,,,,,,,,,,,,,,,,,,,,,,,,,,,,,,,,,,1,0.8574425290007639,189.21634549400005,None,189.21634549400005,None,189.21634549400005,None,,,,,,,,,,,,,,,,,,,,,,,,,,,,,,,,,,,,,,,,,,,,,,,,,,,100419_p1,001,2019_Oct_04_1318,body_behavioural,3.2.2,60.1264201274072,
0,parcelated_audio/33/33_3.ogg,,0,0,0,0,,,,,0,2,2,2,,,,,,,,,,,,,,,,,,,,,,,,,,,,,,,,,,,,,,,,,,,,,,,,,,,,,,,,,,,,,,,,,1,30.849688317000982,196.7016307569993,None,196.7016307569993,None,196.7016307569993,None,,,,,,,,,,,,,,,,,,,,,,,,,,,,,,,,,,,,,,,,,,,,,,,,,,,100419_p1,001,2019_Oct_04_1318,body_behavioural,3.2.2,60.1264201274072,
0,parcelated_audio/33/33_4.ogg,,0,0,0,0,,,,,0,3,3,3,,,,,,,,,,,,,,,,,,,,,,,,,,,,,,,,,,,,,,,,,,,,,,,,,,,,,,,,,,,,,,,,,1,8.367273654999735,231.18981554099992,None,231.18981554099992,None,231.18981554099992,None,,,,,,,,,,,,,,,,,,,,,,,,,,,,,,,,,,,,,,,,,,,,,,,,,,,100419_p1,001,2019_Oct_04_1318,body_behavioural,3.2.2,60.1264201274072,
0,parcelated_audio/33/33_5.ogg,,0,0,0,0,,,,,0,4,4,4,,,,,,,,,,,,,,,,,,,,,,,,,,,,,,,,,,,,,,,,,,,,,,,,,,,,,,,,,,,,,,,,,1,1.0465557320003427,250.8771892829991,None,250.8771892829991,None,250.8771892829991,None,,,,,,,,,,,,,,,,,,,,,,,,,,,,,,,,,,,,,,,,,,,,,,,,,,,100419_p1,001,2019_Oct_04_1318,body_behavioural,3.2.2,60.1264201274072,
0,parcelated_audio/33/33_6.ogg,,0,0,0,0,,,,,0,5,5,5,,,,,,,,,,,,,,,,,,,,,,,,,,,,,,,,,,,,,,,,,,,,,,,,,,,,,,,,,,,,,,,,,9,4.903719341999022,263.71228943700044,None,263.71228943700044,None,263.71228943700044,None,,,,,,,,,,,,,,,,,,,,,,,,,,,,,,,,,,,,,,,,,,,,,,,,,,,100419_p1,001,2019_Oct_04_1318,body_behavioural,3.2.2,60.1264201274072,
0,parcelated_audio/33/33_7.ogg,,0,0,0,0,,,,,0,6,6,6,,,,,,,,,,,,,,,,,,,,,,,,,,,,,,,,,,,,,,,,,,,,,,,,,,,,,,,,,,,,,,,,,9,0.8979306990004261,283.2482851450004,None,283.2482851450004,None,283.2482851450004,None,,,,,,,,,,,,,,,,,,,,,,,,,,,,,,,,,,,,,,,,,,,,,,,,,,,100419_p1,001,2019_Oct_04_1318,body_behavioural,3.2.2,60.1264201274072,
0,parcelated_audio/33/33_8.ogg,,0,0,0,0,,,,,0,7,7,7,,,,,,,,,,,,,,,,,,,,,,,,,,,,,,,,,,,,,,,,,,,,,,,,,,,,,,,,,,,,,,,,,9,6.32100034799987,290.3665769319996,None,290.3665769319996,None,290.3665769319996,None,,,,,,,,,,,,,,,,,,,,,,,,,,,,,,,,,,,,,,,,,,,,,,,,,,,100419_p1,001,2019_Oct_04_1318,body_behavioural,3.2.2,60.1264201274072,
0,parcelated_audio/33/33_9.ogg,,0,0,0,0,,,,,0,8,8,8,,,,,,,,,,,,,,,,,,,,,,,,,,,,,,,,,,,,,,,,,,,,,,,,,,,,,,,,,,,,,,,,,1,8.870485104000181,300.48714612599906,None,300.48714612599906,None,300.48714612599906,None,,,,,,,,,,,,,,,,,,,,,,,,,,,,,,,,,,,,,,,,,,,,,,,,,,,100419_p1,001,2019_Oct_04_1318,body_behavioural,3.2.2,60.1264201274072,
0,parcelated_audio/33/33_10.ogg,,0,0,0,0,,,,,0,9,9,9,,,,,,,,,,,,,,,,,,,,,,,,,,,,,,,,,,,,,,,,,,,,,,,,,,,,,,,,,,,,,,,,,1,4.941660681999565,314.80329602500024,None,314.80329602500024,None,314.80329602500024,None,,,,,,,,,,,,,,,,,,,,,,,,,,,,,,,,,,,,,,,,,,,,,,,,,,,100419_p1,001,2019_Oct_04_1318,body_behavioural,3.2.2,60.1264201274072,
0,parcelated_audio/33/33_11.ogg,,0,0,0,0,,,,,0,10,10,10,,,,,,,,,,,,,,,,,,,,,,,,,,,,,,,,,,,,,,,,,,,,,,,,,,,,,,,,,,,,,,,,,1,0.7039282080004341,334.25696127300034,None,334.25696127300034,None,334.25696127300034,None,,,,,,,,,,,,,,,,,,,,,,,,,,,,,,,,,,,,,,,,,,,,,,,,,,,100419_p1,001,2019_Oct_04_1318,body_behavioural,3.2.2,60.1264201274072,
0,parcelated_audio/33/33_12.ogg,,0,0,0,0,,,,,0,11,11,11,,,,,,,,,,,,,,,,,,,,,,,,,,,,,,,,,,,,,,,,,,,,,,,,,,,,,,,,,,,,,,,,,1,2.8440410530001827,341.1407464339991,None,341.1407464339991,None,341.1407464339991,None,,,,,,,,,,,,,,,,,,,,,,,,,,,,,,,,,,,,,,,,,,,,,,,,,,,100419_p1,001,2019_Oct_04_1318,body_behavioural,3.2.2,60.1264201274072,
0,parcelated_audio/33/33_13.ogg,,0,0,0,0,,,,,0,12,12,12,,,,,,,,,,,,,,,,,,,,,,,,,,,,,,,,,,,,,,,,,,,,,,,,,,,,,,,,,,,,,,,,,9,5.573099190998619,351.45986511999945,None,351.45986511999945,None,351.45986511999945,None,,,,,,,,,,,,,,,,,,,,,,,,,,,,,,,,,,,,,,,,,,,,,,,,,,,100419_p1,001,2019_Oct_04_1318,body_behavioural,3.2.2,60.1264201274072,
0,parcelated_audio/33/33_14.ogg,,0,0,0,0,,,,,0,13,13,13,,,,,,,,,,,,,,,,,,,,,,,,,,,,,,,,,,,,,,,,,,,,,,,,,,,,,,,,,,,,,,,,,1,0.6158317650006211,369.5623168530001,None,369.5623168530001,None,369.5623168530001,None,,,,,,,,,,,,,,,,,,,,,,,,,,,,,,,,,,,,,,,,,,,,,,,,,,,100419_p1,001,2019_Oct_04_1318,body_behavioural,3.2.2,60.1264201274072,
0,parcelated_audio/33/33_15.ogg,,0,0,0,0,,,,,0,14,14,14,,,,,,,,,,,,,,,,,,,,,,,,,,,,,,,,,,,,,,,,,,,,,,,,,,,,,,,,,,,,,,,,,1,3.833553453001514,388.8010013660005,None,388.8010013660005,None,388.8010013660005,None,,,,,,,,,,,,,,,,,,,,,,,,,,,,,,,,,,,,,,,,,,,,,,,,,,,100419_p1,001,2019_Oct_04_1318,body_behavioural,3.2.2,60.1264201274072,
0,parcelated_audio/33/33_16.ogg,,0,0,0,0,,,,,0,15,15,15,,,,,,,,,,,,,,,,,,,,,,,,,,,,,,,,,,,,,,,,,,,,,,,,,,,,,,,,,,,,,,,,,9,10.086463241999809,404.9848656739996,None,404.9848656739996,None,404.9848656739996,None,,,,,,,,,,,,,,,,,,,,,,,,,,,,,,,,,,,,,,,,,,,,,,,,,,,100419_p1,001,2019_Oct_04_1318,body_behavioural,3.2.2,60.1264201274072,
0,parcelated_audio/33/33_17.ogg,,0,0,0,0,,,,,0,16,16,16,,,,,,,,,,,,,,,,,,,,,,,,,,,,,,,,,,,,,,,,,,,,,,,,,,,,,,,,,,,,,,,,,1,2.283124751998912,426.3561934440004,None,426.3561934440004,None,426.3561934440004,None,,,,,,,,,,,,,,,,,,,,,,,,,,,,,,,,,,,,,,,,,,,,,,,,,,,100419_p1,001,2019_Oct_04_1318,body_behavioural,3.2.2,60.1264201274072,
0,parcelated_audio/33/33_18.ogg,,0,0,0,0,,,,,0,17,17,17,,,,,,,,,,,,,,,,,,,,,,,,,,,,,,,,,,,,,,,,,,,,,,,,,,,,,,,,,,,,,,,,,1,2.369873734000066,437.1735472340006,None,437.1735472340006,None,437.1735472340006,None,,,,,,,,,,,,,,,,,,,,,,,,,,,,,,,,,,,,,,,,,,,,,,,,,,,100419_p1,001,2019_Oct_04_1318,body_behavioural,3.2.2,60.1264201274072,
0,parcelated_audio/33/33_19.ogg,,0,0,0,0,,,,,0,18,18,18,,,,,,,,,,,,,,,,,,,,,,,,,,,,,,,,,,,,,,,,,,,,,,,,,,,,,,,,,,,,,,,,,9,0.6117843789998005,443.0755314580001,None,443.0755314580001,None,443.0755314580001,None,,,,,,,,,,,,,,,,,,,,,,,,,,,,,,,,,,,,,,,,,,,,,,,,,,,100419_p1,001,2019_Oct_04_1318,body_behavioural,3.2.2,60.1264201274072,
0,parcelated_audio/33/33_20.ogg,,0,0,0,0,,,,,0,19,19,19,,,,,,,,,,,,,,,,,,,,,,,,,,,,,,,,,,,,,,,,,,,,,,,,,,,,,,,,,,,,,,,,,1,0.292945437000526,450.6584814830003,None,450.6584814830003,None,450.6584814830003,None,,,,,,,,,,,,,,,,,,,,,,,,,,,,,,,,,,,,,,,,,,,,,,,,,,,100419_p1,001,2019_Oct_04_1318,body_behavioural,3.2.2,60.1264201274072,
0,parcelated_audio/33/33_21.ogg,,0,0,0,0,,,,,0,20,20,20,,,,,,,,,,,,,,,,,,,,,,,,,,,,,,,,,,,,,,,,,,,,,,,,,,,,,,,,,,,,,,,,,1,2.611929308000981,455.05947163400015,None,455.05947163400015,None,455.05947163400015,None,,,,,,,,,,,,,,,,,,,,,,,,,,,,,,,,,,,,,,,,,,,,,,,,,,,100419_p1,001,2019_Oct_04_1318,body_behavioural,3.2.2,60.1264201274072,
0,parcelated_audio/33/33_22.ogg,,0,0,0,0,,,,,0,21,21,21,,,,,,,,,,,,,,,,,,,,,,,,,,,,,,,,,,,,,,,,,,,,,,,,,,,,,,,,,,,,,,,,,1,6.985814531999495,469.579127519999,None,469.579127519999,None,469.579127519999,None,,,,,,,,,,,,,,,,,,,,,,,,,,,,,,,,,,,,,,,,,,,,,,,,,,,100419_p1,001,2019_Oct_04_1318,body_behavioural,3.2.2,60.1264201274072,
0,parcelated_audio/33/33_23.ogg,,0,0,0,0,,,,,0,22,22,22,,,,,,,,,,,,,,,,,,,,,,,,,,,,,,,,,,,,,,,,,,,,,,,,,,,,,,,,,,,,,,,,,1,0.10425818699877709,487.1487905069989,None,487.1487905069989,None,487.1487905069989,None,,,,,,,,,,,,,,,,,,,,,,,,,,,,,,,,,,,,,,,,,,,,,,,,,,,100419_p1,001,2019_Oct_04_1318,body_behavioural,3.2.2,60.1264201274072,
0,parcelated_audio/33/33_24.ogg,,0,0,0,0,,,,,0,23,23,23,,,,,,,,,,,,,,,,,,,,,,,,,,,,,,,,,,,,,,,,,,,,,,,,,,,,,,,,,,,,,,,,,9,4.832244442000956,493.59863418199893,None,493.59863418199893,None,493.59863418199893,None,,,,,,,,,,,,,,,,,,,,,,,,,,,,,,,,,,,,,,,,,,,,,,,,,,,100419_p1,001,2019_Oct_04_1318,body_behavioural,3.2.2,60.1264201274072,
0,parcelated_audio/33/33_25.ogg,,0,0,0,0,,,,,0,24,24,24,,,,,,,,,,,,,,,,,,,,,,,,,,,,,,,,,,,,,,,,,,,,,,,,,,,,,,,,,,,,,,,,,1,1.9547811199990974,506.68442674700054,None,506.68442674700054,None,506.68442674700054,None,,,,,,,,,,,,,,,,,,,,,,,,,,,,,,,,,,,,,,,,,,,,,,,,,,,100419_p1,001,2019_Oct_04_1318,body_behavioural,3.2.2,60.1264201274072,
0,parcelated_audio/33/33_26.ogg,,0,0,0,0,,,,,0,25,25,25,,,,,,,,,,,,,,,,,,,,,,,,,,,,,,,,,,,,,,,,,,,,,,,,,,,,,,,,,,,,,,,,,1,0.2736647420006193,515.802688365,None,515.802688365,None,515.802688365,None,,,,,,,,,,,,,,,,,,,,,,,,,,,,,,,,,,,,,,,,,,,,,,,,,,,100419_p1,001,2019_Oct_04_1318,body_behavioural,3.2.2,60.1264201274072,
0,parcelated_audio/33/33_27.ogg,,0,0,0,0,,,,,0,26,26,26,,,,,,,,,,,,,,,,,,,,,,,,,,,,,,,,,,,,,,,,,,,,,,,,,,,,,,,,,,,,,,,,,9,1.520425377999345,523.7058914129993,None,523.7058914129993,None,523.7058914129993,None,,,,,,,,,,,,,,,,,,,,,,,,,,,,,,,,,,,,,,,,,,,,,,,,,,,100419_p1,001,2019_Oct_04_1318,body_behavioural,3.2.2,60.1264201274072,
0,parcelated_audio/33/33_28.ogg,,0,0,0,0,,,,,0,27,27,27,,,,,,,,,,,,,,,,,,,,,,,,,,,,,,,,,,,,,,,,,,,,,,,,,,,,,,,,,,,,,,,,,1,4.1141549640015,530.9727286559992,None,530.9727286559992,None,530.9727286559992,None,,,,,,,,,,,,,,,,,,,,,,,,,,,,,,,,,,,,,,,,,,,,,,,,,,,100419_p1,001,2019_Oct_04_1318,body_behavioural,3.2.2,60.1264201274072,
0,parcelated_audio/33/33_29.ogg,,0,0,0,0,,,,,0,28,28,28,,,,,,,,,,,,,,,,,,,,,,,,,,,,,,,,,,,,,,,,,,,,,,,,,,,,,,,,,,,,,,,,,9,0.371068655000272,543.0918763919999,None,543.0918763919999,None,543.0918763919999,None,,,,,,,,,,,,,,,,,,,,,,,,,,,,,,,,,,,,,,,,,,,,,,,,,,,100419_p1,001,2019_Oct_04_1318,body_behavioural,3.2.2,60.1264201274072,
0,parcelated_audio/33/33_30.ogg,,0,0,0,0,,,,,0,29,29,29,,,,,,,,,,,,,,,,,,,,,,,,,,,,,,,,,,,,,,,,,,,,,,,,,,,,,,,,,,,,,,,,,1,32.16194927300057,558.5085406919989,None,558.5085406919989,None,558.5085406919989,None,,,,,,,,,,,,,,,,,,,,,,,,,,,,,,,,,,,,,,,,,,,,,,,,,,,100419_p1,001,2019_Oct_04_1318,body_behavioural,3.2.2,60.1264201274072,
0,parcelated_audio/33/33_31.ogg,,0,0,0,0,,,,,0,30,30,30,,,,,,,,,,,,,,,,,,,,,,,,,,,,,,,,,,,,,,,,,,,,,,,,,,,,,,,,,,,,,,,,,9,1.1747617790006188,600.4823277409996,None,600.4823277409996,None,600.4823277409996,None,,,,,,,,,,,,,,,,,,,,,,,,,,,,,,,,,,,,,,,,,,,,,,,,,,,100419_p1,001,2019_Oct_04_1318,body_behavioural,3.2.2,60.1264201274072,
0,parcelated_audio/33/33_32.ogg,,0,0,0,0,,,,,0,31,31,31,,,,,,,,,,,,,,,,,,,,,,,,,,,,,,,,,,,,,,,,,,,,,,,,,,,,,,,,,,,,,,,,,1,2.7770781189992704,607.3669154090003,None,607.3669154090003,None,607.3669154090003,None,,,,,,,,,,,,,,,,,,,,,,,,,,,,,,,,,,,,,,,,,,,,,,,,,,,100419_p1,001,2019_Oct_04_1318,body_behavioural,3.2.2,60.1264201274072,
0,,,0,0,0,0,,,,,,,,,,,,,,,,,,,,,,,,,,,,,,,,,,,,,,,,,,,,,,,,,,,,,,,,,,,,,,,,,,,,,,,,,,,,,,,,,610.1842273309994,None,610.1842273309994,None,space,3.776778232999277,610.1842273309994,None,,,,,,,,,,,,,,,,,,,,,,,,,,,,,,,,,,,,,,,,,,,100419_p1,001,2019_Oct_04_1318,body_behavioural,3.2.2,60.1264201274072,
1,,,0,1,1,1,0,0,0,0,,,,,,,,,,,,,,,,,614.0076398189995,None,space,0.7373563189994456,614.0076398189995,None,614.0076398189995,None,614.7919623149992,None,space,0.5848936050006159,614.7919623149992,None,615.4436419220001,None,615.4436419220001,None,615.4436419220001,None,616.7347974379991,None,space,1.21811200600132,616.7347974379991,None,618.0865633110006,None,618.0865633110006,None,618.0865633110006,None,618.0865633110006,None,618.0865633110006,None,618.0865633110006,None,618.0865633110006,None,,,,,,,,,,,,,,,,,,,,,,,,,,,,,,,,,,,,,,,,,,,,,,,,,,,,,,,,,,,,,,,,,,,,,,,100419_p1,001,2019_Oct_04_1318,body_behavioural,3.2.2,60.1264201274072,
1,parcelated_audio/11/11_1.ogg,,0,1,1,1,,,,,0,0,0,0,,,,,,,,,,,,,,,,,,,,,,,,,,,633.037900329,None,633.037900329,None,633.037900329,None,,,,,,,,,,,,,,,,,,,,,631.7109428459989,None,space,1.2819750769995153,631.7109428459989,None,633.5607727030001,None,space,1.2322350049998931,633.5607727030001,None,1,0.7761367449984391,646.8563249549989,None,646.8563249549989,None,646.8563249549989,None,,,,,,,,,,,,,,,,,,,,,,,,,,,,,,,,,,,,,,,,,,,,,,,,,,,100419_p1,001,2019_Oct_04_1318,body_behavioural,3.2.2,60.1264201274072,
1,parcelated_audio/11/11_2.ogg,,0,1,1,1,,,,,0,1,1,1,,,,,,,,,,,,,,,,,,,,,,,,,,,,,,,,,,,,,,,,,,,,,,,,,,,,,,,,,,,,,,,,,1,1.394813865001197,652.1906107569994,None,652.1906107569994,None,652.1906107569994,None,,,,,,,,,,,,,,,,,,,,,,,,,,,,,,,,,,,,,,,,,,,,,,,,,,,100419_p1,001,2019_Oct_04_1318,body_behavioural,3.2.2,60.1264201274072,
1,parcelated_audio/11/11_3.ogg,,0,1,1,1,,,,,0,2,2,2,,,,,,,,,,,,,,,,,,,,,,,,,,,,,,,,,,,,,,,,,,,,,,,,,,,,,,,,,,,,,,,,,1,4.709784471000603,658.674339956,None,658.674339956,None,658.674339956,None,,,,,,,,,,,,,,,,,,,,,,,,,,,,,,,,,,,,,,,,,,,,,,,,,,,100419_p1,001,2019_Oct_04_1318,body_behavioural,3.2.2,60.1264201274072,
1,parcelated_audio/11/11_4.ogg,,0,1,1,1,,,,,0,3,3,3,,,,,,,,,,,,,,,,,,,,,,,,,,,,,,,,,,,,,,,,,,,,,,,,,,,,,,,,,,,,,,,,,1,0.6488948480000545,672.56125402,None,672.56125402,None,672.56125402,None,,,,,,,,,,,,,,,,,,,,,,,,,,,,,,,,,,,,,,,,,,,,,,,,,,,100419_p1,001,2019_Oct_04_1318,body_behavioural,3.2.2,60.1264201274072,
1,parcelated_audio/11/11_5.ogg,,0,1,1,1,,,,,0,4,4,4,,,,,,,,,,,,,,,,,,,,,,,,,,,,,,,,,,,,,,,,,,,,,,,,,,,,,,,,,,,,,,,,,9,10.571090713001468,679.0295926099989,None,679.0295926099989,None,679.0295926099989,None,,,,,,,,,,,,,,,,,,,,,,,,,,,,,,,,,,,,,,,,,,,,,,,,,,,100419_p1,001,2019_Oct_04_1318,body_behavioural,3.2.2,60.1264201274072,
1,parcelated_audio/11/11_6.ogg,,0,1,1,1,,,,,0,5,5,5,,,,,,,,,,,,,,,,,,,,,,,,,,,,,,,,,,,,,,,,,,,,,,,,,,,,,,,,,,,,,,,,,1,0.6482151830005023,694.2474750279998,None,694.2474750279998,None,694.2474750279998,None,,,,,,,,,,,,,,,,,,,,,,,,,,,,,,,,,,,,,,,,,,,,,,,,,,,100419_p1,001,2019_Oct_04_1318,body_behavioural,3.2.2,60.1264201274072,
1,parcelated_audio/11/11_7.ogg,,0,1,1,1,,,,,0,6,6,6,,,,,,,,,,,,,,,,,,,,,,,,,,,,,,,,,,,,,,,,,,,,,,,,,,,,,,,,,,,,,,,,,1,2.3252069849986583,701.5185411439998,None,701.5185411439998,None,701.5185411439998,None,,,,,,,,,,,,,,,,,,,,,,,,,,,,,,,,,,,,,,,,,,,,,,,,,,,100419_p1,001,2019_Oct_04_1318,body_behavioural,3.2.2,60.1264201274072,
1,parcelated_audio/11/11_8.ogg,,0,1,1,1,,,,,0,7,7,7,,,,,,,,,,,,,,,,,,,,,,,,,,,,,,,,,,,,,,,,,,,,,,,,,,,,,,,,,,,,,,,,,1,0.2336673530007829,709.684819479,None,709.684819479,None,709.684819479,None,,,,,,,,,,,,,,,,,,,,,,,,,,,,,,,,,,,,,,,,,,,,,,,,,,,100419_p1,001,2019_Oct_04_1318,body_behavioural,3.2.2,60.1264201274072,
1,parcelated_audio/11/11_9.ogg,,0,1,1,1,,,,,0,8,8,8,,,,,,,,,,,,,,,,,,,,,,,,,,,,,,,,,,,,,,,,,,,,,,,,,,,,,,,,,,,,,,,,,1,2.760147473998586,714.3007348089996,None,714.3007348089996,None,714.3007348089996,None,,,,,,,,,,,,,,,,,,,,,,,,,,,,,,,,,,,,,,,,,,,,,,,,,,,100419_p1,001,2019_Oct_04_1318,body_behavioural,3.2.2,60.1264201274072,
1,parcelated_audio/11/11_10.ogg,,0,1,1,1,,,,,0,9,9,9,,,,,,,,,,,,,,,,,,,,,,,,,,,,,,,,,,,,,,,,,,,,,,,,,,,,,,,,,,,,,,,,,9,4.780940066000767,721.7358432189994,None,721.7358432189994,None,721.7358432189994,None,,,,,,,,,,,,,,,,,,,,,,,,,,,,,,,,,,,,,,,,,,,,,,,,,,,100419_p1,001,2019_Oct_04_1318,body_behavioural,3.2.2,60.1264201274072,
1,parcelated_audio/11/11_11.ogg,,0,1,1,1,,,,,0,10,10,10,,,,,,,,,,,,,,,,,,,,,,,,,,,,,,,,,,,,,,,,,,,,,,,,,,,,,,,,,,,,,,,,,1,0.3872472189996188,729.7534476620003,None,729.7534476620003,None,729.7534476620003,None,,,,,,,,,,,,,,,,,,,,,,,,,,,,,,,,,,,,,,,,,,,,,,,,,,,100419_p1,001,2019_Oct_04_1318,body_behavioural,3.2.2,60.1264201274072,
1,parcelated_audio/11/11_12.ogg,,0,1,1,1,,,,,0,11,11,11,,,,,,,,,,,,,,,,,,,,,,,,,,,,,,,,,,,,,,,,,,,,,,,,,,,,,,,,,,,,,,,,,1,0.6862435530001676,733.070400999999,None,733.070400999999,None,733.070400999999,None,,,,,,,,,,,,,,,,,,,,,,,,,,,,,,,,,,,,,,,,,,,,,,,,,,,100419_p1,001,2019_Oct_04_1318,body_behavioural,3.2.2,60.1264201274072,
1,parcelated_audio/11/11_13.ogg,,0,1,1,1,,,,,0,12,12,12,,,,,,,,,,,,,,,,,,,,,,,,,,,,,,,,,,,,,,,,,,,,,,,,,,,,,,,,,,,,,,,,,1,4.085365187000207,737.1539483510005,None,737.1539483510005,None,737.1539483510005,None,,,,,,,,,,,,,,,,,,,,,,,,,,,,,,,,,,,,,,,,,,,,,,,,,,,100419_p1,001,2019_Oct_04_1318,body_behavioural,3.2.2,60.1264201274072,
1,parcelated_audio/11/11_14.ogg,,0,1,1,1,,,,,0,13,13,13,,,,,,,,,,,,,,,,,,,,,,,,,,,,,,,,,,,,,,,,,,,,,,,,,,,,,,,,,,,,,,,,,1,5.285535498000172,744.0079374420002,None,744.0079374420002,None,744.0079374420002,None,,,,,,,,,,,,,,,,,,,,,,,,,,,,,,,,,,,,,,,,,,,,,,,,,,,100419_p1,001,2019_Oct_04_1318,body_behavioural,3.2.2,60.1264201274072,
1,parcelated_audio/11/11_15.ogg,,0,1,1,1,,,,,0,14,14,14,,,,,,,,,,,,,,,,,,,,,,,,,,,,,,,,,,,,,,,,,,,,,,,,,,,,,,,,,,,,,,,,,1,3.1348227679991396,760.5753195069992,None,760.5753195069992,None,760.5753195069992,None,,,,,,,,,,,,,,,,,,,,,,,,,,,,,,,,,,,,,,,,,,,,,,,,,,,100419_p1,001,2019_Oct_04_1318,body_behavioural,3.2.2,60.1264201274072,
1,parcelated_audio/11/11_16.ogg,,0,1,1,1,,,,,0,15,15,15,,,,,,,,,,,,,,,,,,,,,,,,,,,,,,,,,,,,,,,,,,,,,,,,,,,,,,,,,,,,,,,,,9,7.077321225999185,766.7929383810006,None,766.7929383810006,None,766.7929383810006,None,,,,,,,,,,,,,,,,,,,,,,,,,,,,,,,,,,,,,,,,,,,,,,,,,,,100419_p1,001,2019_Oct_04_1318,body_behavioural,3.2.2,60.1264201274072,
1,parcelated_audio/11/11_17.ogg,,0,1,1,1,,,,,0,16,16,16,,,,,,,,,,,,,,,,,,,,,,,,,,,,,,,,,,,,,,,,,,,,,,,,,,,,,,,,,,,,,,,,,1,0.7244598689994746,780.9297400639989,None,780.9297400639989,None,780.9297400639989,None,,,,,,,,,,,,,,,,,,,,,,,,,,,,,,,,,,,,,,,,,,,,,,,,,,,100419_p1,001,2019_Oct_04_1318,body_behavioural,3.2.2,60.1264201274072,
1,parcelated_audio/11/11_18.ogg,,0,1,1,1,,,,,0,17,17,17,,,,,,,,,,,,,,,,,,,,,,,,,,,,,,,,,,,,,,,,,,,,,,,,,,,,,,,,,,,,,,,,,1,13.31453887799944,789.1796272310003,None,789.1796272310003,None,789.1796272310003,None,,,,,,,,,,,,,,,,,,,,,,,,,,,,,,,,,,,,,,,,,,,,,,,,,,,100419_p1,001,2019_Oct_04_1318,body_behavioural,3.2.2,60.1264201274072,
1,parcelated_audio/11/11_19.ogg,,0,1,1,1,,,,,0,18,18,18,,,,,,,,,,,,,,,,,,,,,,,,,,,,,,,,,,,,,,,,,,,,,,,,,,,,,,,,,,,,,,,,,9,0.5210530519998429,807.149206050999,None,807.149206050999,None,807.149206050999,None,,,,,,,,,,,,,,,,,,,,,,,,,,,,,,,,,,,,,,,,,,,,,,,,,,,100419_p1,001,2019_Oct_04_1318,body_behavioural,3.2.2,60.1264201274072,
1,parcelated_audio/11/11_20.ogg,,0,1,1,1,,,,,0,19,19,19,,,,,,,,,,,,,,,,,,,,,,,,,,,,,,,,,,,,,,,,,,,,,,,,,,,,,,,,,,,,,,,,,1,1.3472774059991934,812.6669027899989,None,812.6669027899989,None,812.6669027899989,None,,,,,,,,,,,,,,,,,,,,,,,,,,,,,,,,,,,,,,,,,,,,,,,,,,,100419_p1,001,2019_Oct_04_1318,body_behavioural,3.2.2,60.1264201274072,
1,parcelated_audio/11/11_21.ogg,,0,1,1,1,,,,,0,20,20,20,,,,,,,,,,,,,,,,,,,,,,,,,,,,,,,,,,,,,,,,,,,,,,,,,,,,,,,,,,,,,,,,,1,0.6320035770004324,822.8541616530001,None,822.8541616530001,None,822.8541616530001,None,,,,,,,,,,,,,,,,,,,,,,,,,,,,,,,,,,,,,,,,,,,,,,,,,,,100419_p1,001,2019_Oct_04_1318,body_behavioural,3.2.2,60.1264201274072,
1,parcelated_audio/11/11_22.ogg,,0,1,1,1,,,,,0,21,21,21,,,,,,,,,,,,,,,,,,,,,,,,,,,,,,,,,,,,,,,,,,,,,,,,,,,,,,,,,,,,,,,,,1,0.5444965019996744,826.8856030129991,None,826.8856030129991,None,826.8856030129991,None,,,,,,,,,,,,,,,,,,,,,,,,,,,,,,,,,,,,,,,,,,,,,,,,,,,100419_p1,001,2019_Oct_04_1318,body_behavioural,3.2.2,60.1264201274072,
1,parcelated_audio/11/11_23.ogg,,0,1,1,1,,,,,0,22,22,22,,,,,,,,,,,,,,,,,,,,,,,,,,,,,,,,,,,,,,,,,,,,,,,,,,,,,,,,,,,,,,,,,1,0.1745791579996876,832.3035386219999,None,832.3035386219999,None,832.3035386219999,None,,,,,,,,,,,,,,,,,,,,,,,,,,,,,,,,,,,,,,,,,,,,,,,,,,,100419_p1,001,2019_Oct_04_1318,body_behavioural,3.2.2,60.1264201274072,
1,parcelated_audio/11/11_24.ogg,,0,1,1,1,,,,,0,23,23,23,,,,,,,,,,,,,,,,,,,,,,,,,,,,,,,,,,,,,,,,,,,,,,,,,,,,,,,,,,,,,,,,,1,0.6181577880015539,836.1879890189994,None,836.1879890189994,None,836.1879890189994,None,,,,,,,,,,,,,,,,,,,,,,,,,,,,,,,,,,,,,,,,,,,,,,,,,,,100419_p1,001,2019_Oct_04_1318,body_behavioural,3.2.2,60.1264201274072,
1,parcelated_audio/11/11_25.ogg,,0,1,1,1,,,,,0,24,24,24,,,,,,,,,,,,,,,,,,,,,,,,,,,,,,,,,,,,,,,,,,,,,,,,,,,,,,,,,,,,,,,,,9,1.91294988700065,841.6212186270004,None,841.6212186270004,None,841.6212186270004,None,,,,,,,,,,,,,,,,,,,,,,,,,,,,,,,,,,,,,,,,,,,,,,,,,,,100419_p1,001,2019_Oct_04_1318,body_behavioural,3.2.2,60.1264201274072,
1,parcelated_audio/11/11_26.ogg,,0,1,1,1,,,,,0,25,25,25,,,,,,,,,,,,,,,,,,,,,,,,,,,,,,,,,,,,,,,,,,,,,,,,,,,,,,,,,,,,,,,,,9,4.1537851320008485,848.589231820999,None,848.589231820999,None,848.589231820999,None,,,,,,,,,,,,,,,,,,,,,,,,,,,,,,,,,,,,,,,,,,,,,,,,,,,100419_p1,001,2019_Oct_04_1318,body_behavioural,3.2.2,60.1264201274072,
1,parcelated_audio/11/11_27.ogg,,0,1,1,1,,,,,0,26,26,26,,,,,,,,,,,,,,,,,,,,,,,,,,,,,,,,,,,,,,,,,,,,,,,,,,,,,,,,,,,,,,,,,9,0.040075430000797496,856.7911160589993,None,856.7911160589993,None,856.7911160589993,None,,,,,,,,,,,,,,,,,,,,,,,,,,,,,,,,,,,,,,,,,,,,,,,,,,,100419_p1,001,2019_Oct_04_1318,body_behavioural,3.2.2,60.1264201274072,
1,parcelated_audio/11/11_28.ogg,,0,1,1,1,,,,,0,27,27,27,,,,,,,,,,,,,,,,,,,,,,,,,,,,,,,,,,,,,,,,,,,,,,,,,,,,,,,,,,,,,,,,,9,0.6483791669998027,860.3415085020006,None,860.3415085020006,None,860.3415085020006,None,,,,,,,,,,,,,,,,,,,,,,,,,,,,,,,,,,,,,,,,,,,,,,,,,,,100419_p1,001,2019_Oct_04_1318,body_behavioural,3.2.2,60.1264201274072,
1,parcelated_audio/11/11_29.ogg,,0,1,1,1,,,,,0,28,28,28,,,,,,,,,,,,,,,,,,,,,,,,,,,,,,,,,,,,,,,,,,,,,,,,,,,,,,,,,,,,,,,,,9,3.3088610300001164,865.241943821,None,865.241943821,None,865.241943821,None,,,,,,,,,,,,,,,,,,,,,,,,,,,,,,,,,,,,,,,,,,,,,,,,,,,100419_p1,001,2019_Oct_04_1318,body_behavioural,3.2.2,60.1264201274072,
1,parcelated_audio/11/11_30.ogg,,0,1,1,1,,,,,0,29,29,29,,,,,,,,,,,,,,,,,,,,,,,,,,,,,,,,,,,,,,,,,,,,,,,,,,,,,,,,,,,,,,,,,1,1.9856553049994545,873.1594775699996,None,873.1594775699996,None,873.1594775699996,None,,,,,,,,,,,,,,,,,,,,,,,,,,,,,,,,,,,,,,,,,,,,,,,,,,,100419_p1,001,2019_Oct_04_1318,body_behavioural,3.2.2,60.1264201274072,
1,parcelated_audio/11/11_31.ogg,,0,1,1,1,,,,,0,30,30,30,,,,,,,,,,,,,,,,,,,,,,,,,,,,,,,,,,,,,,,,,,,,,,,,,,,,,,,,,,,,,,,,,1,2.0909109040003386,880.078396461,None,880.078396461,None,880.078396461,None,,,,,,,,,,,,,,,,,,,,,,,,,,,,,,,,,,,,,,,,,,,,,,,,,,,100419_p1,001,2019_Oct_04_1318,body_behavioural,3.2.2,60.1264201274072,
1,parcelated_audio/11/11_32.ogg,,0,1,1,1,,,,,0,31,31,31,,,,,,,,,,,,,,,,,,,,,,,,,,,,,,,,,,,,,,,,,,,,,,,,,,,,,,,,,,,,,,,,,9,0.6566418080001313,886.3125214979991,None,886.3125214979991,None,886.3125214979991,None,,,,,,,,,,,,,,,,,,,,,,,,,,,,,,,,,,,,,,,,,,,,,,,,,,,100419_p1,001,2019_Oct_04_1318,body_behavioural,3.2.2,60.1264201274072,
1,parcelated_audio/11/11_33.ogg,,0,1,1,1,,,,,0,32,32,32,,,,,,,,,,,,,,,,,,,,,,,,,,,,,,,,,,,,,,,,,,,,,,,,,,,,,,,,,,,,,,,,,1,1.1863609299998643,889.5800329100002,None,889.5800329100002,None,889.5800329100002,None,,,,,,,,,,,,,,,,,,,,,,,,,,,,,,,,,,,,,,,,,,,,,,,,,,,100419_p1,001,2019_Oct_04_1318,body_behavioural,3.2.2,60.1264201274072,
1,parcelated_audio/11/11_34.ogg,,0,1,1,1,,,,,0,33,33,33,,,,,,,,,,,,,,,,,,,,,,,,,,,,,,,,,,,,,,,,,,,,,,,,,,,,,,,,,,,,,,,,,1,1.7950297570005205,894.1472567620003,None,894.1472567620003,None,894.1472567620003,None,,,,,,,,,,,,,,,,,,,,,,,,,,,,,,,,,,,,,,,,,,,,,,,,,,,100419_p1,001,2019_Oct_04_1318,body_behavioural,3.2.2,60.1264201274072,
1,parcelated_audio/11/11_35.ogg,,0,1,1,1,,,,,0,34,34,34,,,,,,,,,,,,,,,,,,,,,,,,,,,,,,,,,,,,,,,,,,,,,,,,,,,,,,,,,,,,,,,,,1,1.3984545629991771,900.3974113559998,None,900.3974113559998,None,900.3974113559998,None,,,,,,,,,,,,,,,,,,,,,,,,,,,,,,,,,,,,,,,,,,,,,,,,,,,100419_p1,001,2019_Oct_04_1318,body_behavioural,3.2.2,60.1264201274072,
1,parcelated_audio/11/11_36.ogg,,0,1,1,1,,,,,0,35,35,35,,,,,,,,,,,,,,,,,,,,,,,,,,,,,,,,,,,,,,,,,,,,,,,,,,,,,,,,,,,,,,,,,9,1.7406689250001364,910.8846936569989,None,910.8846936569989,None,910.8846936569989,None,,,,,,,,,,,,,,,,,,,,,,,,,,,,,,,,,,,,,,,,,,,,,,,,,,,100419_p1,001,2019_Oct_04_1318,body_behavioural,3.2.2,60.1264201274072,
1,parcelated_audio/11/11_37.ogg,,0,1,1,1,,,,,0,36,36,36,,,,,,,,,,,,,,,,,,,,,,,,,,,,,,,,,,,,,,,,,,,,,,,,,,,,,,,,,,,,,,,,,1,0.309382564999396,916.8839796359989,None,916.8839796359989,None,916.8839796359989,None,,,,,,,,,,,,,,,,,,,,,,,,,,,,,,,,,,,,,,,,,,,,,,,,,,,100419_p1,001,2019_Oct_04_1318,body_behavioural,3.2.2,60.1264201274072,
1,parcelated_audio/11/11_38.ogg,,0,1,1,1,,,,,0,37,37,37,,,,,,,,,,,,,,,,,,,,,,,,,,,,,,,,,,,,,,,,,,,,,,,,,,,,,,,,,,,,,,,,,1,0.9403247720001673,923.4186542209991,None,923.4186542209991,None,923.4186542209991,None,,,,,,,,,,,,,,,,,,,,,,,,,,,,,,,,,,,,,,,,,,,,,,,,,,,100419_p1,001,2019_Oct_04_1318,body_behavioural,3.2.2,60.1264201274072,
1,parcelated_audio/11/11_39.ogg,,0,1,1,1,,,,,0,38,38,38,,,,,,,,,,,,,,,,,,,,,,,,,,,,,,,,,,,,,,,,,,,,,,,,,,,,,,,,,,,,,,,,,1,0.030903931001375895,929.6361322140001,None,929.6361322140001,None,929.6361322140001,None,,,,,,,,,,,,,,,,,,,,,,,,,,,,,,,,,,,,,,,,,,,,,,,,,,,100419_p1,001,2019_Oct_04_1318,body_behavioural,3.2.2,60.1264201274072,
1,parcelated_audio/11/11_40.ogg,,0,1,1,1,,,,,0,39,39,39,,,,,,,,,,,,,,,,,,,,,,,,,,,,,,,,,,,,,,,,,,,,,,,,,,,,,,,,,,,,,,,,,1,0.29041559399956896,935.403391718999,None,935.403391718999,None,935.403391718999,None,,,,,,,,,,,,,,,,,,,,,,,,,,,,,,,,,,,,,,,,,,,,,,,,,,,100419_p1,001,2019_Oct_04_1318,body_behavioural,3.2.2,60.1264201274072,
1,parcelated_audio/11/11_41.ogg,,0,1,1,1,,,,,0,40,40,40,,,,,,,,,,,,,,,,,,,,,,,,,,,,,,,,,,,,,,,,,,,,,,,,,,,,,,,,,,,,,,,,,1,0.09212861199921463,941.921950729,None,941.921950729,None,941.921950729,None,,,,,,,,,,,,,,,,,,,,,,,,,,,,,,,,,,,,,,,,,,,,,,,,,,,100419_p1,001,2019_Oct_04_1318,body_behavioural,3.2.2,60.1264201274072,
1,,,0,1,1,1,,,,,,,,,,,,,,,,,,,,,,,,,,,,,,,,,,,,,,,,,,,,,,,,,,,,,,,,,,,,,,,,,,,,,,,,,,,,,,,,,942.0390286769998,None,942.0390286769998,None,space,1.7670680650007853,942.0390286769998,None,,,,,,,,,,,,,,,,,,,,,,,,,,,,,,,,,,,,,,,,,,,100419_p1,001,2019_Oct_04_1318,body_behavioural,3.2.2,60.1264201274072,
2,,,0,2,2,2,0,0,0,0,,,,,,,,,,,,,,,,,943.8617570200004,None,space,0.6402108929996757,943.8617570200004,None,943.8617570200004,None,944.5456354590006,None,space,0.7003249709996453,944.5456354590006,None,945.3317902220006,None,945.3317902220006,None,945.3317902220006,None,946.2226390119995,None,space,0.7434554819992627,946.2226390119995,None,947.1134027509997,None,947.1134027509997,None,947.1134027509997,None,947.1134027509997,None,947.1134027509997,None,947.1134027509997,None,947.1134027509997,None,,,,,,,,,,,,,,,,,,,,,,,,,,,,,,,,,,,,,,,,,,,,,,,,,,,,,,,,,,,,,,,,,,,,,,,100419_p1,001,2019_Oct_04_1318,body_behavioural,3.2.2,60.1264201274072,
2,parcelated_audio/21/21_1.ogg,,0,2,2,2,,,,,0,0,0,0,,,,,,,,,,,,,,,,,,,,,,,,,,,975.3601597180004,None,975.3601597180004,None,975.3601597180004,None,,,,,,,,,,,,,,,,,,,,,974.6520999129989,None,space,0.6426659410008142,974.6520999129989,None,975.8553604549998,None,space,0.6873180439997668,975.8553604549998,None,1,8.447273895000762,990.8787465389996,None,990.8787465389996,None,990.8787465389996,None,,,,,,,,,,,,,,,,,,,,,,,,,,,,,,,,,,,,,,,,,,,,,,,,,,,100419_p1,001,2019_Oct_04_1318,body_behavioural,3.2.2,60.1264201274072,
2,parcelated_audio/21/21_2.ogg,,0,2,2,2,,,,,0,1,1,1,,,,,,,,,,,,,,,,,,,,,,,,,,,,,,,,,,,,,,,,,,,,,,,,,,,,,,,,,,,,,,,,,1,1.1597135329993762,1006.8342644919994,None,1006.8342644919994,None,1006.8342644919994,None,,,,,,,,,,,,,,,,,,,,,,,,,,,,,,,,,,,,,,,,,,,,,,,,,,,100419_p1,001,2019_Oct_04_1318,body_behavioural,3.2.2,60.1264201274072,
2,parcelated_audio/21/21_3.ogg,,0,2,2,2,,,,,0,2,2,2,,,,,,,,,,,,,,,,,,,,,,,,,,,,,,,,,,,,,,,,,,,,,,,,,,,,,,,,,,,,,,,,,1,1.0342932800012932,1015.7509039100005,None,1015.7509039100005,None,1015.7509039100005,None,,,,,,,,,,,,,,,,,,,,,,,,,,,,,,,,,,,,,,,,,,,,,,,,,,,100419_p1,001,2019_Oct_04_1318,body_behavioural,3.2.2,60.1264201274072,
2,parcelated_audio/21/21_4.ogg,,0,2,2,2,,,,,0,3,3,3,,,,,,,,,,,,,,,,,,,,,,,,,,,,,,,,,,,,,,,,,,,,,,,,,,,,,,,,,,,,,,,,,1,1.6282495420000487,1027.9021937550006,None,1027.9021937550006,None,1027.9021937550006,None,,,,,,,,,,,,,,,,,,,,,,,,,,,,,,,,,,,,,,,,,,,,,,,,,,,100419_p1,001,2019_Oct_04_1318,body_behavioural,3.2.2,60.1264201274072,
2,parcelated_audio/21/21_5.ogg,,0,2,2,2,,,,,0,4,4,4,,,,,,,,,,,,,,,,,,,,,,,,,,,,,,,,,,,,,,,,,,,,,,,,,,,,,,,,,,,,,,,,,1,0.5488350160012487,1034.6700014140006,None,1034.6700014140006,None,1034.6700014140006,None,,,,,,,,,,,,,,,,,,,,,,,,,,,,,,,,,,,,,,,,,,,,,,,,,,,100419_p1,001,2019_Oct_04_1318,body_behavioural,3.2.2,60.1264201274072,
2,parcelated_audio/21/21_6.ogg,,0,2,2,2,,,,,0,5,5,5,,,,,,,,,,,,,,,,,,,,,,,,,,,,,,,,,,,,,,,,,,,,,,,,,,,,,,,,,,,,,,,,,9,1.9156428639998921,1043.4546083490004,None,1043.4546083490004,None,1043.4546083490004,None,,,,,,,,,,,,,,,,,,,,,,,,,,,,,,,,,,,,,,,,,,,,,,,,,,,100419_p1,001,2019_Oct_04_1318,body_behavioural,3.2.2,60.1264201274072,
2,parcelated_audio/21/21_7.ogg,,0,2,2,2,,,,,0,6,6,6,,,,,,,,,,,,,,,,,,,,,,,,,,,,,,,,,,,,,,,,,,,,,,,,,,,,,,,,,,,,,,,,,1,0.3169289300003584,1049.939247548,None,1049.939247548,None,1049.939247548,None,,,,,,,,,,,,,,,,,,,,,,,,,,,,,,,,,,,,,,,,,,,,,,,,,,,100419_p1,001,2019_Oct_04_1318,body_behavioural,3.2.2,60.1264201274072,
2,parcelated_audio/21/21_8.ogg,,0,2,2,2,,,,,0,7,7,7,,,,,,,,,,,,,,,,,,,,,,,,,,,,,,,,,,,,,,,,,,,,,,,,,,,,,,,,,,,,,,,,,1,5.880008906000512,1061.2232245550003,None,1061.2232245550003,None,1061.2232245550003,None,,,,,,,,,,,,,,,,,,,,,,,,,,,,,,,,,,,,,,,,,,,,,,,,,,,100419_p1,001,2019_Oct_04_1318,body_behavioural,3.2.2,60.1264201274072,
2,parcelated_audio/21/21_9.ogg,,0,2,2,2,,,,,0,8,8,8,,,,,,,,,,,,,,,,,,,,,,,,,,,,,,,,,,,,,,,,,,,,,,,,,,,,,,,,,,,,,,,,,9,1.8804325310011336,1074.559037515999,None,1074.559037515999,None,1074.559037515999,None,,,,,,,,,,,,,,,,,,,,,,,,,,,,,,,,,,,,,,,,,,,,,,,,,,,100419_p1,001,2019_Oct_04_1318,body_behavioural,3.2.2,60.1264201274072,
2,parcelated_audio/21/21_10.ogg,,0,2,2,2,,,,,0,9,9,9,,,,,,,,,,,,,,,,,,,,,,,,,,,,,,,,,,,,,,,,,,,,,,,,,,,,,,,,,,,,,,,,,1,0.46089842899891664,1083.36137529,None,1083.36137529,None,1083.36137529,None,,,,,,,,,,,,,,,,,,,,,,,,,,,,,,,,,,,,,,,,,,,,,,,,,,,100419_p1,001,2019_Oct_04_1318,body_behavioural,3.2.2,60.1264201274072,
2,parcelated_audio/21/21_11.ogg,,0,2,2,2,,,,,0,10,10,10,,,,,,,,,,,,,,,,,,,,,,,,,,,,,,,,,,,,,,,,,,,,,,,,,,,,,,,,,,,,,,,,,1,1.074935564000043,1091.3357160329997,None,1091.3357160329997,None,1091.3357160329997,None,,,,,,,,,,,,,,,,,,,,,,,,,,,,,,,,,,,,,,,,,,,,,,,,,,,100419_p1,001,2019_Oct_04_1318,body_behavioural,3.2.2,60.1264201274072,
2,parcelated_audio/21/21_12.ogg,,0,2,2,2,,,,,0,11,11,11,,,,,,,,,,,,,,,,,,,,,,,,,,,,,,,,,,,,,,,,,,,,,,,,,,,,,,,,,,,,,,,,,9,1.2089275470007124,1100.7969800930005,None,1100.7969800930005,None,1100.7969800930005,None,,,,,,,,,,,,,,,,,,,,,,,,,,,,,,,,,,,,,,,,,,,,,,,,,,,100419_p1,001,2019_Oct_04_1318,body_behavioural,3.2.2,60.1264201274072,
2,parcelated_audio/21/21_13.ogg,,0,2,2,2,,,,,0,12,12,12,,,,,,,,,,,,,,,,,,,,,,,,,,,,,,,,,,,,,,,,,,,,,,,,,,,,,,,,,,,,,,,,,1,0.26298425500135636,1105.4148014559996,None,1105.4148014559996,None,1105.4148014559996,None,,,,,,,,,,,,,,,,,,,,,,,,,,,,,,,,,,,,,,,,,,,,,,,,,,,100419_p1,001,2019_Oct_04_1318,body_behavioural,3.2.2,60.1264201274072,
2,parcelated_audio/21/21_14.ogg,,0,2,2,2,,,,,0,13,13,13,,,,,,,,,,,,,,,,,,,,,,,,,,,,,,,,,,,,,,,,,,,,,,,,,,,,,,,,,,,,,,,,,1,0.8316366960007144,1111.182214516999,None,1111.182214516999,None,1111.182214516999,None,,,,,,,,,,,,,,,,,,,,,,,,,,,,,,,,,,,,,,,,,,,,,,,,,,,100419_p1,001,2019_Oct_04_1318,body_behavioural,3.2.2,60.1264201274072,
2,parcelated_audio/21/21_15.ogg,,0,2,2,2,,,,,0,14,14,14,,,,,,,,,,,,,,,,,,,,,,,,,,,,,,,,,,,,,,,,,,,,,,,,,,,,,,,,,,,,,,,,,1,1.27665968600013,1118.9170923799993,None,1118.9170923799993,None,1118.9170923799993,None,,,,,,,,,,,,,,,,,,,,,,,,,,,,,,,,,,,,,,,,,,,,,,,,,,,100419_p1,001,2019_Oct_04_1318,body_behavioural,3.2.2,60.1264201274072,
2,parcelated_audio/21/21_16.ogg,,0,2,2,2,,,,,0,15,15,15,,,,,,,,,,,,,,,,,,,,,,,,,,,,,,,,,,,,,,,,,,,,,,,,,,,,,,,,,,,,,,,,,1,0.6250230219993682,1126.3343801329993,None,1126.3343801329993,None,1126.3343801329993,None,,,,,,,,,,,,,,,,,,,,,,,,,,,,,,,,,,,,,,,,,,,,,,,,,,,100419_p1,001,2019_Oct_04_1318,body_behavioural,3.2.2,60.1264201274072,
2,parcelated_audio/21/21_17.ogg,,0,2,2,2,,,,,0,16,16,16,,,,,,,,,,,,,,,,,,,,,,,,,,,,,,,,,,,,,,,,,,,,,,,,,,,,,,,,,,,,,,,,,1,1.0445412480003142,1129.2187066139995,None,1129.2187066139995,None,1129.2187066139995,None,,,,,,,,,,,,,,,,,,,,,,,,,,,,,,,,,,,,,,,,,,,,,,,,,,,100419_p1,001,2019_Oct_04_1318,body_behavioural,3.2.2,60.1264201274072,
2,parcelated_audio/21/21_18.ogg,,0,2,2,2,,,,,0,17,17,17,,,,,,,,,,,,,,,,,,,,,,,,,,,,,,,,,,,,,,,,,,,,,,,,,,,,,,,,,,,,,,,,,1,0.7003335760000482,1143.4876516839995,None,1143.4876516839995,None,1143.4876516839995,None,,,,,,,,,,,,,,,,,,,,,,,,,,,,,,,,,,,,,,,,,,,,,,,,,,,100419_p1,001,2019_Oct_04_1318,body_behavioural,3.2.2,60.1264201274072,
2,parcelated_audio/21/21_19.ogg,,0,2,2,2,,,,,0,18,18,18,,,,,,,,,,,,,,,,,,,,,,,,,,,,,,,,,,,,,,,,,,,,,,,,,,,,,,,,,,,,,,,,,9,0.9535687879997568,1147.1715033109995,None,1147.1715033109995,None,1147.1715033109995,None,,,,,,,,,,,,,,,,,,,,,,,,,,,,,,,,,,,,,,,,,,,,,,,,,,,100419_p1,001,2019_Oct_04_1318,body_behavioural,3.2.2,60.1264201274072,
2,parcelated_audio/21/21_20.ogg,,0,2,2,2,,,,,0,19,19,19,,,,,,,,,,,,,,,,,,,,,,,,,,,,,,,,,,,,,,,,,,,,,,,,,,,,,,,,,,,,,,,,,1,1.7153435370000807,1156.9396487899994,None,1156.9396487899994,None,1156.9396487899994,None,,,,,,,,,,,,,,,,,,,,,,,,,,,,,,,,,,,,,,,,,,,,,,,,,,,100419_p1,001,2019_Oct_04_1318,body_behavioural,3.2.2,60.1264201274072,
2,parcelated_audio/21/21_21.ogg,,0,2,2,2,,,,,0,20,20,20,,,,,,,,,,,,,,,,,,,,,,,,,,,,,,,,,,,,,,,,,,,,,,,,,,,,,,,,,,,,,,,,,1,1.0852560790008283,1169.7749973539994,None,1169.7749973539994,None,1169.7749973539994,None,,,,,,,,,,,,,,,,,,,,,,,,,,,,,,,,,,,,,,,,,,,,,,,,,,,100419_p1,001,2019_Oct_04_1318,body_behavioural,3.2.2,60.1264201274072,
2,parcelated_audio/21/21_22.ogg,,0,2,2,2,,,,,0,21,21,21,,,,,,,,,,,,,,,,,,,,,,,,,,,,,,,,,,,,,,,,,,,,,,,,,,,,,,,,,,,,,,,,,9,1.995652716999757,1181.8434249700003,None,1181.8434249700003,None,1181.8434249700003,None,,,,,,,,,,,,,,,,,,,,,,,,,,,,,,,,,,,,,,,,,,,,,,,,,,,100419_p1,001,2019_Oct_04_1318,body_behavioural,3.2.2,60.1264201274072,
2,parcelated_audio/21/21_23.ogg,,0,2,2,2,,,,,0,22,22,22,,,,,,,,,,,,,,,,,,,,,,,,,,,,,,,,,,,,,,,,,,,,,,,,,,,,,,,,,,,,,,,,,1,0.7280638470001577,1188.8803306110003,None,1188.8803306110003,None,1188.8803306110003,None,,,,,,,,,,,,,,,,,,,,,,,,,,,,,,,,,,,,,,,,,,,,,,,,,,,100419_p1,001,2019_Oct_04_1318,body_behavioural,3.2.2,60.1264201274072,
2,parcelated_audio/21/21_24.ogg,,0,2,2,2,,,,,0,23,23,23,,,,,,,,,,,,,,,,,,,,,,,,,,,,,,,,,,,,,,,,,,,,,,,,,,,,,,,,,,,,,,,,,1,1.329186517999915,1194.2790219599992,None,1194.2790219599992,None,1194.2790219599992,None,,,,,,,,,,,,,,,,,,,,,,,,,,,,,,,,,,,,,,,,,,,,,,,,,,,100419_p1,001,2019_Oct_04_1318,body_behavioural,3.2.2,60.1264201274072,
2,parcelated_audio/21/21_25.ogg,,0,2,2,2,,,,,0,24,24,24,,,,,,,,,,,,,,,,,,,,,,,,,,,,,,,,,,,,,,,,,,,,,,,,,,,,,,,,,,,,,,,,,1,1.383125578000545,1205.1140375760006,None,1205.1140375760006,None,1205.1140375760006,None,,,,,,,,,,,,,,,,,,,,,,,,,,,,,,,,,,,,,,,,,,,,,,,,,,,100419_p1,001,2019_Oct_04_1318,body_behavioural,3.2.2,60.1264201274072,
2,parcelated_audio/21/21_26.ogg,,0,2,2,2,,,,,0,25,25,25,,,,,,,,,,,,,,,,,,,,,,,,,,,,,,,,,,,,,,,,,,,,,,,,,,,,,,,,,,,,,,,,,1,1.156158179999693,1210.5484005130002,None,1210.5484005130002,None,1210.5484005130002,None,,,,,,,,,,,,,,,,,,,,,,,,,,,,,,,,,,,,,,,,,,,,,,,,,,,100419_p1,001,2019_Oct_04_1318,body_behavioural,3.2.2,60.1264201274072,
2,parcelated_audio/21/21_27.ogg,,0,2,2,2,,,,,0,26,26,26,,,,,,,,,,,,,,,,,,,,,,,,,,,,,,,,,,,,,,,,,,,,,,,,,,,,,,,,,,,,,,,,,1,1.3246670579992497,1218.9824827249995,None,1218.9824827249995,None,1218.9824827249995,None,,,,,,,,,,,,,,,,,,,,,,,,,,,,,,,,,,,,,,,,,,,,,,,,,,,100419_p1,001,2019_Oct_04_1318,body_behavioural,3.2.2,60.1264201274072,
2,parcelated_audio/21/21_28.ogg,,0,2,2,2,,,,,0,27,27,27,,,,,,,,,,,,,,,,,,,,,,,,,,,,,,,,,,,,,,,,,,,,,,,,,,,,,,,,,,,,,,,,,1,0.6162889520001045,1226.5005282099992,None,1226.5005282099992,None,1226.5005282099992,None,,,,,,,,,,,,,,,,,,,,,,,,,,,,,,,,,,,,,,,,,,,,,,,,,,,100419_p1,001,2019_Oct_04_1318,body_behavioural,3.2.2,60.1264201274072,
2,parcelated_audio/21/21_29.ogg,,0,2,2,2,,,,,0,28,28,28,,,,,,,,,,,,,,,,,,,,,,,,,,,,,,,,,,,,,,,,,,,,,,,,,,,,,,,,,,,,,,,,,1,2.849705249998806,1231.4365586189997,None,1231.4365586189997,None,1231.4365586189997,None,,,,,,,,,,,,,,,,,,,,,,,,,,,,,,,,,,,,,,,,,,,,,,,,,,,100419_p1,001,2019_Oct_04_1318,body_behavioural,3.2.2,60.1264201274072,
2,parcelated_audio/21/21_30.ogg,,0,2,2,2,,,,,0,29,29,29,,,,,,,,,,,,,,,,,,,,,,,,,,,,,,,,,,,,,,,,,,,,,,,,,,,,,,,,,,,,,,,,,1,1.020293200001106,1239.6382144809995,None,1239.6382144809995,None,1239.6382144809995,None,,,,,,,,,,,,,,,,,,,,,,,,,,,,,,,,,,,,,,,,,,,,,,,,,,,100419_p1,001,2019_Oct_04_1318,body_behavioural,3.2.2,60.1264201274072,
2,,,0,2,2,2,,,,,,,,,,,,,,,,,,,,,,,,,,,,,,,,,,,,,,,,,,,,,,,,,,,,,,,,,,,,,,,,,,,,,,,,,,,,,,,,,1240.7032390589993,None,1240.7032390589993,None,space,3.651301392001187,1240.7032390589993,None,,,,,,,,,,,,,,,,,,,,,,,,,,,,,,,,,,,,,,,,,,,100419_p1,001,2019_Oct_04_1318,body_behavioural,3.2.2,60.1264201274072,
3,,,0,3,3,3,0,0,0,0,,,,,,,,,,,,,,,,,1244.3912654319993,None,space,0.7873195330012095,1244.3912654319993,None,1244.3912654319993,None,1245.2032605780005,None,space,1.663282972000161,1245.2032605780005,None,1246.9208660269996,None,1246.9208660269996,None,1246.9208660269996,None,1247.792053629999,None,space,0.9304378100005124,1247.792053629999,None,1248.870600762999,None,1248.870600762999,None,1248.870600762999,None,1248.870600762999,None,1248.870600762999,None,1248.870600762999,None,1248.870600762999,None,,,,,,,,,,,,,,,,,,,,,,,,,,,,,,,,,,,,,,,,,,,,,,,,,,,,,,,,,,,,,,,,,,,,,,,100419_p1,001,2019_Oct_04_1318,body_behavioural,3.2.2,60.1264201274072,
3,parcelated_audio/32/32_1.ogg,,0,3,3,3,,,,,0,0,0,0,,,,,,,,,,,,,,,,,,,,,,,,,,,1265.973760637,None,1265.973760637,None,1265.973760637,None,,,,,,,,,,,,,,,,,,,,,1265.334190182999,None,space,0.5966571829994791,1265.334190182999,None,1266.6240755910003,None,space,1.3466511539991188,1266.6240755910003,None,1,0.3509353680001368,1279.426298774999,None,1279.426298774999,None,1279.426298774999,None,,,,,,,,,,,,,,,,,,,,,,,,,,,,,,,,,,,,,,,,,,,,,,,,,,,100419_p1,001,2019_Oct_04_1318,body_behavioural,3.2.2,60.1264201274072,
3,parcelated_audio/32/32_2.ogg,,0,3,3,3,,,,,0,1,1,1,,,,,,,,,,,,,,,,,,,,,,,,,,,,,,,,,,,,,,,,,,,,,,,,,,,,,,,,,,,,,,,,,1,0.33691139300026407,1288.194107158999,None,1288.194107158999,None,1288.194107158999,None,,,,,,,,,,,,,,,,,,,,,,,,,,,,,,,,,,,,,,,,,,,,,,,,,,,100419_p1,001,2019_Oct_04_1318,body_behavioural,3.2.2,60.1264201274072,
3,parcelated_audio/32/32_3.ogg,,0,3,3,3,,,,,0,2,2,2,,,,,,,,,,,,,,,,,,,,,,,,,,,,,,,,,,,,,,,,,,,,,,,,,,,,,,,,,,,,,,,,,1,4.540856110999812,1294.1956668439998,None,1294.1956668439998,None,1294.1956668439998,None,,,,,,,,,,,,,,,,,,,,,,,,,,,,,,,,,,,,,,,,,,,,,,,,,,,100419_p1,001,2019_Oct_04_1318,body_behavioural,3.2.2,60.1264201274072,
3,parcelated_audio/32/32_4.ogg,,0,3,3,3,,,,,0,3,3,3,,,,,,,,,,,,,,,,,,,,,,,,,,,,,,,,,,,,,,,,,,,,,,,,,,,,,,,,,,,,,,,,,1,0.6293777330010926,1305.513896422999,None,1305.513896422999,None,1305.513896422999,None,,,,,,,,,,,,,,,,,,,,,,,,,,,,,,,,,,,,,,,,,,,,,,,,,,,100419_p1,001,2019_Oct_04_1318,body_behavioural,3.2.2,60.1264201274072,
3,parcelated_audio/32/32_5.ogg,,0,3,3,3,,,,,0,4,4,4,,,,,,,,,,,,,,,,,,,,,,,,,,,,,,,,,,,,,,,,,,,,,,,,,,,,,,,,,,,,,,,,,1,0.9334954940004536,1317.9157880229995,None,1317.9157880229995,None,1317.9157880229995,None,,,,,,,,,,,,,,,,,,,,,,,,,,,,,,,,,,,,,,,,,,,,,,,,,,,100419_p1,001,2019_Oct_04_1318,body_behavioural,3.2.2,60.1264201274072,
3,parcelated_audio/32/32_6.ogg,,0,3,3,3,,,,,0,5,5,5,,,,,,,,,,,,,,,,,,,,,,,,,,,,,,,,,,,,,,,,,,,,,,,,,,,,,,,,,,,,,,,,,1,5.076725275999706,1327.4177918730002,None,1327.4177918730002,None,1327.4177918730002,None,,,,,,,,,,,,,,,,,,,,,,,,,,,,,,,,,,,,,,,,,,,,,,,,,,,100419_p1,001,2019_Oct_04_1318,body_behavioural,3.2.2,60.1264201274072,
3,parcelated_audio/32/32_7.ogg,,0,3,3,3,,,,,0,6,6,6,,,,,,,,,,,,,,,,,,,,,,,,,,,,,,,,,,,,,,,,,,,,,,,,,,,,,,,,,,,,,,,,,9,6.722769519999929,1335.9687653199999,None,1335.9687653199999,None,1335.9687653199999,None,,,,,,,,,,,,,,,,,,,,,,,,,,,,,,,,,,,,,,,,,,,,,,,,,,,100419_p1,001,2019_Oct_04_1318,body_behavioural,3.2.2,60.1264201274072,
3,parcelated_audio/32/32_8.ogg,,0,3,3,3,,,,,0,7,7,7,,,,,,,,,,,,,,,,,,,,,,,,,,,,,,,,,,,,,,,,,,,,,,,,,,,,,,,,,,,,,,,,,1,0.9406922980015224,1347.2535675309991,None,1347.2535675309991,None,1347.2535675309991,None,,,,,,,,,,,,,,,,,,,,,,,,,,,,,,,,,,,,,,,,,,,,,,,,,,,100419_p1,001,2019_Oct_04_1318,body_behavioural,3.2.2,60.1264201274072,
3,parcelated_audio/32/32_9.ogg,,0,3,3,3,,,,,0,8,8,8,,,,,,,,,,,,,,,,,,,,,,,,,,,,,,,,,,,,,,,,,,,,,,,,,,,,,,,,,,,,,,,,,1,0.4284654300008697,1356.9724608899996,None,1356.9724608899996,None,1356.9724608899996,None,,,,,,,,,,,,,,,,,,,,,,,,,,,,,,,,,,,,,,,,,,,,,,,,,,,100419_p1,001,2019_Oct_04_1318,body_behavioural,3.2.2,60.1264201274072,
3,parcelated_audio/32/32_10.ogg,,0,3,3,3,,,,,0,9,9,9,,,,,,,,,,,,,,,,,,,,,,,,,,,,,,,,,,,,,,,,,,,,,,,,,,,,,,,,,,,,,,,,,1,0.07774580600016634,1362.1563196940006,None,1362.1563196940006,None,1362.1563196940006,None,,,,,,,,,,,,,,,,,,,,,,,,,,,,,,,,,,,,,,,,,,,,,,,,,,,100419_p1,001,2019_Oct_04_1318,body_behavioural,3.2.2,60.1264201274072,
3,parcelated_audio/32/32_11.ogg,,0,3,3,3,,,,,0,10,10,10,,,,,,,,,,,,,,,,,,,,,,,,,,,,,,,,,,,,,,,,,,,,,,,,,,,,,,,,,,,,,,,,,1,1.5457830539999122,1368.3932488739993,None,1368.3932488739993,None,1368.3932488739993,None,,,,,,,,,,,,,,,,,,,,,,,,,,,,,,,,,,,,,,,,,,,,,,,,,,,100419_p1,001,2019_Oct_04_1318,body_behavioural,3.2.2,60.1264201274072,
3,parcelated_audio/32/32_12.ogg,,0,3,3,3,,,,,0,11,11,11,,,,,,,,,,,,,,,,,,,,,,,,,,,,,,,,,,,,,,,,,,,,,,,,,,,,,,,,,,,,,,,,,1,0.9526365229994553,1379.4614197930005,None,1379.4614197930005,None,1379.4614197930005,None,,,,,,,,,,,,,,,,,,,,,,,,,,,,,,,,,,,,,,,,,,,,,,,,,,,100419_p1,001,2019_Oct_04_1318,body_behavioural,3.2.2,60.1264201274072,
3,parcelated_audio/32/32_13.ogg,,0,3,3,3,,,,,0,12,12,12,,,,,,,,,,,,,,,,,,,,,,,,,,,,,,,,,,,,,,,,,,,,,,,,,,,,,,,,,,,,,,,,,9,0.9148548410012154,1390.0812308789991,None,1390.0812308789991,None,1390.0812308789991,None,,,,,,,,,,,,,,,,,,,,,,,,,,,,,,,,,,,,,,,,,,,,,,,,,,,100419_p1,001,2019_Oct_04_1318,body_behavioural,3.2.2,60.1264201274072,
3,parcelated_audio/32/32_14.ogg,,0,3,3,3,,,,,0,13,13,13,,,,,,,,,,,,,,,,,,,,,,,,,,,,,,,,,,,,,,,,,,,,,,,,,,,,,,,,,,,,,,,,,1,0.4065487170009874,1399.1626417789994,None,1399.1626417789994,None,1399.1626417789994,None,,,,,,,,,,,,,,,,,,,,,,,,,,,,,,,,,,,,,,,,,,,,,,,,,,,100419_p1,001,2019_Oct_04_1318,body_behavioural,3.2.2,60.1264201274072,
3,parcelated_audio/32/32_15.ogg,,0,3,3,3,,,,,0,14,14,14,,,,,,,,,,,,,,,,,,,,,,,,,,,,,,,,,,,,,,,,,,,,,,,,,,,,,,,,,,,,,,,,,1,1.9254339700000855,1406.5303558840005,None,1406.5303558840005,None,1406.5303558840005,None,,,,,,,,,,,,,,,,,,,,,,,,,,,,,,,,,,,,,,,,,,,,,,,,,,,100419_p1,001,2019_Oct_04_1318,body_behavioural,3.2.2,60.1264201274072,
3,parcelated_audio/32/32_16.ogg,,0,3,3,3,,,,,0,15,15,15,,,,,,,,,,,,,,,,,,,,,,,,,,,,,,,,,,,,,,,,,,,,,,,,,,,,,,,,,,,,,,,,,1,1.1487621420001233,1416.1334495259998,None,1416.1334495259998,None,1416.1334495259998,None,,,,,,,,,,,,,,,,,,,,,,,,,,,,,,,,,,,,,,,,,,,,,,,,,,,100419_p1,001,2019_Oct_04_1318,body_behavioural,3.2.2,60.1264201274072,
3,parcelated_audio/32/32_17.ogg,,0,3,3,3,,,,,0,16,16,16,,,,,,,,,,,,,,,,,,,,,,,,,,,,,,,,,,,,,,,,,,,,,,,,,,,,,,,,,,,,,,,,,9,0.8543830939997861,1425.6528654230005,None,1425.6528654230005,None,1425.6528654230005,None,,,,,,,,,,,,,,,,,,,,,,,,,,,,,,,,,,,,,,,,,,,,,,,,,,,100419_p1,001,2019_Oct_04_1318,body_behavioural,3.2.2,60.1264201274072,
3,parcelated_audio/32/32_18.ogg,,0,3,3,3,,,,,0,17,17,17,,,,,,,,,,,,,,,,,,,,,,,,,,,,,,,,,,,,,,,,,,,,,,,,,,,,,,,,,,,,,,,,,1,1.6726194909988408,1430.8854914860003,None,1430.8854914860003,None,1430.8854914860003,None,,,,,,,,,,,,,,,,,,,,,,,,,,,,,,,,,,,,,,,,,,,,,,,,,,,100419_p1,001,2019_Oct_04_1318,body_behavioural,3.2.2,60.1264201274072,
3,parcelated_audio/32/32_19.ogg,,0,3,3,3,,,,,0,18,18,18,,,,,,,,,,,,,,,,,,,,,,,,,,,,,,,,,,,,,,,,,,,,,,,,,,,,,,,,,,,,,,,,,1,0.9109241520000069,1440.6685245179997,None,1440.6685245179997,None,1440.6685245179997,None,,,,,,,,,,,,,,,,,,,,,,,,,,,,,,,,,,,,,,,,,,,,,,,,,,,100419_p1,001,2019_Oct_04_1318,body_behavioural,3.2.2,60.1264201274072,
3,parcelated_audio/32/32_20.ogg,,0,3,3,3,,,,,0,19,19,19,,,,,,,,,,,,,,,,,,,,,,,,,,,,,,,,,,,,,,,,,,,,,,,,,,,,,,,,,,,,,,,,,1,0.7219525479995355,1452.5544959210001,None,1452.5544959210001,None,1452.5544959210001,None,,,,,,,,,,,,,,,,,,,,,,,,,,,,,,,,,,,,,,,,,,,,,,,,,,,100419_p1,001,2019_Oct_04_1318,body_behavioural,3.2.2,60.1264201274072,
3,parcelated_audio/32/32_21.ogg,,0,3,3,3,,,,,0,20,20,20,,,,,,,,,,,,,,,,,,,,,,,,,,,,,,,,,,,,,,,,,,,,,,,,,,,,,,,,,,,,,,,,,1,1.7500969259999692,1462.2062349070002,None,1462.2062349070002,None,1462.2062349070002,None,,,,,,,,,,,,,,,,,,,,,,,,,,,,,,,,,,,,,,,,,,,,,,,,,,,100419_p1,001,2019_Oct_04_1318,body_behavioural,3.2.2,60.1264201274072,
3,parcelated_audio/32/32_22.ogg,,0,3,3,3,,,,,0,21,21,21,,,,,,,,,,,,,,,,,,,,,,,,,,,,,,,,,,,,,,,,,,,,,,,,,,,,,,,,,,,,,,,,,1,0.5902774920014053,1478.0435998480007,None,1478.0435998480007,None,1478.0435998480007,None,,,,,,,,,,,,,,,,,,,,,,,,,,,,,,,,,,,,,,,,,,,,,,,,,,,100419_p1,001,2019_Oct_04_1318,body_behavioural,3.2.2,60.1264201274072,
3,parcelated_audio/32/32_23.ogg,,0,3,3,3,,,,,0,22,22,22,,,,,,,,,,,,,,,,,,,,,,,,,,,,,,,,,,,,,,,,,,,,,,,,,,,,,,,,,,,,,,,,,1,1.6076576329996897,1487.7615996160002,None,1487.7615996160002,None,1487.7615996160002,None,,,,,,,,,,,,,,,,,,,,,,,,,,,,,,,,,,,,,,,,,,,,,,,,,,,100419_p1,001,2019_Oct_04_1318,body_behavioural,3.2.2,60.1264201274072,
3,parcelated_audio/32/32_24.ogg,,0,3,3,3,,,,,0,23,23,23,,,,,,,,,,,,,,,,,,,,,,,,,,,,,,,,,,,,,,,,,,,,,,,,,,,,,,,,,,,,,,,,,1,0.6597250470003928,1500.7621967619998,None,1500.7621967619998,None,1500.7621967619998,None,,,,,,,,,,,,,,,,,,,,,,,,,,,,,,,,,,,,,,,,,,,,,,,,,,,100419_p1,001,2019_Oct_04_1318,body_behavioural,3.2.2,60.1264201274072,
3,parcelated_audio/32/32_25.ogg,,0,3,3,3,,,,,0,24,24,24,,,,,,,,,,,,,,,,,,,,,,,,,,,,,,,,,,,,,,,,,,,,,,,,,,,,,,,,,,,,,,,,,1,0.8596801299991057,1507.5471414040003,None,1507.5471414040003,None,1507.5471414040003,None,,,,,,,,,,,,,,,,,,,,,,,,,,,,,,,,,,,,,,,,,,,,,,,,,,,100419_p1,001,2019_Oct_04_1318,body_behavioural,3.2.2,60.1264201274072,
3,parcelated_audio/32/32_26.ogg,,0,3,3,3,,,,,0,25,25,25,,,,,,,,,,,,,,,,,,,,,,,,,,,,,,,,,,,,,,,,,,,,,,,,,,,,,,,,,,,,,,,,,1,0.8708233549987199,1521.8486549159988,None,1521.8486549159988,None,1521.8486549159988,None,,,,,,,,,,,,,,,,,,,,,,,,,,,,,,,,,,,,,,,,,,,,,,,,,,,100419_p1,001,2019_Oct_04_1318,body_behavioural,3.2.2,60.1264201274072,
3,parcelated_audio/32/32_27.ogg,,0,3,3,3,,,,,0,26,26,26,,,,,,,,,,,,,,,,,,,,,,,,,,,,,,,,,,,,,,,,,,,,,,,,,,,,,,,,,,,,,,,,,9,0.8391379019994929,1529.750147052,None,1529.750147052,None,1529.750147052,None,,,,,,,,,,,,,,,,,,,,,,,,,,,,,,,,,,,,,,,,,,,,,,,,,,,100419_p1,001,2019_Oct_04_1318,body_behavioural,3.2.2,60.1264201274072,
3,parcelated_audio/32/32_28.ogg,,0,3,3,3,,,,,0,27,27,27,,,,,,,,,,,,,,,,,,,,,,,,,,,,,,,,,,,,,,,,,,,,,,,,,,,,,,,,,,,,,,,,,1,0.7601202620007825,1537.3682681249993,None,1537.3682681249993,None,1537.3682681249993,None,,,,,,,,,,,,,,,,,,,,,,,,,,,,,,,,,,,,,,,,,,,,,,,,,,,100419_p1,001,2019_Oct_04_1318,body_behavioural,3.2.2,60.1264201274072,
3,parcelated_audio/32/32_29.ogg,,0,3,3,3,,,,,0,28,28,28,,,,,,,,,,,,,,,,,,,,,,,,,,,,,,,,,,,,,,,,,,,,,,,,,,,,,,,,,,,,,,,,,1,0.33231070799956797,1540.8681444649992,None,1540.8681444649992,None,1540.8681444649992,None,,,,,,,,,,,,,,,,,,,,,,,,,,,,,,,,,,,,,,,,,,,,,,,,,,,100419_p1,001,2019_Oct_04_1318,body_behavioural,3.2.2,60.1264201274072,
3,parcelated_audio/32/32_30.ogg,,0,3,3,3,,,,,0,29,29,29,,,,,,,,,,,,,,,,,,,,,,,,,,,,,,,,,,,,,,,,,,,,,,,,,,,,,,,,,,,,,,,,,1,0.4003146549985104,1548.3052866119997,None,1548.3052866119997,None,1548.3052866119997,None,,,,,,,,,,,,,,,,,,,,,,,,,,,,,,,,,,,,,,,,,,,,,,,,,,,100419_p1,001,2019_Oct_04_1318,body_behavioural,3.2.2,60.1264201274072,
3,parcelated_audio/32/32_31.ogg,,0,3,3,3,,,,,0,30,30,30,,,,,,,,,,,,,,,,,,,,,,,,,,,,,,,,,,,,,,,,,,,,,,,,,,,,,,,,,,,,,,,,,1,0.483266489000016,1555.1381498329993,None,1555.1381498329993,None,1555.1381498329993,None,,,,,,,,,,,,,,,,,,,,,,,,,,,,,,,,,,,,,,,,,,,,,,,,,,,100419_p1,001,2019_Oct_04_1318,body_behavioural,3.2.2,60.1264201274072,
3,parcelated_audio/32/32_32.ogg,,0,3,3,3,,,,,0,31,31,31,,,,,,,,,,,,,,,,,,,,,,,,,,,,,,,,,,,,,,,,,,,,,,,,,,,,,,,,,,,,,,,,,1,3.025605976001316,1565.4229318140005,None,1565.4229318140005,None,1565.4229318140005,None,,,,,,,,,,,,,,,,,,,,,,,,,,,,,,,,,,,,,,,,,,,,,,,,,,,100419_p1,001,2019_Oct_04_1318,body_behavioural,3.2.2,60.1264201274072,
3,parcelated_audio/32/32_33.ogg,,0,3,3,3,,,,,0,32,32,32,,,,,,,,,,,,,,,,,,,,,,,,,,,,,,,,,,,,,,,,,,,,,,,,,,,,,,,,,,,,,,,,,9,0.2715777519988478,1574.274635034999,None,1574.274635034999,None,1574.274635034999,None,,,,,,,,,,,,,,,,,,,,,,,,,,,,,,,,,,,,,,,,,,,,,,,,,,,100419_p1,001,2019_Oct_04_1318,body_behavioural,3.2.2,60.1264201274072,
3,,,0,3,3,3,,,,,,,,,,,,,,,,,,,,,,,,,,,,,,,,,,,,,,,,,,,,,,,,,,,,,,,,,,,,,,,,,,,,,,,,,,,,,,,,,1574.5955935090005,None,1574.5955935090005,None,space,1.262685239998973,1574.5955935090005,None,,,,,,,,,,,,,,,,,,,,,,,,,,,,,,,,,,,,,,,,,,,100419_p1,001,2019_Oct_04_1318,body_behavioural,3.2.2,60.1264201274072,
4,,,0,4,4,4,0,0,0,0,,,,,,,,,,,,,,,,,1575.9117556809997,None,space,0.7385808940016432,1575.9117556809997,None,1575.9117556809997,None,1576.674170123999,None,space,0.6882212750006147,1576.674170123999,None,1577.4240691579998,None,1577.4240691579998,None,1577.4240691579998,None,1578.2088286550006,None,space,0.5215572489996703,1578.2088286550006,None,1578.8752246820004,None,1578.8752246820004,None,1578.8752246820004,None,1578.8752246820004,None,1578.8752246820004,None,1578.8752246820004,None,1578.8752246820004,None,,,,,,,,,,,,,,,,,,,,,,,,,,,,,,,,,,,,,,,,,,,,,,,,,,,,,,,,,,,,,,,,,,,,,,,100419_p1,001,2019_Oct_04_1318,body_behavioural,3.2.2,60.1264201274072,
4,parcelated_audio/43/43_1.ogg,,0,4,4,4,,,,,0,0,0,0,,,,,,,,,,,,,,,,,,,,,,,,,,,1642.5889896850003,None,1642.5889896850003,None,1642.5889896850003,None,,,,,,,,,,,,,,,,,,,,,1639.9738547920006,None,space,2.5677578590002668,1639.9738547920006,None,1644.457011331,None,space,0.6684693629995309,1644.457011331,None,1,3.5584237050006777,1652.7868962899993,None,1652.7868962899993,None,1652.7868962899993,None,,,,,,,,,,,,,,,,,,,,,,,,,,,,,,,,,,,,,,,,,,,,,,,,,,,100419_p1,001,2019_Oct_04_1318,body_behavioural,3.2.2,60.1264201274072,
4,parcelated_audio/43/43_2.ogg,,0,4,4,4,,,,,0,1,1,1,,,,,,,,,,,,,,,,,,,,,,,,,,,,,,,,,,,,,,,,,,,,,,,,,,,,,,,,,,,,,,,,,1,0.031984352001018124,1660.1899932960005,None,1660.1899932960005,None,1660.1899932960005,None,,,,,,,,,,,,,,,,,,,,,,,,,,,,,,,,,,,,,,,,,,,,,,,,,,,100419_p1,001,2019_Oct_04_1318,body_behavioural,3.2.2,60.1264201274072,
4,parcelated_audio/43/43_3.ogg,,0,4,4,4,,,,,0,2,2,2,,,,,,,,,,,,,,,,,,,,,,,,,,,,,,,,,,,,,,,,,,,,,,,,,,,,,,,,,,,,,,,,,1,0.9736614469984488,1669.190360097,None,1669.190360097,None,1669.190360097,None,,,,,,,,,,,,,,,,,,,,,,,,,,,,,,,,,,,,,,,,,,,,,,,,,,,100419_p1,001,2019_Oct_04_1318,body_behavioural,3.2.2,60.1264201274072,
4,parcelated_audio/43/43_4.ogg,,0,4,4,4,,,,,0,3,3,3,,,,,,,,,,,,,,,,,,,,,,,,,,,,,,,,,,,,,,,,,,,,,,,,,,,,,,,,,,,,,,,,,1,4.084192012998756,1678.7583784500002,None,1678.7583784500002,None,1678.7583784500002,None,,,,,,,,,,,,,,,,,,,,,,,,,,,,,,,,,,,,,,,,,,,,,,,,,,,100419_p1,001,2019_Oct_04_1318,body_behavioural,3.2.2,60.1264201274072,
4,parcelated_audio/43/43_5.ogg,,0,4,4,4,,,,,0,4,4,4,,,,,,,,,,,,,,,,,,,,,,,,,,,,,,,,,,,,,,,,,,,,,,,,,,,,,,,,,,,,,,,,,1,2.2487070780007343,1692.1605202789997,None,1692.1605202789997,None,1692.1605202789997,None,,,,,,,,,,,,,,,,,,,,,,,,,,,,,,,,,,,,,,,,,,,,,,,,,,,100419_p1,001,2019_Oct_04_1318,body_behavioural,3.2.2,60.1264201274072,
4,parcelated_audio/43/43_6.ogg,,0,4,4,4,,,,,0,5,5,5,,,,,,,,,,,,,,,,,,,,,,,,,,,,,,,,,,,,,,,,,,,,,,,,,,,,,,,,,,,,,,,,,9,4.847603214000628,1703.6289906870006,None,1703.6289906870006,None,1703.6289906870006,None,,,,,,,,,,,,,,,,,,,,,,,,,,,,,,,,,,,,,,,,,,,,,,,,,,,100419_p1,001,2019_Oct_04_1318,body_behavioural,3.2.2,60.1264201274072,
4,parcelated_audio/43/43_7.ogg,,0,4,4,4,,,,,0,6,6,6,,,,,,,,,,,,,,,,,,,,,,,,,,,,,,,,,,,,,,,,,,,,,,,,,,,,,,,,,,,,,,,,,1,0.6890700280000601,1713.3137630780002,None,1713.3137630780002,None,1713.3137630780002,None,,,,,,,,,,,,,,,,,,,,,,,,,,,,,,,,,,,,,,,,,,,,,,,,,,,100419_p1,001,2019_Oct_04_1318,body_behavioural,3.2.2,60.1264201274072,
4,parcelated_audio/43/43_8.ogg,,0,4,4,4,,,,,0,7,7,7,,,,,,,,,,,,,,,,,,,,,,,,,,,,,,,,,,,,,,,,,,,,,,,,,,,,,,,,,,,,,,,,,1,0.2628125339997496,1720.647509209999,None,1720.647509209999,None,1720.647509209999,None,,,,,,,,,,,,,,,,,,,,,,,,,,,,,,,,,,,,,,,,,,,,,,,,,,,100419_p1,001,2019_Oct_04_1318,body_behavioural,3.2.2,60.1264201274072,
4,parcelated_audio/43/43_9.ogg,,0,4,4,4,,,,,0,8,8,8,,,,,,,,,,,,,,,,,,,,,,,,,,,,,,,,,,,,,,,,,,,,,,,,,,,,,,,,,,,,,,,,,1,1.780661548000353,1725.4985088060002,None,1725.4985088060002,None,1725.4985088060002,None,,,,,,,,,,,,,,,,,,,,,,,,,,,,,,,,,,,,,,,,,,,,,,,,,,,100419_p1,001,2019_Oct_04_1318,body_behavioural,3.2.2,60.1264201274072,
4,parcelated_audio/43/43_10.ogg,,0,4,4,4,,,,,0,9,9,9,,,,,,,,,,,,,,,,,,,,,,,,,,,,,,,,,,,,,,,,,,,,,,,,,,,,,,,,,,,,,,,,,1,1.483136562999789,1732.2326355059995,None,1732.2326355059995,None,1732.2326355059995,None,,,,,,,,,,,,,,,,,,,,,,,,,,,,,,,,,,,,,,,,,,,,,,,,,,,100419_p1,001,2019_Oct_04_1318,body_behavioural,3.2.2,60.1264201274072,
4,parcelated_audio/43/43_11.ogg,,0,4,4,4,,,,,0,10,10,10,,,,,,,,,,,,,,,,,,,,,,,,,,,,,,,,,,,,,,,,,,,,,,,,,,,,,,,,,,,,,,,,,1,2.18892886499998,1744.8518756720005,None,1744.8518756720005,None,1744.8518756720005,None,,,,,,,,,,,,,,,,,,,,,,,,,,,,,,,,,,,,,,,,,,,,,,,,,,,100419_p1,001,2019_Oct_04_1318,body_behavioural,3.2.2,60.1264201274072,
4,parcelated_audio/43/43_12.ogg,,0,4,4,4,,,,,0,11,11,11,,,,,,,,,,,,,,,,,,,,,,,,,,,,,,,,,,,,,,,,,,,,,,,,,,,,,,,,,,,,,,,,,9,0.5291561849990103,1753.2045955449994,None,1753.2045955449994,None,1753.2045955449994,None,,,,,,,,,,,,,,,,,,,,,,,,,,,,,,,,,,,,,,,,,,,,,,,,,,,100419_p1,001,2019_Oct_04_1318,body_behavioural,3.2.2,60.1264201274072,
4,parcelated_audio/43/43_13.ogg,,0,4,4,4,,,,,0,12,12,12,,,,,,,,,,,,,,,,,,,,,,,,,,,,,,,,,,,,,,,,,,,,,,,,,,,,,,,,,,,,,,,,,1,0.7191765229999874,1762.054987645999,None,1762.054987645999,None,1762.054987645999,None,,,,,,,,,,,,,,,,,,,,,,,,,,,,,,,,,,,,,,,,,,,,,,,,,,,100419_p1,001,2019_Oct_04_1318,body_behavioural,3.2.2,60.1264201274072,
4,parcelated_audio/43/43_14.ogg,,0,4,4,4,,,,,0,13,13,13,,,,,,,,,,,,,,,,,,,,,,,,,,,,,,,,,,,,,,,,,,,,,,,,,,,,,,,,,,,,,,,,,9,3.033781125001042,1771.390893923999,None,1771.390893923999,None,1771.390893923999,None,,,,,,,,,,,,,,,,,,,,,,,,,,,,,,,,,,,,,,,,,,,,,,,,,,,100419_p1,001,2019_Oct_04_1318,body_behavioural,3.2.2,60.1264201274072,
4,parcelated_audio/43/43_15.ogg,,0,4,4,4,,,,,0,14,14,14,,,,,,,,,,,,,,,,,,,,,,,,,,,,,,,,,,,,,,,,,,,,,,,,,,,,,,,,,,,,,,,,,1,0.8405817830007436,1778.8589253999999,None,1778.8589253999999,None,1778.8589253999999,None,,,,,,,,,,,,,,,,,,,,,,,,,,,,,,,,,,,,,,,,,,,,,,,,,,,100419_p1,001,2019_Oct_04_1318,body_behavioural,3.2.2,60.1264201274072,
4,parcelated_audio/43/43_16.ogg,,0,4,4,4,,,,,0,15,15,15,,,,,,,,,,,,,,,,,,,,,,,,,,,,,,,,,,,,,,,,,,,,,,,,,,,,,,,,,,,,,,,,,1,1.5801889170015784,1784.3248811239991,None,1784.3248811239991,None,1784.3248811239991,None,,,,,,,,,,,,,,,,,,,,,,,,,,,,,,,,,,,,,,,,,,,,,,,,,,,100419_p1,001,2019_Oct_04_1318,body_behavioural,3.2.2,60.1264201274072,
4,parcelated_audio/43/43_17.ogg,,0,4,4,4,,,,,0,16,16,16,,,,,,,,,,,,,,,,,,,,,,,,,,,,,,,,,,,,,,,,,,,,,,,,,,,,,,,,,,,,,,,,,1,3.5548002649993578,1789.7585149980005,None,1789.7585149980005,None,1789.7585149980005,None,,,,,,,,,,,,,,,,,,,,,,,,,,,,,,,,,,,,,,,,,,,,,,,,,,,100419_p1,001,2019_Oct_04_1318,body_behavioural,3.2.2,60.1264201274072,
4,parcelated_audio/43/43_18.ogg,,0,4,4,4,,,,,0,17,17,17,,,,,,,,,,,,,,,,,,,,,,,,,,,,,,,,,,,,,,,,,,,,,,,,,,,,,,,,,,,,,,,,,1,0.4561157749994891,1795.5932115269989,None,1795.5932115269989,None,1795.5932115269989,None,,,,,,,,,,,,,,,,,,,,,,,,,,,,,,,,,,,,,,,,,,,,,,,,,,,100419_p1,001,2019_Oct_04_1318,body_behavioural,3.2.2,60.1264201274072,
4,parcelated_audio/43/43_19.ogg,,0,4,4,4,,,,,0,18,18,18,,,,,,,,,,,,,,,,,,,,,,,,,,,,,,,,,,,,,,,,,,,,,,,,,,,,,,,,,,,,,,,,,9,1.472296338999513,1799.7770398430002,None,1799.7770398430002,None,1799.7770398430002,None,,,,,,,,,,,,,,,,,,,,,,,,,,,,,,,,,,,,,,,,,,,,,,,,,,,100419_p1,001,2019_Oct_04_1318,body_behavioural,3.2.2,60.1264201274072,
4,parcelated_audio/43/43_20.ogg,,0,4,4,4,,,,,0,19,19,19,,,,,,,,,,,,,,,,,,,,,,,,,,,,,,,,,,,,,,,,,,,,,,,,,,,,,,,,,,,,,,,,,1,1.3098016059993824,1808.5313702189997,None,1808.5313702189997,None,1808.5313702189997,None,,,,,,,,,,,,,,,,,,,,,,,,,,,,,,,,,,,,,,,,,,,,,,,,,,,100419_p1,001,2019_Oct_04_1318,body_behavioural,3.2.2,60.1264201274072,
4,parcelated_audio/43/43_21.ogg,,0,4,4,4,,,,,0,20,20,20,,,,,,,,,,,,,,,,,,,,,,,,,,,,,,,,,,,,,,,,,,,,,,,,,,,,,,,,,,,,,,,,,1,0.028277491001063026,1812.4129411510003,None,1812.4129411510003,None,1812.4129411510003,None,,,,,,,,,,,,,,,,,,,,,,,,,,,,,,,,,,,,,,,,,,,,,,,,,,,100419_p1,001,2019_Oct_04_1318,body_behavioural,3.2.2,60.1264201274072,
4,parcelated_audio/43/43_22.ogg,,0,4,4,4,,,,,0,21,21,21,,,,,,,,,,,,,,,,,,,,,,,,,,,,,,,,,,,,,,,,,,,,,,,,,,,,,,,,,,,,,,,,,1,1.4486216280001827,1815.8965891520002,None,1815.8965891520002,None,1815.8965891520002,None,,,,,,,,,,,,,,,,,,,,,,,,,,,,,,,,,,,,,,,,,,,,,,,,,,,100419_p1,001,2019_Oct_04_1318,body_behavioural,3.2.2,60.1264201274072,
4,parcelated_audio/43/43_23.ogg,,0,4,4,4,,,,,0,22,22,22,,,,,,,,,,,,,,,,,,,,,,,,,,,,,,,,,,,,,,,,,,,,,,,,,,,,,,,,,,,,,,,,,1,0.4386325739997119,1823.4507094740002,None,1823.4507094740002,None,1823.4507094740002,None,,,,,,,,,,,,,,,,,,,,,,,,,,,,,,,,,,,,,,,,,,,,,,,,,,,100419_p1,001,2019_Oct_04_1318,body_behavioural,3.2.2,60.1264201274072,
4,parcelated_audio/43/43_24.ogg,,0,4,4,4,,,,,0,23,23,23,,,,,,,,,,,,,,,,,,,,,,,,,,,,,,,,,,,,,,,,,,,,,,,,,,,,,,,,,,,,,,,,,1,0.8874299689996406,1830.2818940670004,None,1830.2818940670004,None,1830.2818940670004,None,,,,,,,,,,,,,,,,,,,,,,,,,,,,,,,,,,,,,,,,,,,,,,,,,,,100419_p1,001,2019_Oct_04_1318,body_behavioural,3.2.2,60.1264201274072,
4,parcelated_audio/43/43_25.ogg,,0,4,4,4,,,,,0,24,24,24,,,,,,,,,,,,,,,,,,,,,,,,,,,,,,,,,,,,,,,,,,,,,,,,,,,,,,,,,,,,,,,,,1,0.6917399240010127,1836.285545794999,None,1836.285545794999,None,1836.285545794999,None,,,,,,,,,,,,,,,,,,,,,,,,,,,,,,,,,,,,,,,,,,,,,,,,,,,100419_p1,001,2019_Oct_04_1318,body_behavioural,3.2.2,60.1264201274072,
4,parcelated_audio/43/43_26.ogg,,0,4,4,4,,,,,0,25,25,25,,,,,,,,,,,,,,,,,,,,,,,,,,,,,,,,,,,,,,,,,,,,,,,,,,,,,,,,,,,,,,,,,9,0.7805577889994311,1845.6355642790004,None,1845.6355642790004,None,1845.6355642790004,None,,,,,,,,,,,,,,,,,,,,,,,,,,,,,,,,,,,,,,,,,,,,,,,,,,,100419_p1,001,2019_Oct_04_1318,body_behavioural,3.2.2,60.1264201274072,
4,parcelated_audio/43/43_27.ogg,,0,4,4,4,,,,,0,26,26,26,,,,,,,,,,,,,,,,,,,,,,,,,,,,,,,,,,,,,,,,,,,,,,,,,,,,,,,,,,,,,,,,,1,1.5392869999996037,1850.8689775450002,None,1850.8689775450002,None,1850.8689775450002,None,,,,,,,,,,,,,,,,,,,,,,,,,,,,,,,,,,,,,,,,,,,,,,,,,,,100419_p1,001,2019_Oct_04_1318,body_behavioural,3.2.2,60.1264201274072,
4,parcelated_audio/43/43_28.ogg,,0,4,4,4,,,,,0,27,27,27,,,,,,,,,,,,,,,,,,,,,,,,,,,,,,,,,,,,,,,,,,,,,,,,,,,,,,,,,,,,,,,,,1,0.13173958000152197,1857.4724949989995,None,1857.4724949989995,None,1857.4724949989995,None,,,,,,,,,,,,,,,,,,,,,,,,,,,,,,,,,,,,,,,,,,,,,,,,,,,100419_p1,001,2019_Oct_04_1318,body_behavioural,3.2.2,60.1264201274072,
4,parcelated_audio/43/43_29.ogg,,0,4,4,4,,,,,0,28,28,28,,,,,,,,,,,,,,,,,,,,,,,,,,,,,,,,,,,,,,,,,,,,,,,,,,,,,,,,,,,,,,,,,1,0.019747656000618008,1863.8205697270005,None,1863.8205697270005,None,1863.8205697270005,None,,,,,,,,,,,,,,,,,,,,,,,,,,,,,,,,,,,,,,,,,,,,,,,,,,,100419_p1,001,2019_Oct_04_1318,body_behavioural,3.2.2,60.1264201274072,
4,,,0,4,4,4,,,,,,,,,,,,,,,,,,,,,,,,,,,,,,,,,,,,,,,,,,,,,,,,,,,,,,,,,,,,,,,,,,,,,,,,,,,,,,,,,1863.872972150999,None,1863.872972150999,None,space,5.047364162999656,1863.872972150999,None,,,,,,,,,,,,,,,,,,,,,,,,,,,,,,,,,,,,,,,,,,,100419_p1,001,2019_Oct_04_1318,body_behavioural,3.2.2,60.1264201274072,
5,,,0,5,5,5,0,0,0,0,,,,,,,,,,,,,,,,,1868.9545775499992,None,space,1.045772017998388,1868.9545775499992,None,1868.9545775499992,None,1870.0426459829996,None,space,0.5738265379986842,1870.0426459829996,None,1870.6725223310004,None,1870.6725223310004,None,1870.6725223310004,None,1871.505908993,None,space,0.4784878739992564,1871.505908993,None,1872.1444852980003,None,1872.1444852980003,None,1872.1444852980003,None,1872.1444852980003,None,1872.1444852980003,None,1872.1444852980003,None,1872.1444852980003,None,,,,,,,,,,,,,,,,,,,,,,,,,,,,,,,,,,,,,,,,,,,,,,,,,,,,,,,,,,,,,,,,,,,,,,,100419_p1,001,2019_Oct_04_1318,body_behavioural,3.2.2,60.1264201274072,
5,parcelated_audio/14/14_1.ogg,,0,5,5,5,,,,,0,0,0,0,,,,,,,,,,,,,,,,,,,,,,,,,,,1918.367866274999,None,1918.367866274999,None,1918.367866274999,None,,,,,,,,,,,,,,,,,,,,,1917.7871199399997,None,space,0.5164843869988545,1917.7871199399997,None,1918.813038639999,None,space,0.7865772540008038,1918.813038639999,None,1,2.75735531600003,1926.5501725949998,None,1926.5501725949998,None,1926.5501725949998,None,,,,,,,,,,,,,,,,,,,,,,,,,,,,,,,,,,,,,,,,,,,,,,,,,,,100419_p1,001,2019_Oct_04_1318,body_behavioural,3.2.2,60.1264201274072,
5,parcelated_audio/14/14_2.ogg,,0,5,5,5,,,,,0,1,1,1,,,,,,,,,,,,,,,,,,,,,,,,,,,,,,,,,,,,,,,,,,,,,,,,,,,,,,,,,,,,,,,,,1,1.1886221600016142,1935.9501299780004,None,1935.9501299780004,None,1935.9501299780004,None,,,,,,,,,,,,,,,,,,,,,,,,,,,,,,,,,,,,,,,,,,,,,,,,,,,100419_p1,001,2019_Oct_04_1318,body_behavioural,3.2.2,60.1264201274072,
5,parcelated_audio/14/14_3.ogg,,0,5,5,5,,,,,0,2,2,2,,,,,,,,,,,,,,,,,,,,,,,,,,,,,,,,,,,,,,,,,,,,,,,,,,,,,,,,,,,,,,,,,1,0.6203355389989156,1940.9164532619998,None,1940.9164532619998,None,1940.9164532619998,None,,,,,,,,,,,,,,,,,,,,,,,,,,,,,,,,,,,,,,,,,,,,,,,,,,,100419_p1,001,2019_Oct_04_1318,body_behavioural,3.2.2,60.1264201274072,
5,parcelated_audio/14/14_4.ogg,,0,5,5,5,,,,,0,3,3,3,,,,,,,,,,,,,,,,,,,,,,,,,,,,,,,,,,,,,,,,,,,,,,,,,,,,,,,,,,,,,,,,,1,0.866880867000873,1949.5693679300002,None,1949.5693679300002,None,1949.5693679300002,None,,,,,,,,,,,,,,,,,,,,,,,,,,,,,,,,,,,,,,,,,,,,,,,,,,,100419_p1,001,2019_Oct_04_1318,body_behavioural,3.2.2,60.1264201274072,
5,parcelated_audio/14/14_5.ogg,,0,5,5,5,,,,,0,4,4,4,,,,,,,,,,,,,,,,,,,,,,,,,,,,,,,,,,,,,,,,,,,,,,,,,,,,,,,,,,,,,,,,,1,1.6660335220003617,1955.4020897379996,None,1955.4020897379996,None,1955.4020897379996,None,,,,,,,,,,,,,,,,,,,,,,,,,,,,,,,,,,,,,,,,,,,,,,,,,,,100419_p1,001,2019_Oct_04_1318,body_behavioural,3.2.2,60.1264201274072,
5,parcelated_audio/14/14_6.ogg,,0,5,5,5,,,,,0,5,5,5,,,,,,,,,,,,,,,,,,,,,,,,,,,,,,,,,,,,,,,,,,,,,,,,,,,,,,,,,,,,,,,,,9,0.6274649909992149,1962.9873311030005,None,1962.9873311030005,None,1962.9873311030005,None,,,,,,,,,,,,,,,,,,,,,,,,,,,,,,,,,,,,,,,,,,,,,,,,,,,100419_p1,001,2019_Oct_04_1318,body_behavioural,3.2.2,60.1264201274072,
5,parcelated_audio/14/14_7.ogg,,0,5,5,5,,,,,0,6,6,6,,,,,,,,,,,,,,,,,,,,,,,,,,,,,,,,,,,,,,,,,,,,,,,,,,,,,,,,,,,,,,,,,1,21.51821787500012,1973.3383476229992,None,1973.3383476229992,None,1973.3383476229992,None,,,,,,,,,,,,,,,,,,,,,,,,,,,,,,,,,,,,,,,,,,,,,,,,,,,100419_p1,001,2019_Oct_04_1318,body_behavioural,3.2.2,60.1264201274072,
5,parcelated_audio/14/14_8.ogg,,0,5,5,5,,,,,0,7,7,7,,,,,,,,,,,,,,,,,,,,,,,,,,,,,,,,,,,,,,,,,,,,,,,,,,,,,,,,,,,,,,,,,1,3.8515456300010555,2000.1594462470002,None,2000.1594462470002,None,2000.1594462470002,None,,,,,,,,,,,,,,,,,,,,,,,,,,,,,,,,,,,,,,,,,,,,,,,,,,,100419_p1,001,2019_Oct_04_1318,body_behavioural,3.2.2,60.1264201274072,
5,parcelated_audio/14/14_9.ogg,,0,5,5,5,,,,,0,8,8,8,,,,,,,,,,,,,,,,,,,,,,,,,,,,,,,,,,,,,,,,,,,,,,,,,,,,,,,,,,,,,,,,,1,0.5659827269992093,2007.8472971459996,None,2007.8472971459996,None,2007.8472971459996,None,,,,,,,,,,,,,,,,,,,,,,,,,,,,,,,,,,,,,,,,,,,,,,,,,,,100419_p1,001,2019_Oct_04_1318,body_behavioural,3.2.2,60.1264201274072,
5,parcelated_audio/14/14_10.ogg,,0,5,5,5,,,,,0,9,9,9,,,,,,,,,,,,,,,,,,,,,,,,,,,,,,,,,,,,,,,,,,,,,,,,,,,,,,,,,,,,,,,,,9,1.0235477830010495,2023.4630142269998,None,2023.4630142269998,None,2023.4630142269998,None,,,,,,,,,,,,,,,,,,,,,,,,,,,,,,,,,,,,,,,,,,,,,,,,,,,100419_p1,001,2019_Oct_04_1318,body_behavioural,3.2.2,60.1264201274072,
5,parcelated_audio/14/14_11.ogg,,0,5,5,5,,,,,0,10,10,10,,,,,,,,,,,,,,,,,,,,,,,,,,,,,,,,,,,,,,,,,,,,,,,,,,,,,,,,,,,,,,,,,1,0.9998649190001743,2031.781852054999,None,2031.781852054999,None,2031.781852054999,None,,,,,,,,,,,,,,,,,,,,,,,,,,,,,,,,,,,,,,,,,,,,,,,,,,,100419_p1,001,2019_Oct_04_1318,body_behavioural,3.2.2,60.1264201274072,
5,parcelated_audio/14/14_12.ogg,,0,5,5,5,,,,,0,11,11,11,,,,,,,,,,,,,,,,,,,,,,,,,,,,,,,,,,,,,,,,,,,,,,,,,,,,,,,,,,,,,,,,,1,1.0688952389991755,2040.8987609809992,None,2040.8987609809992,None,2040.8987609809992,None,,,,,,,,,,,,,,,,,,,,,,,,,,,,,,,,,,,,,,,,,,,,,,,,,,,100419_p1,001,2019_Oct_04_1318,body_behavioural,3.2.2,60.1264201274072,
5,parcelated_audio/14/14_13.ogg,,0,5,5,5,,,,,0,12,12,12,,,,,,,,,,,,,,,,,,,,,,,,,,,,,,,,,,,,,,,,,,,,,,,,,,,,,,,,,,,,,,,,,1,0.06470567099859181,2048.183801756999,None,2048.183801756999,None,2048.183801756999,None,,,,,,,,,,,,,,,,,,,,,,,,,,,,,,,,,,,,,,,,,,,,,,,,,,,100419_p1,001,2019_Oct_04_1318,body_behavioural,3.2.2,60.1264201274072,
5,parcelated_audio/14/14_14.ogg,,0,5,5,5,,,,,0,13,13,13,,,,,,,,,,,,,,,,,,,,,,,,,,,,,,,,,,,,,,,,,,,,,,,,,,,,,,,,,,,,,,,,,1,0.48394828100026643,2054.885550806999,None,2054.885550806999,None,2054.885550806999,None,,,,,,,,,,,,,,,,,,,,,,,,,,,,,,,,,,,,,,,,,,,,,,,,,,,100419_p1,001,2019_Oct_04_1318,body_behavioural,3.2.2,60.1264201274072,
5,parcelated_audio/14/14_15.ogg,,0,5,5,5,,,,,0,14,14,14,,,,,,,,,,,,,,,,,,,,,,,,,,,,,,,,,,,,,,,,,,,,,,,,,,,,,,,,,,,,,,,,,1,1.5142325319993688,2062.586646603,None,2062.586646603,None,2062.586646603,None,,,,,,,,,,,,,,,,,,,,,,,,,,,,,,,,,,,,,,,,,,,,,,,,,,,100419_p1,001,2019_Oct_04_1318,body_behavioural,3.2.2,60.1264201274072,
5,parcelated_audio/14/14_16.ogg,,0,5,5,5,,,,,0,15,15,15,,,,,,,,,,,,,,,,,,,,,,,,,,,,,,,,,,,,,,,,,,,,,,,,,,,,,,,,,,,,,,,,,1,0.22422224499860022,2069.6208038389996,None,2069.6208038389996,None,2069.6208038389996,None,,,,,,,,,,,,,,,,,,,,,,,,,,,,,,,,,,,,,,,,,,,,,,,,,,,100419_p1,001,2019_Oct_04_1318,body_behavioural,3.2.2,60.1264201274072,
5,parcelated_audio/14/14_17.ogg,,0,5,5,5,,,,,0,16,16,16,,,,,,,,,,,,,,,,,,,,,,,,,,,,,,,,,,,,,,,,,,,,,,,,,,,,,,,,,,,,,,,,,1,0.8902213060009672,2079.6243840669995,None,2079.6243840669995,None,2079.6243840669995,None,,,,,,,,,,,,,,,,,,,,,,,,,,,,,,,,,,,,,,,,,,,,,,,,,,,100419_p1,001,2019_Oct_04_1318,body_behavioural,3.2.2,60.1264201274072,
5,parcelated_audio/14/14_18.ogg,,0,5,5,5,,,,,0,17,17,17,,,,,,,,,,,,,,,,,,,,,,,,,,,,,,,,,,,,,,,,,,,,,,,,,,,,,,,,,,,,,,,,,9,0.811217944999953,2090.5443137620005,None,2090.5443137620005,None,2090.5443137620005,None,,,,,,,,,,,,,,,,,,,,,,,,,,,,,,,,,,,,,,,,,,,,,,,,,,,100419_p1,001,2019_Oct_04_1318,body_behavioural,3.2.2,60.1264201274072,
5,parcelated_audio/14/14_19.ogg,,0,5,5,5,,,,,0,18,18,18,,,,,,,,,,,,,,,,,,,,,,,,,,,,,,,,,,,,,,,,,,,,,,,,,,,,,,,,,,,,,,,,,1,0.8237663039999461,2094.307948803,None,2094.307948803,None,2094.307948803,None,,,,,,,,,,,,,,,,,,,,,,,,,,,,,,,,,,,,,,,,,,,,,,,,,,,100419_p1,001,2019_Oct_04_1318,body_behavioural,3.2.2,60.1264201274072,
5,parcelated_audio/14/14_20.ogg,,0,5,5,5,,,,,0,19,19,19,,,,,,,,,,,,,,,,,,,,,,,,,,,,,,,,,,,,,,,,,,,,,,,,,,,,,,,,,,,,,,,,,1,0.2531709060003777,2097.3584179669997,None,2097.3584179669997,None,2097.3584179669997,None,,,,,,,,,,,,,,,,,,,,,,,,,,,,,,,,,,,,,,,,,,,,,,,,,,,100419_p1,001,2019_Oct_04_1318,body_behavioural,3.2.2,60.1264201274072,
5,parcelated_audio/14/14_21.ogg,,0,5,5,5,,,,,0,20,20,20,,,,,,,,,,,,,,,,,,,,,,,,,,,,,,,,,,,,,,,,,,,,,,,,,,,,,,,,,,,,,,,,,1,0.932138042000588,2107.277007953,None,2107.277007953,None,2107.277007953,None,,,,,,,,,,,,,,,,,,,,,,,,,,,,,,,,,,,,,,,,,,,,,,,,,,,100419_p1,001,2019_Oct_04_1318,body_behavioural,3.2.2,60.1264201274072,
5,parcelated_audio/14/14_22.ogg,,0,5,5,5,,,,,0,21,21,21,,,,,,,,,,,,,,,,,,,,,,,,,,,,,,,,,,,,,,,,,,,,,,,,,,,,,,,,,,,,,,,,,1,0.6764668079995317,2114.628182598999,None,2114.628182598999,None,2114.628182598999,None,,,,,,,,,,,,,,,,,,,,,,,,,,,,,,,,,,,,,,,,,,,,,,,,,,,100419_p1,001,2019_Oct_04_1318,body_behavioural,3.2.2,60.1264201274072,
5,parcelated_audio/14/14_23.ogg,,0,5,5,5,,,,,0,22,22,22,,,,,,,,,,,,,,,,,,,,,,,,,,,,,,,,,,,,,,,,,,,,,,,,,,,,,,,,,,,,,,,,,1,1.8759285720007028,2120.463049365,None,2120.463049365,None,2120.463049365,None,,,,,,,,,,,,,,,,,,,,,,,,,,,,,,,,,,,,,,,,,,,,,,,,,,,100419_p1,001,2019_Oct_04_1318,body_behavioural,3.2.2,60.1264201274072,
5,parcelated_audio/14/14_24.ogg,,0,5,5,5,,,,,0,23,23,23,,,,,,,,,,,,,,,,,,,,,,,,,,,,,,,,,,,,,,,,,,,,,,,,,,,,,,,,,,,,,,,,,9,0.24004565999894112,2133.331184688999,None,2133.331184688999,None,2133.331184688999,None,,,,,,,,,,,,,,,,,,,,,,,,,,,,,,,,,,,,,,,,,,,,,,,,,,,100419_p1,001,2019_Oct_04_1318,body_behavioural,3.2.2,60.1264201274072,
5,parcelated_audio/14/14_25.ogg,,0,5,5,5,,,,,0,24,24,24,,,,,,,,,,,,,,,,,,,,,,,,,,,,,,,,,,,,,,,,,,,,,,,,,,,,,,,,,,,,,,,,,1,2.3368253290009307,2140.315417153999,None,2140.315417153999,None,2140.315417153999,None,,,,,,,,,,,,,,,,,,,,,,,,,,,,,,,,,,,,,,,,,,,,,,,,,,,100419_p1,001,2019_Oct_04_1318,body_behavioural,3.2.2,60.1264201274072,
5,parcelated_audio/14/14_26.ogg,,0,5,5,5,,,,,0,25,25,25,,,,,,,,,,,,,,,,,,,,,,,,,,,,,,,,,,,,,,,,,,,,,,,,,,,,,,,,,,,,,,,,,1,0.6639217490010196,2144.9163894289995,None,2144.9163894289995,None,2144.9163894289995,None,,,,,,,,,,,,,,,,,,,,,,,,,,,,,,,,,,,,,,,,,,,,,,,,,,,100419_p1,001,2019_Oct_04_1318,body_behavioural,3.2.2,60.1264201274072,
5,parcelated_audio/14/14_27.ogg,,0,5,5,5,,,,,0,26,26,26,,,,,,,,,,,,,,,,,,,,,,,,,,,,,,,,,,,,,,,,,,,,,,,,,,,,,,,,,,,,,,,,,9,0.7198187480007618,2151.6845038659994,None,2151.6845038659994,None,2151.6845038659994,None,,,,,,,,,,,,,,,,,,,,,,,,,,,,,,,,,,,,,,,,,,,,,,,,,,,100419_p1,001,2019_Oct_04_1318,body_behavioural,3.2.2,60.1264201274072,
5,parcelated_audio/14/14_28.ogg,,0,5,5,5,,,,,0,27,27,27,,,,,,,,,,,,,,,,,,,,,,,,,,,,,,,,,,,,,,,,,,,,,,,,,,,,,,,,,,,,,,,,,1,1.1757880320001277,2155.484526274,None,2155.484526274,None,2155.484526274,None,,,,,,,,,,,,,,,,,,,,,,,,,,,,,,,,,,,,,,,,,,,,,,,,,,,100419_p1,001,2019_Oct_04_1318,body_behavioural,3.2.2,60.1264201274072,
5,parcelated_audio/14/14_29.ogg,,0,5,5,5,,,,,0,28,28,28,,,,,,,,,,,,,,,,,,,,,,,,,,,,,,,,,,,,,,,,,,,,,,,,,,,,,,,,,,,,,,,,,1,0.43660580400137405,2159.1197147889998,None,2159.1197147889998,None,2159.1197147889998,None,,,,,,,,,,,,,,,,,,,,,,,,,,,,,,,,,,,,,,,,,,,,,,,,,,,100419_p1,001,2019_Oct_04_1318,body_behavioural,3.2.2,60.1264201274072,
5,parcelated_audio/14/14_30.ogg,,0,5,5,5,,,,,0,29,29,29,,,,,,,,,,,,,,,,,,,,,,,,,,,,,,,,,,,,,,,,,,,,,,,,,,,,,,,,,,,,,,,,,1,0.3976236719990993,2163.902698071999,None,2163.902698071999,None,2163.902698071999,None,,,,,,,,,,,,,,,,,,,,,,,,,,,,,,,,,,,,,,,,,,,,,,,,,,,100419_p1,001,2019_Oct_04_1318,body_behavioural,3.2.2,60.1264201274072,
5,parcelated_audio/14/14_31.ogg,,0,5,5,5,,,,,0,30,30,30,,,,,,,,,,,,,,,,,,,,,,,,,,,,,,,,,,,,,,,,,,,,,,,,,,,,,,,,,,,,,,,,,1,0.41369913200105657,2171.654619245999,None,2171.654619245999,None,2171.654619245999,None,,,,,,,,,,,,,,,,,,,,,,,,,,,,,,,,,,,,,,,,,,,,,,,,,,,100419_p1,001,2019_Oct_04_1318,body_behavioural,3.2.2,60.1264201274072,
5,parcelated_audio/14/14_32.ogg,,0,5,5,5,,,,,0,31,31,31,,,,,,,,,,,,,,,,,,,,,,,,,,,,,,,,,,,,,,,,,,,,,,,,,,,,,,,,,,,,,,,,,9,0.3474009820001811,2179.3223338909993,None,2179.3223338909993,None,2179.3223338909993,None,,,,,,,,,,,,,,,,,,,,,,,,,,,,,,,,,,,,,,,,,,,,,,,,,,,100419_p1,001,2019_Oct_04_1318,body_behavioural,3.2.2,60.1264201274072,
5,parcelated_audio/14/14_33.ogg,,0,5,5,5,,,,,0,32,32,32,,,,,,,,,,,,,,,,,,,,,,,,,,,,,,,,,,,,,,,,,,,,,,,,,,,,,,,,,,,,,,,,,1,0.36536852400058706,2186.323090341999,None,2186.323090341999,None,2186.323090341999,None,,,,,,,,,,,,,,,,,,,,,,,,,,,,,,,,,,,,,,,,,,,,,,,,,,,100419_p1,001,2019_Oct_04_1318,body_behavioural,3.2.2,60.1264201274072,
5,,,0,5,5,5,,,,,,,,,,,,,,,,,,,,,,,,,,,,,,,,,,,,,,,,,,,,,,,,,,,,,,,,,,,,,,,,,,,,,,,,,,,,,,,,,2186.7091214449993,None,2186.7091214449993,None,space,1.2433829590008827,2186.7091214449993,None,,,,,,,,,,,,,,,,,,,,,,,,,,,,,,,,,,,,,,,,,,,100419_p1,001,2019_Oct_04_1318,body_behavioural,3.2.2,60.1264201274072,
6,,,0,6,6,6,0,0,0,0,,,,,,,,,,,,,,,,,2187.9903275569995,None,space,0.4102993870001228,2187.9903275569995,None,2187.9903275569995,None,2188.423789605,None,space,0.488681238000936,2188.423789605,None,2188.974032463,None,2188.974032463,None,2188.974032463,None,2189.7304973869996,None,space,0.3821473540010629,2189.7304973869996,None,2190.2574749819996,None,2190.2574749819996,None,2190.2574749819996,None,2190.2574749819996,None,2190.2574749819996,None,2190.2574749819996,None,2190.2574749819996,None,,,,,,,,,,,,,,,,,,,,,,,,,,,,,,,,,,,,,,,,,,,,,,,,,,,,,,,,,,,,,,,,,,,,,,,100419_p1,001,2019_Oct_04_1318,body_behavioural,3.2.2,60.1264201274072,
6,,,0,6,6,6,1,0,1,0,,,,,,,,,,,,,,,,,,,,,,,,,,,,,,,2199.6495759659992,None,2199.6495759659992,None,2199.6495759659992,None,2201.0587467679998,None,space,0.548561071000222,2201.0587467679998,None,2201.742738903,None,2201.742738903,None,2201.742738903,None,2201.742738903,None,2201.742738903,None,2201.742738903,None,2201.742738903,None,,,,,,,,,,,,,,,,,,,,,,,,,,,,,,,,,,,,,,,,,,,,,,,,,,,,,,,,,,,,,,,,,,,,,,,100419_p1,001,2019_Oct_04_1318,body_behavioural,3.2.2,60.1264201274072,
6,,,0,6,6,6,2,0,2,0,,,,,,,,,,,,,,,,,,,,,,,,,,,,,,,2213.0837060760005,None,2213.0837060760005,None,2213.0837060760005,None,2214.144254798999,None,space,0.5070956830004434,2214.144254798999,None,2214.795006938999,None,2214.795006938999,None,2214.795006938999,None,2214.795006938999,None,2214.795006938999,None,2214.795006938999,None,2214.795006938999,None,,,,,,,,,,,,,,,,,,,,,,,,,,,,,,,,,,,,,,,,,,,,,,,,,,,,,,,,,,,,,,,,,,,,,,,100419_p1,001,2019_Oct_04_1318,body_behavioural,3.2.2,60.1264201274072,
6,parcelated_audio/24/24_1.ogg,,0,6,6,6,,,,,0,0,0,0,,,,,,,,,,,,,,,,,,,,,,,,,,,2229.102530135,None,2229.102530135,None,2229.102530135,None,,,,,,,,,,,,,,,,,,,,,2225.7191231390007,None,space,3.307741583999814,2225.7191231390007,None,2229.546989729999,None,space,0.3837357529992005,2229.546989729999,None,1,1.3634364179997647,2240.4486354889996,None,2240.4486354889996,None,2240.4486354889996,None,,,,,,,,,,,,,,,,,,,,,,,,,,,,,,,,,,,,,,,,,,,,,,,,,,,100419_p1,001,2019_Oct_04_1318,body_behavioural,3.2.2,60.1264201274072,
6,parcelated_audio/24/24_2.ogg,,0,6,6,6,,,,,0,1,1,1,,,,,,,,,,,,,,,,,,,,,,,,,,,,,,,,,,,,,,,,,,,,,,,,,,,,,,,,,,,,,,,,,1,0.37611517299956176,2248.200074193999,None,2248.200074193999,None,2248.200074193999,None,,,,,,,,,,,,,,,,,,,,,,,,,,,,,,,,,,,,,,,,,,,,,,,,,,,100419_p1,001,2019_Oct_04_1318,body_behavioural,3.2.2,60.1264201274072,
6,parcelated_audio/24/24_3.ogg,,0,6,6,6,,,,,0,2,2,2,,,,,,,,,,,,,,,,,,,,,,,,,,,,,,,,,,,,,,,,,,,,,,,,,,,,,,,,,,,,,,,,,1,1.6915816059990902,2260.25211664,None,2260.25211664,None,2260.25211664,None,,,,,,,,,,,,,,,,,,,,,,,,,,,,,,,,,,,,,,,,,,,,,,,,,,,100419_p1,001,2019_Oct_04_1318,body_behavioural,3.2.2,60.1264201274072,
6,parcelated_audio/24/24_4.ogg,,0,6,6,6,,,,,0,3,3,3,,,,,,,,,,,,,,,,,,,,,,,,,,,,,,,,,,,,,,,,,,,,,,,,,,,,,,,,,,,,,,,,,1,0.8610229379992234,2268.903567690999,None,2268.903567690999,None,2268.903567690999,None,,,,,,,,,,,,,,,,,,,,,,,,,,,,,,,,,,,,,,,,,,,,,,,,,,,100419_p1,001,2019_Oct_04_1318,body_behavioural,3.2.2,60.1264201274072,
6,parcelated_audio/24/24_5.ogg,,0,6,6,6,,,,,0,4,4,4,,,,,,,,,,,,,,,,,,,,,,,,,,,,,,,,,,,,,,,,,,,,,,,,,,,,,,,,,,,,,,,,,1,1.344516110000768,2274.7894629639995,None,2274.7894629639995,None,2274.7894629639995,None,,,,,,,,,,,,,,,,,,,,,,,,,,,,,,,,,,,,,,,,,,,,,,,,,,,100419_p1,001,2019_Oct_04_1318,body_behavioural,3.2.2,60.1264201274072,
6,parcelated_audio/24/24_6.ogg,,0,6,6,6,,,,,0,5,5,5,,,,,,,,,,,,,,,,,,,,,,,,,,,,,,,,,,,,,,,,,,,,,,,,,,,,,,,,,,,,,,,,,9,0.7900285449995863,2283.672663178,None,2283.672663178,None,2283.672663178,None,,,,,,,,,,,,,,,,,,,,,,,,,,,,,,,,,,,,,,,,,,,,,,,,,,,100419_p1,001,2019_Oct_04_1318,body_behavioural,3.2.2,60.1264201274072,
6,parcelated_audio/24/24_7.ogg,,0,6,6,6,,,,,0,6,6,6,,,,,,,,,,,,,,,,,,,,,,,,,,,,,,,,,,,,,,,,,,,,,,,,,,,,,,,,,,,,,,,,,9,1.2955349420008133,2288.925018647,None,2288.925018647,None,2288.925018647,None,,,,,,,,,,,,,,,,,,,,,,,,,,,,,,,,,,,,,,,,,,,,,,,,,,,100419_p1,001,2019_Oct_04_1318,body_behavioural,3.2.2,60.1264201274072,
6,parcelated_audio/24/24_8.ogg,,0,6,6,6,,,,,0,7,7,7,,,,,,,,,,,,,,,,,,,,,,,,,,,,,,,,,,,,,,,,,,,,,,,,,,,,,,,,,,,,,,,,,9,0.6967730639989895,2296.3415930819992,None,2296.3415930819992,None,2296.3415930819992,None,,,,,,,,,,,,,,,,,,,,,,,,,,,,,,,,,,,,,,,,,,,,,,,,,,,100419_p1,001,2019_Oct_04_1318,body_behavioural,3.2.2,60.1264201274072,
6,parcelated_audio/24/24_9.ogg,,0,6,6,6,,,,,0,8,8,8,,,,,,,,,,,,,,,,,,,,,,,,,,,,,,,,,,,,,,,,,,,,,,,,,,,,,,,,,,,,,,,,,1,0.019710824000867433,2301.45881283,None,2301.45881283,None,2301.45881283,None,,,,,,,,,,,,,,,,,,,,,,,,,,,,,,,,,,,,,,,,,,,,,,,,,,,100419_p1,001,2019_Oct_04_1318,body_behavioural,3.2.2,60.1264201274072,
6,parcelated_audio/24/24_10.ogg,,0,6,6,6,,,,,0,9,9,9,,,,,,,,,,,,,,,,,,,,,,,,,,,,,,,,,,,,,,,,,,,,,,,,,,,,,,,,,,,,,,,,,1,0.14326227899982769,2305.311124041,None,2305.311124041,None,2305.311124041,None,,,,,,,,,,,,,,,,,,,,,,,,,,,,,,,,,,,,,,,,,,,,,,,,,,,100419_p1,001,2019_Oct_04_1318,body_behavioural,3.2.2,60.1264201274072,
6,parcelated_audio/24/24_11.ogg,,0,6,6,6,,,,,0,10,10,10,,,,,,,,,,,,,,,,,,,,,,,,,,,,,,,,,,,,,,,,,,,,,,,,,,,,,,,,,,,,,,,,,1,1.2254492480005865,2315.661511937,None,2315.661511937,None,2315.661511937,None,,,,,,,,,,,,,,,,,,,,,,,,,,,,,,,,,,,,,,,,,,,,,,,,,,,100419_p1,001,2019_Oct_04_1318,body_behavioural,3.2.2,60.1264201274072,
6,parcelated_audio/24/24_12.ogg,,0,6,6,6,,,,,0,11,11,11,,,,,,,,,,,,,,,,,,,,,,,,,,,,,,,,,,,,,,,,,,,,,,,,,,,,,,,,,,,,,,,,,9,0.42285415699916484,2326.0297594370004,None,2326.0297594370004,None,2326.0297594370004,None,,,,,,,,,,,,,,,,,,,,,,,,,,,,,,,,,,,,,,,,,,,,,,,,,,,100419_p1,001,2019_Oct_04_1318,body_behavioural,3.2.2,60.1264201274072,
6,parcelated_audio/24/24_13.ogg,,0,6,6,6,,,,,0,12,12,12,,,,,,,,,,,,,,,,,,,,,,,,,,,,,,,,,,,,,,,,,,,,,,,,,,,,,,,,,,,,,,,,,1,1.0748496269989118,2330.513765366999,None,2330.513765366999,None,2330.513765366999,None,,,,,,,,,,,,,,,,,,,,,,,,,,,,,,,,,,,,,,,,,,,,,,,,,,,100419_p1,001,2019_Oct_04_1318,body_behavioural,3.2.2,60.1264201274072,
6,parcelated_audio/24/24_14.ogg,,0,6,6,6,,,,,0,13,13,13,,,,,,,,,,,,,,,,,,,,,,,,,,,,,,,,,,,,,,,,,,,,,,,,,,,,,,,,,,,,,,,,,1,0.5587673019999784,2339.064014935,None,2339.064014935,None,2339.064014935,None,,,,,,,,,,,,,,,,,,,,,,,,,,,,,,,,,,,,,,,,,,,,,,,,,,,100419_p1,001,2019_Oct_04_1318,body_behavioural,3.2.2,60.1264201274072,
6,parcelated_audio/24/24_15.ogg,,0,6,6,6,,,,,0,14,14,14,,,,,,,,,,,,,,,,,,,,,,,,,,,,,,,,,,,,,,,,,,,,,,,,,,,,,,,,,,,,,,,,,1,0.8896437629991851,2346.2328428130004,None,2346.2328428130004,None,2346.2328428130004,None,,,,,,,,,,,,,,,,,,,,,,,,,,,,,,,,,,,,,,,,,,,,,,,,,,,100419_p1,001,2019_Oct_04_1318,body_behavioural,3.2.2,60.1264201274072,
6,parcelated_audio/24/24_16.ogg,,0,6,6,6,,,,,0,15,15,15,,,,,,,,,,,,,,,,,,,,,,,,,,,,,,,,,,,,,,,,,,,,,,,,,,,,,,,,,,,,,,,,,9,1.0231355030009581,2354.3871449140006,None,2354.3871449140006,None,2354.3871449140006,None,,,,,,,,,,,,,,,,,,,,,,,,,,,,,,,,,,,,,,,,,,,,,,,,,,,100419_p1,001,2019_Oct_04_1318,body_behavioural,3.2.2,60.1264201274072,
6,parcelated_audio/24/24_17.ogg,,0,6,6,6,,,,,0,16,16,16,,,,,,,,,,,,,,,,,,,,,,,,,,,,,,,,,,,,,,,,,,,,,,,,,,,,,,,,,,,,,,,,,1,0.33489648700015096,2361.4850562949996,None,2361.4850562949996,None,2361.4850562949996,None,,,,,,,,,,,,,,,,,,,,,,,,,,,,,,,,,,,,,,,,,,,,,,,,,,,100419_p1,001,2019_Oct_04_1318,body_behavioural,3.2.2,60.1264201274072,
6,parcelated_audio/24/24_18.ogg,,0,6,6,6,,,,,0,17,17,17,,,,,,,,,,,,,,,,,,,,,,,,,,,,,,,,,,,,,,,,,,,,,,,,,,,,,,,,,,,,,,,,,1,0.9554783980001957,2370.3718209500003,None,2370.3718209500003,None,2370.3718209500003,None,,,,,,,,,,,,,,,,,,,,,,,,,,,,,,,,,,,,,,,,,,,,,,,,,,,100419_p1,001,2019_Oct_04_1318,body_behavioural,3.2.2,60.1264201274072,
6,parcelated_audio/24/24_19.ogg,,0,6,6,6,,,,,0,18,18,18,,,,,,,,,,,,,,,,,,,,,,,,,,,,,,,,,,,,,,,,,,,,,,,,,,,,,,,,,,,,,,,,,1,0.9400071270010812,2381.054878261999,None,2381.054878261999,None,2381.054878261999,None,,,,,,,,,,,,,,,,,,,,,,,,,,,,,,,,,,,,,,,,,,,,,,,,,,,100419_p1,001,2019_Oct_04_1318,body_behavioural,3.2.2,60.1264201274072,
6,parcelated_audio/24/24_20.ogg,,0,6,6,6,,,,,0,19,19,19,,,,,,,,,,,,,,,,,,,,,,,,,,,,,,,,,,,,,,,,,,,,,,,,,,,,,,,,,,,,,,,,,9,0.3001815479983634,2386.5233449339994,None,2386.5233449339994,None,2386.5233449339994,None,,,,,,,,,,,,,,,,,,,,,,,,,,,,,,,,,,,,,,,,,,,,,,,,,,,100419_p1,001,2019_Oct_04_1318,body_behavioural,3.2.2,60.1264201274072,
6,parcelated_audio/24/24_21.ogg,,0,6,6,6,,,,,0,20,20,20,,,,,,,,,,,,,,,,,,,,,,,,,,,,,,,,,,,,,,,,,,,,,,,,,,,,,,,,,,,,,,,,,9,1.591419553000378,2394.9243967130005,None,2394.9243967130005,None,2394.9243967130005,None,,,,,,,,,,,,,,,,,,,,,,,,,,,,,,,,,,,,,,,,,,,,,,,,,,,100419_p1,001,2019_Oct_04_1318,body_behavioural,3.2.2,60.1264201274072,
6,parcelated_audio/24/24_22.ogg,,0,6,6,6,,,,,0,21,21,21,,,,,,,,,,,,,,,,,,,,,,,,,,,,,,,,,,,,,,,,,,,,,,,,,,,,,,,,,,,,,,,,,1,0.5117440389985859,2407.0596649710005,None,2407.0596649710005,None,2407.0596649710005,None,,,,,,,,,,,,,,,,,,,,,,,,,,,,,,,,,,,,,,,,,,,,,,,,,,,100419_p1,001,2019_Oct_04_1318,body_behavioural,3.2.2,60.1264201274072,
6,parcelated_audio/24/24_23.ogg,,0,6,6,6,,,,,0,22,22,22,,,,,,,,,,,,,,,,,,,,,,,,,,,,,,,,,,,,,,,,,,,,,,,,,,,,,,,,,,,,,,,,,1,1.3559445240007335,2417.8444273490004,None,2417.8444273490004,None,2417.8444273490004,None,,,,,,,,,,,,,,,,,,,,,,,,,,,,,,,,,,,,,,,,,,,,,,,,,,,100419_p1,001,2019_Oct_04_1318,body_behavioural,3.2.2,60.1264201274072,
6,parcelated_audio/24/24_24.ogg,,0,6,6,6,,,,,0,23,23,23,,,,,,,,,,,,,,,,,,,,,,,,,,,,,,,,,,,,,,,,,,,,,,,,,,,,,,,,,,,,,,,,,1,1.0867108950005786,2425.8457369650005,None,2425.8457369650005,None,2425.8457369650005,None,,,,,,,,,,,,,,,,,,,,,,,,,,,,,,,,,,,,,,,,,,,,,,,,,,,100419_p1,001,2019_Oct_04_1318,body_behavioural,3.2.2,60.1264201274072,
6,parcelated_audio/24/24_25.ogg,,0,6,6,6,,,,,0,24,24,24,,,,,,,,,,,,,,,,,,,,,,,,,,,,,,,,,,,,,,,,,,,,,,,,,,,,,,,,,,,,,,,,,1,0.27187097200112476,2435.7475951399992,None,2435.7475951399992,None,2435.7475951399992,None,,,,,,,,,,,,,,,,,,,,,,,,,,,,,,,,,,,,,,,,,,,,,,,,,,,100419_p1,001,2019_Oct_04_1318,body_behavioural,3.2.2,60.1264201274072,
6,parcelated_audio/24/24_26.ogg,,0,6,6,6,,,,,0,25,25,25,,,,,,,,,,,,,,,,,,,,,,,,,,,,,,,,,,,,,,,,,,,,,,,,,,,,,,,,,,,,,,,,,1,1.0850672880005732,2442.6655486380005,None,2442.6655486380005,None,2442.6655486380005,None,,,,,,,,,,,,,,,,,,,,,,,,,,,,,,,,,,,,,,,,,,,,,,,,,,,100419_p1,001,2019_Oct_04_1318,body_behavioural,3.2.2,60.1264201274072,
6,parcelated_audio/24/24_27.ogg,,0,6,6,6,,,,,0,26,26,26,,,,,,,,,,,,,,,,,,,,,,,,,,,,,,,,,,,,,,,,,,,,,,,,,,,,,,,,,,,,,,,,,1,0.18387914000049932,2449.9165417040003,None,2449.9165417040003,None,2449.9165417040003,None,,,,,,,,,,,,,,,,,,,,,,,,,,,,,,,,,,,,,,,,,,,,,,,,,,,100419_p1,001,2019_Oct_04_1318,body_behavioural,3.2.2,60.1264201274072,
6,parcelated_audio/24/24_28.ogg,,0,6,6,6,,,,,0,27,27,27,,,,,,,,,,,,,,,,,,,,,,,,,,,,,,,,,,,,,,,,,,,,,,,,,,,,,,,,,,,,,,,,,1,0.5129169049996563,2454.684077389,None,2454.684077389,None,2454.684077389,None,,,,,,,,,,,,,,,,,,,,,,,,,,,,,,,,,,,,,,,,,,,,,,,,,,,100419_p1,001,2019_Oct_04_1318,body_behavioural,3.2.2,60.1264201274072,
6,parcelated_audio/24/24_29.ogg,,0,6,6,6,,,,,0,28,28,28,,,,,,,,,,,,,,,,,,,,,,,,,,,,,,,,,,,,,,,,,,,,,,,,,,,,,,,,,,,,,,,,,1,0.1905582340004912,2461.5518792069997,None,2461.5518792069997,None,2461.5518792069997,None,,,,,,,,,,,,,,,,,,,,,,,,,,,,,,,,,,,,,,,,,,,,,,,,,,,100419_p1,001,2019_Oct_04_1318,body_behavioural,3.2.2,60.1264201274072,
6,parcelated_audio/24/24_30.ogg,,0,6,6,6,,,,,0,29,29,29,,,,,,,,,,,,,,,,,,,,,,,,,,,,,,,,,,,,,,,,,,,,,,,,,,,,,,,,,,,,,,,,,9,2.910039054999288,2468.086270972999,None,2468.086270972999,None,2468.086270972999,None,,,,,,,,,,,,,,,,,,,,,,,,,,,,,,,,,,,,,,,,,,,,,,,,,,,100419_p1,001,2019_Oct_04_1318,body_behavioural,3.2.2,60.1264201274072,
6,parcelated_audio/24/24_31.ogg,,0,6,6,6,,,,,0,30,30,30,,,,,,,,,,,,,,,,,,,,,,,,,,,,,,,,,,,,,,,,,,,,,,,,,,,,,,,,,,,,,,,,,1,0.9266149810009665,2477.7541587859996,None,2477.7541587859996,None,2477.7541587859996,None,,,,,,,,,,,,,,,,,,,,,,,,,,,,,,,,,,,,,,,,,,,,,,,,,,,100419_p1,001,2019_Oct_04_1318,body_behavioural,3.2.2,60.1264201274072,
6,parcelated_audio/24/24_32.ogg,,0,6,6,6,,,,,0,31,31,31,,,,,,,,,,,,,,,,,,,,,,,,,,,,,,,,,,,,,,,,,,,,,,,,,,,,,,,,,,,,,,,,,1,0.2642253049998544,2489.5560368839997,None,2489.5560368839997,None,2489.5560368839997,None,,,,,,,,,,,,,,,,,,,,,,,,,,,,,,,,,,,,,,,,,,,,,,,,,,,100419_p1,001,2019_Oct_04_1318,body_behavioural,3.2.2,60.1264201274072,
6,,,0,6,6,6,,,,,,,,,,,,,,,,,,,,,,,,,,,,,,,,,,,,,,,,,,,,,,,,,,,,,,,,,,,,,,,,,,,,,,,,,,,,,,,,,2489.8566848259998,None,2489.8566848259998,None,space,3.4275526239998726,2489.8566848259998,None,,,,,,,,,,,,,,,,,,,,,,,,,,,,,,,,,,,,,,,,,,,100419_p1,001,2019_Oct_04_1318,body_behavioural,3.2.2,60.1264201274072,
7,,,0,7,7,7,0,0,0,0,,,,,,,,,,,,,,,,,2493.329204645999,None,space,0.6911117959989497,2493.329204645999,None,2493.329204645999,None,2494.041487606999,None,space,0.42681738100145594,2494.041487606999,None,2494.524212983999,None,2494.524212983999,None,2494.524212983999,None,2495.2626879380005,None,space,0.3655728200010344,2495.2626879380005,None,2495.7794504619997,None,2495.7794504619997,None,2495.7794504619997,None,2495.7794504619997,None,2495.7794504619997,None,2495.7794504619997,None,2495.7794504619997,None,,,,,,,,,,,,,,,,,,,,,,,,,,,,,,,,,,,,,,,,,,,,,,,,,,,,,,,,,,,,,,,,,,,,,,,100419_p1,001,2019_Oct_04_1318,body_behavioural,3.2.2,60.1264201274072,
7,parcelated_audio/42/42_1.ogg,,0,7,7,7,,,,,0,0,0,0,,,,,,,,,,,,,,,,,,,,,,,,,,,2516.949946073999,None,2516.949946073999,None,2516.949946073999,None,,,,,,,,,,,,,,,,,,,,,2516.6509924889997,None,space,0.2426424040004349,2516.6509924889997,None,2517.3608729940006,None,space,0.5248025740002049,2517.3608729940006,None,1,2.2799159490004968,2526.364719825,None,2526.364719825,None,2526.364719825,None,,,,,,,,,,,,,,,,,,,,,,,,,,,,,,,,,,,,,,,,,,,,,,,,,,,100419_p1,001,2019_Oct_04_1318,body_behavioural,3.2.2,60.1264201274072,
7,parcelated_audio/42/42_2.ogg,,0,7,7,7,,,,,0,1,1,1,,,,,,,,,,,,,,,,,,,,,,,,,,,,,,,,,,,,,,,,,,,,,,,,,,,,,,,,,,,,,,,,,1,0.14439937099996314,2541.431618262999,None,2541.431618262999,None,2541.431618262999,None,,,,,,,,,,,,,,,,,,,,,,,,,,,,,,,,,,,,,,,,,,,,,,,,,,,100419_p1,001,2019_Oct_04_1318,body_behavioural,3.2.2,60.1264201274072,
7,parcelated_audio/42/42_3.ogg,,0,7,7,7,,,,,0,2,2,2,,,,,,,,,,,,,,,,,,,,,,,,,,,,,,,,,,,,,,,,,,,,,,,,,,,,,,,,,,,,,,,,,1,2.6217938129993854,2551.934638551,None,2551.934638551,None,2551.934638551,None,,,,,,,,,,,,,,,,,,,,,,,,,,,,,,,,,,,,,,,,,,,,,,,,,,,100419_p1,001,2019_Oct_04_1318,body_behavioural,3.2.2,60.1264201274072,
7,parcelated_audio/42/42_4.ogg,,0,7,7,7,,,,,0,3,3,3,,,,,,,,,,,,,,,,,,,,,,,,,,,,,,,,,,,,,,,,,,,,,,,,,,,,,,,,,,,,,,,,,1,0.2842808099994727,2568.3211753180003,None,2568.3211753180003,None,2568.3211753180003,None,,,,,,,,,,,,,,,,,,,,,,,,,,,,,,,,,,,,,,,,,,,,,,,,,,,100419_p1,001,2019_Oct_04_1318,body_behavioural,3.2.2,60.1264201274072,
7,parcelated_audio/42/42_5.ogg,,0,7,7,7,,,,,0,4,4,4,,,,,,,,,,,,,,,,,,,,,,,,,,,,,,,,,,,,,,,,,,,,,,,,,,,,,,,,,,,,,,,,,1,0.18667136899966863,2580.1393078599995,None,2580.1393078599995,None,2580.1393078599995,None,,,,,,,,,,,,,,,,,,,,,,,,,,,,,,,,,,,,,,,,,,,,,,,,,,,100419_p1,001,2019_Oct_04_1318,body_behavioural,3.2.2,60.1264201274072,
7,parcelated_audio/42/42_6.ogg,,0,7,7,7,,,,,0,5,5,5,,,,,,,,,,,,,,,,,,,,,,,,,,,,,,,,,,,,,,,,,,,,,,,,,,,,,,,,,,,,,,,,,1,1.9504359059992566,2586.9052780050006,None,2586.9052780050006,None,2586.9052780050006,None,,,,,,,,,,,,,,,,,,,,,,,,,,,,,,,,,,,,,,,,,,,,,,,,,,,100419_p1,001,2019_Oct_04_1318,body_behavioural,3.2.2,60.1264201274072,
7,parcelated_audio/42/42_7.ogg,,0,7,7,7,,,,,0,6,6,6,,,,,,,,,,,,,,,,,,,,,,,,,,,,,,,,,,,,,,,,,,,,,,,,,,,,,,,,,,,,,,,,,1,0.419541876999574,2594.124586582,None,2594.124586582,None,2594.124586582,None,,,,,,,,,,,,,,,,,,,,,,,,,,,,,,,,,,,,,,,,,,,,,,,,,,,100419_p1,001,2019_Oct_04_1318,body_behavioural,3.2.2,60.1264201274072,
7,parcelated_audio/42/42_8.ogg,,0,7,7,7,,,,,0,7,7,7,,,,,,,,,,,,,,,,,,,,,,,,,,,,,,,,,,,,,,,,,,,,,,,,,,,,,,,,,,,,,,,,,1,1.882656384999791,2597.7733531659997,None,2597.7733531659997,None,2597.7733531659997,None,,,,,,,,,,,,,,,,,,,,,,,,,,,,,,,,,,,,,,,,,,,,,,,,,,,100419_p1,001,2019_Oct_04_1318,body_behavioural,3.2.2,60.1264201274072,
7,parcelated_audio/42/42_9.ogg,,0,7,7,7,,,,,0,8,8,8,,,,,,,,,,,,,,,,,,,,,,,,,,,,,,,,,,,,,,,,,,,,,,,,,,,,,,,,,,,,,,,,,1,0.1615015110000968,2608.2925638899997,None,2608.2925638899997,None,2608.2925638899997,None,,,,,,,,,,,,,,,,,,,,,,,,,,,,,,,,,,,,,,,,,,,,,,,,,,,100419_p1,001,2019_Oct_04_1318,body_behavioural,3.2.2,60.1264201274072,
7,parcelated_audio/42/42_10.ogg,,0,7,7,7,,,,,0,9,9,9,,,,,,,,,,,,,,,,,,,,,,,,,,,,,,,,,,,,,,,,,,,,,,,,,,,,,,,,,,,,,,,,,1,0.9864605839993601,2612.8596876699994,None,2612.8596876699994,None,2612.8596876699994,None,,,,,,,,,,,,,,,,,,,,,,,,,,,,,,,,,,,,,,,,,,,,,,,,,,,100419_p1,001,2019_Oct_04_1318,body_behavioural,3.2.2,60.1264201274072,
7,parcelated_audio/42/42_11.ogg,,0,7,7,7,,,,,0,10,10,10,,,,,,,,,,,,,,,,,,,,,,,,,,,,,,,,,,,,,,,,,,,,,,,,,,,,,,,,,,,,,,,,,1,1.4580786160004209,2618.943804585,None,2618.943804585,None,2618.943804585,None,,,,,,,,,,,,,,,,,,,,,,,,,,,,,,,,,,,,,,,,,,,,,,,,,,,100419_p1,001,2019_Oct_04_1318,body_behavioural,3.2.2,60.1264201274072,
7,parcelated_audio/42/42_12.ogg,,0,7,7,7,,,,,0,11,11,11,,,,,,,,,,,,,,,,,,,,,,,,,,,,,,,,,,,,,,,,,,,,,,,,,,,,,,,,,,,,,,,,,1,0.38538477499969304,2626.461840308999,None,2626.461840308999,None,2626.461840308999,None,,,,,,,,,,,,,,,,,,,,,,,,,,,,,,,,,,,,,,,,,,,,,,,,,,,100419_p1,001,2019_Oct_04_1318,body_behavioural,3.2.2,60.1264201274072,
7,parcelated_audio/42/42_13.ogg,,0,7,7,7,,,,,0,12,12,12,,,,,,,,,,,,,,,,,,,,,,,,,,,,,,,,,,,,,,,,,,,,,,,,,,,,,,,,,,,,,,,,,1,0.7203953099997307,2634.096917375,None,2634.096917375,None,2634.096917375,None,,,,,,,,,,,,,,,,,,,,,,,,,,,,,,,,,,,,,,,,,,,,,,,,,,,100419_p1,001,2019_Oct_04_1318,body_behavioural,3.2.2,60.1264201274072,
7,parcelated_audio/42/42_14.ogg,,0,7,7,7,,,,,0,13,13,13,,,,,,,,,,,,,,,,,,,,,,,,,,,,,,,,,,,,,,,,,,,,,,,,,,,,,,,,,,,,,,,,,9,0.5218005730002915,2639.61618789,None,2639.61618789,None,2639.61618789,None,,,,,,,,,,,,,,,,,,,,,,,,,,,,,,,,,,,,,,,,,,,,,,,,,,,100419_p1,001,2019_Oct_04_1318,body_behavioural,3.2.2,60.1264201274072,
7,parcelated_audio/42/42_15.ogg,,0,7,7,7,,,,,0,14,14,14,,,,,,,,,,,,,,,,,,,,,,,,,,,,,,,,,,,,,,,,,,,,,,,,,,,,,,,,,,,,,,,,,1,0.40884382399963215,2646.081557719999,None,2646.081557719999,None,2646.081557719999,None,,,,,,,,,,,,,,,,,,,,,,,,,,,,,,,,,,,,,,,,,,,,,,,,,,,100419_p1,001,2019_Oct_04_1318,body_behavioural,3.2.2,60.1264201274072,
7,parcelated_audio/42/42_16.ogg,,0,7,7,7,,,,,0,15,15,15,,,,,,,,,,,,,,,,,,,,,,,,,,,,,,,,,,,,,,,,,,,,,,,,,,,,,,,,,,,,,,,,,1,0.1099630310000066,2652.1499134709993,None,2652.1499134709993,None,2652.1499134709993,None,,,,,,,,,,,,,,,,,,,,,,,,,,,,,,,,,,,,,,,,,,,,,,,,,,,100419_p1,001,2019_Oct_04_1318,body_behavioural,3.2.2,60.1264201274072,
7,parcelated_audio/42/42_17.ogg,,0,7,7,7,,,,,0,16,16,16,,,,,,,,,,,,,,,,,,,,,,,,,,,,,,,,,,,,,,,,,,,,,,,,,,,,,,,,,,,,,,,,,1,0.8208596290005516,2662.034463332,None,2662.034463332,None,2662.034463332,None,,,,,,,,,,,,,,,,,,,,,,,,,,,,,,,,,,,,,,,,,,,,,,,,,,,100419_p1,001,2019_Oct_04_1318,body_behavioural,3.2.2,60.1264201274072,
7,parcelated_audio/42/42_18.ogg,,0,7,7,7,,,,,0,17,17,17,,,,,,,,,,,,,,,,,,,,,,,,,,,,,,,,,,,,,,,,,,,,,,,,,,,,,,,,,,,,,,,,,9,0.617341529999976,2668.368410072,None,2668.368410072,None,2668.368410072,None,,,,,,,,,,,,,,,,,,,,,,,,,,,,,,,,,,,,,,,,,,,,,,,,,,,100419_p1,001,2019_Oct_04_1318,body_behavioural,3.2.2,60.1264201274072,
7,parcelated_audio/42/42_19.ogg,,0,7,7,7,,,,,0,18,18,18,,,,,,,,,,,,,,,,,,,,,,,,,,,,,,,,,,,,,,,,,,,,,,,,,,,,,,,,,,,,,,,,,1,0.37750226499883865,2678.2041133370003,None,2678.2041133370003,None,2678.2041133370003,None,,,,,,,,,,,,,,,,,,,,,,,,,,,,,,,,,,,,,,,,,,,,,,,,,,,100419_p1,001,2019_Oct_04_1318,body_behavioural,3.2.2,60.1264201274072,
7,parcelated_audio/42/42_20.ogg,,0,7,7,7,,,,,0,19,19,19,,,,,,,,,,,,,,,,,,,,,,,,,,,,,,,,,,,,,,,,,,,,,,,,,,,,,,,,,,,,,,,,,1,1.3743009030004032,2683.3209964830003,None,2683.3209964830003,None,2683.3209964830003,None,,,,,,,,,,,,,,,,,,,,,,,,,,,,,,,,,,,,,,,,,,,,,,,,,,,100419_p1,001,2019_Oct_04_1318,body_behavioural,3.2.2,60.1264201274072,
7,parcelated_audio/42/42_21.ogg,,0,7,7,7,,,,,0,20,20,20,,,,,,,,,,,,,,,,,,,,,,,,,,,,,,,,,,,,,,,,,,,,,,,,,,,,,,,,,,,,,,,,,1,0.43072920300073747,2694.7063648660005,None,2694.7063648660005,None,2694.7063648660005,None,,,,,,,,,,,,,,,,,,,,,,,,,,,,,,,,,,,,,,,,,,,,,,,,,,,100419_p1,001,2019_Oct_04_1318,body_behavioural,3.2.2,60.1264201274072,
7,parcelated_audio/42/42_22.ogg,,0,7,7,7,,,,,0,21,21,21,,,,,,,,,,,,,,,,,,,,,,,,,,,,,,,,,,,,,,,,,,,,,,,,,,,,,,,,,,,,,,,,,1,0.08694674099933764,2699.9901071139993,None,2699.9901071139993,None,2699.9901071139993,None,,,,,,,,,,,,,,,,,,,,,,,,,,,,,,,,,,,,,,,,,,,,,,,,,,,100419_p1,001,2019_Oct_04_1318,body_behavioural,3.2.2,60.1264201274072,
7,parcelated_audio/42/42_23.ogg,,0,7,7,7,,,,,0,22,22,22,,,,,,,,,,,,,,,,,,,,,,,,,,,,,,,,,,,,,,,,,,,,,,,,,,,,,,,,,,,,,,,,,9,0.7876215269989189,2706.3924330989994,None,2706.3924330989994,None,2706.3924330989994,None,,,,,,,,,,,,,,,,,,,,,,,,,,,,,,,,,,,,,,,,,,,,,,,,,,,100419_p1,001,2019_Oct_04_1318,body_behavioural,3.2.2,60.1264201274072,
7,parcelated_audio/42/42_24.ogg,,0,7,7,7,,,,,0,23,23,23,,,,,,,,,,,,,,,,,,,,,,,,,,,,,,,,,,,,,,,,,,,,,,,,,,,,,,,,,,,,,,,,,1,0.10373461299968767,2715.7252337089994,None,2715.7252337089994,None,2715.7252337089994,None,,,,,,,,,,,,,,,,,,,,,,,,,,,,,,,,,,,,,,,,,,,,,,,,,,,100419_p1,001,2019_Oct_04_1318,body_behavioural,3.2.2,60.1264201274072,
7,parcelated_audio/42/42_25.ogg,,0,7,7,7,,,,,0,24,24,24,,,,,,,,,,,,,,,,,,,,,,,,,,,,,,,,,,,,,,,,,,,,,,,,,,,,,,,,,,,,,,,,,1,0.9324588569998014,2722.1441945469996,None,2722.1441945469996,None,2722.1441945469996,None,,,,,,,,,,,,,,,,,,,,,,,,,,,,,,,,,,,,,,,,,,,,,,,,,,,100419_p1,001,2019_Oct_04_1318,body_behavioural,3.2.2,60.1264201274072,
7,parcelated_audio/42/42_26.ogg,,0,7,7,7,,,,,0,25,25,25,,,,,,,,,,,,,,,,,,,,,,,,,,,,,,,,,,,,,,,,,,,,,,,,,,,,,,,,,,,,,,,,,1,0.32966538700020465,2729.027729588999,None,2729.027729588999,None,2729.027729588999,None,,,,,,,,,,,,,,,,,,,,,,,,,,,,,,,,,,,,,,,,,,,,,,,,,,,100419_p1,001,2019_Oct_04_1318,body_behavioural,3.2.2,60.1264201274072,
7,parcelated_audio/42/42_27.ogg,,0,7,7,7,,,,,0,26,26,26,,,,,,,,,,,,,,,,,,,,,,,,,,,,,,,,,,,,,,,,,,,,,,,,,,,,,,,,,,,,,,,,,1,0.04518925699994725,2737.1131444069997,None,2737.1131444069997,None,2737.1131444069997,None,,,,,,,,,,,,,,,,,,,,,,,,,,,,,,,,,,,,,,,,,,,,,,,,,,,100419_p1,001,2019_Oct_04_1318,body_behavioural,3.2.2,60.1264201274072,
7,parcelated_audio/42/42_28.ogg,,0,7,7,7,,,,,0,27,27,27,,,,,,,,,,,,,,,,,,,,,,,,,,,,,,,,,,,,,,,,,,,,,,,,,,,,,,,,,,,,,,,,,1,0.5001028099995892,2742.882201401,None,2742.882201401,None,2742.882201401,None,,,,,,,,,,,,,,,,,,,,,,,,,,,,,,,,,,,,,,,,,,,,,,,,,,,100419_p1,001,2019_Oct_04_1318,body_behavioural,3.2.2,60.1264201274072,
7,parcelated_audio/42/42_29.ogg,,0,7,7,7,,,,,0,28,28,28,,,,,,,,,,,,,,,,,,,,,,,,,,,,,,,,,,,,,,,,,,,,,,,,,,,,,,,,,,,,,,,,,1,1.8381282430000283,2750.3816131700005,None,2750.3816131700005,None,2750.3816131700005,None,,,,,,,,,,,,,,,,,,,,,,,,,,,,,,,,,,,,,,,,,,,,,,,,,,,100419_p1,001,2019_Oct_04_1318,body_behavioural,3.2.2,60.1264201274072,
7,parcelated_audio/42/42_30.ogg,,0,7,7,7,,,,,0,29,29,29,,,,,,,,,,,,,,,,,,,,,,,,,,,,,,,,,,,,,,,,,,,,,,,,,,,,,,,,,,,,,,,,,1,0.5361490119994414,2763.1670494049995,None,2763.1670494049995,None,2763.1670494049995,None,,,,,,,,,,,,,,,,,,,,,,,,,,,,,,,,,,,,,,,,,,,,,,,,,,,100419_p1,001,2019_Oct_04_1318,body_behavioural,3.2.2,60.1264201274072,
7,parcelated_audio/42/42_31.ogg,,0,7,7,7,,,,,0,30,30,30,,,,,,,,,,,,,,,,,,,,,,,,,,,,,,,,,,,,,,,,,,,,,,,,,,,,,,,,,,,,,,,,,1,0.229894386999149,2769.9681431949994,None,2769.9681431949994,None,2769.9681431949994,None,,,,,,,,,,,,,,,,,,,,,,,,,,,,,,,,,,,,,,,,,,,,,,,,,,,100419_p1,001,2019_Oct_04_1318,body_behavioural,3.2.2,60.1264201274072,
7,parcelated_audio/42/42_32.ogg,,0,7,7,7,,,,,0,31,31,31,,,,,,,,,,,,,,,,,,,,,,,,,,,,,,,,,,,,,,,,,,,,,,,,,,,,,,,,,,,,,,,,,9,0.18662459799998032,2778.4191749809997,None,2778.4191749809997,None,2778.4191749809997,None,,,,,,,,,,,,,,,,,,,,,,,,,,,,,,,,,,,,,,,,,,,,,,,,,,,100419_p1,001,2019_Oct_04_1318,body_behavioural,3.2.2,60.1264201274072,
7,parcelated_audio/42/42_33.ogg,,0,7,7,7,,,,,0,32,32,32,,,,,,,,,,,,,,,,,,,,,,,,,,,,,,,,,,,,,,,,,,,,,,,,,,,,,,,,,,,,,,,,,1,0.31985046100089676,2785.737892456,None,2785.737892456,None,2785.737892456,None,,,,,,,,,,,,,,,,,,,,,,,,,,,,,,,,,,,,,,,,,,,,,,,,,,,100419_p1,001,2019_Oct_04_1318,body_behavioural,3.2.2,60.1264201274072,
7,parcelated_audio/42/42_34.ogg,,0,7,7,7,,,,,0,33,33,33,,,,,,,,,,,,,,,,,,,,,,,,,,,,,,,,,,,,,,,,,,,,,,,,,,,,,,,,,,,,,,,,,9,0.3814614530001563,2796.873069236999,None,2796.873069236999,None,2796.873069236999,None,,,,,,,,,,,,,,,,,,,,,,,,,,,,,,,,,,,,,,,,,,,,,,,,,,,100419_p1,001,2019_Oct_04_1318,body_behavioural,3.2.2,60.1264201274072,
