count,audio,instructText,trials.thisRepN,trials.thisTrialN,trials.thisN,trials.thisIndex,trials_7.thisRepN,trials_7.thisTrialN,trials_7.thisN,trials_7.thisIndex,trials_2.thisRepN,trials_2.thisTrialN,trials_2.thisN,trials_2.thisIndex,trials_3.thisRepN,trials_3.thisTrialN,trials_3.thisN,trials_3.thisIndex,trials_4.thisRepN,trials_4.thisTrialN,trials_4.thisN,trials_4.thisIndex,order of stories,order of perspectives,participant 2 order - stories,participant 2 order  - schemas types,text_38.started,text_38.stopped,key_resp_8.keys,key_resp_8.rt,key_resp_8.started,key_resp_8.stopped,text_39.started,text_39.stopped,text_33.started,text_33.stopped,key_resp_5.keys,key_resp_5.rt,key_resp_5.started,key_resp_5.stopped,text_4.started,text_4.stopped,image.started,image.stopped,text_5.started,text_5.stopped,text_37.started,text_37.stopped,key_resp_7.keys,key_resp_7.rt,key_resp_7.started,key_resp_7.stopped,question1_2.started,question1_2.stopped,question2_2.started,question2_2.stopped,question3_2.started,question3_2.stopped,question4_2.started,question4_2.stopped,question5_2.started,question5_2.stopped,question6_2.started,question6_2.stopped,image_15.started,image_15.stopped,text_49.started,text_49.stopped,key_resp_15.keys,key_resp_15.rt,key_resp_15.started,key_resp_15.stopped,text_50.started,text_50.stopped,key_resp_14.keys,key_resp_14.rt,key_resp_14.started,key_resp_14.stopped,story_presses.keys,story_presses.rt,story_presses.started,story_presses.stopped,text_34.started,text_34.stopped,text_35.started,text_35.stopped,text.started,text.stopped,text_52.started,text_52.stopped,key_resp_16.keys,key_resp_16.rt,key_resp_16.started,key_resp_16.stopped,story time,text_45.started,text_45.stopped,key_resp_6.keys,key_resp_6.rt,key_resp_6.started,key_resp_6.stopped,key_resp_2.keys,key_resp_2.rt,key_resp_2.started,key_resp_2.stopped,text_6.started,text_6.stopped,text_24.started,text_24.stopped,text_41.started,text_41.stopped,key_resp_10.keys,key_resp_10.rt,key_resp_10.started,key_resp_10.stopped,text_42.started,text_42.stopped,text_51.started,text_51.stopped,recall,text_9.started,text_9.stopped,text_10.started,text_10.stopped,image_4.started,image_4.stopped,polygon.started,polygon.stopped,bottom_line.started,bottom_line.stopped,right_line_2.started,right_line_2.stopped,left_line.started,left_line.stopped,text_48.started,text_48.stopped,recall time,participant,session,date,expName,psychopyVersion,frameRate,
0,,,0,0,0,0,0,0,0,0,,,,,,,,,,,,,[24 12 34 13 42 31 43 21 32 23 33 11 14 44 41 22],"['Social' 'Location' 'Location' 'Social' 'Social' 'Social' 'Location'
 'Location' 'Social' 'Social' 'Location' 'Location' 'Social' 'Location'
 'Social' 'Location']",[32 23 33 11 14 44 41 22],"['Social' 'Social' 'Location' 'Location' 'Social' 'Location' 'Social'
 'Location']",15.463742852007272,None,space,71.3802385799936,15.463742852007272,None,15.463742852007272,None,86.86985595501028,None,space,1.3831933299952652,86.86985595501028,None,88.51899493701058,None,88.51899493701058,None,88.51899493701058,None,89.90230223999242,None,space,2.0902855599997565,89.90230223999242,None,92.28617408499122,None,92.28617408499122,None,92.28617408499122,None,92.28617408499122,None,92.28617408499122,None,92.28617408499122,None,92.28617408499122,None,,,,,,,,,,,,,,,,,,,,,,,,,,,,,,,,,,,,,,,,,,,,,,,,,,,,,,,,,,,,,,,,,,,,,,,,100719_p2,001,2019_Oct_07_1618,body_behavioural,3.2.1,59.98760295417143,
0,parcelated_audio/24/24_1.ogg,,0,0,0,0,,,,,0,0,0,0,,,,,,,,,,,,,,,,,,,,,,,,,,,106.88747175200842,None,106.88747175200842,None,106.88747175200842,None,,,,,,,,,,,,,,,,,,,,,105.00341387500521,None,space,1.7946918130037375,105.00341387500521,None,107.83780170700629,None,space,1.8110995150054805,107.83780170700629,None,9,2.25774600499426,120.40455258701695,None,120.40455258701695,None,120.40455258701695,None,,,,,,,,,,,,,,,,,,,,,,,,,,,,,,,,,,,,,,,,,,,,,,,,,,,,100719_p2,001,2019_Oct_07_1618,body_behavioural,3.2.1,59.98760295417143,
0,parcelated_audio/24/24_2.ogg,,0,0,0,0,,,,,0,1,1,1,,,,,,,,,,,,,,,,,,,,,,,,,,,,,,,,,,,,,,,,,,,,,,,,,,,,,,,,,,,,,,,,,1,1.5379913519718684,129.12172438201378,None,129.12172438201378,None,129.12172438201378,None,,,,,,,,,,,,,,,,,,,,,,,,,,,,,,,,,,,,,,,,,,,,,,,,,,,,100719_p2,001,2019_Oct_07_1618,body_behavioural,3.2.1,59.98760295417143,
0,parcelated_audio/24/24_3.ogg,,0,0,0,0,,,,,0,2,2,2,,,,,,,,,,,,,,,,,,,,,,,,,,,,,,,,,,,,,,,,,,,,,,,,,,,,,,,,,,,,,,,,,1,0.9967047449899837,142.38935669700732,None,142.38935669700732,None,142.38935669700732,None,,,,,,,,,,,,,,,,,,,,,,,,,,,,,,,,,,,,,,,,,,,,,,,,,,,,100719_p2,001,2019_Oct_07_1618,body_behavioural,3.2.1,59.98760295417143,
0,parcelated_audio/24/24_4.ogg,,0,0,0,0,,,,,0,3,3,3,,,,,,,,,,,,,,,,,,,,,,,,,,,,,,,,,,,,,,,,,,,,,,,,,,,,,,,,,,,,,,,,,9,1.8697499620029703,150.40660468500573,None,150.40660468500573,None,150.40660468500573,None,,,,,,,,,,,,,,,,,,,,,,,,,,,,,,,,,,,,,,,,,,,,,,,,,,,,100719_p2,001,2019_Oct_07_1618,body_behavioural,3.2.1,59.98760295417143,
0,parcelated_audio/24/24_5.ogg,,0,0,0,0,,,,,0,4,4,4,,,,,,,,,,,,,,,,,,,,,,,,,,,,,,,,,,,,,,,,,,,,,,,,,,,,,,,,,,,,,,,,,1,0.8019875929749105,157.39056545699714,None,157.39056545699714,None,157.39056545699714,None,,,,,,,,,,,,,,,,,,,,,,,,,,,,,,,,,,,,,,,,,,,,,,,,,,,,100719_p2,001,2019_Oct_07_1618,body_behavioural,3.2.1,59.98760295417143,
0,parcelated_audio/24/24_6.ogg,,0,0,0,0,,,,,0,5,5,5,,,,,,,,,,,,,,,,,,,,,,,,,,,,,,,,,,,,,,,,,,,,,,,,,,,,,,,,,,,,,,,,,9,4.2388812599820085,165.7909350419941,None,165.7909350419941,None,165.7909350419941,None,,,,,,,,,,,,,,,,,,,,,,,,,,,,,,,,,,,,,,,,,,,,,,,,,,,,100719_p2,001,2019_Oct_07_1618,body_behavioural,3.2.1,59.98760295417143,
0,parcelated_audio/24/24_7.ogg,,0,0,0,0,,,,,0,6,6,6,,,,,,,,,,,,,,,,,,,,,,,,,,,,,,,,,,,,,,,,,,,,,,,,,,,,,,,,,,,,,,,,,1,0.3207766770210583,174.55828637699597,None,174.55828637699597,None,174.55828637699597,None,,,,,,,,,,,,,,,,,,,,,,,,,,,,,,,,,,,,,,,,,,,,,,,,,,,,100719_p2,001,2019_Oct_07_1618,body_behavioural,3.2.1,59.98760295417143,
0,parcelated_audio/24/24_8.ogg,,0,0,0,0,,,,,0,7,7,7,,,,,,,,,,,,,,,,,,,,,,,,,,,,,,,,,,,,,,,,,,,,,,,,,,,,,,,,,,,,,,,,,1,0.5686072449898347,181.10911681500147,None,181.10911681500147,None,181.10911681500147,None,,,,,,,,,,,,,,,,,,,,,,,,,,,,,,,,,,,,,,,,,,,,,,,,,,,,100719_p2,001,2019_Oct_07_1618,body_behavioural,3.2.1,59.98760295417143,
0,parcelated_audio/24/24_9.ogg,,0,0,0,0,,,,,0,8,8,8,,,,,,,,,,,,,,,,,,,,,,,,,,,,,,,,,,,,,,,,,,,,,,,,,,,,,,,,,,,,,,,,,1,0.7704371899890248,186.17565252500935,None,186.17565252500935,None,186.17565252500935,None,,,,,,,,,,,,,,,,,,,,,,,,,,,,,,,,,,,,,,,,,,,,,,,,,,,,100719_p2,001,2019_Oct_07_1618,body_behavioural,3.2.1,59.98760295417143,
0,parcelated_audio/24/24_10.ogg,,0,0,0,0,,,,,0,9,9,9,,,,,,,,,,,,,,,,,,,,,,,,,,,,,,,,,,,,,,,,,,,,,,,,,,,,,,,,,,,,,,,,,1,0.2638779830012936,190.82606037700316,None,190.82606037700316,None,190.82606037700316,None,,,,,,,,,,,,,,,,,,,,,,,,,,,,,,,,,,,,,,,,,,,,,,,,,,,,100719_p2,001,2019_Oct_07_1618,body_behavioural,3.2.1,59.98760295417143,
0,parcelated_audio/24/24_11.ogg,,0,0,0,0,,,,,0,10,10,10,,,,,,,,,,,,,,,,,,,,,,,,,,,,,,,,,,,,,,,,,,,,,,,,,,,,,,,,,,,,,,,,,1,0.523974437994184,201.32671618499444,None,201.32671618499444,None,201.32671618499444,None,,,,,,,,,,,,,,,,,,,,,,,,,,,,,,,,,,,,,,,,,,,,,,,,,,,,100719_p2,001,2019_Oct_07_1618,body_behavioural,3.2.1,59.98760295417143,
0,parcelated_audio/24/24_12.ogg,,0,0,0,0,,,,,0,11,11,11,,,,,,,,,,,,,,,,,,,,,,,,,,,,,,,,,,,,,,,,,,,,,,,,,,,,,,,,,,,,,,,,,9,8.412023601995315,211.0777883650153,None,211.0777883650153,None,211.0777883650153,None,,,,,,,,,,,,,,,,,,,,,,,,,,,,,,,,,,,,,,,,,,,,,,,,,,,,100719_p2,001,2019_Oct_07_1618,body_behavioural,3.2.1,59.98760295417143,
0,parcelated_audio/24/24_13.ogg,,0,0,0,0,,,,,0,12,12,12,,,,,,,,,,,,,,,,,,,,,,,,,,,,,,,,,,,,,,,,,,,,,,,,,,,,,,,,,,,,,,,,,1,0.44723732001148164,223.61156710001524,None,223.61156710001524,None,223.61156710001524,None,,,,,,,,,,,,,,,,,,,,,,,,,,,,,,,,,,,,,,,,,,,,,,,,,,,,100719_p2,001,2019_Oct_07_1618,body_behavioural,3.2.1,59.98760295417143,
0,parcelated_audio/24/24_14.ogg,,0,0,0,0,,,,,0,13,13,13,,,,,,,,,,,,,,,,,,,,,,,,,,,,,,,,,,,,,,,,,,,,,,,,,,,,,,,,,,,,,,,,,1,0.5905907179985661,231.62921548701706,None,231.62921548701706,None,231.62921548701706,None,,,,,,,,,,,,,,,,,,,,,,,,,,,,,,,,,,,,,,,,,,,,,,,,,,,,100719_p2,001,2019_Oct_07_1618,body_behavioural,3.2.1,59.98760295417143,
0,parcelated_audio/24/24_15.ogg,,0,0,0,0,,,,,0,14,14,14,,,,,,,,,,,,,,,,,,,,,,,,,,,,,,,,,,,,,,,,,,,,,,,,,,,,,,,,,,,,,,,,,1,1.912729110015789,238.89599213501788,None,238.89599213501788,None,238.89599213501788,None,,,,,,,,,,,,,,,,,,,,,,,,,,,,,,,,,,,,,,,,,,,,,,,,,,,,100719_p2,001,2019_Oct_07_1618,body_behavioural,3.2.1,59.98760295417143,
0,parcelated_audio/24/24_16.ogg,,0,0,0,0,,,,,0,15,15,15,,,,,,,,,,,,,,,,,,,,,,,,,,,,,,,,,,,,,,,,,,,,,,,,,,,,,,,,,,,,,,,,,9,2.7429095759871416,248.1462273990037,None,248.1462273990037,None,248.1462273990037,None,,,,,,,,,,,,,,,,,,,,,,,,,,,,,,,,,,,,,,,,,,,,,,,,,,,,100719_p2,001,2019_Oct_07_1618,body_behavioural,3.2.1,59.98760295417143,
0,parcelated_audio/24/24_17.ogg,,0,0,0,0,,,,,0,16,16,16,,,,,,,,,,,,,,,,,,,,,,,,,,,,,,,,,,,,,,,,,,,,,,,,,,,,,,,,,,,,,,,,,1,0.30986055501853116,257.03074084501714,None,257.03074084501714,None,257.03074084501714,None,,,,,,,,,,,,,,,,,,,,,,,,,,,,,,,,,,,,,,,,,,,,,,,,,,,,100719_p2,001,2019_Oct_07_1618,body_behavioural,3.2.1,59.98760295417143,
0,parcelated_audio/24/24_18.ogg,,0,0,0,0,,,,,0,17,17,17,,,,,,,,,,,,,,,,,,,,,,,,,,,,,,,,,,,,,,,,,,,,,,,,,,,,,,,,,,,,,,,,,1,0.32873672200366855,265.9311217899958,None,265.9311217899958,None,265.9311217899958,None,,,,,,,,,,,,,,,,,,,,,,,,,,,,,,,,,,,,,,,,,,,,,,,,,,,,100719_p2,001,2019_Oct_07_1618,body_behavioural,3.2.1,59.98760295417143,
0,parcelated_audio/24/24_19.ogg,,0,0,0,0,,,,,0,18,18,18,,,,,,,,,,,,,,,,,,,,,,,,,,,,,,,,,,,,,,,,,,,,,,,,,,,,,,,,,,,,,,,,,1,0.2605225129809696,276.03194851000444,None,276.03194851000444,None,276.03194851000444,None,,,,,,,,,,,,,,,,,,,,,,,,,,,,,,,,,,,,,,,,,,,,,,,,,,,,100719_p2,001,2019_Oct_07_1618,body_behavioural,3.2.1,59.98760295417143,
0,parcelated_audio/24/24_20.ogg,,0,0,0,0,,,,,0,19,19,19,,,,,,,,,,,,,,,,,,,,,,,,,,,,,,,,,,,,,,,,,,,,,,,,,,,,,,,,,,,,,,,,,9,0.8425016480032355,280.91564156499226,None,280.91564156499226,None,280.91564156499226,None,,,,,,,,,,,,,,,,,,,,,,,,,,,,,,,,,,,,,,,,,,,,,,,,,,,,100719_p2,001,2019_Oct_07_1618,body_behavioural,3.2.1,59.98760295417143,
0,parcelated_audio/24/24_21.ogg,,0,0,0,0,,,,,0,20,20,20,,,,,,,,,,,,,,,,,,,,,,,,,,,,,,,,,,,,,,,,,,,,,,,,,,,,,,,,,,,,,,,,,1,0.6406872879888397,289.91708584700245,None,289.91708584700245,None,289.91708584700245,None,,,,,,,,,,,,,,,,,,,,,,,,,,,,,,,,,,,,,,,,,,,,,,,,,,,,100719_p2,001,2019_Oct_07_1618,body_behavioural,3.2.1,59.98760295417143,
0,parcelated_audio/24/24_22.ogg,,0,0,0,0,,,,,0,21,21,21,,,,,,,,,,,,,,,,,,,,,,,,,,,,,,,,,,,,,,,,,,,,,,,,,,,,,,,,,,,,,,,,,1,2.5884093619824853,301.1835634900199,None,301.1835634900199,None,301.1835634900199,None,,,,,,,,,,,,,,,,,,,,,,,,,,,,,,,,,,,,,,,,,,,,,,,,,,,,100719_p2,001,2019_Oct_07_1618,body_behavioural,3.2.1,59.98760295417143,
0,parcelated_audio/24/24_23.ogg,,0,0,0,0,,,,,0,22,22,22,,,,,,,,,,,,,,,,,,,,,,,,,,,,,,,,,,,,,,,,,,,,,,,,,,,,,,,,,,,,,,,,,1,0.7575739700114354,314.1181151600031,None,314.1181151600031,None,314.1181151600031,None,,,,,,,,,,,,,,,,,,,,,,,,,,,,,,,,,,,,,,,,,,,,,,,,,,,,100719_p2,001,2019_Oct_07_1618,body_behavioural,3.2.1,59.98760295417143,
0,parcelated_audio/24/24_24.ogg,,0,0,0,0,,,,,0,23,23,23,,,,,,,,,,,,,,,,,,,,,,,,,,,,,,,,,,,,,,,,,,,,,,,,,,,,,,,,,,,,,,,,,1,2.2040785280114505,321.5851823670091,None,321.5851823670091,None,321.5851823670091,None,,,,,,,,,,,,,,,,,,,,,,,,,,,,,,,,,,,,,,,,,,,,,,,,,,,,100719_p2,001,2019_Oct_07_1618,body_behavioural,3.2.1,59.98760295417143,
0,parcelated_audio/24/24_25.ogg,,0,0,0,0,,,,,0,24,24,24,,,,,,,,,,,,,,,,,,,,,,,,,,,,,,,,,,,,,,,,,,,,,,,,,,,,,,,,,,,,,,,,,1,1.1500593170057982,332.68578862500726,None,332.68578862500726,None,332.68578862500726,None,,,,,,,,,,,,,,,,,,,,,,,,,,,,,,,,,,,,,,,,,,,,,,,,,,,,100719_p2,001,2019_Oct_07_1618,body_behavioural,3.2.1,59.98760295417143,
0,parcelated_audio/24/24_26.ogg,,0,0,0,0,,,,,0,25,25,25,,,,,,,,,,,,,,,,,,,,,,,,,,,,,,,,,,,,,,,,,,,,,,,,,,,,,,,,,,,,,,,,,1,0.2651671079802327,340.53631919200416,None,340.53631919200416,None,340.53631919200416,None,,,,,,,,,,,,,,,,,,,,,,,,,,,,,,,,,,,,,,,,,,,,,,,,,,,,100719_p2,001,2019_Oct_07_1618,body_behavioural,3.2.1,59.98760295417143,
0,parcelated_audio/24/24_27.ogg,,0,0,0,0,,,,,0,26,26,26,,,,,,,,,,,,,,,,,,,,,,,,,,,,,,,,,,,,,,,,,,,,,,,,,,,,,,,,,,,,,,,,,9,0.27111189297284,347.02102099501644,None,347.02102099501644,None,347.02102099501644,None,,,,,,,,,,,,,,,,,,,,,,,,,,,,,,,,,,,,,,,,,,,,,,,,,,,,100719_p2,001,2019_Oct_07_1618,body_behavioural,3.2.1,59.98760295417143,
0,parcelated_audio/24/24_28.ogg,,0,0,0,0,,,,,0,27,27,27,,,,,,,,,,,,,,,,,,,,,,,,,,,,,,,,,,,,,,,,,,,,,,,,,,,,,,,,,,,,,,,,,1,1.176801962981699,351.93721450999146,None,351.93721450999146,None,351.93721450999146,None,,,,,,,,,,,,,,,,,,,,,,,,,,,,,,,,,,,,,,,,,,,,,,,,,,,,100719_p2,001,2019_Oct_07_1618,body_behavioural,3.2.1,59.98760295417143,
0,parcelated_audio/24/24_29.ogg,,0,0,0,0,,,,,0,28,28,28,,,,,,,,,,,,,,,,,,,,,,,,,,,,,,,,,,,,,,,,,,,,,,,,,,,,,,,,,,,,,,,,,1,0.5838557099923491,359.53814981199685,None,359.53814981199685,None,359.53814981199685,None,,,,,,,,,,,,,,,,,,,,,,,,,,,,,,,,,,,,,,,,,,,,,,,,,,,,100719_p2,001,2019_Oct_07_1618,body_behavioural,3.2.1,59.98760295417143,
0,parcelated_audio/24/24_30.ogg,,0,0,0,0,,,,,0,29,29,29,,,,,,,,,,,,,,,,,,,,,,,,,,,,,,,,,,,,,,,,,,,,,,,,,,,,,,,,,,,,,,,,,1,1.9537014400120825,366.50482694699895,None,366.50482694699895,None,366.50482694699895,None,,,,,,,,,,,,,,,,,,,,,,,,,,,,,,,,,,,,,,,,,,,,,,,,,,,,100719_p2,001,2019_Oct_07_1618,body_behavioural,3.2.1,59.98760295417143,
0,parcelated_audio/24/24_31.ogg,,0,0,0,0,,,,,0,30,30,30,,,,,,,,,,,,,,,,,,,,,,,,,,,,,,,,,,,,,,,,,,,,,,,,,,,,,,,,,,,,,,,,,1,0.34446601298986934,375.2720216970192,None,375.2720216970192,None,375.2720216970192,None,,,,,,,,,,,,,,,,,,,,,,,,,,,,,,,,,,,,,,,,,,,,,,,,,,,,100719_p2,001,2019_Oct_07_1618,body_behavioural,3.2.1,59.98760295417143,
0,parcelated_audio/24/24_32.ogg,,0,0,0,0,,,,,0,31,31,31,,,,,,,,,,,,,,,,,,,,,,,,,,,,,,,,,,,,,,,,,,,,,,,,,,,,,,,,,,,,,,,,,1,1.0678005199879408,386.54017932500574,None,386.54017932500574,None,386.54017932500574,None,,,,,,,,,,,,,,,,,,,,,,,,,,,,,,,,,,,,,,,,,,,,,,,,,,,,100719_p2,001,2019_Oct_07_1618,body_behavioural,3.2.1,59.98760295417143,
0,,,0,0,0,0,,,,,,,,,,,,,,,,,,,,,,,,,,,,,,,,,,,,,,,,,,,,,,,,,,,,,,,,,,,,,,,,,,,,,,,,,,,,,,,,,387.6729964800179,None,387.6729964800179,None,space,1.6137706199951936,387.6729964800179,None,,,,,,,,,,,,,,,,,,,,,,,,,,,,,,,,,,,,,,,,,,,,100719_p2,001,2019_Oct_07_1618,body_behavioural,3.2.1,59.98760295417143,
1,,,0,1,1,1,0,0,0,0,,,,,,,,,,,,,,,,,389.32294953701785,None,space,0.7989110150083434,389.32294953701785,None,389.32294953701785,None,390.13973334699403,None,space,0.6188856650260277,390.13973334699403,None,390.8734221350169,None,390.8734221350169,None,390.8734221350169,None,392.9234272649919,None,space,0.9340133399819024,392.9234272649919,None,394.20769048001966,None,394.20769048001966,None,394.20769048001966,None,394.20769048001966,None,394.20769048001966,None,394.20769048001966,None,394.20769048001966,None,,,,,,,,,,,,,,,,,,,,,,,,,,,,,,,,,,,,,,,,,,,,,,,,,,,,,,,,,,,,,,,,,,,,,,,,100719_p2,001,2019_Oct_07_1618,body_behavioural,3.2.1,59.98760295417143,
1,parcelated_audio/12/12_1.ogg,,0,1,1,1,,,,,0,0,0,0,,,,,,,,,,,,,,,,,,,,,,,,,,,421.926180570008,None,421.926180570008,None,421.926180570008,None,,,,,,,,,,,,,,,,,,,,,420.10849201501696,None,space,1.7483643799787387,420.10849201501696,None,424.1594757720013,None,space,1.0014297900197562,424.1594757720013,None,9,0.8743783949757926,435.2437562519917,None,435.2437562519917,None,435.2437562519917,None,,,,,,,,,,,,,,,,,,,,,,,,,,,,,,,,,,,,,,,,,,,,,,,,,,,,100719_p2,001,2019_Oct_07_1618,body_behavioural,3.2.1,59.98760295417143,
1,parcelated_audio/12/12_2.ogg,,0,1,1,1,,,,,0,1,1,1,,,,,,,,,,,,,,,,,,,,,,,,,,,,,,,,,,,,,,,,,,,,,,,,,,,,,,,,,,,,,,,,,1,4.07174556501559,443.9937320899917,None,443.9937320899917,None,443.9937320899917,None,,,,,,,,,,,,,,,,,,,,,,,,,,,,,,,,,,,,,,,,,,,,,,,,,,,,100719_p2,001,2019_Oct_07_1618,body_behavioural,3.2.1,59.98760295417143,
1,parcelated_audio/12/12_3.ogg,,0,1,1,1,,,,,0,2,2,2,,,,,,,,,,,,,,,,,,,,,,,,,,,,,,,,,,,,,,,,,,,,,,,,,,,,,,,,,,,,,,,,,1,11.734524208004586,455.52823684501345,None,455.52823684501345,None,455.52823684501345,None,,,,,,,,,,,,,,,,,,,,,,,,,,,,,,,,,,,,,,,,,,,,,,,,,,,,100719_p2,001,2019_Oct_07_1618,body_behavioural,3.2.1,59.98760295417143,
1,parcelated_audio/12/12_4.ogg,,0,1,1,1,,,,,0,3,3,3,,,,,,,,,,,,,,,,,,,,,,,,,,,,,,,,,,,,,,,,,,,,,,,,,,,,,,,,,,,,,,,,,1,0.5909503900038544,473.9622004000121,None,473.9622004000121,None,473.9622004000121,None,,,,,,,,,,,,,,,,,,,,,,,,,,,,,,,,,,,,,,,,,,,,,,,,,,,,100719_p2,001,2019_Oct_07_1618,body_behavioural,3.2.1,59.98760295417143,
1,parcelated_audio/12/12_5.ogg,,0,1,1,1,,,,,0,4,4,4,,,,,,,,,,,,,,,,,,,,,,,,,,,,,,,,,,,,,,,,,,,,,,,,,,,,,,,,,,,,,,,,,9,0.3265678620082326,482.64611217199126,None,482.64611217199126,None,482.64611217199126,None,,,,,,,,,,,,,,,,,,,,,,,,,,,,,,,,,,,,,,,,,,,,,,,,,,,,100719_p2,001,2019_Oct_07_1618,body_behavioural,3.2.1,59.98760295417143,
1,parcelated_audio/12/12_6.ogg,,0,1,1,1,,,,,0,5,5,5,,,,,,,,,,,,,,,,,,,,,,,,,,,,,,,,,,,,,,,,,,,,,,,,,,,,,,,,,,,,,,,,,1,0.3058560130011756,486.69759298700956,None,486.69759298700956,None,486.69759298700956,None,,,,,,,,,,,,,,,,,,,,,,,,,,,,,,,,,,,,,,,,,,,,,,,,,,,,100719_p2,001,2019_Oct_07_1618,body_behavioural,3.2.1,59.98760295417143,
1,parcelated_audio/12/12_7.ogg,,0,1,1,1,,,,,0,6,6,6,,,,,,,,,,,,,,,,,,,,,,,,,,,,,,,,,,,,,,,,,,,,,,,,,,,,,,,,,,,,,,,,,1,0.2962303670065012,497.463845160004,None,497.463845160004,None,497.463845160004,None,,,,,,,,,,,,,,,,,,,,,,,,,,,,,,,,,,,,,,,,,,,,,,,,,,,,100719_p2,001,2019_Oct_07_1618,body_behavioural,3.2.1,59.98760295417143,
1,parcelated_audio/12/12_8.ogg,,0,1,1,1,,,,,0,7,7,7,,,,,,,,,,,,,,,,,,,,,,,,,,,,,,,,,,,,,,,,,,,,,,,,,,,,,,,,,,,,,,,,,1,0.28383773801033385,506.66511918001925,None,506.66511918001925,None,506.66511918001925,None,,,,,,,,,,,,,,,,,,,,,,,,,,,,,,,,,,,,,,,,,,,,,,,,,,,,100719_p2,001,2019_Oct_07_1618,body_behavioural,3.2.1,59.98760295417143,
1,parcelated_audio/12/12_9.ogg,,0,1,1,1,,,,,0,8,8,8,,,,,,,,,,,,,,,,,,,,,,,,,,,,,,,,,,,,,,,,,,,,,,,,,,,,,,,,,,,,,,,,,1,0.28331296500982717,510.91475434199674,None,510.91475434199674,None,510.91475434199674,None,,,,,,,,,,,,,,,,,,,,,,,,,,,,,,,,,,,,,,,,,,,,,,,,,,,,100719_p2,001,2019_Oct_07_1618,body_behavioural,3.2.1,59.98760295417143,
1,parcelated_audio/12/12_10.ogg,,0,1,1,1,,,,,0,9,9,9,,,,,,,,,,,,,,,,,,,,,,,,,,,,,,,,,,,,,,,,,,,,,,,,,,,,,,,,,,,,,,,,,1,1.0915617900027428,516.132492965,None,516.132492965,None,516.132492965,None,,,,,,,,,,,,,,,,,,,,,,,,,,,,,,,,,,,,,,,,,,,,,,,,,,,,100719_p2,001,2019_Oct_07_1618,body_behavioural,3.2.1,59.98760295417143,
1,parcelated_audio/12/12_11.ogg,,0,1,1,1,,,,,0,10,10,10,,,,,,,,,,,,,,,,,,,,,,,,,,,,,,,,,,,,,,,,,,,,,,,,,,,,,,,,,,,,,,,,,1,0.2638875900011044,520.2491787119943,None,520.2491787119943,None,520.2491787119943,None,,,,,,,,,,,,,,,,,,,,,,,,,,,,,,,,,,,,,,,,,,,,,,,,,,,,100719_p2,001,2019_Oct_07_1618,body_behavioural,3.2.1,59.98760295417143,
1,parcelated_audio/12/12_12.ogg,,0,1,1,1,,,,,0,11,11,11,,,,,,,,,,,,,,,,,,,,,,,,,,,,,,,,,,,,,,,,,,,,,,,,,,,,,,,,,,,,,,,,,1,5.934947692003334,529.5001809550158,None,529.5001809550158,None,529.5001809550158,None,,,,,,,,,,,,,,,,,,,,,,,,,,,,,,,,,,,,,,,,,,,,,,,,,,,,100719_p2,001,2019_Oct_07_1618,body_behavioural,3.2.1,59.98760295417143,
1,parcelated_audio/12/12_13.ogg,,0,1,1,1,,,,,0,12,12,12,,,,,,,,,,,,,,,,,,,,,,,,,,,,,,,,,,,,,,,,,,,,,,,,,,,,,,,,,,,,,,,,,1,0.9083317049953621,540.8168506600196,None,540.8168506600196,None,540.8168506600196,None,,,,,,,,,,,,,,,,,,,,,,,,,,,,,,,,,,,,,,,,,,,,,,,,,,,,100719_p2,001,2019_Oct_07_1618,body_behavioural,3.2.1,59.98760295417143,
1,parcelated_audio/12/12_14.ogg,,0,1,1,1,,,,,0,13,13,13,,,,,,,,,,,,,,,,,,,,,,,,,,,,,,,,,,,,,,,,,,,,,,,,,,,,,,,,,,,,,,,,,1,0.24875794199761003,546.8175759520091,None,546.8175759520091,None,546.8175759520091,None,,,,,,,,,,,,,,,,,,,,,,,,,,,,,,,,,,,,,,,,,,,,,,,,,,,,100719_p2,001,2019_Oct_07_1618,body_behavioural,3.2.1,59.98760295417143,
1,parcelated_audio/12/12_15.ogg,,0,1,1,1,,,,,0,14,14,14,,,,,,,,,,,,,,,,,,,,,,,,,,,,,,,,,,,,,,,,,,,,,,,,,,,,,,,,,,,,,,,,,1,0.5582762400154024,553.1844041050063,None,553.1844041050063,None,553.1844041050063,None,,,,,,,,,,,,,,,,,,,,,,,,,,,,,,,,,,,,,,,,,,,,,,,,,,,,100719_p2,001,2019_Oct_07_1618,body_behavioural,3.2.1,59.98760295417143,
1,parcelated_audio/12/12_16.ogg,,0,1,1,1,,,,,0,15,15,15,,,,,,,,,,,,,,,,,,,,,,,,,,,,,,,,,,,,,,,,,,,,,,,,,,,,,,,,,,,,,,,,,9,0.4181680599867832,558.0513539419917,None,558.0513539419917,None,558.0513539419917,None,,,,,,,,,,,,,,,,,,,,,,,,,,,,,,,,,,,,,,,,,,,,,,,,,,,,100719_p2,001,2019_Oct_07_1618,body_behavioural,3.2.1,59.98760295417143,
1,parcelated_audio/12/12_17.ogg,,0,1,1,1,,,,,0,16,16,16,,,,,,,,,,,,,,,,,,,,,,,,,,,,,,,,,,,,,,,,,,,,,,,,,,,,,,,,,,,,,,,,,1,0.2721433450060431,563.602919994999,None,563.602919994999,None,563.602919994999,None,,,,,,,,,,,,,,,,,,,,,,,,,,,,,,,,,,,,,,,,,,,,,,,,,,,,100719_p2,001,2019_Oct_07_1618,body_behavioural,3.2.1,59.98760295417143,
1,parcelated_audio/12/12_18.ogg,,0,1,1,1,,,,,0,17,17,17,,,,,,,,,,,,,,,,,,,,,,,,,,,,,,,,,,,,,,,,,,,,,,,,,,,,,,,,,,,,,,,,,1,0.27302103501278907,573.2357347600046,None,573.2357347600046,None,573.2357347600046,None,,,,,,,,,,,,,,,,,,,,,,,,,,,,,,,,,,,,,,,,,,,,,,,,,,,,100719_p2,001,2019_Oct_07_1618,body_behavioural,3.2.1,59.98760295417143,
1,parcelated_audio/12/12_19.ogg,,0,1,1,1,,,,,0,18,18,18,,,,,,,,,,,,,,,,,,,,,,,,,,,,,,,,,,,,,,,,,,,,,,,,,,,,,,,,,,,,,,,,,1,0.4231915400014259,583.6709187650122,None,583.6709187650122,None,583.6709187650122,None,,,,,,,,,,,,,,,,,,,,,,,,,,,,,,,,,,,,,,,,,,,,,,,,,,,,100719_p2,001,2019_Oct_07_1618,body_behavioural,3.2.1,59.98760295417143,
1,parcelated_audio/12/12_20.ogg,,0,1,1,1,,,,,0,19,19,19,,,,,,,,,,,,,,,,,,,,,,,,,,,,,,,,,,,,,,,,,,,,,,,,,,,,,,,,,,,,,,,,,9,0.4383975439995993,592.0370122500171,None,592.0370122500171,None,592.0370122500171,None,,,,,,,,,,,,,,,,,,,,,,,,,,,,,,,,,,,,,,,,,,,,,,,,,,,,100719_p2,001,2019_Oct_07_1618,body_behavioural,3.2.1,59.98760295417143,
1,parcelated_audio/12/12_21.ogg,,0,1,1,1,,,,,0,20,20,20,,,,,,,,,,,,,,,,,,,,,,,,,,,,,,,,,,,,,,,,,,,,,,,,,,,,,,,,,,,,,,,,,1,0.37077746499562636,598.1211582850083,None,598.1211582850083,None,598.1211582850083,None,,,,,,,,,,,,,,,,,,,,,,,,,,,,,,,,,,,,,,,,,,,,,,,,,,,,100719_p2,001,2019_Oct_07_1618,body_behavioural,3.2.1,59.98760295417143,
1,parcelated_audio/12/12_22.ogg,,0,1,1,1,,,,,0,21,21,21,,,,,,,,,,,,,,,,,,,,,,,,,,,,,,,,,,,,,,,,,,,,,,,,,,,,,,,,,,,,,,,,,1,0.2875982880068477,602.4712462649914,None,602.4712462649914,None,602.4712462649914,None,,,,,,,,,,,,,,,,,,,,,,,,,,,,,,,,,,,,,,,,,,,,,,,,,,,,100719_p2,001,2019_Oct_07_1618,body_behavioural,3.2.1,59.98760295417143,
1,parcelated_audio/12/12_23.ogg,,0,1,1,1,,,,,0,22,22,22,,,,,,,,,,,,,,,,,,,,,,,,,,,,,,,,,,,,,,,,,,,,,,,,,,,,,,,,,,,,,,,,,1,0.35970426999847405,609.7715209269954,None,609.7715209269954,None,609.7715209269954,None,,,,,,,,,,,,,,,,,,,,,,,,,,,,,,,,,,,,,,,,,,,,,,,,,,,,100719_p2,001,2019_Oct_07_1618,body_behavioural,3.2.1,59.98760295417143,
1,parcelated_audio/12/12_24.ogg,,0,1,1,1,,,,,0,23,23,23,,,,,,,,,,,,,,,,,,,,,,,,,,,,,,,,,,,,,,,,,,,,,,,,,,,,,,,,,,,,,,,,,1,0.4817791850073263,614.4051615520148,None,614.4051615520148,None,614.4051615520148,None,,,,,,,,,,,,,,,,,,,,,,,,,,,,,,,,,,,,,,,,,,,,,,,,,,,,100719_p2,001,2019_Oct_07_1618,body_behavioural,3.2.1,59.98760295417143,
1,parcelated_audio/12/12_25.ogg,,0,1,1,1,,,,,0,24,24,24,,,,,,,,,,,,,,,,,,,,,,,,,,,,,,,,,,,,,,,,,,,,,,,,,,,,,,,,,,,,,,,,,9,0.344734347978374,625.3726148800051,None,625.3726148800051,None,625.3726148800051,None,,,,,,,,,,,,,,,,,,,,,,,,,,,,,,,,,,,,,,,,,,,,,,,,,,,,100719_p2,001,2019_Oct_07_1618,body_behavioural,3.2.1,59.98760295417143,
1,parcelated_audio/12/12_26.ogg,,0,1,1,1,,,,,0,25,25,25,,,,,,,,,,,,,,,,,,,,,,,,,,,,,,,,,,,,,,,,,,,,,,,,,,,,,,,,,,,,,,,,,1,2.7333298320008907,631.10644516701,None,631.10644516701,None,631.10644516701,None,,,,,,,,,,,,,,,,,,,,,,,,,,,,,,,,,,,,,,,,,,,,,,,,,,,,100719_p2,001,2019_Oct_07_1618,body_behavioural,3.2.1,59.98760295417143,
1,parcelated_audio/12/12_27.ogg,,0,1,1,1,,,,,0,26,26,26,,,,,,,,,,,,,,,,,,,,,,,,,,,,,,,,,,,,,,,,,,,,,,,,,,,,,,,,,,,,,,,,,1,0.7402087679947726,641.6571059470007,None,641.6571059470007,None,641.6571059470007,None,,,,,,,,,,,,,,,,,,,,,,,,,,,,,,,,,,,,,,,,,,,,,,,,,,,,100719_p2,001,2019_Oct_07_1618,body_behavioural,3.2.1,59.98760295417143,
1,parcelated_audio/12/12_28.ogg,,0,1,1,1,,,,,0,27,27,27,,,,,,,,,,,,,,,,,,,,,,,,,,,,,,,,,,,,,,,,,,,,,,,,,,,,,,,,,,,,,,,,,1,1.2425960499967914,653.5079058349947,None,653.5079058349947,None,653.5079058349947,None,,,,,,,,,,,,,,,,,,,,,,,,,,,,,,,,,,,,,,,,,,,,,,,,,,,,100719_p2,001,2019_Oct_07_1618,body_behavioural,3.2.1,59.98760295417143,
1,parcelated_audio/12/12_29.ogg,,0,1,1,1,,,,,0,28,28,28,,,,,,,,,,,,,,,,,,,,,,,,,,,,,,,,,,,,,,,,,,,,,,,,,,,,,,,,,,,,,,,,,1,0.3055352430092171,660.9751316820038,None,660.9751316820038,None,660.9751316820038,None,,,,,,,,,,,,,,,,,,,,,,,,,,,,,,,,,,,,,,,,,,,,,,,,,,,,100719_p2,001,2019_Oct_07_1618,body_behavioural,3.2.1,59.98760295417143,
1,parcelated_audio/12/12_30.ogg,,0,1,1,1,,,,,0,29,29,29,,,,,,,,,,,,,,,,,,,,,,,,,,,,,,,,,,,,,,,,,,,,,,,,,,,,,,,,,,,,,,,,,1,0.5217867169994861,668.3756357819948,None,668.3756357819948,None,668.3756357819948,None,,,,,,,,,,,,,,,,,,,,,,,,,,,,,,,,,,,,,,,,,,,,,,,,,,,,100719_p2,001,2019_Oct_07_1618,body_behavioural,3.2.1,59.98760295417143,
1,parcelated_audio/12/12_31.ogg,,0,1,1,1,,,,,0,30,30,30,,,,,,,,,,,,,,,,,,,,,,,,,,,,,,,,,,,,,,,,,,,,,,,,,,,,,,,,,,,,,,,,,9,0.6729538950021379,676.1761525949987,None,676.1761525949987,None,676.1761525949987,None,,,,,,,,,,,,,,,,,,,,,,,,,,,,,,,,,,,,,,,,,,,,,,,,,,,,100719_p2,001,2019_Oct_07_1618,body_behavioural,3.2.1,59.98760295417143,
1,,,0,1,1,1,,,,,,,,,,,,,,,,,,,,,,,,,,,,,,,,,,,,,,,,,,,,,,,,,,,,,,,,,,,,,,,,,,,,,,,,,,,,,,,,,676.8767007650167,None,676.8767007650167,None,space,0.7483896799967624,676.8767007650167,None,,,,,,,,,,,,,,,,,,,,,,,,,,,,,,,,,,,,,,,,,,,,100719_p2,001,2019_Oct_07_1618,body_behavioural,3.2.1,59.98760295417143,
2,,,0,2,2,2,0,0,0,0,,,,,,,,,,,,,,,,,677.6762768650078,None,space,1.769633249990875,677.6762768650078,None,677.6762768650078,None,679.4766853899928,None,space,0.4670787999930326,679.4766853899928,None,680.0430282049929,None,680.0430282049929,None,680.0430282049929,None,681.1940882499912,None,space,0.9015461569943,681.1940882499912,None,682.4105079699948,None,682.4105079699948,None,682.4105079699948,None,682.4105079699948,None,682.4105079699948,None,682.4105079699948,None,682.4105079699948,None,,,,,,,,,,,,,,,,,,,,,,,,,,,,,,,,,,,,,,,,,,,,,,,,,,,,,,,,,,,,,,,,,,,,,,,,100719_p2,001,2019_Oct_07_1618,body_behavioural,3.2.1,59.98760295417143,
2,parcelated_audio/34/34_1.ogg,,0,2,2,2,,,,,0,0,0,0,,,,,,,,,,,,,,,,,,,,,,,,,,,703.061494070018,None,703.061494070018,None,703.061494070018,None,,,,,,,,,,,,,,,,,,,,,702.1612307449977,None,space,0.8315495119895786,702.1612307449977,None,703.3946343499993,None,space,0.4402640999760479,703.3946343499993,None,9,0.49510120300692506,712.7620286850142,None,712.7620286850142,None,712.7620286850142,None,,,,,,,,,,,,,,,,,,,,,,,,,,,,,,,,,,,,,,,,,,,,,,,,,,,,100719_p2,001,2019_Oct_07_1618,body_behavioural,3.2.1,59.98760295417143,
2,parcelated_audio/34/34_2.ogg,,0,2,2,2,,,,,0,1,1,1,,,,,,,,,,,,,,,,,,,,,,,,,,,,,,,,,,,,,,,,,,,,,,,,,,,,,,,,,,,,,,,,,1,0.9441555299854372,717.9799722550088,None,717.9799722550088,None,717.9799722550088,None,,,,,,,,,,,,,,,,,,,,,,,,,,,,,,,,,,,,,,,,,,,,,,,,,,,,100719_p2,001,2019_Oct_07_1618,body_behavioural,3.2.1,59.98760295417143,
2,parcelated_audio/34/34_3.ogg,,0,2,2,2,,,,,0,2,2,2,,,,,,,,,,,,,,,,,,,,,,,,,,,,,,,,,,,,,,,,,,,,,,,,,,,,,,,,,,,,,,,,,1,0.3780222450150177,723.729989621992,None,723.729989621992,None,723.729989621992,None,,,,,,,,,,,,,,,,,,,,,,,,,,,,,,,,,,,,,,,,,,,,,,,,,,,,100719_p2,001,2019_Oct_07_1618,body_behavioural,3.2.1,59.98760295417143,
2,parcelated_audio/34/34_4.ogg,,0,2,2,2,,,,,0,3,3,3,,,,,,,,,,,,,,,,,,,,,,,,,,,,,,,,,,,,,,,,,,,,,,,,,,,,,,,,,,,,,,,,,1,0.9424399650015403,733.8473714050197,None,733.8473714050197,None,733.8473714050197,None,,,,,,,,,,,,,,,,,,,,,,,,,,,,,,,,,,,,,,,,,,,,,,,,,,,,100719_p2,001,2019_Oct_07_1618,body_behavioural,3.2.1,59.98760295417143,
2,parcelated_audio/34/34_5.ogg,,0,2,2,2,,,,,0,4,4,4,,,,,,,,,,,,,,,,,,,,,,,,,,,,,,,,,,,,,,,,,,,,,,,,,,,,,,,,,,,,,,,,,1,0.7203241800016258,745.3311451670015,None,745.3311451670015,None,745.3311451670015,None,,,,,,,,,,,,,,,,,,,,,,,,,,,,,,,,,,,,,,,,,,,,,,,,,,,,100719_p2,001,2019_Oct_07_1618,body_behavioural,3.2.1,59.98760295417143,
2,parcelated_audio/34/34_6.ogg,,0,2,2,2,,,,,0,5,5,5,,,,,,,,,,,,,,,,,,,,,,,,,,,,,,,,,,,,,,,,,,,,,,,,,,,,,,,,,,,,,,,,,1,0.4337848330033012,754.8987726700143,None,754.8987726700143,None,754.8987726700143,None,,,,,,,,,,,,,,,,,,,,,,,,,,,,,,,,,,,,,,,,,,,,,,,,,,,,100719_p2,001,2019_Oct_07_1618,body_behavioural,3.2.1,59.98760295417143,
2,parcelated_audio/34/34_7.ogg,,0,2,2,2,,,,,0,6,6,6,,,,,,,,,,,,,,,,,,,,,,,,,,,,,,,,,,,,,,,,,,,,,,,,,,,,,,,,,,,,,,,,,9,0.7471999200060964,761.4654448500078,None,761.4654448500078,None,761.4654448500078,None,,,,,,,,,,,,,,,,,,,,,,,,,,,,,,,,,,,,,,,,,,,,,,,,,,,,100719_p2,001,2019_Oct_07_1618,body_behavioural,3.2.1,59.98760295417143,
2,parcelated_audio/34/34_8.ogg,,0,2,2,2,,,,,0,7,7,7,,,,,,,,,,,,,,,,,,,,,,,,,,,,,,,,,,,,,,,,,,,,,,,,,,,,,,,,,,,,,,,,,1,0.3174834119854495,770.3326998100092,None,770.3326998100092,None,770.3326998100092,None,,,,,,,,,,,,,,,,,,,,,,,,,,,,,,,,,,,,,,,,,,,,,,,,,,,,100719_p2,001,2019_Oct_07_1618,body_behavioural,3.2.1,59.98760295417143,
2,parcelated_audio/34/34_9.ogg,,0,2,2,2,,,,,0,8,8,8,,,,,,,,,,,,,,,,,,,,,,,,,,,,,,,,,,,,,,,,,,,,,,,,,,,,,,,,,,,,,,,,,1,2.8416462629975285,775.5997156320082,None,775.5997156320082,None,775.5997156320082,None,,,,,,,,,,,,,,,,,,,,,,,,,,,,,,,,,,,,,,,,,,,,,,,,,,,,100719_p2,001,2019_Oct_07_1618,body_behavioural,3.2.1,59.98760295417143,
2,parcelated_audio/34/34_10.ogg,,0,2,2,2,,,,,0,9,9,9,,,,,,,,,,,,,,,,,,,,,,,,,,,,,,,,,,,,,,,,,,,,,,,,,,,,,,,,,,,,,,,,,1,1.044989300018642,785.5846384949982,None,785.5846384949982,None,785.5846384949982,None,,,,,,,,,,,,,,,,,,,,,,,,,,,,,,,,,,,,,,,,,,,,,,,,,,,,100719_p2,001,2019_Oct_07_1618,body_behavioural,3.2.1,59.98760295417143,
2,parcelated_audio/34/34_11.ogg,,0,2,2,2,,,,,0,10,10,10,,,,,,,,,,,,,,,,,,,,,,,,,,,,,,,,,,,,,,,,,,,,,,,,,,,,,,,,,,,,,,,,,1,0.2642719449941069,790.2012676949962,None,790.2012676949962,None,790.2012676949962,None,,,,,,,,,,,,,,,,,,,,,,,,,,,,,,,,,,,,,,,,,,,,,,,,,,,,100719_p2,001,2019_Oct_07_1618,body_behavioural,3.2.1,59.98760295417143,
2,parcelated_audio/34/34_12.ogg,,0,2,2,2,,,,,0,11,11,11,,,,,,,,,,,,,,,,,,,,,,,,,,,,,,,,,,,,,,,,,,,,,,,,,,,,,,,,,,,,,,,,,9,0.3077822650084272,798.7693038750149,None,798.7693038750149,None,798.7693038750149,None,,,,,,,,,,,,,,,,,,,,,,,,,,,,,,,,,,,,,,,,,,,,,,,,,,,,100719_p2,001,2019_Oct_07_1618,body_behavioural,3.2.1,59.98760295417143,
2,parcelated_audio/34/34_13.ogg,,0,2,2,2,,,,,0,12,12,12,,,,,,,,,,,,,,,,,,,,,,,,,,,,,,,,,,,,,,,,,,,,,,,,,,,,,,,,,,,,,,,,,1,0.31974058999912813,803.1015307700145,None,803.1015307700145,None,803.1015307700145,None,,,,,,,,,,,,,,,,,,,,,,,,,,,,,,,,,,,,,,,,,,,,,,,,,,,,100719_p2,001,2019_Oct_07_1618,body_behavioural,3.2.1,59.98760295417143,
2,parcelated_audio/34/34_14.ogg,,0,2,2,2,,,,,0,13,13,13,,,,,,,,,,,,,,,,,,,,,,,,,,,,,,,,,,,,,,,,,,,,,,,,,,,,,,,,,,,,,,,,,1,0.29386715998407453,808.2193387449952,None,808.2193387449952,None,808.2193387449952,None,,,,,,,,,,,,,,,,,,,,,,,,,,,,,,,,,,,,,,,,,,,,,,,,,,,,100719_p2,001,2019_Oct_07_1618,body_behavioural,3.2.1,59.98760295417143,
2,parcelated_audio/34/34_15.ogg,,0,2,2,2,,,,,0,14,14,14,,,,,,,,,,,,,,,,,,,,,,,,,,,,,,,,,,,,,,,,,,,,,,,,,,,,,,,,,,,,,,,,,1,1.1584590920247138,812.8521599450032,None,812.8521599450032,None,812.8521599450032,None,,,,,,,,,,,,,,,,,,,,,,,,,,,,,,,,,,,,,,,,,,,,,,,,,,,,100719_p2,001,2019_Oct_07_1618,body_behavioural,3.2.1,59.98760295417143,
2,parcelated_audio/34/34_16.ogg,,0,2,2,2,,,,,0,15,15,15,,,,,,,,,,,,,,,,,,,,,,,,,,,,,,,,,,,,,,,,,,,,,,,,,,,,,,,,,,,,,,,,,9,0.4766260619799141,827.1531808350119,None,827.1531808350119,None,827.1531808350119,None,,,,,,,,,,,,,,,,,,,,,,,,,,,,,,,,,,,,,,,,,,,,,,,,,,,,100719_p2,001,2019_Oct_07_1618,body_behavioural,3.2.1,59.98760295417143,
2,parcelated_audio/34/34_17.ogg,,0,2,2,2,,,,,0,16,16,16,,,,,,,,,,,,,,,,,,,,,,,,,,,,,,,,,,,,,,,,,,,,,,,,,,,,,,,,,,,,,,,,,1,0.27432792700710706,836.7038566420088,None,836.7038566420088,None,836.7038566420088,None,,,,,,,,,,,,,,,,,,,,,,,,,,,,,,,,,,,,,,,,,,,,,,,,,,,,100719_p2,001,2019_Oct_07_1618,body_behavioural,3.2.1,59.98760295417143,
2,parcelated_audio/34/34_18.ogg,,0,2,2,2,,,,,0,17,17,17,,,,,,,,,,,,,,,,,,,,,,,,,,,,,,,,,,,,,,,,,,,,,,,,,,,,,,,,,,,,,,,,,1,0.6075207300018519,842.9876877920178,None,842.9876877920178,None,842.9876877920178,None,,,,,,,,,,,,,,,,,,,,,,,,,,,,,,,,,,,,,,,,,,,,,,,,,,,,100719_p2,001,2019_Oct_07_1618,body_behavioural,3.2.1,59.98760295417143,
2,parcelated_audio/34/34_19.ogg,,0,2,2,2,,,,,0,18,18,18,,,,,,,,,,,,,,,,,,,,,,,,,,,,,,,,,,,,,,,,,,,,,,,,,,,,,,,,,,,,,,,,,1,0.45686581000336446,849.9548052549944,None,849.9548052549944,None,849.9548052549944,None,,,,,,,,,,,,,,,,,,,,,,,,,,,,,,,,,,,,,,,,,,,,,,,,,,,,100719_p2,001,2019_Oct_07_1618,body_behavioural,3.2.1,59.98760295417143,
2,parcelated_audio/34/34_20.ogg,,0,2,2,2,,,,,0,19,19,19,,,,,,,,,,,,,,,,,,,,,,,,,,,,,,,,,,,,,,,,,,,,,,,,,,,,,,,,,,,,,,,,,1,0.3037792830145918,859.0061197149917,None,859.0061197149917,None,859.0061197149917,None,,,,,,,,,,,,,,,,,,,,,,,,,,,,,,,,,,,,,,,,,,,,,,,,,,,,100719_p2,001,2019_Oct_07_1618,body_behavioural,3.2.1,59.98760295417143,
2,parcelated_audio/34/34_21.ogg,,0,2,2,2,,,,,0,20,20,20,,,,,,,,,,,,,,,,,,,,,,,,,,,,,,,,,,,,,,,,,,,,,,,,,,,,,,,,,,,,,,,,,1,0.2786788630182855,865.8229009170027,None,865.8229009170027,None,865.8229009170027,None,,,,,,,,,,,,,,,,,,,,,,,,,,,,,,,,,,,,,,,,,,,,,,,,,,,,100719_p2,001,2019_Oct_07_1618,body_behavioural,3.2.1,59.98760295417143,
2,parcelated_audio/34/34_22.ogg,,0,2,2,2,,,,,0,21,21,21,,,,,,,,,,,,,,,,,,,,,,,,,,,,,,,,,,,,,,,,,,,,,,,,,,,,,,,,,,,,,,,,,1,0.4621297069825232,871.3731312150194,None,871.3731312150194,None,871.3731312150194,None,,,,,,,,,,,,,,,,,,,,,,,,,,,,,,,,,,,,,,,,,,,,,,,,,,,,100719_p2,001,2019_Oct_07_1618,body_behavioural,3.2.1,59.98760295417143,
2,parcelated_audio/34/34_23.ogg,,0,2,2,2,,,,,0,22,22,22,,,,,,,,,,,,,,,,,,,,,,,,,,,,,,,,,,,,,,,,,,,,,,,,,,,,,,,,,,,,,,,,,9,0.2414772770134732,879.7568330670183,None,879.7568330670183,None,879.7568330670183,None,,,,,,,,,,,,,,,,,,,,,,,,,,,,,,,,,,,,,,,,,,,,,,,,,,,,100719_p2,001,2019_Oct_07_1618,body_behavioural,3.2.1,59.98760295417143,
2,parcelated_audio/34/34_24.ogg,,0,2,2,2,,,,,0,23,23,23,,,,,,,,,,,,,,,,,,,,,,,,,,,,,,,,,,,,,,,,,,,,,,,,,,,,,,,,,,,,,,,,,1,0.1897014950227458,885.9415442449972,None,885.9415442449972,None,885.9415442449972,None,,,,,,,,,,,,,,,,,,,,,,,,,,,,,,,,,,,,,,,,,,,,,,,,,,,,100719_p2,001,2019_Oct_07_1618,body_behavioural,3.2.1,59.98760295417143,
2,parcelated_audio/34/34_25.ogg,,0,2,2,2,,,,,0,24,24,24,,,,,,,,,,,,,,,,,,,,,,,,,,,,,,,,,,,,,,,,,,,,,,,,,,,,,,,,,,,,,,,,,1,0.20999842998571694,892.8419086020149,None,892.8419086020149,None,892.8419086020149,None,,,,,,,,,,,,,,,,,,,,,,,,,,,,,,,,,,,,,,,,,,,,,,,,,,,,100719_p2,001,2019_Oct_07_1618,body_behavioural,3.2.1,59.98760295417143,
2,parcelated_audio/34/34_26.ogg,,0,2,2,2,,,,,0,25,25,25,,,,,,,,,,,,,,,,,,,,,,,,,,,,,,,,,,,,,,,,,,,,,,,,,,,,,,,,,,,,,,,,,9,0.37815706501714885,902.8593534200045,None,902.8593534200045,None,902.8593534200045,None,,,,,,,,,,,,,,,,,,,,,,,,,,,,,,,,,,,,,,,,,,,,,,,,,,,,100719_p2,001,2019_Oct_07_1618,body_behavioural,3.2.1,59.98760295417143,
2,parcelated_audio/34/34_27.ogg,,0,2,2,2,,,,,0,26,26,26,,,,,,,,,,,,,,,,,,,,,,,,,,,,,,,,,,,,,,,,,,,,,,,,,,,,,,,,,,,,,,,,,1,0.3213821300014388,910.8760593649931,None,910.8760593649931,None,910.8760593649931,None,,,,,,,,,,,,,,,,,,,,,,,,,,,,,,,,,,,,,,,,,,,,,,,,,,,,100719_p2,001,2019_Oct_07_1618,body_behavioural,3.2.1,59.98760295417143,
2,,,0,2,2,2,,,,,,,,,,,,,,,,,,,,,,,,,,,,,,,,,,,,,,,,,,,,,,,,,,,,,,,,,,,,,,,,,,,,,,,,,,,,,,,,,911.2263720949995,None,911.2263720949995,None,space,0.9799192600185052,911.2263720949995,None,,,,,,,,,,,,,,,,,,,,,,,,,,,,,,,,,,,,,,,,,,,,100719_p2,001,2019_Oct_07_1618,body_behavioural,3.2.1,59.98760295417143,
3,,,0,3,3,3,0,0,0,0,,,,,,,,,,,,,,,,,912.2260766419931,None,space,0.5250860349915456,912.2260766419931,None,912.2260766419931,None,912.7768838420161,None,space,0.45027850999031216,912.7768838420161,None,913.3258260599978,None,913.3258260599978,None,913.3258260599978,None,913.9591682350147,None,space,0.5518962549977005,913.9591682350147,None,914.893922082003,None,914.893922082003,None,914.893922082003,None,914.893922082003,None,914.893922082003,None,914.893922082003,None,914.893922082003,None,,,,,,,,,,,,,,,,,,,,,,,,,,,,,,,,,,,,,,,,,,,,,,,,,,,,,,,,,,,,,,,,,,,,,,,,100719_p2,001,2019_Oct_07_1618,body_behavioural,3.2.1,59.98760295417143,
3,parcelated_audio/13/13_1.ogg,,0,3,3,3,,,,,0,0,0,0,,,,,,,,,,,,,,,,,,,,,,,,,,,933.6937774649996,None,933.6937774649996,None,933.6937774649996,None,,,,,,,,,,,,,,,,,,,,,933.0268040630035,None,space,0.5894738970091566,933.0268040630035,None,934.9106768600177,None,space,3.3919274600048084,934.9106768600177,None,9,0.6290025229973253,950.1617007050081,None,950.1617007050081,None,950.1617007050081,None,,,,,,,,,,,,,,,,,,,,,,,,,,,,,,,,,,,,,,,,,,,,,,,,,,,,100719_p2,001,2019_Oct_07_1618,body_behavioural,3.2.1,59.98760295417143,
3,parcelated_audio/13/13_2.ogg,,0,3,3,3,,,,,0,1,1,1,,,,,,,,,,,,,,,,,,,,,,,,,,,,,,,,,,,,,,,,,,,,,,,,,,,,,,,,,,,,,,,,,1,0.5856690850050654,957.0455586799944,None,957.0455586799944,None,957.0455586799944,None,,,,,,,,,,,,,,,,,,,,,,,,,,,,,,,,,,,,,,,,,,,,,,,,,,,,100719_p2,001,2019_Oct_07_1618,body_behavioural,3.2.1,59.98760295417143,
3,parcelated_audio/13/13_3.ogg,,0,3,3,3,,,,,0,2,2,2,,,,,,,,,,,,,,,,,,,,,,,,,,,,,,,,,,,,,,,,,,,,,,,,,,,,,,,,,,,,,,,,,1,0.608565351983998,966.1295496450039,None,966.1295496450039,None,966.1295496450039,None,,,,,,,,,,,,,,,,,,,,,,,,,,,,,,,,,,,,,,,,,,,,,,,,,,,,100719_p2,001,2019_Oct_07_1618,body_behavioural,3.2.1,59.98760295417143,
3,parcelated_audio/13/13_4.ogg,,0,3,3,3,,,,,0,3,3,3,,,,,,,,,,,,,,,,,,,,,,,,,,,,,,,,,,,,,,,,,,,,,,,,,,,,,,,,,,,,,,,,,1,4.94197825199808,977.113513660006,None,977.113513660006,None,977.113513660006,None,,,,,,,,,,,,,,,,,,,,,,,,,,,,,,,,,,,,,,,,,,,,,,,,,,,,100719_p2,001,2019_Oct_07_1618,body_behavioural,3.2.1,59.98760295417143,
3,parcelated_audio/13/13_5.ogg,,0,3,3,3,,,,,0,4,4,4,,,,,,,,,,,,,,,,,,,,,,,,,,,,,,,,,,,,,,,,,,,,,,,,,,,,,,,,,,,,,,,,,1,0.49529083000379615,988.2148058270104,None,988.2148058270104,None,988.2148058270104,None,,,,,,,,,,,,,,,,,,,,,,,,,,,,,,,,,,,,,,,,,,,,,,,,,,,,100719_p2,001,2019_Oct_07_1618,body_behavioural,3.2.1,59.98760295417143,
3,parcelated_audio/13/13_6.ogg,,0,3,3,3,,,,,0,5,5,5,,,,,,,,,,,,,,,,,,,,,,,,,,,,,,,,,,,,,,,,,,,,,,,,,,,,,,,,,,,,,,,,,1,0.2808911929896567,993.5480412699981,None,993.5480412699981,None,993.5480412699981,None,,,,,,,,,,,,,,,,,,,,,,,,,,,,,,,,,,,,,,,,,,,,,,,,,,,,100719_p2,001,2019_Oct_07_1618,body_behavioural,3.2.1,59.98760295417143,
3,parcelated_audio/13/13_7.ogg,,0,3,3,3,,,,,0,6,6,6,,,,,,,,,,,,,,,,,,,,,,,,,,,,,,,,,,,,,,,,,,,,,,,,,,,,,,,,,,,,,,,,,1,0.43064462798065506,1001.6152587700053,None,1001.6152587700053,None,1001.6152587700053,None,,,,,,,,,,,,,,,,,,,,,,,,,,,,,,,,,,,,,,,,,,,,,,,,,,,,100719_p2,001,2019_Oct_07_1618,body_behavioural,3.2.1,59.98760295417143,
3,parcelated_audio/13/13_8.ogg,,0,3,3,3,,,,,0,7,7,7,,,,,,,,,,,,,,,,,,,,,,,,,,,,,,,,,,,,,,,,,,,,,,,,,,,,,,,,,,,,,,,,,1,0.4636817050050013,1007.4824171499931,None,1007.4824171499931,None,1007.4824171499931,None,,,,,,,,,,,,,,,,,,,,,,,,,,,,,,,,,,,,,,,,,,,,,,,,,,,,100719_p2,001,2019_Oct_07_1618,body_behavioural,3.2.1,59.98760295417143,
3,parcelated_audio/13/13_9.ogg,,0,3,3,3,,,,,0,8,8,8,,,,,,,,,,,,,,,,,,,,,,,,,,,,,,,,,,,,,,,,,,,,,,,,,,,,,,,,,,,,,,,,,1,0.4253562499943655,1012.6834354820021,None,1012.6834354820021,None,1012.6834354820021,None,,,,,,,,,,,,,,,,,,,,,,,,,,,,,,,,,,,,,,,,,,,,,,,,,,,,100719_p2,001,2019_Oct_07_1618,body_behavioural,3.2.1,59.98760295417143,
3,parcelated_audio/13/13_10.ogg,,0,3,3,3,,,,,0,9,9,9,,,,,,,,,,,,,,,,,,,,,,,,,,,,,,,,,,,,,,,,,,,,,,,,,,,,,,,,,,,,,,,,,1,0.45660449800197966,1019.0502772600157,None,1019.0502772600157,None,1019.0502772600157,None,,,,,,,,,,,,,,,,,,,,,,,,,,,,,,,,,,,,,,,,,,,,,,,,,,,,100719_p2,001,2019_Oct_07_1618,body_behavioural,3.2.1,59.98760295417143,
3,parcelated_audio/13/13_11.ogg,,0,3,3,3,,,,,0,10,10,10,,,,,,,,,,,,,,,,,,,,,,,,,,,,,,,,,,,,,,,,,,,,,,,,,,,,,,,,,,,,,,,,,1,0.273531245009508,1024.167789219995,None,1024.167789219995,None,1024.167789219995,None,,,,,,,,,,,,,,,,,,,,,,,,,,,,,,,,,,,,,,,,,,,,,,,,,,,,100719_p2,001,2019_Oct_07_1618,body_behavioural,3.2.1,59.98760295417143,
3,parcelated_audio/13/13_12.ogg,,0,3,3,3,,,,,0,11,11,11,,,,,,,,,,,,,,,,,,,,,,,,,,,,,,,,,,,,,,,,,,,,,,,,,,,,,,,,,,,,,,,,,9,0.29733254498569295,1033.050728405011,None,1033.050728405011,None,1033.050728405011,None,,,,,,,,,,,,,,,,,,,,,,,,,,,,,,,,,,,,,,,,,,,,,,,,,,,,100719_p2,001,2019_Oct_07_1618,body_behavioural,3.2.1,59.98760295417143,
3,parcelated_audio/13/13_13.ogg,,0,3,3,3,,,,,0,12,12,12,,,,,,,,,,,,,,,,,,,,,,,,,,,,,,,,,,,,,,,,,,,,,,,,,,,,,,,,,,,,,,,,,1,0.47916073500528,1043.368710027018,None,1043.368710027018,None,1043.368710027018,None,,,,,,,,,,,,,,,,,,,,,,,,,,,,,,,,,,,,,,,,,,,,,,,,,,,,100719_p2,001,2019_Oct_07_1618,body_behavioural,3.2.1,59.98760295417143,
3,parcelated_audio/13/13_14.ogg,,0,3,3,3,,,,,0,13,13,13,,,,,,,,,,,,,,,,,,,,,,,,,,,,,,,,,,,,,,,,,,,,,,,,,,,,,,,,,,,,,,,,,1,0.34982950301491655,1052.1520542020153,None,1052.1520542020153,None,1052.1520542020153,None,,,,,,,,,,,,,,,,,,,,,,,,,,,,,,,,,,,,,,,,,,,,,,,,,,,,100719_p2,001,2019_Oct_07_1618,body_behavioural,3.2.1,59.98760295417143,
3,parcelated_audio/13/13_15.ogg,,0,3,3,3,,,,,0,14,14,14,,,,,,,,,,,,,,,,,,,,,,,,,,,,,,,,,,,,,,,,,,,,,,,,,,,,,,,,,,,,,,,,,1,0.4450984650175087,1061.2870489600173,None,1061.2870489600173,None,1061.2870489600173,None,,,,,,,,,,,,,,,,,,,,,,,,,,,,,,,,,,,,,,,,,,,,,,,,,,,,100719_p2,001,2019_Oct_07_1618,body_behavioural,3.2.1,59.98760295417143,
3,parcelated_audio/13/13_16.ogg,,0,3,3,3,,,,,0,15,15,15,,,,,,,,,,,,,,,,,,,,,,,,,,,,,,,,,,,,,,,,,,,,,,,,,,,,,,,,,,,,,,,,,1,1.9318286599882413,1064.1712759649963,None,1064.1712759649963,None,1064.1712759649963,None,,,,,,,,,,,,,,,,,,,,,,,,,,,,,,,,,,,,,,,,,,,,,,,,,,,,100719_p2,001,2019_Oct_07_1618,body_behavioural,3.2.1,59.98760295417143,
3,parcelated_audio/13/13_17.ogg,,0,3,3,3,,,,,0,16,16,16,,,,,,,,,,,,,,,,,,,,,,,,,,,,,,,,,,,,,,,,,,,,,,,,,,,,,,,,,,,,,,,,,9,0.38472872198326513,1073.0206065370003,None,1073.0206065370003,None,1073.0206065370003,None,,,,,,,,,,,,,,,,,,,,,,,,,,,,,,,,,,,,,,,,,,,,,,,,,,,,100719_p2,001,2019_Oct_07_1618,body_behavioural,3.2.1,59.98760295417143,
3,parcelated_audio/13/13_18.ogg,,0,3,3,3,,,,,0,17,17,17,,,,,,,,,,,,,,,,,,,,,,,,,,,,,,,,,,,,,,,,,,,,,,,,,,,,,,,,,,,,,,,,,1,0.4435505619912874,1075.4875599050138,None,1075.4875599050138,None,1075.4875599050138,None,,,,,,,,,,,,,,,,,,,,,,,,,,,,,,,,,,,,,,,,,,,,,,,,,,,,100719_p2,001,2019_Oct_07_1618,body_behavioural,3.2.1,59.98760295417143,
3,parcelated_audio/13/13_19.ogg,,0,3,3,3,,,,,0,18,18,18,,,,,,,,,,,,,,,,,,,,,,,,,,,,,,,,,,,,,,,,,,,,,,,,,,,,,,,,,,,,,,,,,1,1.0641683319990989,1086.2544020120113,None,1086.2544020120113,None,1086.2544020120113,None,,,,,,,,,,,,,,,,,,,,,,,,,,,,,,,,,,,,,,,,,,,,,,,,,,,,100719_p2,001,2019_Oct_07_1618,body_behavioural,3.2.1,59.98760295417143,
3,parcelated_audio/13/13_20.ogg,,0,3,3,3,,,,,0,19,19,19,,,,,,,,,,,,,,,,,,,,,,,,,,,,,,,,,,,,,,,,,,,,,,,,,,,,,,,,,,,,,,,,,9,0.7149956070061307,1095.4050414200174,None,1095.4050414200174,None,1095.4050414200174,None,,,,,,,,,,,,,,,,,,,,,,,,,,,,,,,,,,,,,,,,,,,,,,,,,,,,100719_p2,001,2019_Oct_07_1618,body_behavioural,3.2.1,59.98760295417143,
3,parcelated_audio/13/13_21.ogg,,0,3,3,3,,,,,0,20,20,20,,,,,,,,,,,,,,,,,,,,,,,,,,,,,,,,,,,,,,,,,,,,,,,,,,,,,,,,,,,,,,,,,1,0.46639567700913176,1101.4388066550018,None,1101.4388066550018,None,1101.4388066550018,None,,,,,,,,,,,,,,,,,,,,,,,,,,,,,,,,,,,,,,,,,,,,,,,,,,,,100719_p2,001,2019_Oct_07_1618,body_behavioural,3.2.1,59.98760295417143,
3,parcelated_audio/13/13_22.ogg,,0,3,3,3,,,,,0,21,21,21,,,,,,,,,,,,,,,,,,,,,,,,,,,,,,,,,,,,,,,,,,,,,,,,,,,,,,,,,,,,,,,,,1,0.30534697498660535,1105.3390773420106,None,1105.3390773420106,None,1105.3390773420106,None,,,,,,,,,,,,,,,,,,,,,,,,,,,,,,,,,,,,,,,,,,,,,,,,,,,,100719_p2,001,2019_Oct_07_1618,body_behavioural,3.2.1,59.98760295417143,
3,parcelated_audio/13/13_23.ogg,,0,3,3,3,,,,,0,22,22,22,,,,,,,,,,,,,,,,,,,,,,,,,,,,,,,,,,,,,,,,,,,,,,,,,,,,,,,,,,,,,,,,,9,4.489678024983732,1109.206006902008,None,1109.206006902008,None,1109.206006902008,None,,,,,,,,,,,,,,,,,,,,,,,,,,,,,,,,,,,,,,,,,,,,,,,,,,,,100719_p2,001,2019_Oct_07_1618,body_behavioural,3.2.1,59.98760295417143,
3,parcelated_audio/13/13_24.ogg,,0,3,3,3,,,,,0,23,23,23,,,,,,,,,,,,,,,,,,,,,,,,,,,,,,,,,,,,,,,,,,,,,,,,,,,,,,,,,,,,,,,,,1,1.4584727229957934,1119.107100365014,None,1119.107100365014,None,1119.107100365014,None,,,,,,,,,,,,,,,,,,,,,,,,,,,,,,,,,,,,,,,,,,,,,,,,,,,,100719_p2,001,2019_Oct_07_1618,body_behavioural,3.2.1,59.98760295417143,
3,parcelated_audio/13/13_25.ogg,,0,3,3,3,,,,,0,24,24,24,,,,,,,,,,,,,,,,,,,,,,,,,,,,,,,,,,,,,,,,,,,,,,,,,,,,,,,,,,,,,,,,,1,0.3540160570119042,1127.4405919520068,None,1127.4405919520068,None,1127.4405919520068,None,,,,,,,,,,,,,,,,,,,,,,,,,,,,,,,,,,,,,,,,,,,,,,,,,,,,100719_p2,001,2019_Oct_07_1618,body_behavioural,3.2.1,59.98760295417143,
3,parcelated_audio/13/13_26.ogg,,0,3,3,3,,,,,0,25,25,25,,,,,,,,,,,,,,,,,,,,,,,,,,,,,,,,,,,,,,,,,,,,,,,,,,,,,,,,,,,,,,,,,1,0.690504182013683,1137.6413167600113,None,1137.6413167600113,None,1137.6413167600113,None,,,,,,,,,,,,,,,,,,,,,,,,,,,,,,,,,,,,,,,,,,,,,,,,,,,,100719_p2,001,2019_Oct_07_1618,body_behavioural,3.2.1,59.98760295417143,
3,parcelated_audio/13/13_27.ogg,,0,3,3,3,,,,,0,26,26,26,,,,,,,,,,,,,,,,,,,,,,,,,,,,,,,,,,,,,,,,,,,,,,,,,,,,,,,,,,,,,,,,,1,0.5603145020140801,1145.758518210001,None,1145.758518210001,None,1145.758518210001,None,,,,,,,,,,,,,,,,,,,,,,,,,,,,,,,,,,,,,,,,,,,,,,,,,,,,100719_p2,001,2019_Oct_07_1618,body_behavioural,3.2.1,59.98760295417143,
3,parcelated_audio/13/13_28.ogg,,0,3,3,3,,,,,0,27,27,27,,,,,,,,,,,,,,,,,,,,,,,,,,,,,,,,,,,,,,,,,,,,,,,,,,,,,,,,,,,,,,,,,9,0.30645238800207153,1152.6590130699915,None,1152.6590130699915,None,1152.6590130699915,None,,,,,,,,,,,,,,,,,,,,,,,,,,,,,,,,,,,,,,,,,,,,,,,,,,,,100719_p2,001,2019_Oct_07_1618,body_behavioural,3.2.1,59.98760295417143,
3,parcelated_audio/13/13_29.ogg,,0,3,3,3,,,,,0,28,28,28,,,,,,,,,,,,,,,,,,,,,,,,,,,,,,,,,,,,,,,,,,,,,,,,,,,,,,,,,,,,,,,,,1,0.316563878004672,1158.3598533250042,None,1158.3598533250042,None,1158.3598533250042,None,,,,,,,,,,,,,,,,,,,,,,,,,,,,,,,,,,,,,,,,,,,,,,,,,,,,100719_p2,001,2019_Oct_07_1618,body_behavioural,3.2.1,59.98760295417143,
3,parcelated_audio/13/13_30.ogg,,0,3,3,3,,,,,0,29,29,29,,,,,,,,,,,,,,,,,,,,,,,,,,,,,,,,,,,,,,,,,,,,,,,,,,,,,,,,,,,,,,,,,1,0.6558365350065287,1164.2605547420098,None,1164.2605547420098,None,1164.2605547420098,None,,,,,,,,,,,,,,,,,,,,,,,,,,,,,,,,,,,,,,,,,,,,,,,,,,,,100719_p2,001,2019_Oct_07_1618,body_behavioural,3.2.1,59.98760295417143,
3,parcelated_audio/13/13_31.ogg,,0,3,3,3,,,,,0,30,30,30,,,,,,,,,,,,,,,,,,,,,,,,,,,,,,,,,,,,,,,,,,,,,,,,,,,,,,,,,,,,,,,,,1,1.1640647769963834,1168.3601599000103,None,1168.3601599000103,None,1168.3601599000103,None,,,,,,,,,,,,,,,,,,,,,,,,,,,,,,,,,,,,,,,,,,,,,,,,,,,,100719_p2,001,2019_Oct_07_1618,body_behavioural,3.2.1,59.98760295417143,
3,parcelated_audio/13/13_32.ogg,,0,3,3,3,,,,,0,31,31,31,,,,,,,,,,,,,,,,,,,,,,,,,,,,,,,,,,,,,,,,,,,,,,,,,,,,,,,,,,,,,,,,,1,0.591805320000276,1173.111140020017,None,1173.111140020017,None,1173.111140020017,None,,,,,,,,,,,,,,,,,,,,,,,,,,,,,,,,,,,,,,,,,,,,,,,,,,,,100719_p2,001,2019_Oct_07_1618,body_behavioural,3.2.1,59.98760295417143,
3,parcelated_audio/13/13_33.ogg,,0,3,3,3,,,,,0,32,32,32,,,,,,,,,,,,,,,,,,,,,,,,,,,,,,,,,,,,,,,,,,,,,,,,,,,,,,,,,,,,,,,,,1,0.3397575400013011,1179.845008150005,None,1179.845008150005,None,1179.845008150005,None,,,,,,,,,,,,,,,,,,,,,,,,,,,,,,,,,,,,,,,,,,,,,,,,,,,,100719_p2,001,2019_Oct_07_1618,body_behavioural,3.2.1,59.98760295417143,
3,,,0,3,3,3,,,,,,,,,,,,,,,,,,,,,,,,,,,,,,,,,,,,,,,,,,,,,,,,,,,,,,,,,,,,,,,,,,,,,,,,,,,,,,,,,1180.212793447019,None,1180.212793447019,None,space,1.0022224450076465,1180.212793447019,None,,,,,,,,,,,,,,,,,,,,,,,,,,,,,,,,,,,,,,,,,,,,100719_p2,001,2019_Oct_07_1618,body_behavioural,3.2.1,59.98760295417143,
4,,,0,4,4,4,0,0,0,0,,,,,,,,,,,,,,,,,1181.2610520549933,None,space,0.4369708429730963,1181.2610520549933,None,1181.2610520549933,None,1181.7278811900178,None,space,0.5009495400008745,1181.7278811900178,None,1182.3285562700185,None,1182.3285562700185,None,1182.3285562700185,None,1183.1610803700169,None,space,0.8796746779989917,1183.1610803700169,None,1184.3947432470159,None,1184.3947432470159,None,1184.3947432470159,None,1184.3947432470159,None,1184.3947432470159,None,1184.3947432470159,None,1184.3947432470159,None,,,,,,,,,,,,,,,,,,,,,,,,,,,,,,,,,,,,,,,,,,,,,,,,,,,,,,,,,,,,,,,,,,,,,,,,100719_p2,001,2019_Oct_07_1618,body_behavioural,3.2.1,59.98760295417143,
4,parcelated_audio/42/42_1.ogg,,0,4,4,4,,,,,0,0,0,0,,,,,,,,,,,,,,,,,,,,,,,,,,,1197.8121563250024,None,1197.8121563250024,None,1197.8121563250024,None,,,,,,,,,,,,,,,,,,,,,1197.2620541400102,None,space,0.4772502300038468,1197.2620541400102,None,1198.5290492399945,None,space,0.6473107029742096,1198.5290492399945,None,9,0.4328421099926345,1207.7299713770044,None,1207.7299713770044,None,1207.7299713770044,None,,,,,,,,,,,,,,,,,,,,,,,,,,,,,,,,,,,,,,,,,,,,,,,,,,,,100719_p2,001,2019_Oct_07_1618,body_behavioural,3.2.1,59.98760295417143,
4,parcelated_audio/42/42_2.ogg,,0,4,4,4,,,,,0,1,1,1,,,,,,,,,,,,,,,,,,,,,,,,,,,,,,,,,,,,,,,,,,,,,,,,,,,,,,,,,,,,,,,,,1,0.3785803880018648,1221.0137747020053,None,1221.0137747020053,None,1221.0137747020053,None,,,,,,,,,,,,,,,,,,,,,,,,,,,,,,,,,,,,,,,,,,,,,,,,,,,,100719_p2,001,2019_Oct_07_1618,body_behavioural,3.2.1,59.98760295417143,
4,parcelated_audio/42/42_3.ogg,,0,4,4,4,,,,,0,2,2,2,,,,,,,,,,,,,,,,,,,,,,,,,,,,,,,,,,,,,,,,,,,,,,,,,,,,,,,,,,,,,,,,,1,0.40753182501066476,1231.8144837400177,None,1231.8144837400177,None,1231.8144837400177,None,,,,,,,,,,,,,,,,,,,,,,,,,,,,,,,,,,,,,,,,,,,,,,,,,,,,100719_p2,001,2019_Oct_07_1618,body_behavioural,3.2.1,59.98760295417143,
4,parcelated_audio/42/42_4.ogg,,0,4,4,4,,,,,0,3,3,3,,,,,,,,,,,,,,,,,,,,,,,,,,,,,,,,,,,,,,,,,,,,,,,,,,,,,,,,,,,,,,,,,1,3.526359603012679,1246.066091967019,None,1246.066091967019,None,1246.066091967019,None,,,,,,,,,,,,,,,,,,,,,,,,,,,,,,,,,,,,,,,,,,,,,,,,,,,,100719_p2,001,2019_Oct_07_1618,body_behavioural,3.2.1,59.98760295417143,
4,parcelated_audio/42/42_5.ogg,,0,4,4,4,,,,,0,4,4,4,,,,,,,,,,,,,,,,,,,,,,,,,,,,,,,,,,,,,,,,,,,,,,,,,,,,,,,,,,,,,,,,,1,0.39554526199935935,1261.167533772008,None,1261.167533772008,None,1261.167533772008,None,,,,,,,,,,,,,,,,,,,,,,,,,,,,,,,,,,,,,,,,,,,,,,,,,,,,100719_p2,001,2019_Oct_07_1618,body_behavioural,3.2.1,59.98760295417143,
4,parcelated_audio/42/42_6.ogg,,0,4,4,4,,,,,0,5,5,5,,,,,,,,,,,,,,,,,,,,,,,,,,,,,,,,,,,,,,,,,,,,,,,,,,,,,,,,,,,,,,,,,9,0.3989455199916847,1268.200259336998,None,1268.200259336998,None,1268.200259336998,None,,,,,,,,,,,,,,,,,,,,,,,,,,,,,,,,,,,,,,,,,,,,,,,,,,,,100719_p2,001,2019_Oct_07_1618,body_behavioural,3.2.1,59.98760295417143,
4,parcelated_audio/42/42_7.ogg,,0,4,4,4,,,,,0,6,6,6,,,,,,,,,,,,,,,,,,,,,,,,,,,,,,,,,,,,,,,,,,,,,,,,,,,,,,,,,,,,,,,,,1,0.4946126480062958,1273.9177790920075,None,1273.9177790920075,None,1273.9177790920075,None,,,,,,,,,,,,,,,,,,,,,,,,,,,,,,,,,,,,,,,,,,,,,,,,,,,,100719_p2,001,2019_Oct_07_1618,body_behavioural,3.2.1,59.98760295417143,
4,parcelated_audio/42/42_8.ogg,,0,4,4,4,,,,,0,7,7,7,,,,,,,,,,,,,,,,,,,,,,,,,,,,,,,,,,,,,,,,,,,,,,,,,,,,,,,,,,,,,,,,,1,0.673818504990777,1277.7182127519918,None,1277.7182127519918,None,1277.7182127519918,None,,,,,,,,,,,,,,,,,,,,,,,,,,,,,,,,,,,,,,,,,,,,,,,,,,,,100719_p2,001,2019_Oct_07_1618,body_behavioural,3.2.1,59.98760295417143,
4,parcelated_audio/42/42_9.ogg,,0,4,4,4,,,,,0,8,8,8,,,,,,,,,,,,,,,,,,,,,,,,,,,,,,,,,,,,,,,,,,,,,,,,,,,,,,,,,,,,,,,,,1,0.6537062249844894,1287.0521611949953,None,1287.0521611949953,None,1287.0521611949953,None,,,,,,,,,,,,,,,,,,,,,,,,,,,,,,,,,,,,,,,,,,,,,,,,,,,,100719_p2,001,2019_Oct_07_1618,body_behavioural,3.2.1,59.98760295417143,
4,parcelated_audio/42/42_10.ogg,,0,4,4,4,,,,,0,9,9,9,,,,,,,,,,,,,,,,,,,,,,,,,,,,,,,,,,,,,,,,,,,,,,,,,,,,,,,,,,,,,,,,,1,0.3409799649962224,1292.1860927510133,None,1292.1860927510133,None,1292.1860927510133,None,,,,,,,,,,,,,,,,,,,,,,,,,,,,,,,,,,,,,,,,,,,,,,,,,,,,100719_p2,001,2019_Oct_07_1618,body_behavioural,3.2.1,59.98760295417143,
4,parcelated_audio/42/42_11.ogg,,0,4,4,4,,,,,0,10,10,10,,,,,,,,,,,,,,,,,,,,,,,,,,,,,,,,,,,,,,,,,,,,,,,,,,,,,,,,,,,,,,,,,1,2.2643789749999996,1297.669593922008,None,1297.669593922008,None,1297.669593922008,None,,,,,,,,,,,,,,,,,,,,,,,,,,,,,,,,,,,,,,,,,,,,,,,,,,,,100719_p2,001,2019_Oct_07_1618,body_behavioural,3.2.1,59.98760295417143,
4,parcelated_audio/42/42_12.ogg,,0,4,4,4,,,,,0,11,11,11,,,,,,,,,,,,,,,,,,,,,,,,,,,,,,,,,,,,,,,,,,,,,,,,,,,,,,,,,,,,,,,,,1,0.388596178003354,1306.0528814900026,None,1306.0528814900026,None,1306.0528814900026,None,,,,,,,,,,,,,,,,,,,,,,,,,,,,,,,,,,,,,,,,,,,,,,,,,,,,100719_p2,001,2019_Oct_07_1618,body_behavioural,3.2.1,59.98760295417143,
4,parcelated_audio/42/42_13.ogg,,0,4,4,4,,,,,0,12,12,12,,,,,,,,,,,,,,,,,,,,,,,,,,,,,,,,,,,,,,,,,,,,,,,,,,,,,,,,,,,,,,,,,9,0.5505989899975248,1313.7371260420186,None,1313.7371260420186,None,1313.7371260420186,None,,,,,,,,,,,,,,,,,,,,,,,,,,,,,,,,,,,,,,,,,,,,,,,,,,,,100719_p2,001,2019_Oct_07_1618,body_behavioural,3.2.1,59.98760295417143,
4,parcelated_audio/42/42_14.ogg,,0,4,4,4,,,,,0,13,13,13,,,,,,,,,,,,,,,,,,,,,,,,,,,,,,,,,,,,,,,,,,,,,,,,,,,,,,,,,,,,,,,,,1,2.927849954983685,1319.1542725320032,None,1319.1542725320032,None,1319.1542725320032,None,,,,,,,,,,,,,,,,,,,,,,,,,,,,,,,,,,,,,,,,,,,,,,,,,,,,100719_p2,001,2019_Oct_07_1618,body_behavioural,3.2.1,59.98760295417143,
4,parcelated_audio/42/42_15.ogg,,0,4,4,4,,,,,0,14,14,14,,,,,,,,,,,,,,,,,,,,,,,,,,,,,,,,,,,,,,,,,,,,,,,,,,,,,,,,,,,,,,,,,1,0.3614533929794561,1328.0717336600064,None,1328.0717336600064,None,1328.0717336600064,None,,,,,,,,,,,,,,,,,,,,,,,,,,,,,,,,,,,,,,,,,,,,,,,,,,,,100719_p2,001,2019_Oct_07_1618,body_behavioural,3.2.1,59.98760295417143,
4,parcelated_audio/42/42_16.ogg,,0,4,4,4,,,,,0,15,15,15,,,,,,,,,,,,,,,,,,,,,,,,,,,,,,,,,,,,,,,,,,,,,,,,,,,,,,,,,,,,,,,,,1,0.3494263970060274,1334.1387658700114,None,1334.1387658700114,None,1334.1387658700114,None,,,,,,,,,,,,,,,,,,,,,,,,,,,,,,,,,,,,,,,,,,,,,,,,,,,,100719_p2,001,2019_Oct_07_1618,body_behavioural,3.2.1,59.98760295417143,
4,parcelated_audio/42/42_17.ogg,,0,4,4,4,,,,,0,16,16,16,,,,,,,,,,,,,,,,,,,,,,,,,,,,,,,,,,,,,,,,,,,,,,,,,,,,,,,,,,,,,,,,,9,0.5830493149987888,1344.3234163100133,None,1344.3234163100133,None,1344.3234163100133,None,,,,,,,,,,,,,,,,,,,,,,,,,,,,,,,,,,,,,,,,,,,,,,,,,,,,100719_p2,001,2019_Oct_07_1618,body_behavioural,3.2.1,59.98760295417143,
4,parcelated_audio/42/42_18.ogg,,0,4,4,4,,,,,0,17,17,17,,,,,,,,,,,,,,,,,,,,,,,,,,,,,,,,,,,,,,,,,,,,,,,,,,,,,,,,,,,,,,,,,1,0.35818957700394094,1350.4733793699997,None,1350.4733793699997,None,1350.4733793699997,None,,,,,,,,,,,,,,,,,,,,,,,,,,,,,,,,,,,,,,,,,,,,,,,,,,,,100719_p2,001,2019_Oct_07_1618,body_behavioural,3.2.1,59.98760295417143,
4,parcelated_audio/42/42_19.ogg,,0,4,4,4,,,,,0,18,18,18,,,,,,,,,,,,,,,,,,,,,,,,,,,,,,,,,,,,,,,,,,,,,,,,,,,,,,,,,,,,,,,,,1,0.6595687700028066,1360.106750715,None,1360.106750715,None,1360.106750715,None,,,,,,,,,,,,,,,,,,,,,,,,,,,,,,,,,,,,,,,,,,,,,,,,,,,,100719_p2,001,2019_Oct_07_1618,body_behavioural,3.2.1,59.98760295417143,
4,parcelated_audio/42/42_20.ogg,,0,4,4,4,,,,,0,19,19,19,,,,,,,,,,,,,,,,,,,,,,,,,,,,,,,,,,,,,,,,,,,,,,,,,,,,,,,,,,,,,,,,,1,0.317656427010661,1365.5576852569939,None,1365.5576852569939,None,1365.5576852569939,None,,,,,,,,,,,,,,,,,,,,,,,,,,,,,,,,,,,,,,,,,,,,,,,,,,,,100719_p2,001,2019_Oct_07_1618,body_behavioural,3.2.1,59.98760295417143,
4,parcelated_audio/42/42_21.ogg,,0,4,4,4,,,,,0,20,20,20,,,,,,,,,,,,,,,,,,,,,,,,,,,,,,,,,,,,,,,,,,,,,,,,,,,,,,,,,,,,,,,,,1,0.2767747750040144,1375.9410423070076,None,1375.9410423070076,None,1375.9410423070076,None,,,,,,,,,,,,,,,,,,,,,,,,,,,,,,,,,,,,,,,,,,,,,,,,,,,,100719_p2,001,2019_Oct_07_1618,body_behavioural,3.2.1,59.98760295417143,
4,parcelated_audio/42/42_22.ogg,,0,4,4,4,,,,,0,21,21,21,,,,,,,,,,,,,,,,,,,,,,,,,,,,,,,,,,,,,,,,,,,,,,,,,,,,,,,,,,,,,,,,,1,0.5917578850057907,1381.1424572300166,None,1381.1424572300166,None,1381.1424572300166,None,,,,,,,,,,,,,,,,,,,,,,,,,,,,,,,,,,,,,,,,,,,,,,,,,,,,100719_p2,001,2019_Oct_07_1618,body_behavioural,3.2.1,59.98760295417143,
4,parcelated_audio/42/42_23.ogg,,0,4,4,4,,,,,0,22,22,22,,,,,,,,,,,,,,,,,,,,,,,,,,,,,,,,,,,,,,,,,,,,,,,,,,,,,,,,,,,,,,,,,9,0.6008577019965742,1388.108649700007,None,1388.108649700007,None,1388.108649700007,None,,,,,,,,,,,,,,,,,,,,,,,,,,,,,,,,,,,,,,,,,,,,,,,,,,,,100719_p2,001,2019_Oct_07_1618,body_behavioural,3.2.1,59.98760295417143,
4,parcelated_audio/42/42_24.ogg,,0,4,4,4,,,,,0,23,23,23,,,,,,,,,,,,,,,,,,,,,,,,,,,,,,,,,,,,,,,,,,,,,,,,,,,,,,,,,,,,,,,,,1,0.5393346050113905,1397.326519335009,None,1397.326519335009,None,1397.326519335009,None,,,,,,,,,,,,,,,,,,,,,,,,,,,,,,,,,,,,,,,,,,,,,,,,,,,,100719_p2,001,2019_Oct_07_1618,body_behavioural,3.2.1,59.98760295417143,
4,parcelated_audio/42/42_25.ogg,,0,4,4,4,,,,,0,24,24,24,,,,,,,,,,,,,,,,,,,,,,,,,,,,,,,,,,,,,,,,,,,,,,,,,,,,,,,,,,,,,,,,,1,0.405792592006037,1404.260582812014,None,1404.260582812014,None,1404.260582812014,None,,,,,,,,,,,,,,,,,,,,,,,,,,,,,,,,,,,,,,,,,,,,,,,,,,,,100719_p2,001,2019_Oct_07_1618,body_behavioural,3.2.1,59.98760295417143,
4,parcelated_audio/42/42_26.ogg,,0,4,4,4,,,,,0,25,25,25,,,,,,,,,,,,,,,,,,,,,,,,,,,,,,,,,,,,,,,,,,,,,,,,,,,,,,,,,,,,,,,,,1,0.39245266499347053,1410.7101735869946,None,1410.7101735869946,None,1410.7101735869946,None,,,,,,,,,,,,,,,,,,,,,,,,,,,,,,,,,,,,,,,,,,,,,,,,,,,,100719_p2,001,2019_Oct_07_1618,body_behavioural,3.2.1,59.98760295417143,
4,parcelated_audio/42/42_27.ogg,,0,4,4,4,,,,,0,26,26,26,,,,,,,,,,,,,,,,,,,,,,,,,,,,,,,,,,,,,,,,,,,,,,,,,,,,,,,,,,,,,,,,,9,0.38672837999183685,1418.9277545399964,None,1418.9277545399964,None,1418.9277545399964,None,,,,,,,,,,,,,,,,,,,,,,,,,,,,,,,,,,,,,,,,,,,,,,,,,,,,100719_p2,001,2019_Oct_07_1618,body_behavioural,3.2.1,59.98760295417143,
4,parcelated_audio/42/42_28.ogg,,0,4,4,4,,,,,0,27,27,27,,,,,,,,,,,,,,,,,,,,,,,,,,,,,,,,,,,,,,,,,,,,,,,,,,,,,,,,,,,,,,,,,1,0.4439802230044734,1425.1120094550133,None,1425.1120094550133,None,1425.1120094550133,None,,,,,,,,,,,,,,,,,,,,,,,,,,,,,,,,,,,,,,,,,,,,,,,,,,,,100719_p2,001,2019_Oct_07_1618,body_behavioural,3.2.1,59.98760295417143,
4,parcelated_audio/42/42_29.ogg,,0,4,4,4,,,,,0,28,28,28,,,,,,,,,,,,,,,,,,,,,,,,,,,,,,,,,,,,,,,,,,,,,,,,,,,,,,,,,,,,,,,,,1,0.3994589520152658,1432.611625791993,None,1432.611625791993,None,1432.611625791993,None,,,,,,,,,,,,,,,,,,,,,,,,,,,,,,,,,,,,,,,,,,,,,,,,,,,,100719_p2,001,2019_Oct_07_1618,body_behavioural,3.2.1,59.98760295417143,
4,parcelated_audio/42/42_30.ogg,,0,4,4,4,,,,,0,29,29,29,,,,,,,,,,,,,,,,,,,,,,,,,,,,,,,,,,,,,,,,,,,,,,,,,,,,,,,,,,,,,,,,,1,0.4036017879843712,1444.029326770018,None,1444.029326770018,None,1444.029326770018,None,,,,,,,,,,,,,,,,,,,,,,,,,,,,,,,,,,,,,,,,,,,,,,,,,,,,100719_p2,001,2019_Oct_07_1618,body_behavioural,3.2.1,59.98760295417143,
4,parcelated_audio/42/42_31.ogg,,0,4,4,4,,,,,0,30,30,30,,,,,,,,,,,,,,,,,,,,,,,,,,,,,,,,,,,,,,,,,,,,,,,,,,,,,,,,,,,,,,,,,1,0.39184969299822114,1450.779768887005,None,1450.779768887005,None,1450.779768887005,None,,,,,,,,,,,,,,,,,,,,,,,,,,,,,,,,,,,,,,,,,,,,,,,,,,,,100719_p2,001,2019_Oct_07_1618,body_behavioural,3.2.1,59.98760295417143,
4,parcelated_audio/42/42_32.ogg,,0,4,4,4,,,,,0,31,31,31,,,,,,,,,,,,,,,,,,,,,,,,,,,,,,,,,,,,,,,,,,,,,,,,,,,,,,,,,,,,,,,,,9,0.5077525369997602,1459.4634450800077,None,1459.4634450800077,None,1459.4634450800077,None,,,,,,,,,,,,,,,,,,,,,,,,,,,,,,,,,,,,,,,,,,,,,,,,,,,,100719_p2,001,2019_Oct_07_1618,body_behavioural,3.2.1,59.98760295417143,
4,parcelated_audio/42/42_33.ogg,,0,4,4,4,,,,,0,32,32,32,,,,,,,,,,,,,,,,,,,,,,,,,,,,,,,,,,,,,,,,,,,,,,,,,,,,,,,,,,,,,,,,,1,0.44884305700543337,1467.1642052170064,None,1467.1642052170064,None,1467.1642052170064,None,,,,,,,,,,,,,,,,,,,,,,,,,,,,,,,,,,,,,,,,,,,,,,,,,,,,100719_p2,001,2019_Oct_07_1618,body_behavioural,3.2.1,59.98760295417143,
4,parcelated_audio/42/42_34.ogg,,0,4,4,4,,,,,0,33,33,33,,,,,,,,,,,,,,,,,,,,,,,,,,,,,,,,,,,,,,,,,,,,,,,,,,,,,,,,,,,,,,,,,1,0.6894317349942867,1478.4648842349998,None,1478.4648842349998,None,1478.4648842349998,None,,,,,,,,,,,,,,,,,,,,,,,,,,,,,,,,,,,,,,,,,,,,,,,,,,,,100719_p2,001,2019_Oct_07_1618,body_behavioural,3.2.1,59.98760295417143,
4,parcelated_audio/42/42_35.ogg,,0,4,4,4,,,,,0,34,34,34,,,,,,,,,,,,,,,,,,,,,,,,,,,,,,,,,,,,,,,,,,,,,,,,,,,,,,,,,,,,,,,,,1,0.3354289149865508,1489.0822442049976,None,1489.0822442049976,None,1489.0822442049976,None,,,,,,,,,,,,,,,,,,,,,,,,,,,,,,,,,,,,,,,,,,,,,,,,,,,,100719_p2,001,2019_Oct_07_1618,body_behavioural,3.2.1,59.98760295417143,
4,,,0,4,4,4,,,,,,,,,,,,,,,,,,,,,,,,,,,,,,,,,,,,,,,,,,,,,,,,,,,,,,,,,,,,,,,,,,,,,,,,,,,,,,,,,1489.4823002720077,None,1489.4823002720077,None,space,1.2145709950127639,1489.4823002720077,None,,,,,,,,,,,,,,,,,,,,,,,,,,,,,,,,,,,,,,,,,,,,100719_p2,001,2019_Oct_07_1618,body_behavioural,3.2.1,59.98760295417143,
5,,,0,5,5,5,0,0,0,0,,,,,,,,,,,,,,,,,1490.7163878520078,None,space,1.4841935700096656,1490.7163878520078,None,1490.7163878520078,None,1492.232403122005,None,space,0.7642401200137101,1492.232403122005,None,1493.0991189299966,None,1493.0991189299966,None,1493.0991189299966,None,1494.5161115200026,None,space,0.5283103180117905,1494.5161115200026,None,1495.3334178820078,None,1495.3334178820078,None,1495.3334178820078,None,1495.3334178820078,None,1495.3334178820078,None,1495.3334178820078,None,1495.3334178820078,None,,,,,,,,,,,,,,,,,,,,,,,,,,,,,,,,,,,,,,,,,,,,,,,,,,,,,,,,,,,,,,,,,,,,,,,,100719_p2,001,2019_Oct_07_1618,body_behavioural,3.2.1,59.98760295417143,
5,parcelated_audio/31/31_1.ogg,,0,5,5,5,,,,,0,0,0,0,,,,,,,,,,,,,,,,,,,,,,,,,,,1511.0505028149928,None,1511.0505028149928,None,1511.0505028149928,None,,,,,,,,,,,,,,,,,,,,,1510.2672166819975,None,space,0.7081537400081288,1510.2672166819975,None,1513.0176826349925,None,space,1.3102796979947016,1513.0176826349925,None,9,0.5818610550195444,1523.1517076349992,None,1523.1517076349992,None,1523.1517076349992,None,,,,,,,,,,,,,,,,,,,,,,,,,,,,,,,,,,,,,,,,,,,,,,,,,,,,100719_p2,001,2019_Oct_07_1618,body_behavioural,3.2.1,59.98760295417143,
5,parcelated_audio/31/31_2.ogg,,0,5,5,5,,,,,0,1,1,1,,,,,,,,,,,,,,,,,,,,,,,,,,,,,,,,,,,,,,,,,,,,,,,,,,,,,,,,,,,,,,,,,1,0.4043450530152768,1528.3349254170025,None,1528.3349254170025,None,1528.3349254170025,None,,,,,,,,,,,,,,,,,,,,,,,,,,,,,,,,,,,,,,,,,,,,,,,,,,,,100719_p2,001,2019_Oct_07_1618,body_behavioural,3.2.1,59.98760295417143,
5,parcelated_audio/31/31_3.ogg,,0,5,5,5,,,,,0,2,2,2,,,,,,,,,,,,,,,,,,,,,,,,,,,,,,,,,,,,,,,,,,,,,,,,,,,,,,,,,,,,,,,,,1,0.33393684501061216,1537.1702358000039,None,1537.1702358000039,None,1537.1702358000039,None,,,,,,,,,,,,,,,,,,,,,,,,,,,,,,,,,,,,,,,,,,,,,,,,,,,,100719_p2,001,2019_Oct_07_1618,body_behavioural,3.2.1,59.98760295417143,
5,parcelated_audio/31/31_4.ogg,,0,5,5,5,,,,,0,3,3,3,,,,,,,,,,,,,,,,,,,,,,,,,,,,,,,,,,,,,,,,,,,,,,,,,,,,,,,,,,,,,,,,,1,0.4005124499963131,1547.6862122619932,None,1547.6862122619932,None,1547.6862122619932,None,,,,,,,,,,,,,,,,,,,,,,,,,,,,,,,,,,,,,,,,,,,,,,,,,,,,100719_p2,001,2019_Oct_07_1618,body_behavioural,3.2.1,59.98760295417143,
5,parcelated_audio/31/31_5.ogg,,0,5,5,5,,,,,0,4,4,4,,,,,,,,,,,,,,,,,,,,,,,,,,,,,,,,,,,,,,,,,,,,,,,,,,,,,,,,,,,,,,,,,9,0.672670175001258,1559.337211139995,None,1559.337211139995,None,1559.337211139995,None,,,,,,,,,,,,,,,,,,,,,,,,,,,,,,,,,,,,,,,,,,,,,,,,,,,,100719_p2,001,2019_Oct_07_1618,body_behavioural,3.2.1,59.98760295417143,
5,parcelated_audio/31/31_6.ogg,,0,5,5,5,,,,,0,5,5,5,,,,,,,,,,,,,,,,,,,,,,,,,,,,,,,,,,,,,,,,,,,,,,,,,,,,,,,,,,,,,,,,,1,0.39695943499100395,1565.4541295600065,None,1565.4541295600065,None,1565.4541295600065,None,,,,,,,,,,,,,,,,,,,,,,,,,,,,,,,,,,,,,,,,,,,,,,,,,,,,100719_p2,001,2019_Oct_07_1618,body_behavioural,3.2.1,59.98760295417143,
5,parcelated_audio/31/31_7.ogg,,0,5,5,5,,,,,0,6,6,6,,,,,,,,,,,,,,,,,,,,,,,,,,,,,,,,,,,,,,,,,,,,,,,,,,,,,,,,,,,,,,,,,1,0.3282972220040392,1570.8218522749958,None,1570.8218522749958,None,1570.8218522749958,None,,,,,,,,,,,,,,,,,,,,,,,,,,,,,,,,,,,,,,,,,,,,,,,,,,,,100719_p2,001,2019_Oct_07_1618,body_behavioural,3.2.1,59.98760295417143,
5,parcelated_audio/31/31_8.ogg,,0,5,5,5,,,,,0,7,7,7,,,,,,,,,,,,,,,,,,,,,,,,,,,,,,,,,,,,,,,,,,,,,,,,,,,,,,,,,,,,,,,,,1,0.8684775500150863,1579.7224446850014,None,1579.7224446850014,None,1579.7224446850014,None,,,,,,,,,,,,,,,,,,,,,,,,,,,,,,,,,,,,,,,,,,,,,,,,,,,,100719_p2,001,2019_Oct_07_1618,body_behavioural,3.2.1,59.98760295417143,
5,parcelated_audio/31/31_9.ogg,,0,5,5,5,,,,,0,8,8,8,,,,,,,,,,,,,,,,,,,,,,,,,,,,,,,,,,,,,,,,,,,,,,,,,,,,,,,,,,,,,,,,,1,0.5175809100037441,1585.8057296700135,None,1585.8057296700135,None,1585.8057296700135,None,,,,,,,,,,,,,,,,,,,,,,,,,,,,,,,,,,,,,,,,,,,,,,,,,,,,100719_p2,001,2019_Oct_07_1618,body_behavioural,3.2.1,59.98760295417143,
5,parcelated_audio/31/31_10.ogg,,0,5,5,5,,,,,0,9,9,9,,,,,,,,,,,,,,,,,,,,,,,,,,,,,,,,,,,,,,,,,,,,,,,,,,,,,,,,,,,,,,,,,1,0.2985243370058015,1591.9892749600112,None,1591.9892749600112,None,1591.9892749600112,None,,,,,,,,,,,,,,,,,,,,,,,,,,,,,,,,,,,,,,,,,,,,,,,,,,,,100719_p2,001,2019_Oct_07_1618,body_behavioural,3.2.1,59.98760295417143,
5,parcelated_audio/31/31_11.ogg,,0,5,5,5,,,,,0,10,10,10,,,,,,,,,,,,,,,,,,,,,,,,,,,,,,,,,,,,,,,,,,,,,,,,,,,,,,,,,,,,,,,,,9,0.5596300720062573,1602.6566803750175,None,1602.6566803750175,None,1602.6566803750175,None,,,,,,,,,,,,,,,,,,,,,,,,,,,,,,,,,,,,,,,,,,,,,,,,,,,,100719_p2,001,2019_Oct_07_1618,body_behavioural,3.2.1,59.98760295417143,
5,parcelated_audio/31/31_12.ogg,,0,5,5,5,,,,,0,11,11,11,,,,,,,,,,,,,,,,,,,,,,,,,,,,,,,,,,,,,,,,,,,,,,,,,,,,,,,,,,,,,,,,,1,0.3534603150037583,1608.1580107799964,None,1608.1580107799964,None,1608.1580107799964,None,,,,,,,,,,,,,,,,,,,,,,,,,,,,,,,,,,,,,,,,,,,,,,,,,,,,100719_p2,001,2019_Oct_07_1618,body_behavioural,3.2.1,59.98760295417143,
5,parcelated_audio/31/31_13.ogg,,0,5,5,5,,,,,0,12,12,12,,,,,,,,,,,,,,,,,,,,,,,,,,,,,,,,,,,,,,,,,,,,,,,,,,,,,,,,,,,,,,,,,1,0.49941546699847095,1615.975583752006,None,1615.975583752006,None,1615.975583752006,None,,,,,,,,,,,,,,,,,,,,,,,,,,,,,,,,,,,,,,,,,,,,,,,,,,,,100719_p2,001,2019_Oct_07_1618,body_behavioural,3.2.1,59.98760295417143,
5,parcelated_audio/31/31_14.ogg,,0,5,5,5,,,,,0,13,13,13,,,,,,,,,,,,,,,,,,,,,,,,,,,,,,,,,,,,,,,,,,,,,,,,,,,,,,,,,,,,,,,,,1,0.38630717698833905,1622.741705405002,None,1622.741705405002,None,1622.741705405002,None,,,,,,,,,,,,,,,,,,,,,,,,,,,,,,,,,,,,,,,,,,,,,,,,,,,,100719_p2,001,2019_Oct_07_1618,body_behavioural,3.2.1,59.98760295417143,
5,parcelated_audio/31/31_15.ogg,,0,5,5,5,,,,,0,14,14,14,,,,,,,,,,,,,,,,,,,,,,,,,,,,,,,,,,,,,,,,,,,,,,,,,,,,,,,,,,,,,,,,,1,0.7201754330017138,1629.9757395900087,None,1629.9757395900087,None,1629.9757395900087,None,,,,,,,,,,,,,,,,,,,,,,,,,,,,,,,,,,,,,,,,,,,,,,,,,,,,100719_p2,001,2019_Oct_07_1618,body_behavioural,3.2.1,59.98760295417143,
5,parcelated_audio/31/31_16.ogg,,0,5,5,5,,,,,0,15,15,15,,,,,,,,,,,,,,,,,,,,,,,,,,,,,,,,,,,,,,,,,,,,,,,,,,,,,,,,,,,,,,,,,1,1.5625425649923272,1637.2424475020089,None,1637.2424475020089,None,1637.2424475020089,None,,,,,,,,,,,,,,,,,,,,,,,,,,,,,,,,,,,,,,,,,,,,,,,,,,,,100719_p2,001,2019_Oct_07_1618,body_behavioural,3.2.1,59.98760295417143,
5,parcelated_audio/31/31_17.ogg,,0,5,5,5,,,,,0,16,16,16,,,,,,,,,,,,,,,,,,,,,,,,,,,,,,,,,,,,,,,,,,,,,,,,,,,,,,,,,,,,,,,,,1,0.3546399000042584,1642.3769427800144,None,1642.3769427800144,None,1642.3769427800144,None,,,,,,,,,,,,,,,,,,,,,,,,,,,,,,,,,,,,,,,,,,,,,,,,,,,,100719_p2,001,2019_Oct_07_1618,body_behavioural,3.2.1,59.98760295417143,
5,parcelated_audio/31/31_18.ogg,,0,5,5,5,,,,,0,17,17,17,,,,,,,,,,,,,,,,,,,,,,,,,,,,,,,,,,,,,,,,,,,,,,,,,,,,,,,,,,,,,,,,,9,0.30512525199446827,1647.493126604997,None,1647.493126604997,None,1647.493126604997,None,,,,,,,,,,,,,,,,,,,,,,,,,,,,,,,,,,,,,,,,,,,,,,,,,,,,100719_p2,001,2019_Oct_07_1618,body_behavioural,3.2.1,59.98760295417143,
5,parcelated_audio/31/31_19.ogg,,0,5,5,5,,,,,0,18,18,18,,,,,,,,,,,,,,,,,,,,,,,,,,,,,,,,,,,,,,,,,,,,,,,,,,,,,,,,,,,,,,,,,1,0.37427537998883054,1656.1274718049972,None,1656.1274718049972,None,1656.1274718049972,None,,,,,,,,,,,,,,,,,,,,,,,,,,,,,,,,,,,,,,,,,,,,,,,,,,,,100719_p2,001,2019_Oct_07_1618,body_behavioural,3.2.1,59.98760295417143,
5,parcelated_audio/31/31_20.ogg,,0,5,5,5,,,,,0,19,19,19,,,,,,,,,,,,,,,,,,,,,,,,,,,,,,,,,,,,,,,,,,,,,,,,,,,,,,,,,,,,,,,,,9,0.3492570800008252,1674.4957438420097,None,1674.4957438420097,None,1674.4957438420097,None,,,,,,,,,,,,,,,,,,,,,,,,,,,,,,,,,,,,,,,,,,,,,,,,,,,,100719_p2,001,2019_Oct_07_1618,body_behavioural,3.2.1,59.98760295417143,
5,parcelated_audio/31/31_21.ogg,,0,5,5,5,,,,,0,20,20,20,,,,,,,,,,,,,,,,,,,,,,,,,,,,,,,,,,,,,,,,,,,,,,,,,,,,,,,,,,,,,,,,,1,0.3289421020017471,1685.2124117920175,None,1685.2124117920175,None,1685.2124117920175,None,,,,,,,,,,,,,,,,,,,,,,,,,,,,,,,,,,,,,,,,,,,,,,,,,,,,100719_p2,001,2019_Oct_07_1618,body_behavioural,3.2.1,59.98760295417143,
5,parcelated_audio/31/31_22.ogg,,0,5,5,5,,,,,0,21,21,21,,,,,,,,,,,,,,,,,,,,,,,,,,,,,,,,,,,,,,,,,,,,,,,,,,,,,,,,,,,,,,,,,1,0.35796817499795,1691.4132615420094,None,1691.4132615420094,None,1691.4132615420094,None,,,,,,,,,,,,,,,,,,,,,,,,,,,,,,,,,,,,,,,,,,,,,,,,,,,,100719_p2,001,2019_Oct_07_1618,body_behavioural,3.2.1,59.98760295417143,
5,parcelated_audio/31/31_23.ogg,,0,5,5,5,,,,,0,22,22,22,,,,,,,,,,,,,,,,,,,,,,,,,,,,,,,,,,,,,,,,,,,,,,,,,,,,,,,,,,,,,,,,,9,2.6077476830105297,1696.531376930012,None,1696.531376930012,None,1696.531376930012,None,,,,,,,,,,,,,,,,,,,,,,,,,,,,,,,,,,,,,,,,,,,,,,,,,,,,100719_p2,001,2019_Oct_07_1618,body_behavioural,3.2.1,59.98760295417143,
5,parcelated_audio/31/31_24.ogg,,0,5,5,5,,,,,0,23,23,23,,,,,,,,,,,,,,,,,,,,,,,,,,,,,,,,,,,,,,,,,,,,,,,,,,,,,,,,,,,,,,,,,1,0.255101528018713,1706.164338475006,None,1706.164338475006,None,1706.164338475006,None,,,,,,,,,,,,,,,,,,,,,,,,,,,,,,,,,,,,,,,,,,,,,,,,,,,,100719_p2,001,2019_Oct_07_1618,body_behavioural,3.2.1,59.98760295417143,
5,parcelated_audio/31/31_25.ogg,,0,5,5,5,,,,,0,24,24,24,,,,,,,,,,,,,,,,,,,,,,,,,,,,,,,,,,,,,,,,,,,,,,,,,,,,,,,,,,,,,,,,,1,0.5061680569779128,1718.5821510170063,None,1718.5821510170063,None,1718.5821510170063,None,,,,,,,,,,,,,,,,,,,,,,,,,,,,,,,,,,,,,,,,,,,,,,,,,,,,100719_p2,001,2019_Oct_07_1618,body_behavioural,3.2.1,59.98760295417143,
5,parcelated_audio/31/31_26.ogg,,0,5,5,5,,,,,0,25,25,25,,,,,,,,,,,,,,,,,,,,,,,,,,,,,,,,,,,,,,,,,,,,,,,,,,,,,,,,,,,,,,,,,1,2.4742643350036815,1726.7491223649995,None,1726.7491223649995,None,1726.7491223649995,None,,,,,,,,,,,,,,,,,,,,,,,,,,,,,,,,,,,,,,,,,,,,,,,,,,,,100719_p2,001,2019_Oct_07_1618,body_behavioural,3.2.1,59.98760295417143,
5,parcelated_audio/31/31_27.ogg,,0,5,5,5,,,,,0,26,26,26,,,,,,,,,,,,,,,,,,,,,,,,,,,,,,,,,,,,,,,,,,,,,,,,,,,,,,,,,,,,,,,,,1,2.2815719399950467,1733.76589671502,None,1733.76589671502,None,1733.76589671502,None,,,,,,,,,,,,,,,,,,,,,,,,,,,,,,,,,,,,,,,,,,,,,,,,,,,,100719_p2,001,2019_Oct_07_1618,body_behavioural,3.2.1,59.98760295417143,
5,parcelated_audio/31/31_28.ogg,,0,5,5,5,,,,,0,27,27,27,,,,,,,,,,,,,,,,,,,,,,,,,,,,,,,,,,,,,,,,,,,,,,,,,,,,,,,,,,,,,,,,,9,1.1350094049994368,1741.1995829500083,None,1741.1995829500083,None,1741.1995829500083,None,,,,,,,,,,,,,,,,,,,,,,,,,,,,,,,,,,,,,,,,,,,,,,,,,,,,100719_p2,001,2019_Oct_07_1618,body_behavioural,3.2.1,59.98760295417143,
5,parcelated_audio/31/31_29.ogg,,0,5,5,5,,,,,0,28,28,28,,,,,,,,,,,,,,,,,,,,,,,,,,,,,,,,,,,,,,,,,,,,,,,,,,,,,,,,,,,,,,,,,1,0.2930980780220125,1746.8171272370091,None,1746.8171272370091,None,1746.8171272370091,None,,,,,,,,,,,,,,,,,,,,,,,,,,,,,,,,,,,,,,,,,,,,,,,,,,,,100719_p2,001,2019_Oct_07_1618,body_behavioural,3.2.1,59.98760295417143,
5,parcelated_audio/31/31_30.ogg,,0,5,5,5,,,,,0,29,29,29,,,,,,,,,,,,,,,,,,,,,,,,,,,,,,,,,,,,,,,,,,,,,,,,,,,,,,,,,,,,,,,,,1,0.34800154200638644,1751.0346832420037,None,1751.0346832420037,None,1751.0346832420037,None,,,,,,,,,,,,,,,,,,,,,,,,,,,,,,,,,,,,,,,,,,,,,,,,,,,,100719_p2,001,2019_Oct_07_1618,body_behavioural,3.2.1,59.98760295417143,
5,parcelated_audio/31/31_31.ogg,,0,5,5,5,,,,,0,30,30,30,,,,,,,,,,,,,,,,,,,,,,,,,,,,,,,,,,,,,,,,,,,,,,,,,,,,,,,,,,,,,,,,,1,0.42209263500990346,1757.484076785011,None,1757.484076785011,None,1757.484076785011,None,,,,,,,,,,,,,,,,,,,,,,,,,,,,,,,,,,,,,,,,,,,,,,,,,,,,100719_p2,001,2019_Oct_07_1618,body_behavioural,3.2.1,59.98760295417143,
5,parcelated_audio/31/31_32.ogg,,0,5,5,5,,,,,0,31,31,31,,,,,,,,,,,,,,,,,,,,,,,,,,,,,,,,,,,,,,,,,,,,,,,,,,,,,,,,,,,,,,,,,9,0.5111111299775075,1768.05152691502,None,1768.05152691502,None,1768.05152691502,None,,,,,,,,,,,,,,,,,,,,,,,,,,,,,,,,,,,,,,,,,,,,,,,,,,,,100719_p2,001,2019_Oct_07_1618,body_behavioural,3.2.1,59.98760295417143,
5,parcelated_audio/31/31_33.ogg,,0,5,5,5,,,,,0,32,32,32,,,,,,,,,,,,,,,,,,,,,,,,,,,,,,,,,,,,,,,,,,,,,,,,,,,,,,,,,,,,,,,,,1,0.35193671501474455,1777.0695142869954,None,1777.0695142869954,None,1777.0695142869954,None,,,,,,,,,,,,,,,,,,,,,,,,,,,,,,,,,,,,,,,,,,,,,,,,,,,,100719_p2,001,2019_Oct_07_1618,body_behavioural,3.2.1,59.98760295417143,
5,parcelated_audio/31/31_34.ogg,,0,5,5,5,,,,,0,33,33,33,,,,,,,,,,,,,,,,,,,,,,,,,,,,,,,,,,,,,,,,,,,,,,,,,,,,,,,,,,,,,,,,,1,0.344859449978685,1781.9357480920153,None,1781.9357480920153,None,1781.9357480920153,None,,,,,,,,,,,,,,,,,,,,,,,,,,,,,,,,,,,,,,,,,,,,,,,,,,,,100719_p2,001,2019_Oct_07_1618,body_behavioural,3.2.1,59.98760295417143,
5,parcelated_audio/31/31_35.ogg,,0,5,5,5,,,,,0,34,34,34,,,,,,,,,,,,,,,,,,,,,,,,,,,,,,,,,,,,,,,,,,,,,,,,,,,,,,,,,,,,,,,,,1,0.28868530501495115,1788.1865880020196,None,1788.1865880020196,None,1788.1865880020196,None,,,,,,,,,,,,,,,,,,,,,,,,,,,,,,,,,,,,,,,,,,,,,,,,,,,,100719_p2,001,2019_Oct_07_1618,body_behavioural,3.2.1,59.98760295417143,
5,parcelated_audio/31/31_36.ogg,,0,5,5,5,,,,,0,35,35,35,,,,,,,,,,,,,,,,,,,,,,,,,,,,,,,,,,,,,,,,,,,,,,,,,,,,,,,,,,,,,,,,,1,0.3125467369973194,1794.9205596300017,None,1794.9205596300017,None,1794.9205596300017,None,,,,,,,,,,,,,,,,,,,,,,,,,,,,,,,,,,,,,,,,,,,,,,,,,,,,100719_p2,001,2019_Oct_07_1618,body_behavioural,3.2.1,59.98760295417143,
5,,,0,5,5,5,,,,,,,,,,,,,,,,,,,,,,,,,,,,,,,,,,,,,,,,,,,,,,,,,,,,,,,,,,,,,,,,,,,,,,,,,,,,,,,,,1795.2541988400044,None,1795.2541988400044,None,space,1.1737725379935,1795.2541988400044,None,,,,,,,,,,,,,,,,,,,,,,,,,,,,,,,,,,,,,,,,,,,,100719_p2,001,2019_Oct_07_1618,body_behavioural,3.2.1,59.98760295417143,
6,,,0,6,6,6,0,0,0,0,,,,,,,,,,,,,,,,,1796.471344760008,None,space,0.45959112502168864,1796.471344760008,None,1796.471344760008,None,1796.9534622600186,None,space,0.717576105002081,1796.9534622600186,None,1797.771992822003,None,1797.771992822003,None,1797.771992822003,None,1799.9709965120128,None,space,0.4777081669890322,1799.9709965120128,None,1800.7720612949925,None,1800.7720612949925,None,1800.7720612949925,None,1800.7720612949925,None,1800.7720612949925,None,1800.7720612949925,None,1800.7720612949925,None,,,,,,,,,,,,,,,,,,,,,,,,,,,,,,,,,,,,,,,,,,,,,,,,,,,,,,,,,,,,,,,,,,,,,,,,100719_p2,001,2019_Oct_07_1618,body_behavioural,3.2.1,59.98760295417143,
6,parcelated_audio/43/43_1.ogg,,0,6,6,6,,,,,0,0,0,0,,,,,,,,,,,,,,,,,,,,,,,,,,,1821.1051321900159,None,1821.1051321900159,None,1821.1051321900159,None,,,,,,,,,,,,,,,,,,,,,1819.8223999520123,None,space,1.2082047770090867,1819.8223999520123,None,1822.0051789050049,None,space,0.7239166669896804,1822.0051789050049,None,9,0.283062289992813,1830.4556328100152,None,1830.4556328100152,None,1830.4556328100152,None,,,,,,,,,,,,,,,,,,,,,,,,,,,,,,,,,,,,,,,,,,,,,,,,,,,,100719_p2,001,2019_Oct_07_1618,body_behavioural,3.2.1,59.98760295417143,
6,parcelated_audio/43/43_2.ogg,,0,6,6,6,,,,,0,1,1,1,,,,,,,,,,,,,,,,,,,,,,,,,,,,,,,,,,,,,,,,,,,,,,,,,,,,,,,,,,,,,,,,,1,0.2596450239943806,1834.6565032709914,None,1834.6565032709914,None,1834.6565032709914,None,,,,,,,,,,,,,,,,,,,,,,,,,,,,,,,,,,,,,,,,,,,,,,,,,,,,100719_p2,001,2019_Oct_07_1618,body_behavioural,3.2.1,59.98760295417143,
6,parcelated_audio/43/43_3.ogg,,0,6,6,6,,,,,0,2,2,2,,,,,,,,,,,,,,,,,,,,,,,,,,,,,,,,,,,,,,,,,,,,,,,,,,,,,,,,,,,,,,,,,1,0.6414172980003059,1843.9402290820144,None,1843.9402290820144,None,1843.9402290820144,None,,,,,,,,,,,,,,,,,,,,,,,,,,,,,,,,,,,,,,,,,,,,,,,,,,,,100719_p2,001,2019_Oct_07_1618,body_behavioural,3.2.1,59.98760295417143,
6,parcelated_audio/43/43_4.ogg,,0,6,6,6,,,,,0,3,3,3,,,,,,,,,,,,,,,,,,,,,,,,,,,,,,,,,,,,,,,,,,,,,,,,,,,,,,,,,,,,,,,,,1,0.2782295049983077,1853.2074384849984,None,1853.2074384849984,None,1853.2074384849984,None,,,,,,,,,,,,,,,,,,,,,,,,,,,,,,,,,,,,,,,,,,,,,,,,,,,,100719_p2,001,2019_Oct_07_1618,body_behavioural,3.2.1,59.98760295417143,
6,parcelated_audio/43/43_5.ogg,,0,6,6,6,,,,,0,4,4,4,,,,,,,,,,,,,,,,,,,,,,,,,,,,,,,,,,,,,,,,,,,,,,,,,,,,,,,,,,,,,,,,,1,1.6558047620055731,1862.891338520014,None,1862.891338520014,None,1862.891338520014,None,,,,,,,,,,,,,,,,,,,,,,,,,,,,,,,,,,,,,,,,,,,,,,,,,,,,100719_p2,001,2019_Oct_07_1618,body_behavioural,3.2.1,59.98760295417143,
6,parcelated_audio/43/43_6.ogg,,0,6,6,6,,,,,0,5,5,5,,,,,,,,,,,,,,,,,,,,,,,,,,,,,,,,,,,,,,,,,,,,,,,,,,,,,,,,,,,,,,,,,9,0.6528933100053109,1873.842108707002,None,1873.842108707002,None,1873.842108707002,None,,,,,,,,,,,,,,,,,,,,,,,,,,,,,,,,,,,,,,,,,,,,,,,,,,,,100719_p2,001,2019_Oct_07_1618,body_behavioural,3.2.1,59.98760295417143,
6,parcelated_audio/43/43_7.ogg,,0,6,6,6,,,,,0,6,6,6,,,,,,,,,,,,,,,,,,,,,,,,,,,,,,,,,,,,,,,,,,,,,,,,,,,,,,,,,,,,,,,,,1,0.773336943006143,1879.392535855004,None,1879.392535855004,None,1879.392535855004,None,,,,,,,,,,,,,,,,,,,,,,,,,,,,,,,,,,,,,,,,,,,,,,,,,,,,100719_p2,001,2019_Oct_07_1618,body_behavioural,3.2.1,59.98760295417143,
6,parcelated_audio/43/43_8.ogg,,0,6,6,6,,,,,0,7,7,7,,,,,,,,,,,,,,,,,,,,,,,,,,,,,,,,,,,,,,,,,,,,,,,,,,,,,,,,,,,,,,,,,1,0.3629560870176647,1886.8929669600038,None,1886.8929669600038,None,1886.8929669600038,None,,,,,,,,,,,,,,,,,,,,,,,,,,,,,,,,,,,,,,,,,,,,,,,,,,,,100719_p2,001,2019_Oct_07_1618,body_behavioural,3.2.1,59.98760295417143,
6,parcelated_audio/43/43_9.ogg,,0,6,6,6,,,,,0,8,8,8,,,,,,,,,,,,,,,,,,,,,,,,,,,,,,,,,,,,,,,,,,,,,,,,,,,,,,,,,,,,,,,,,1,2.369721160008339,1891.9099986650108,None,1891.9099986650108,None,1891.9099986650108,None,,,,,,,,,,,,,,,,,,,,,,,,,,,,,,,,,,,,,,,,,,,,,,,,,,,,100719_p2,001,2019_Oct_07_1618,body_behavioural,3.2.1,59.98760295417143,
6,parcelated_audio/43/43_10.ogg,,0,6,6,6,,,,,0,9,9,9,,,,,,,,,,,,,,,,,,,,,,,,,,,,,,,,,,,,,,,,,,,,,,,,,,,,,,,,,,,,,,,,,1,1.7179503880033735,1899.310511920019,None,1899.310511920019,None,1899.310511920019,None,,,,,,,,,,,,,,,,,,,,,,,,,,,,,,,,,,,,,,,,,,,,,,,,,,,,100719_p2,001,2019_Oct_07_1618,body_behavioural,3.2.1,59.98760295417143,
6,parcelated_audio/43/43_11.ogg,,0,6,6,6,,,,,0,10,10,10,,,,,,,,,,,,,,,,,,,,,,,,,,,,,,,,,,,,,,,,,,,,,,,,,,,,,,,,,,,,,,,,,1,0.8836354130180553,1912.2287141199922,None,1912.2287141199922,None,1912.2287141199922,None,,,,,,,,,,,,,,,,,,,,,,,,,,,,,,,,,,,,,,,,,,,,,,,,,,,,100719_p2,001,2019_Oct_07_1618,body_behavioural,3.2.1,59.98760295417143,
6,parcelated_audio/43/43_12.ogg,,0,6,6,6,,,,,0,11,11,11,,,,,,,,,,,,,,,,,,,,,,,,,,,,,,,,,,,,,,,,,,,,,,,,,,,,,,,,,,,,,,,,,9,0.362124715000391,1919.3790427450149,None,1919.3790427450149,None,1919.3790427450149,None,,,,,,,,,,,,,,,,,,,,,,,,,,,,,,,,,,,,,,,,,,,,,,,,,,,,100719_p2,001,2019_Oct_07_1618,body_behavioural,3.2.1,59.98760295417143,
6,parcelated_audio/43/43_13.ogg,,0,6,6,6,,,,,0,12,12,12,,,,,,,,,,,,,,,,,,,,,,,,,,,,,,,,,,,,,,,,,,,,,,,,,,,,,,,,,,,,,,,,,1,0.2759507299924735,1928.1296006070042,None,1928.1296006070042,None,1928.1296006070042,None,,,,,,,,,,,,,,,,,,,,,,,,,,,,,,,,,,,,,,,,,,,,,,,,,,,,100719_p2,001,2019_Oct_07_1618,body_behavioural,3.2.1,59.98760295417143,
6,parcelated_audio/43/43_14.ogg,,0,6,6,6,,,,,0,13,13,13,,,,,,,,,,,,,,,,,,,,,,,,,,,,,,,,,,,,,,,,,,,,,,,,,,,,,,,,,,,,,,,,,1,0.3877141269913409,1937.080013060011,None,1937.080013060011,None,1937.080013060011,None,,,,,,,,,,,,,,,,,,,,,,,,,,,,,,,,,,,,,,,,,,,,,,,,,,,,100719_p2,001,2019_Oct_07_1618,body_behavioural,3.2.1,59.98760295417143,
6,parcelated_audio/43/43_15.ogg,,0,6,6,6,,,,,0,14,14,14,,,,,,,,,,,,,,,,,,,,,,,,,,,,,,,,,,,,,,,,,,,,,,,,,,,,,,,,,,,,,,,,,1,0.3465554550057277,1941.9634302100167,None,1941.9634302100167,None,1941.9634302100167,None,,,,,,,,,,,,,,,,,,,,,,,,,,,,,,,,,,,,,,,,,,,,,,,,,,,,100719_p2,001,2019_Oct_07_1618,body_behavioural,3.2.1,59.98760295417143,
6,parcelated_audio/43/43_16.ogg,,0,6,6,6,,,,,0,15,15,15,,,,,,,,,,,,,,,,,,,,,,,,,,,,,,,,,,,,,,,,,,,,,,,,,,,,,,,,,,,,,,,,,1,0.3061178849893622,1946.980661300011,None,1946.980661300011,None,1946.980661300011,None,,,,,,,,,,,,,,,,,,,,,,,,,,,,,,,,,,,,,,,,,,,,,,,,,,,,100719_p2,001,2019_Oct_07_1618,body_behavioural,3.2.1,59.98760295417143,
6,parcelated_audio/43/43_17.ogg,,0,6,6,6,,,,,0,16,16,16,,,,,,,,,,,,,,,,,,,,,,,,,,,,,,,,,,,,,,,,,,,,,,,,,,,,,,,,,,,,,,,,,1,1.1217226549924817,1951.1974192270136,None,1951.1974192270136,None,1951.1974192270136,None,,,,,,,,,,,,,,,,,,,,,,,,,,,,,,,,,,,,,,,,,,,,,,,,,,,,100719_p2,001,2019_Oct_07_1618,body_behavioural,3.2.1,59.98760295417143,
6,parcelated_audio/43/43_18.ogg,,0,6,6,6,,,,,0,17,17,17,,,,,,,,,,,,,,,,,,,,,,,,,,,,,,,,,,,,,,,,,,,,,,,,,,,,,,,,,,,,,,,,,1,0.27600865499698557,1954.6823453099933,None,1954.6823453099933,None,1954.6823453099933,None,,,,,,,,,,,,,,,,,,,,,,,,,,,,,,,,,,,,,,,,,,,,,,,,,,,,100719_p2,001,2019_Oct_07_1618,body_behavioural,3.2.1,59.98760295417143,
6,parcelated_audio/43/43_19.ogg,,0,6,6,6,,,,,0,18,18,18,,,,,,,,,,,,,,,,,,,,,,,,,,,,,,,,,,,,,,,,,,,,,,,,,,,,,,,,,,,,,,,,,9,0.3303636120108422,1958.7314855250006,None,1958.7314855250006,None,1958.7314855250006,None,,,,,,,,,,,,,,,,,,,,,,,,,,,,,,,,,,,,,,,,,,,,,,,,,,,,100719_p2,001,2019_Oct_07_1618,body_behavioural,3.2.1,59.98760295417143,
6,parcelated_audio/43/43_20.ogg,,0,6,6,6,,,,,0,19,19,19,,,,,,,,,,,,,,,,,,,,,,,,,,,,,,,,,,,,,,,,,,,,,,,,,,,,,,,,,,,,,,,,,1,0.5702887729858048,1966.3819766899978,None,1966.3819766899978,None,1966.3819766899978,None,,,,,,,,,,,,,,,,,,,,,,,,,,,,,,,,,,,,,,,,,,,,,,,,,,,,100719_p2,001,2019_Oct_07_1618,body_behavioural,3.2.1,59.98760295417143,
6,parcelated_audio/43/43_21.ogg,,0,6,6,6,,,,,0,20,20,20,,,,,,,,,,,,,,,,,,,,,,,,,,,,,,,,,,,,,,,,,,,,,,,,,,,,,,,,,,,,,,,,,1,0.37153781301458366,1969.5829199349973,None,1969.5829199349973,None,1969.5829199349973,None,,,,,,,,,,,,,,,,,,,,,,,,,,,,,,,,,,,,,,,,,,,,,,,,,,,,100719_p2,001,2019_Oct_07_1618,body_behavioural,3.2.1,59.98760295417143,
6,parcelated_audio/43/43_22.ogg,,0,6,6,6,,,,,0,21,21,21,,,,,,,,,,,,,,,,,,,,,,,,,,,,,,,,,,,,,,,,,,,,,,,,,,,,,,,,,,,,,,,,,1,0.25094991500373,1973.4661685000174,None,1973.4661685000174,None,1973.4661685000174,None,,,,,,,,,,,,,,,,,,,,,,,,,,,,,,,,,,,,,,,,,,,,,,,,,,,,100719_p2,001,2019_Oct_07_1618,body_behavioural,3.2.1,59.98760295417143,
6,parcelated_audio/43/43_23.ogg,,0,6,6,6,,,,,0,22,22,22,,,,,,,,,,,,,,,,,,,,,,,,,,,,,,,,,,,,,,,,,,,,,,,,,,,,,,,,,,,,,,,,,1,0.32295617199270055,1979.9180892700097,None,1979.9180892700097,None,1979.9180892700097,None,,,,,,,,,,,,,,,,,,,,,,,,,,,,,,,,,,,,,,,,,,,,,,,,,,,,100719_p2,001,2019_Oct_07_1618,body_behavioural,3.2.1,59.98760295417143,
6,parcelated_audio/43/43_24.ogg,,0,6,6,6,,,,,0,23,23,23,,,,,,,,,,,,,,,,,,,,,,,,,,,,,,,,,,,,,,,,,,,,,,,,,,,,,,,,,,,,,,,,,1,0.32249684300040826,1986.7005662099982,None,1986.7005662099982,None,1986.7005662099982,None,,,,,,,,,,,,,,,,,,,,,,,,,,,,,,,,,,,,,,,,,,,,,,,,,,,,100719_p2,001,2019_Oct_07_1618,body_behavioural,3.2.1,59.98760295417143,
6,parcelated_audio/43/43_25.ogg,,0,6,6,6,,,,,0,24,24,24,,,,,,,,,,,,,,,,,,,,,,,,,,,,,,,,,,,,,,,,,,,,,,,,,,,,,,,,,,,,,,,,,1,0.12709933999576606,1992.2011919050128,None,1992.2011919050128,None,1992.2011919050128,None,,,,,,,,,,,,,,,,,,,,,,,,,,,,,,,,,,,,,,,,,,,,,,,,,,,,100719_p2,001,2019_Oct_07_1618,body_behavioural,3.2.1,59.98760295417143,
6,parcelated_audio/43/43_26.ogg,,0,6,6,6,,,,,0,25,25,25,,,,,,,,,,,,,,,,,,,,,,,,,,,,,,,,,,,,,,,,,,,,,,,,,,,,,,,,,,,,,,,,,9,0.3368963150132913,2001.0682922550186,None,2001.0682922550186,None,2001.0682922550186,None,,,,,,,,,,,,,,,,,,,,,,,,,,,,,,,,,,,,,,,,,,,,,,,,,,,,100719_p2,001,2019_Oct_07_1618,body_behavioural,3.2.1,59.98760295417143,
6,parcelated_audio/43/43_27.ogg,,0,6,6,6,,,,,0,26,26,26,,,,,,,,,,,,,,,,,,,,,,,,,,,,,,,,,,,,,,,,,,,,,,,,,,,,,,,,,,,,,,,,,1,0.32266329499543644,2005.9512269720144,None,2005.9512269720144,None,2005.9512269720144,None,,,,,,,,,,,,,,,,,,,,,,,,,,,,,,,,,,,,,,,,,,,,,,,,,,,,100719_p2,001,2019_Oct_07_1618,body_behavioural,3.2.1,59.98760295417143,
6,parcelated_audio/43/43_28.ogg,,0,6,6,6,,,,,0,27,27,27,,,,,,,,,,,,,,,,,,,,,,,,,,,,,,,,,,,,,,,,,,,,,,,,,,,,,,,,,,,,,,,,,1,0.989371127972845,2011.4194729349983,None,2011.4194729349983,None,2011.4194729349983,None,,,,,,,,,,,,,,,,,,,,,,,,,,,,,,,,,,,,,,,,,,,,,,,,,,,,100719_p2,001,2019_Oct_07_1618,body_behavioural,3.2.1,59.98760295417143,
6,parcelated_audio/43/43_29.ogg,,0,6,6,6,,,,,0,28,28,28,,,,,,,,,,,,,,,,,,,,,,,,,,,,,,,,,,,,,,,,,,,,,,,,,,,,,,,,,,,,,,,,,1,0.4179440650041215,2018.702832742012,None,2018.702832742012,None,2018.702832742012,None,,,,,,,,,,,,,,,,,,,,,,,,,,,,,,,,,,,,,,,,,,,,,,,,,,,,100719_p2,001,2019_Oct_07_1618,body_behavioural,3.2.1,59.98760295417143,
6,,,0,6,6,6,,,,,,,,,,,,,,,,,,,,,,,,,,,,,,,,,,,,,,,,,,,,,,,,,,,,,,,,,,,,,,,,,,,,,,,,,,,,,,,,,2019.1520897920127,None,2019.1520897920127,None,space,1.2408189580019098,2019.1520897920127,None,,,,,,,,,,,,,,,,,,,,,,,,,,,,,,,,,,,,,,,,,,,,100719_p2,001,2019_Oct_07_1618,body_behavioural,3.2.1,59.98760295417143,
7,,,0,7,7,7,0,0,0,0,,,,,,,,,,,,,,,,,2020.4527841419913,None,space,0.40609885498997755,2020.4527841419913,None,2020.4527841419913,None,2020.8856092650094,None,space,0.43738868201035075,2020.8856092650094,None,2021.4200420200068,None,2021.4200420200068,None,2021.4200420200068,None,2022.4206527800125,None,space,1.116056012979243,2022.4206527800125,None,2023.820658970013,None,2023.820658970013,None,2023.820658970013,None,2023.820658970013,None,2023.820658970013,None,2023.820658970013,None,2023.820658970013,None,,,,,,,,,,,,,,,,,,,,,,,,,,,,,,,,,,,,,,,,,,,,,,,,,,,,,,,,,,,,,,,,,,,,,,,,100719_p2,001,2019_Oct_07_1618,body_behavioural,3.2.1,59.98760295417143,
7,parcelated_audio/21/21_1.ogg,,0,7,7,7,,,,,0,0,0,0,,,,,,,,,,,,,,,,,,,,,,,,,,,2041.053679442004,None,2041.053679442004,None,2041.053679442004,None,,,,,,,,,,,,,,,,,,,,,2040.3869170450198,None,space,0.5922196470201015,2040.3869170450198,None,2041.5544517720118,None,space,0.4713731480005663,2041.5544517720118,None,9,0.3563879400026053,2056.4720118370024,None,2056.4720118370024,None,2056.4720118370024,None,,,,,,,,,,,,,,,,,,,,,,,,,,,,,,,,,,,,,,,,,,,,,,,,,,,,100719_p2,001,2019_Oct_07_1618,body_behavioural,3.2.1,59.98760295417143,
7,parcelated_audio/21/21_2.ogg,,0,7,7,7,,,,,0,1,1,1,,,,,,,,,,,,,,,,,,,,,,,,,,,,,,,,,,,,,,,,,,,,,,,,,,,,,,,,,,,,,,,,,1,0.2739042050088756,2064.4052157550177,None,2064.4052157550177,None,2064.4052157550177,None,,,,,,,,,,,,,,,,,,,,,,,,,,,,,,,,,,,,,,,,,,,,,,,,,,,,100719_p2,001,2019_Oct_07_1618,body_behavioural,3.2.1,59.98760295417143,
7,parcelated_audio/21/21_3.ogg,,0,7,7,7,,,,,0,2,2,2,,,,,,,,,,,,,,,,,,,,,,,,,,,,,,,,,,,,,,,,,,,,,,,,,,,,,,,,,,,,,,,,,1,1.377503692987375,2072.5065894100117,None,2072.5065894100117,None,2072.5065894100117,None,,,,,,,,,,,,,,,,,,,,,,,,,,,,,,,,,,,,,,,,,,,,,,,,,,,,100719_p2,001,2019_Oct_07_1618,body_behavioural,3.2.1,59.98760295417143,
7,parcelated_audio/21/21_4.ogg,,0,7,7,7,,,,,0,3,3,3,,,,,,,,,,,,,,,,,,,,,,,,,,,,,,,,,,,,,,,,,,,,,,,,,,,,,,,,,,,,,,,,,1,0.26396176498383284,2085.0743994170043,None,2085.0743994170043,None,2085.0743994170043,None,,,,,,,,,,,,,,,,,,,,,,,,,,,,,,,,,,,,,,,,,,,,,,,,,,,,100719_p2,001,2019_Oct_07_1618,body_behavioural,3.2.1,59.98760295417143,
7,parcelated_audio/21/21_5.ogg,,0,7,7,7,,,,,0,4,4,4,,,,,,,,,,,,,,,,,,,,,,,,,,,,,,,,,,,,,,,,,,,,,,,,,,,,,,,,,,,,,,,,,1,0.2804540549986996,2090.523894550017,None,2090.523894550017,None,2090.523894550017,None,,,,,,,,,,,,,,,,,,,,,,,,,,,,,,,,,,,,,,,,,,,,,,,,,,,,100719_p2,001,2019_Oct_07_1618,body_behavioural,3.2.1,59.98760295417143,
7,parcelated_audio/21/21_6.ogg,,0,7,7,7,,,,,0,5,5,5,,,,,,,,,,,,,,,,,,,,,,,,,,,,,,,,,,,,,,,,,,,,,,,,,,,,,,,,,,,,,,,,,1,3.455159171979176,2099.092276940006,None,2099.092276940006,None,2099.092276940006,None,,,,,,,,,,,,,,,,,,,,,,,,,,,,,,,,,,,,,,,,,,,,,,,,,,,,100719_p2,001,2019_Oct_07_1618,body_behavioural,3.2.1,59.98760295417143,
7,parcelated_audio/21/21_7.ogg,,0,7,7,7,,,,,0,6,6,6,,,,,,,,,,,,,,,,,,,,,,,,,,,,,,,,,,,,,,,,,,,,,,,,,,,,,,,,,,,,,,,,,9,0.731508417025907,2107.208251580014,None,2107.208251580014,None,2107.208251580014,None,,,,,,,,,,,,,,,,,,,,,,,,,,,,,,,,,,,,,,,,,,,,,,,,,,,,100719_p2,001,2019_Oct_07_1618,body_behavioural,3.2.1,59.98760295417143,
7,parcelated_audio/21/21_8.ogg,,0,7,7,7,,,,,0,7,7,7,,,,,,,,,,,,,,,,,,,,,,,,,,,,,,,,,,,,,,,,,,,,,,,,,,,,,,,,,,,,,,,,,1,0.3614724699873477,2118.9763876520155,None,2118.9763876520155,None,2118.9763876520155,None,,,,,,,,,,,,,,,,,,,,,,,,,,,,,,,,,,,,,,,,,,,,,,,,,,,,100719_p2,001,2019_Oct_07_1618,body_behavioural,3.2.1,59.98760295417143,
7,parcelated_audio/21/21_9.ogg,,0,7,7,7,,,,,0,8,8,8,,,,,,,,,,,,,,,,,,,,,,,,,,,,,,,,,,,,,,,,,,,,,,,,,,,,,,,,,,,,,,,,,1,0.5514958410058171,2126.87609665902,None,2126.87609665902,None,2126.87609665902,None,,,,,,,,,,,,,,,,,,,,,,,,,,,,,,,,,,,,,,,,,,,,,,,,,,,,100719_p2,001,2019_Oct_07_1618,body_behavioural,3.2.1,59.98760295417143,
7,parcelated_audio/21/21_10.ogg,,0,7,7,7,,,,,0,9,9,9,,,,,,,,,,,,,,,,,,,,,,,,,,,,,,,,,,,,,,,,,,,,,,,,,,,,,,,,,,,,,,,,,1,0.43571965998853557,2134.410223826999,None,2134.410223826999,None,2134.410223826999,None,,,,,,,,,,,,,,,,,,,,,,,,,,,,,,,,,,,,,,,,,,,,,,,,,,,,100719_p2,001,2019_Oct_07_1618,body_behavioural,3.2.1,59.98760295417143,
7,parcelated_audio/21/21_11.ogg,,0,7,7,7,,,,,0,10,10,10,,,,,,,,,,,,,,,,,,,,,,,,,,,,,,,,,,,,,,,,,,,,,,,,,,,,,,,,,,,,,,,,,9,1.5926519869826734,2142.0778158869944,None,2142.0778158869944,None,2142.0778158869944,None,,,,,,,,,,,,,,,,,,,,,,,,,,,,,,,,,,,,,,,,,,,,,,,,,,,,100719_p2,001,2019_Oct_07_1618,body_behavioural,3.2.1,59.98760295417143,
7,parcelated_audio/21/21_12.ogg,,0,7,7,7,,,,,0,11,11,11,,,,,,,,,,,,,,,,,,,,,,,,,,,,,,,,,,,,,,,,,,,,,,,,,,,,,,,,,,,,,,,,,1,0.7964959550008643,2152.1113835819997,None,2152.1113835819997,None,2152.1113835819997,None,,,,,,,,,,,,,,,,,,,,,,,,,,,,,,,,,,,,,,,,,,,,,,,,,,,,100719_p2,001,2019_Oct_07_1618,body_behavioural,3.2.1,59.98760295417143,
7,parcelated_audio/21/21_13.ogg,,0,7,7,7,,,,,0,12,12,12,,,,,,,,,,,,,,,,,,,,,,,,,,,,,,,,,,,,,,,,,,,,,,,,,,,,,,,,,,,,,,,,,1,0.35874623799463734,2156.3624855350063,None,2156.3624855350063,None,2156.3624855350063,None,,,,,,,,,,,,,,,,,,,,,,,,,,,,,,,,,,,,,,,,,,,,,,,,,,,,100719_p2,001,2019_Oct_07_1618,body_behavioural,3.2.1,59.98760295417143,
7,parcelated_audio/21/21_14.ogg,,0,7,7,7,,,,,0,13,13,13,,,,,,,,,,,,,,,,,,,,,,,,,,,,,,,,,,,,,,,,,,,,,,,,,,,,,,,,,,,,,,,,,1,1.8579023579950444,2162.295389352017,None,2162.295389352017,None,2162.295389352017,None,,,,,,,,,,,,,,,,,,,,,,,,,,,,,,,,,,,,,,,,,,,,,,,,,,,,100719_p2,001,2019_Oct_07_1618,body_behavioural,3.2.1,59.98760295417143,
7,parcelated_audio/21/21_15.ogg,,0,7,7,7,,,,,0,14,14,14,,,,,,,,,,,,,,,,,,,,,,,,,,,,,,,,,,,,,,,,,,,,,,,,,,,,,,,,,,,,,,,,,1,0.8037770399823785,2171.1126226600027,None,2171.1126226600027,None,2171.1126226600027,None,,,,,,,,,,,,,,,,,,,,,,,,,,,,,,,,,,,,,,,,,,,,,,,,,,,,100719_p2,001,2019_Oct_07_1618,body_behavioural,3.2.1,59.98760295417143,
7,parcelated_audio/21/21_16.ogg,,0,7,7,7,,,,,0,15,15,15,,,,,,,,,,,,,,,,,,,,,,,,,,,,,,,,,,,,,,,,,,,,,,,,,,,,,,,,,,,,,,,,,1,0.843582770001376,2178.11388901202,None,2178.11388901202,None,2178.11388901202,None,,,,,,,,,,,,,,,,,,,,,,,,,,,,,,,,,,,,,,,,,,,,,,,,,,,,100719_p2,001,2019_Oct_07_1618,body_behavioural,3.2.1,59.98760295417143,
7,parcelated_audio/21/21_17.ogg,,0,7,7,7,,,,,0,16,16,16,,,,,,,,,,,,,,,,,,,,,,,,,,,,,,,,,,,,,,,,,,,,,,,,,,,,,,,,,,,,,,,,,1,0.37811998499091715,2181.2466137150186,None,2181.2466137150186,None,2181.2466137150186,None,,,,,,,,,,,,,,,,,,,,,,,,,,,,,,,,,,,,,,,,,,,,,,,,,,,,100719_p2,001,2019_Oct_07_1618,body_behavioural,3.2.1,59.98760295417143,
7,parcelated_audio/21/21_18.ogg,,0,7,7,7,,,,,0,17,17,17,,,,,,,,,,,,,,,,,,,,,,,,,,,,,,,,,,,,,,,,,,,,,,,,,,,,,,,,,,,,,,,,,9,0.565984995017061,2194.914222602005,None,2194.914222602005,None,2194.914222602005,None,,,,,,,,,,,,,,,,,,,,,,,,,,,,,,,,,,,,,,,,,,,,,,,,,,,,100719_p2,001,2019_Oct_07_1618,body_behavioural,3.2.1,59.98760295417143,
7,parcelated_audio/21/21_19.ogg,,0,7,7,7,,,,,0,18,18,18,,,,,,,,,,,,,,,,,,,,,,,,,,,,,,,,,,,,,,,,,,,,,,,,,,,,,,,,,,,,,,,,,1,2.4179780499835033,2198.4978043320007,None,2198.4978043320007,None,2198.4978043320007,None,,,,,,,,,,,,,,,,,,,,,,,,,,,,,,,,,,,,,,,,,,,,,,,,,,,,100719_p2,001,2019_Oct_07_1618,body_behavioural,3.2.1,59.98760295417143,
7,parcelated_audio/21/21_20.ogg,,0,7,7,7,,,,,0,19,19,19,,,,,,,,,,,,,,,,,,,,,,,,,,,,,,,,,,,,,,,,,,,,,,,,,,,,,,,,,,,,,,,,,1,0.9305428469961043,2209.7986573119997,None,2209.7986573119997,None,2209.7986573119997,None,,,,,,,,,,,,,,,,,,,,,,,,,,,,,,,,,,,,,,,,,,,,,,,,,,,,100719_p2,001,2019_Oct_07_1618,body_behavioural,3.2.1,59.98760295417143,
7,parcelated_audio/21/21_21.ogg,,0,7,7,7,,,,,0,20,20,20,,,,,,,,,,,,,,,,,,,,,,,,,,,,,,,,,,,,,,,,,,,,,,,,,,,,,,,,,,,,,,,,,1,1.6876093749888241,2221.8994363220118,None,2221.8994363220118,None,2221.8994363220118,None,,,,,,,,,,,,,,,,,,,,,,,,,,,,,,,,,,,,,,,,,,,,,,,,,,,,100719_p2,001,2019_Oct_07_1618,body_behavioural,3.2.1,59.98760295417143,
7,parcelated_audio/21/21_22.ogg,,0,7,7,7,,,,,0,21,21,21,,,,,,,,,,,,,,,,,,,,,,,,,,,,,,,,,,,,,,,,,,,,,,,,,,,,,,,,,,,,,,,,,9,4.667241212999215,2234.6175115219958,None,2234.6175115219958,None,2234.6175115219958,None,,,,,,,,,,,,,,,,,,,,,,,,,,,,,,,,,,,,,,,,,,,,,,,,,,,,100719_p2,001,2019_Oct_07_1618,body_behavioural,3.2.1,59.98760295417143,
7,parcelated_audio/21/21_23.ogg,,0,7,7,7,,,,,0,22,22,22,,,,,,,,,,,,,,,,,,,,,,,,,,,,,,,,,,,,,,,,,,,,,,,,,,,,,,,,,,,,,,,,,1,0.37385462000383995,2244.384322215017,None,2244.384322215017,None,2244.384322215017,None,,,,,,,,,,,,,,,,,,,,,,,,,,,,,,,,,,,,,,,,,,,,,,,,,,,,100719_p2,001,2019_Oct_07_1618,body_behavioural,3.2.1,59.98760295417143,
7,parcelated_audio/21/21_24.ogg,,0,7,7,7,,,,,0,23,23,23,,,,,,,,,,,,,,,,,,,,,,,,,,,,,,,,,,,,,,,,,,,,,,,,,,,,,,,,,,,,,,,,,1,0.36099052999634296,2249.4847314550134,None,2249.4847314550134,None,2249.4847314550134,None,,,,,,,,,,,,,,,,,,,,,,,,,,,,,,,,,,,,,,,,,,,,,,,,,,,,100719_p2,001,2019_Oct_07_1618,body_behavioural,3.2.1,59.98760295417143,
7,parcelated_audio/21/21_25.ogg,,0,7,7,7,,,,,0,24,24,24,,,,,,,,,,,,,,,,,,,,,,,,,,,,,,,,,,,,,,,,,,,,,,,,,,,,,,,,,,,,,,,,,1,0.3093785099918023,2259.4192886200035,None,2259.4192886200035,None,2259.4192886200035,None,,,,,,,,,,,,,,,,,,,,,,,,,,,,,,,,,,,,,,,,,,,,,,,,,,,,100719_p2,001,2019_Oct_07_1618,body_behavioural,3.2.1,59.98760295417143,
7,parcelated_audio/21/21_26.ogg,,0,7,7,7,,,,,0,25,25,25,,,,,,,,,,,,,,,,,,,,,,,,,,,,,,,,,,,,,,,,,,,,,,,,,,,,,,,,,,,,,,,,,1,0.43840815001749434,2263.8711635319924,None,2263.8711635319924,None,2263.8711635319924,None,,,,,,,,,,,,,,,,,,,,,,,,,,,,,,,,,,,,,,,,,,,,,,,,,,,,100719_p2,001,2019_Oct_07_1618,body_behavioural,3.2.1,59.98760295417143,
7,parcelated_audio/21/21_27.ogg,,0,7,7,7,,,,,0,26,26,26,,,,,,,,,,,,,,,,,,,,,,,,,,,,,,,,,,,,,,,,,,,,,,,,,,,,,,,,,,,,,,,,,1,0.3559316520113498,2271.6528344450053,None,2271.6528344450053,None,2271.6528344450053,None,,,,,,,,,,,,,,,,,,,,,,,,,,,,,,,,,,,,,,,,,,,,,,,,,,,,100719_p2,001,2019_Oct_07_1618,body_behavioural,3.2.1,59.98760295417143,
7,parcelated_audio/21/21_28.ogg,,0,7,7,7,,,,,0,27,27,27,,,,,,,,,,,,,,,,,,,,,,,,,,,,,,,,,,,,,,,,,,,,,,,,,,,,,,,,,,,,,,,,,1,0.30737515300279483,2278.253326634993,None,2278.253326634993,None,2278.253326634993,None,,,,,,,,,,,,,,,,,,,,,,,,,,,,,,,,,,,,,,,,,,,,,,,,,,,,100719_p2,001,2019_Oct_07_1618,body_behavioural,3.2.1,59.98760295417143,
7,parcelated_audio/21/21_29.ogg,,0,7,7,7,,,,,0,28,28,28,,,,,,,,,,,,,,,,,,,,,,,,,,,,,,,,,,,,,,,,,,,,,,,,,,,,,,,,,,,,,,,,,9,0.3236687929893378,2282.9537856919924,None,2282.9537856919924,None,2282.9537856919924,None,,,,,,,,,,,,,,,,,,,,,,,,,,,,,,,,,,,,,,,,,,,,,,,,,,,,100719_p2,001,2019_Oct_07_1618,body_behavioural,3.2.1,59.98760295417143,
7,parcelated_audio/21/21_30.ogg,,0,7,7,7,,,,,0,29,29,29,,,,,,,,,,,,,,,,,,,,,,,,,,,,,,,,,,,,,,,,,,,,,,,,,,,,,,,,,,,,,,,,,1,0.28997397198691033,2288.671382780012,None,2288.671382780012,None,2288.671382780012,None,,,,,,,,,,,,,,,,,,,,,,,,,,,,,,,,,,,,,,,,,,,,,,,,,,,,100719_p2,001,2019_Oct_07_1618,body_behavioural,3.2.1,59.98760295417143,
7,,,0,7,7,7,,,,,,,,,,,,,,,,,,,,,,,,,,,,,,,,,,,,,,,,,,,,,,,,,,,,,,,,,,,,,,,,,,,,,,,,,,,,,,,,,2288.9896123319922,None,2288.9896123319922,None,space,0.977161624992732,2288.9896123319922,None,,,,,,,,,,,,,,,,,,,,,,,,,,,,,,,,,,,,,,,,,,,,100719_p2,001,2019_Oct_07_1618,body_behavioural,3.2.1,59.98760295417143,
,,,,,,,,,,,,,,,,,,,,,,,,,,,,,,,,,,,,,,,,,,,,,,,,,,,,,,,,,,,,,,,,,,,,,,,,,,,,,,,,,,,,,,,,,,,,,,,2277.3300638389774,2289.988340334996,None,space,0.6342392320220824,2289.988340334996,None,,,,,,,,,,,,,,,,,,,,,,,,,,,,,,,,,,,,,100719_p2,001,2019_Oct_07_1618,body_behavioural,3.2.1,59.98760295417143,
,,"In this next part of the experiment, please recall each story to the best of your ability.",,,,,,,,,,,,,0,0,0,0,,,,,,,,,,,,,,,,,,,,,,,,,,,,,,,,,,,,,,,,,,,,,,,,,,,,,,,,,,,,,,,,,,,,,,,,,,,,,,,,,,,,space,36.25562818799517,2291.137624294992,None,2291.137624294992,None,2291.137624294992,None,,,,,,,,,,,,,,,,,,,,,,,,,,,,,100719_p2,001,2019_Oct_07_1618,body_behavioural,3.2.1,59.98760295417143,
,,"You will be presented with the story title, names, the images, and a blank text box for each story.",,,,,,,,,,,,,0,1,1,1,,,,,,,,,,,,,,,,,,,,,,,,,,,,,,,,,,,,,,,,,,,,,,,,,,,,,,,,,,,,,,,,,,,,,,,,,,,,,,,,,,,,space,5.567682758002775,2327.474128061993,None,2327.474128061993,None,2327.474128061993,None,,,,,,,,,,,,,,,,,,,,,,,,,,,,,100719_p2,001,2019_Oct_07_1618,body_behavioural,3.2.1,59.98760295417143,
,,Describe the story indicated with as many details as you can remember in the space provided. ,,,,,,,,,,,,,0,2,2,2,,,,,,,,,,,,,,,,,,,,,,,,,,,,,,,,,,,,,,,,,,,,,,,,,,,,,,,,,,,,,,,,,,,,,,,,,,,,,,,,,,,,space,5.00192628899822,2333.1070699300035,None,2333.1070699300035,None,2333.1070699300035,None,,,,,,,,,,,,,,,,,,,,,,,,,,,,,100719_p2,001,2019_Oct_07_1618,body_behavioural,3.2.1,59.98760295417143,
,,"When you are finished recalling one story, to move onto the next one, press the ‘return’ key. ",,,,,,,,,,,,,0,3,3,3,,,,,,,,,,,,,,,,,,,,,,,,,,,,,,,,,,,,,,,,,,,,,,,,,,,,,,,,,,,,,,,,,,,,,,,,,,,,,,,,,,,,space,4.250434671994299,2338.174818169995,None,2338.174818169995,None,2338.174818169995,None,,,,,,,,,,,,,,,,,,,,,,,,,,,,,100719_p2,001,2019_Oct_07_1618,body_behavioural,3.2.1,59.98760295417143,
,,There is a 5 minute time limit to make your response. ,,,,,,,,,,,,,0,4,4,4,,,,,,,,,,,,,,,,,,,,,,,,,,,,,,,,,,,,,,,,,,,,,,,,,,,,,,,,,,,,,,,,,,,,,,,,,,,,,,,,,,,,space,2.1426527820003685,2342.4754371200106,None,2342.4754371200106,None,2342.4754371200106,None,,,,,,,,,,,,,,,,,,,,,,,,,,,,,100719_p2,001,2019_Oct_07_1618,body_behavioural,3.2.1,59.98760295417143,
,,Please note that you will not be able to capitalize any letters except for the first letter of your answer.,,,,,,,,,,,,,0,5,5,5,,,,,,,,,,,,,,,,,,,,,,,,,,,,,,,,,,,,,,,,,,,,,,,,,,,,,,,,,,,,,,,,,,,,,,,,,,,,,,,,,,,,space,4.785229811997851,2344.691341310012,None,2344.691341310012,None,2344.691341310012,None,,,,,,,,,,,,,,,,,,,,,,,,,,,,,100719_p2,001,2019_Oct_07_1618,body_behavioural,3.2.1,59.98760295417143,
