count,audio,instructText,trials.thisRepN,trials.thisTrialN,trials.thisN,trials.thisIndex,trials_7.thisRepN,trials_7.thisTrialN,trials_7.thisN,trials_7.thisIndex,trials_2.thisRepN,trials_2.thisTrialN,trials_2.thisN,trials_2.thisIndex,trials_3.thisRepN,trials_3.thisTrialN,trials_3.thisN,trials_3.thisIndex,trials_4.thisRepN,trials_4.thisTrialN,trials_4.thisN,trials_4.thisIndex,order of stories,order of perspectives,participant 2 order - stories,participant 2 order  - schemas types,text_38.started,text_38.stopped,key_resp_8.keys,key_resp_8.rt,key_resp_8.started,key_resp_8.stopped,text_39.started,text_39.stopped,text_33.started,text_33.stopped,key_resp_5.keys,key_resp_5.rt,key_resp_5.started,key_resp_5.stopped,text_4.started,text_4.stopped,image.started,image.stopped,text_5.started,text_5.stopped,text_37.started,text_37.stopped,key_resp_7.keys,key_resp_7.rt,key_resp_7.started,key_resp_7.stopped,question1_2.started,question1_2.stopped,question2_2.started,question2_2.stopped,question3_2.started,question3_2.stopped,question4_2.started,question4_2.stopped,question5_2.started,question5_2.stopped,question6_2.started,question6_2.stopped,image_15.started,image_15.stopped,text_49.started,text_49.stopped,key_resp_15.keys,key_resp_15.rt,key_resp_15.started,key_resp_15.stopped,text_50.started,text_50.stopped,key_resp_14.keys,key_resp_14.rt,key_resp_14.started,key_resp_14.stopped,story_presses.keys,story_presses.rt,story_presses.started,story_presses.stopped,text_34.started,text_34.stopped,text_35.started,text_35.stopped,text.started,text.stopped,text_52.started,text_52.stopped,key_resp_16.keys,key_resp_16.rt,key_resp_16.started,key_resp_16.stopped,story time,text_45.started,text_45.stopped,key_resp_6.keys,key_resp_6.rt,key_resp_6.started,key_resp_6.stopped,key_resp_2.keys,key_resp_2.rt,key_resp_2.started,key_resp_2.stopped,text_6.started,text_6.stopped,text_24.started,text_24.stopped,text_41.started,text_41.stopped,key_resp_10.keys,key_resp_10.rt,key_resp_10.started,key_resp_10.stopped,text_42.started,text_42.stopped,text_51.started,text_51.stopped,recall,text_9.started,text_9.stopped,text_10.started,text_10.stopped,image_4.started,image_4.stopped,polygon.started,polygon.stopped,bottom_line.started,bottom_line.stopped,right_line_2.started,right_line_2.stopped,left_line.started,left_line.stopped,text_48.started,text_48.stopped,participant,session,date,expName,psychopyVersion,frameRate,
0,,,0,0,0,0,0,0,0,0,,,,,,,,,,,,,[32 23 14 11 41 44 22 33 24 13 43 34 12 21 42 31],"['Location' 'Location' 'Social' 'Location' 'Social' 'Location' 'Social'
 'Social' 'Social' 'Location' 'Social' 'Location' 'Social' 'Location'
 'Location' 'Social']",[24 13 43 34 12 21 42 31],"['Social' 'Location' 'Social' 'Location' 'Social' 'Location' 'Location'
 'Social']",19.08357082299699,None,space,53.179339446000085,19.08357082299699,None,19.08357082299699,None,72.30945624599917,None,space,4.161159059000056,72.30945624599917,None,76.59346872599781,None,76.59346872599781,None,76.59346872599781,None,78.77228410099997,None,space,3.466192810999928,78.77228410099997,None,82.40635172899783,None,82.40635172899783,None,82.40635172899783,None,82.40635172899783,None,82.40635172899783,None,82.40635172899783,None,82.40635172899783,None,,,,,,,,,,,,,,,,,,,,,,,,,,,,,,,,,,,,,,,,,,,,,,,,,,,,,,,,,,,,,,,,,,,,,,,100919_p1,001,2019_Oct_09_1237,body_behavioural,3.2.2,59.9425938164854,
0,parcelated_audio/32/32_1.ogg,,0,0,0,0,,,,,0,0,0,0,,,,,,,,,,,,,,,,,,,,,,,,,,,115.86193801499758,None,115.86193801499758,None,115.86193801499758,None,,,,,,,,,,,,,,,,,,,,,114.05311780099873,None,space,1.7679206250031712,114.05311780099873,None,118.2523537119996,None,space,5.341208756999549,118.2523537119996,None,9,2.6586233529997116,135.36779019299865,None,135.36779019299865,None,135.36779019299865,None,,,,,,,,,,,,,,,,,,,,,,,,,,,,,,,,,,,,,,,,,,,,,,,,,,,100919_p1,001,2019_Oct_09_1237,body_behavioural,3.2.2,59.9425938164854,
0,parcelated_audio/32/32_2.ogg,,0,0,0,0,,,,,0,1,1,1,,,,,,,,,,,,,,,,,,,,,,,,,,,,,,,,,,,,,,,,,,,,,,,,,,,,,,,,,,,,,,,,,1,4.879058155998791,146.4349096199985,None,146.4349096199985,None,146.4349096199985,None,,,,,,,,,,,,,,,,,,,,,,,,,,,,,,,,,,,,,,,,,,,,,,,,,,,100919_p1,001,2019_Oct_09_1237,body_behavioural,3.2.2,59.9425938164854,
0,parcelated_audio/32/32_3.ogg,,0,0,0,0,,,,,0,2,2,2,,,,,,,,,,,,,,,,,,,,,,,,,,,,,,,,,,,,,,,,,,,,,,,,,,,,,,,,,,,,,,,,,1,2.518618868001795,156.95238088899714,None,156.95238088899714,None,156.95238088899714,None,,,,,,,,,,,,,,,,,,,,,,,,,,,,,,,,,,,,,,,,,,,,,,,,,,,100919_p1,001,2019_Oct_09_1237,body_behavioural,3.2.2,59.9425938164854,
0,parcelated_audio/32/32_4.ogg,,0,0,0,0,,,,,0,3,3,3,,,,,,,,,,,,,,,,,,,,,,,,,,,,,,,,,,,,,,,,,,,,,,,,,,,,,,,,,,,,,,,,,9,0.881041564996849,166.2703406039982,None,166.2703406039982,None,166.2703406039982,None,,,,,,,,,,,,,,,,,,,,,,,,,,,,,,,,,,,,,,,,,,,,,,,,,,,100919_p1,001,2019_Oct_09_1237,body_behavioural,3.2.2,59.9425938164854,
0,parcelated_audio/32/32_5.ogg,,0,0,0,0,,,,,0,4,4,4,,,,,,,,,,,,,,,,,,,,,,,,,,,,,,,,,,,,,,,,,,,,,,,,,,,,,,,,,,,,,,,,,9,10.576577055999223,178.9389864069999,None,178.9389864069999,None,178.9389864069999,None,,,,,,,,,,,,,,,,,,,,,,,,,,,,,,,,,,,,,,,,,,,,,,,,,,,100919_p1,001,2019_Oct_09_1237,body_behavioural,3.2.2,59.9425938164854,
0,parcelated_audio/32/32_6.ogg,,0,0,0,0,,,,,0,5,5,5,,,,,,,,,,,,,,,,,,,,,,,,,,,,,,,,,,,,,,,,,,,,,,,,,,,,,,,,,,,,,,,,,1,6.350855496999429,198.09362261999922,None,198.09362261999922,None,198.09362261999922,None,,,,,,,,,,,,,,,,,,,,,,,,,,,,,,,,,,,,,,,,,,,,,,,,,,,100919_p1,001,2019_Oct_09_1237,body_behavioural,3.2.2,59.9425938164854,
0,parcelated_audio/32/32_7.ogg,,0,0,0,0,,,,,0,6,6,6,,,,,,,,,,,,,,,,,,,,,,,,,,,,,,,,,,,,,,,,,,,,,,,,,,,,,,,,,,,,,,,,,9,3.9485509769983764,207.92681601599907,None,207.92681601599907,None,207.92681601599907,None,,,,,,,,,,,,,,,,,,,,,,,,,,,,,,,,,,,,,,,,,,,,,,,,,,,100919_p1,001,2019_Oct_09_1237,body_behavioural,3.2.2,59.9425938164854,
0,parcelated_audio/32/32_8.ogg,,0,0,0,0,,,,,0,7,7,7,,,,,,,,,,,,,,,,,,,,,,,,,,,,,,,,,,,,,,,,,,,,,,,,,,,,,,,,,,,,,,,,,1,3.5923773040012748,216.428101513,None,216.428101513,None,216.428101513,None,,,,,,,,,,,,,,,,,,,,,,,,,,,,,,,,,,,,,,,,,,,,,,,,,,,100919_p1,001,2019_Oct_09_1237,body_behavioural,3.2.2,59.9425938164854,
0,parcelated_audio/32/32_9.ogg,,0,0,0,0,,,,,0,8,8,8,,,,,,,,,,,,,,,,,,,,,,,,,,,,,,,,,,,,,,,,,,,,,,,,,,,,,,,,,,,,,,,,,1,9.379071466999449,228.79769667399887,None,228.79769667399887,None,228.79769667399887,None,,,,,,,,,,,,,,,,,,,,,,,,,,,,,,,,,,,,,,,,,,,,,,,,,,,100919_p1,001,2019_Oct_09_1237,body_behavioural,3.2.2,59.9425938164854,
0,parcelated_audio/32/32_10.ogg,,0,0,0,0,,,,,0,9,9,9,,,,,,,,,,,,,,,,,,,,,,,,,,,,,,,,,,,,,,,,,,,,,,,,,,,,,,,,,,,,,,,,,1,0.8695374909984821,242.93296165799984,None,242.93296165799984,None,242.93296165799984,None,,,,,,,,,,,,,,,,,,,,,,,,,,,,,,,,,,,,,,,,,,,,,,,,,,,100919_p1,001,2019_Oct_09_1237,body_behavioural,3.2.2,59.9425938164854,
0,parcelated_audio/32/32_11.ogg,,0,0,0,0,,,,,0,10,10,10,,,,,,,,,,,,,,,,,,,,,,,,,,,,,,,,,,,,,,,,,,,,,,,,,,,,,,,,,,,,,,,,,1,5.641987863000395,249.9681103019975,None,249.9681103019975,None,249.9681103019975,None,,,,,,,,,,,,,,,,,,,,,,,,,,,,,,,,,,,,,,,,,,,,,,,,,,,100919_p1,001,2019_Oct_09_1237,body_behavioural,3.2.2,59.9425938164854,
0,parcelated_audio/32/32_12.ogg,,0,0,0,0,,,,,0,11,11,11,,,,,,,,,,,,,,,,,,,,,,,,,,,,,,,,,,,,,,,,,,,,,,,,,,,,,,,,,,,,,,,,,1,4.57962798600056,265.1538829109995,None,265.1538829109995,None,265.1538829109995,None,,,,,,,,,,,,,,,,,,,,,,,,,,,,,,,,,,,,,,,,,,,,,,,,,,,100919_p1,001,2019_Oct_09_1237,body_behavioural,3.2.2,59.9425938164854,
0,parcelated_audio/32/32_13.ogg,,0,0,0,0,,,,,0,12,12,12,,,,,,,,,,,,,,,,,,,,,,,,,,,,,,,,,,,,,,,,,,,,,,,,,,,,,,,,,,,,,,,,,1,0.45697162999931606,279.40725022999686,None,279.40725022999686,None,279.40725022999686,None,,,,,,,,,,,,,,,,,,,,,,,,,,,,,,,,,,,,,,,,,,,,,,,,,,,100919_p1,001,2019_Oct_09_1237,body_behavioural,3.2.2,59.9425938164854,
0,parcelated_audio/32/32_14.ogg,,0,0,0,0,,,,,0,13,13,13,,,,,,,,,,,,,,,,,,,,,,,,,,,,,,,,,,,,,,,,,,,,,,,,,,,,,,,,,,,,,,,,,1,0.7596384819989908,288.04053433599984,None,288.04053433599984,None,288.04053433599984,None,,,,,,,,,,,,,,,,,,,,,,,,,,,,,,,,,,,,,,,,,,,,,,,,,,,100919_p1,001,2019_Oct_09_1237,body_behavioural,3.2.2,59.9425938164854,
0,parcelated_audio/32/32_15.ogg,,0,0,0,0,,,,,0,14,14,14,,,,,,,,,,,,,,,,,,,,,,,,,,,,,,,,,,,,,,,,,,,,,,,,,,,,,,,,,,,,,,,,,1,0.3634625699996832,295.7433012179972,None,295.7433012179972,None,295.7433012179972,None,,,,,,,,,,,,,,,,,,,,,,,,,,,,,,,,,,,,,,,,,,,,,,,,,,,100919_p1,001,2019_Oct_09_1237,body_behavioural,3.2.2,59.9425938164854,
0,parcelated_audio/32/32_16.ogg,,0,0,0,0,,,,,0,15,15,15,,,,,,,,,,,,,,,,,,,,,,,,,,,,,,,,,,,,,,,,,,,,,,,,,,,,,,,,,,,,,,,,,1,0.43172576399956597,303.79338705400005,None,303.79338705400005,None,303.79338705400005,None,,,,,,,,,,,,,,,,,,,,,,,,,,,,,,,,,,,,,,,,,,,,,,,,,,,100919_p1,001,2019_Oct_09_1237,body_behavioural,3.2.2,59.9425938164854,
0,parcelated_audio/32/32_17.ogg,,0,0,0,0,,,,,0,16,16,16,,,,,,,,,,,,,,,,,,,,,,,,,,,,,,,,,,,,,,,,,,,,,,,,,,,,,,,,,,,,,,,,,9,2.3303343260013207,312.57797768899763,None,312.57797768899763,None,312.57797768899763,None,,,,,,,,,,,,,,,,,,,,,,,,,,,,,,,,,,,,,,,,,,,,,,,,,,,100919_p1,001,2019_Oct_09_1237,body_behavioural,3.2.2,59.9425938164854,
0,parcelated_audio/32/32_18.ogg,,0,0,0,0,,,,,0,17,17,17,,,,,,,,,,,,,,,,,,,,,,,,,,,,,,,,,,,,,,,,,,,,,,,,,,,,,,,,,,,,,,,,,1,0.4208670219995838,319.2652622129972,None,319.2652622129972,None,319.2652622129972,None,,,,,,,,,,,,,,,,,,,,,,,,,,,,,,,,,,,,,,,,,,,,,,,,,,,100919_p1,001,2019_Oct_09_1237,body_behavioural,3.2.2,59.9425938164854,
0,parcelated_audio/32/32_19.ogg,,0,0,0,0,,,,,0,18,18,18,,,,,,,,,,,,,,,,,,,,,,,,,,,,,,,,,,,,,,,,,,,,,,,,,,,,,,,,,,,,,,,,,1,0.5702829490001022,327.81375974599723,None,327.81375974599723,None,327.81375974599723,None,,,,,,,,,,,,,,,,,,,,,,,,,,,,,,,,,,,,,,,,,,,,,,,,,,,100919_p1,001,2019_Oct_09_1237,body_behavioural,3.2.2,59.9425938164854,
0,parcelated_audio/32/32_20.ogg,,0,0,0,0,,,,,0,19,19,19,,,,,,,,,,,,,,,,,,,,,,,,,,,,,,,,,,,,,,,,,,,,,,,,,,,,,,,,,,,,,,,,,1,12.858885973000724,339.35079257199686,None,339.35079257199686,None,339.35079257199686,None,,,,,,,,,,,,,,,,,,,,,,,,,,,,,,,,,,,,,,,,,,,,,,,,,,,100919_p1,001,2019_Oct_09_1237,body_behavioural,3.2.2,59.9425938164854,
0,parcelated_audio/32/32_21.ogg,,0,0,0,0,,,,,0,20,20,20,,,,,,,,,,,,,,,,,,,,,,,,,,,,,,,,,,,,,,,,,,,,,,,,,,,,,,,,,,,,,,,,,1,1.7320057319993793,361.10264451499825,None,361.10264451499825,None,361.10264451499825,None,,,,,,,,,,,,,,,,,,,,,,,,,,,,,,,,,,,,,,,,,,,,,,,,,,,100919_p1,001,2019_Oct_09_1237,body_behavioural,3.2.2,59.9425938164854,
0,parcelated_audio/32/32_22.ogg,,0,0,0,0,,,,,0,21,21,21,,,,,,,,,,,,,,,,,,,,,,,,,,,,,,,,,,,,,,,,,,,,,,,,,,,,,,,,,,,,,,,,,1,1.2124819210002897,376.9396932169984,None,376.9396932169984,None,376.9396932169984,None,,,,,,,,,,,,,,,,,,,,,,,,,,,,,,,,,,,,,,,,,,,,,,,,,,,100919_p1,001,2019_Oct_09_1237,body_behavioural,3.2.2,59.9425938164854,
0,parcelated_audio/32/32_23.ogg,,0,0,0,0,,,,,0,22,22,22,,,,,,,,,,,,,,,,,,,,,,,,,,,,,,,,,,,,,,,,,,,,,,,,,,,,,,,,,,,,,,,,,1,0.06059269300021697,387.27440587199817,None,387.27440587199817,None,387.27440587199817,None,,,,,,,,,,,,,,,,,,,,,,,,,,,,,,,,,,,,,,,,,,,,,,,,,,,100919_p1,001,2019_Oct_09_1237,body_behavioural,3.2.2,59.9425938164854,
0,parcelated_audio/32/32_24.ogg,,0,0,0,0,,,,,0,23,23,23,,,,,,,,,,,,,,,,,,,,,,,,,,,,,,,,,,,,,,,,,,,,,,,,,,,,,,,,,,,,,,,,,1,0.19183179999890854,398.71155636599724,None,398.71155636599724,None,398.71155636599724,None,,,,,,,,,,,,,,,,,,,,,,,,,,,,,,,,,,,,,,,,,,,,,,,,,,,100919_p1,001,2019_Oct_09_1237,body_behavioural,3.2.2,59.9425938164854,
0,parcelated_audio/32/32_25.ogg,,0,0,0,0,,,,,0,24,24,24,,,,,,,,,,,,,,,,,,,,,,,,,,,,,,,,,,,,,,,,,,,,,,,,,,,,,,,,,,,,,,,,,1,2.1649914589979744,405.0295394530003,None,405.0295394530003,None,405.0295394530003,None,,,,,,,,,,,,,,,,,,,,,,,,,,,,,,,,,,,,,,,,,,,,,,,,,,,100919_p1,001,2019_Oct_09_1237,body_behavioural,3.2.2,59.9425938164854,
0,parcelated_audio/32/32_26.ogg,,0,0,0,0,,,,,0,25,25,25,,,,,,,,,,,,,,,,,,,,,,,,,,,,,,,,,,,,,,,,,,,,,,,,,,,,,,,,,,,,,,,,,1,0.3117375340007129,420.61305267900025,None,420.61305267900025,None,420.61305267900025,None,,,,,,,,,,,,,,,,,,,,,,,,,,,,,,,,,,,,,,,,,,,,,,,,,,,100919_p1,001,2019_Oct_09_1237,body_behavioural,3.2.2,59.9425938164854,
0,parcelated_audio/32/32_27.ogg,,0,0,0,0,,,,,0,26,26,26,,,,,,,,,,,,,,,,,,,,,,,,,,,,,,,,,,,,,,,,,,,,,,,,,,,,,,,,,,,,,,,,,1,1.0649442350004392,427.9510335449995,None,427.9510335449995,None,427.9510335449995,None,,,,,,,,,,,,,,,,,,,,,,,,,,,,,,,,,,,,,,,,,,,,,,,,,,,100919_p1,001,2019_Oct_09_1237,body_behavioural,3.2.2,59.9425938164854,
0,parcelated_audio/32/32_28.ogg,,0,0,0,0,,,,,0,27,27,27,,,,,,,,,,,,,,,,,,,,,,,,,,,,,,,,,,,,,,,,,,,,,,,,,,,,,,,,,,,,,,,,,1,1.1185414049978135,435.7843311910001,None,435.7843311910001,None,435.7843311910001,None,,,,,,,,,,,,,,,,,,,,,,,,,,,,,,,,,,,,,,,,,,,,,,,,,,,100919_p1,001,2019_Oct_09_1237,body_behavioural,3.2.2,59.9425938164854,
0,parcelated_audio/32/32_29.ogg,,0,0,0,0,,,,,0,28,28,28,,,,,,,,,,,,,,,,,,,,,,,,,,,,,,,,,,,,,,,,,,,,,,,,,,,,,,,,,,,,,,,,,1,0.37943406499834964,439.63539722899804,None,439.63539722899804,None,439.63539722899804,None,,,,,,,,,,,,,,,,,,,,,,,,,,,,,,,,,,,,,,,,,,,,,,,,,,,100919_p1,001,2019_Oct_09_1237,body_behavioural,3.2.2,59.9425938164854,
0,parcelated_audio/32/32_30.ogg,,0,0,0,0,,,,,0,29,29,29,,,,,,,,,,,,,,,,,,,,,,,,,,,,,,,,,,,,,,,,,,,,,,,,,,,,,,,,,,,,,,,,,1,0.4003164409987221,447.1190350729994,None,447.1190350729994,None,447.1190350729994,None,,,,,,,,,,,,,,,,,,,,,,,,,,,,,,,,,,,,,,,,,,,,,,,,,,,100919_p1,001,2019_Oct_09_1237,body_behavioural,3.2.2,59.9425938164854,
0,parcelated_audio/32/32_31.ogg,,0,0,0,0,,,,,0,30,30,30,,,,,,,,,,,,,,,,,,,,,,,,,,,,,,,,,,,,,,,,,,,,,,,,,,,,,,,,,,,,,,,,,1,3.350174989001971,453.95380883399775,None,453.95380883399775,None,453.95380883399775,None,,,,,,,,,,,,,,,,,,,,,,,,,,,,,,,,,,,,,,,,,,,,,,,,,,,100919_p1,001,2019_Oct_09_1237,body_behavioural,3.2.2,59.9425938164854,
0,parcelated_audio/32/32_32.ogg,,0,0,0,0,,,,,0,31,31,31,,,,,,,,,,,,,,,,,,,,,,,,,,,,,,,,,,,,,,,,,,,,,,,,,,,,,,,,,,,,,,,,,9,0.3469844949977414,467.10530188899793,None,467.10530188899793,None,467.10530188899793,None,,,,,,,,,,,,,,,,,,,,,,,,,,,,,,,,,,,,,,,,,,,,,,,,,,,100919_p1,001,2019_Oct_09_1237,body_behavioural,3.2.2,59.9425938164854,
0,parcelated_audio/32/32_33.ogg,,0,0,0,0,,,,,0,32,32,32,,,,,,,,,,,,,,,,,,,,,,,,,,,,,,,,,,,,,,,,,,,,,,,,,,,,,,,,,,,,,,,,,1,7.180922850002389,473.2892243879978,None,473.2892243879978,None,473.2892243879978,None,,,,,,,,,,,,,,,,,,,,,,,,,,,,,,,,,,,,,,,,,,,,,,,,,,,100919_p1,001,2019_Oct_09_1237,body_behavioural,3.2.2,59.9425938164854,
0,,,0,0,0,0,,,,,,,,,,,,,,,,,,,,,,,,,,,,,,,,,,,,,,,,,,,,,,,,,,,,,,,,,,,,,,,,,,,,,,,,,,,,,,,,,480.4934142659986,None,480.4934142659986,None,space,6.032838209997863,480.4934142659986,None,,,,,,,,,,,,,,,,,,,,,,,,,,,,,,,,,,,,,,,,,,,100919_p1,001,2019_Oct_09_1237,body_behavioural,3.2.2,59.9425938164854,
1,,,0,1,1,1,0,0,0,0,,,,,,,,,,,,,,,,,486.56286837099833,None,space,0.7713777579992893,486.56286837099833,None,486.56286837099833,None,487.3583794499973,None,space,1.1519234439983848,487.3583794499973,None,488.57528073699723,None,488.57528073699723,None,488.57528073699723,None,489.6756703609972,None,space,1.834603954001068,489.6756703609972,None,491.6751460469968,None,491.6751460469968,None,491.6751460469968,None,491.6751460469968,None,491.6751460469968,None,491.6751460469968,None,491.6751460469968,None,,,,,,,,,,,,,,,,,,,,,,,,,,,,,,,,,,,,,,,,,,,,,,,,,,,,,,,,,,,,,,,,,,,,,,,100919_p1,001,2019_Oct_09_1237,body_behavioural,3.2.2,59.9425938164854,
1,,,0,1,1,1,1,0,1,0,,,,,,,,,,,,,,,,,,,,,,,,,,,,,,,517.0352583149979,None,517.0352583149979,None,517.0352583149979,None,517.8473145499993,None,space,0.8935769730014727,517.8473145499993,None,518.881252231,None,518.881252231,None,518.881252231,None,518.881252231,None,518.881252231,None,518.881252231,None,518.881252231,None,,,,,,,,,,,,,,,,,,,,,,,,,,,,,,,,,,,,,,,,,,,,,,,,,,,,,,,,,,,,,,,,,,,,,,,100919_p1,001,2019_Oct_09_1237,body_behavioural,3.2.2,59.9425938164854,
1,parcelated_audio/23/23_1.ogg,,0,1,1,1,,,,,0,0,0,0,,,,,,,,,,,,,,,,,,,,,,,,,,,537.8010445729997,None,537.8010445729997,None,537.8010445729997,None,,,,,,,,,,,,,,,,,,,,,536.1587221119989,None,space,1.5931258609998622,536.1587221119989,None,538.4331528330003,None,space,5.114462892001029,538.4331528330003,None,9,1.1622691640004632,554.0532761449977,None,554.0532761449977,None,554.0532761449977,None,,,,,,,,,,,,,,,,,,,,,,,,,,,,,,,,,,,,,,,,,,,,,,,,,,,100919_p1,001,2019_Oct_09_1237,body_behavioural,3.2.2,59.9425938164854,
1,parcelated_audio/23/23_2.ogg,,0,1,1,1,,,,,0,1,1,1,,,,,,,,,,,,,,,,,,,,,,,,,,,,,,,,,,,,,,,,,,,,,,,,,,,,,,,,,,,,,,,,,1,4.1466617090009095,562.1873265559989,None,562.1873265559989,None,562.1873265559989,None,,,,,,,,,,,,,,,,,,,,,,,,,,,,,,,,,,,,,,,,,,,,,,,,,,,100919_p1,001,2019_Oct_09_1237,body_behavioural,3.2.2,59.9425938164854,
1,parcelated_audio/23/23_3.ogg,,0,1,1,1,,,,,0,2,2,2,,,,,,,,,,,,,,,,,,,,,,,,,,,,,,,,,,,,,,,,,,,,,,,,,,,,,,,,,,,,,,,,,1,0.17749219599863864,572.2051205030002,None,572.2051205030002,None,572.2051205030002,None,,,,,,,,,,,,,,,,,,,,,,,,,,,,,,,,,,,,,,,,,,,,,,,,,,,100919_p1,001,2019_Oct_09_1237,body_behavioural,3.2.2,59.9425938164854,
1,parcelated_audio/23/23_4.ogg,,0,1,1,1,,,,,0,3,3,3,,,,,,,,,,,,,,,,,,,,,,,,,,,,,,,,,,,,,,,,,,,,,,,,,,,,,,,,,,,,,,,,,9,0.7034939189979923,583.7078763799982,None,583.7078763799982,None,583.7078763799982,None,,,,,,,,,,,,,,,,,,,,,,,,,,,,,,,,,,,,,,,,,,,,,,,,,,,100919_p1,001,2019_Oct_09_1237,body_behavioural,3.2.2,59.9425938164854,
1,parcelated_audio/23/23_5.ogg,,0,1,1,1,,,,,0,4,4,4,,,,,,,,,,,,,,,,,,,,,,,,,,,,,,,,,,,,,,,,,,,,,,,,,,,,,,,,,,,,,,,,,1,10.392701404998661,590.7251511689974,None,590.7251511689974,None,590.7251511689974,None,,,,,,,,,,,,,,,,,,,,,,,,,,,,,,,,,,,,,,,,,,,,,,,,,,,100919_p1,001,2019_Oct_09_1237,body_behavioural,3.2.2,59.9425938164854,
1,parcelated_audio/23/23_6.ogg,,0,1,1,1,,,,,0,5,5,5,,,,,,,,,,,,,,,,,,,,,,,,,,,,,,,,,,,,,,,,,,,,,,,,,,,,,,,,,,,,,,,,,1,0.4814445190022525,608.6119300029968,None,608.6119300029968,None,608.6119300029968,None,,,,,,,,,,,,,,,,,,,,,,,,,,,,,,,,,,,,,,,,,,,,,,,,,,,100919_p1,001,2019_Oct_09_1237,body_behavioural,3.2.2,59.9425938164854,
1,parcelated_audio/23/23_7.ogg,,0,1,1,1,,,,,0,6,6,6,,,,,,,,,,,,,,,,,,,,,,,,,,,,,,,,,,,,,,,,,,,,,,,,,,,,,,,,,,,,,,,,,1,0.39852214900020044,615.9468339559971,None,615.9468339559971,None,615.9468339559971,None,,,,,,,,,,,,,,,,,,,,,,,,,,,,,,,,,,,,,,,,,,,,,,,,,,,100919_p1,001,2019_Oct_09_1237,body_behavioural,3.2.2,59.9425938164854,
1,parcelated_audio/23/23_8.ogg,,0,1,1,1,,,,,0,7,7,7,,,,,,,,,,,,,,,,,,,,,,,,,,,,,,,,,,,,,,,,,,,,,,,,,,,,,,,,,,,,,,,,,1,0.3140334969975811,621.8142958440003,None,621.8142958440003,None,621.8142958440003,None,,,,,,,,,,,,,,,,,,,,,,,,,,,,,,,,,,,,,,,,,,,,,,,,,,,100919_p1,001,2019_Oct_09_1237,body_behavioural,3.2.2,59.9425938164854,
1,parcelated_audio/23/23_9.ogg,,0,1,1,1,,,,,0,8,8,8,,,,,,,,,,,,,,,,,,,,,,,,,,,,,,,,,,,,,,,,,,,,,,,,,,,,,,,,,,,,,,,,,1,0.31406291500024963,626.5822601629989,None,626.5822601629989,None,626.5822601629989,None,,,,,,,,,,,,,,,,,,,,,,,,,,,,,,,,,,,,,,,,,,,,,,,,,,,100919_p1,001,2019_Oct_09_1237,body_behavioural,3.2.2,59.9425938164854,
1,parcelated_audio/23/23_10.ogg,,0,1,1,1,,,,,0,9,9,9,,,,,,,,,,,,,,,,,,,,,,,,,,,,,,,,,,,,,,,,,,,,,,,,,,,,,,,,,,,,,,,,,1,0.54263643199738,630.9485634310004,None,630.9485634310004,None,630.9485634310004,None,,,,,,,,,,,,,,,,,,,,,,,,,,,,,,,,,,,,,,,,,,,,,,,,,,,100919_p1,001,2019_Oct_09_1237,body_behavioural,3.2.2,59.9425938164854,
1,parcelated_audio/23/23_11.ogg,,0,1,1,1,,,,,0,10,10,10,,,,,,,,,,,,,,,,,,,,,,,,,,,,,,,,,,,,,,,,,,,,,,,,,,,,,,,,,,,,,,,,,1,0.30214775100103,639.701095638,None,639.701095638,None,639.701095638,None,,,,,,,,,,,,,,,,,,,,,,,,,,,,,,,,,,,,,,,,,,,,,,,,,,,100919_p1,001,2019_Oct_09_1237,body_behavioural,3.2.2,59.9425938164854,
1,parcelated_audio/23/23_12.ogg,,0,1,1,1,,,,,0,11,11,11,,,,,,,,,,,,,,,,,,,,,,,,,,,,,,,,,,,,,,,,,,,,,,,,,,,,,,,,,,,,,,,,,1,0.233972388003167,647.2522206180001,None,647.2522206180001,None,647.2522206180001,None,,,,,,,,,,,,,,,,,,,,,,,,,,,,,,,,,,,,,,,,,,,,,,,,,,,100919_p1,001,2019_Oct_09_1237,body_behavioural,3.2.2,59.9425938164854,
1,parcelated_audio/23/23_13.ogg,,0,1,1,1,,,,,0,12,12,12,,,,,,,,,,,,,,,,,,,,,,,,,,,,,,,,,,,,,,,,,,,,,,,,,,,,,,,,,,,,,,,,,1,0.31139355699997395,654.3528181119982,None,654.3528181119982,None,654.3528181119982,None,,,,,,,,,,,,,,,,,,,,,,,,,,,,,,,,,,,,,,,,,,,,,,,,,,,100919_p1,001,2019_Oct_09_1237,body_behavioural,3.2.2,59.9425938164854,
1,parcelated_audio/23/23_14.ogg,,0,1,1,1,,,,,0,13,13,13,,,,,,,,,,,,,,,,,,,,,,,,,,,,,,,,,,,,,,,,,,,,,,,,,,,,,,,,,,,,,,,,,1,0.2236776669997198,659.1062335229981,None,659.1062335229981,None,659.1062335229981,None,,,,,,,,,,,,,,,,,,,,,,,,,,,,,,,,,,,,,,,,,,,,,,,,,,,100919_p1,001,2019_Oct_09_1237,body_behavioural,3.2.2,59.9425938164854,
1,parcelated_audio/23/23_15.ogg,,0,1,1,1,,,,,0,14,14,14,,,,,,,,,,,,,,,,,,,,,,,,,,,,,,,,,,,,,,,,,,,,,,,,,,,,,,,,,,,,,,,,,1,0.30812567199973273,663.8216485199991,None,663.8216485199991,None,663.8216485199991,None,,,,,,,,,,,,,,,,,,,,,,,,,,,,,,,,,,,,,,,,,,,,,,,,,,,100919_p1,001,2019_Oct_09_1237,body_behavioural,3.2.2,59.9425938164854,
1,parcelated_audio/23/23_16.ogg,,0,1,1,1,,,,,0,15,15,15,,,,,,,,,,,,,,,,,,,,,,,,,,,,,,,,,,,,,,,,,,,,,,,,,,,,,,,,,,,,,,,,,9,0.31765180499860435,670.7895951469982,None,670.7895951469982,None,670.7895951469982,None,,,,,,,,,,,,,,,,,,,,,,,,,,,,,,,,,,,,,,,,,,,,,,,,,,,100919_p1,001,2019_Oct_09_1237,body_behavioural,3.2.2,59.9425938164854,
1,parcelated_audio/23/23_17.ogg,,0,1,1,1,,,,,0,16,16,16,,,,,,,,,,,,,,,,,,,,,,,,,,,,,,,,,,,,,,,,,,,,,,,,,,,,,,,,,,,,,,,,,1,1.2082403319982404,677.9408892829997,None,677.9408892829997,None,677.9408892829997,None,,,,,,,,,,,,,,,,,,,,,,,,,,,,,,,,,,,,,,,,,,,,,,,,,,,100919_p1,001,2019_Oct_09_1237,body_behavioural,3.2.2,59.9425938164854,
1,parcelated_audio/23/23_18.ogg,,0,1,1,1,,,,,0,17,17,17,,,,,,,,,,,,,,,,,,,,,,,,,,,,,,,,,,,,,,,,,,,,,,,,,,,,,,,,,,,,,,,,,1,0.8200692390018958,691.2088117610001,None,691.2088117610001,None,691.2088117610001,None,,,,,,,,,,,,,,,,,,,,,,,,,,,,,,,,,,,,,,,,,,,,,,,,,,,100919_p1,001,2019_Oct_09_1237,body_behavioural,3.2.2,59.9425938164854,
1,parcelated_audio/23/23_19.ogg,,0,1,1,1,,,,,0,18,18,18,,,,,,,,,,,,,,,,,,,,,,,,,,,,,,,,,,,,,,,,,,,,,,,,,,,,,,,,,,,,,,,,,1,0.2832855919987196,697.8808099859998,None,697.8808099859998,None,697.8808099859998,None,,,,,,,,,,,,,,,,,,,,,,,,,,,,,,,,,,,,,,,,,,,,,,,,,,,100919_p1,001,2019_Oct_09_1237,body_behavioural,3.2.2,59.9425938164854,
1,parcelated_audio/23/23_20.ogg,,0,1,1,1,,,,,0,19,19,19,,,,,,,,,,,,,,,,,,,,,,,,,,,,,,,,,,,,,,,,,,,,,,,,,,,,,,,,,,,,,,,,,1,0.31656181899961666,701.1275349539974,None,701.1275349539974,None,701.1275349539974,None,,,,,,,,,,,,,,,,,,,,,,,,,,,,,,,,,,,,,,,,,,,,,,,,,,,100919_p1,001,2019_Oct_09_1237,body_behavioural,3.2.2,59.9425938164854,
1,parcelated_audio/23/23_21.ogg,,0,1,1,1,,,,,0,20,20,20,,,,,,,,,,,,,,,,,,,,,,,,,,,,,,,,,,,,,,,,,,,,,,,,,,,,,,,,,,,,,,,,,1,1.6104811000004702,709.1958795369974,None,709.1958795369974,None,709.1958795369974,None,,,,,,,,,,,,,,,,,,,,,,,,,,,,,,,,,,,,,,,,,,,,,,,,,,,100919_p1,001,2019_Oct_09_1237,body_behavioural,3.2.2,59.9425938164854,
1,parcelated_audio/23/23_22.ogg,,0,1,1,1,,,,,0,21,21,21,,,,,,,,,,,,,,,,,,,,,,,,,,,,,,,,,,,,,,,,,,,,,,,,,,,,,,,,,,,,,,,,,1,0.37903459000153816,713.547399592997,None,713.547399592997,None,713.547399592997,None,,,,,,,,,,,,,,,,,,,,,,,,,,,,,,,,,,,,,,,,,,,,,,,,,,,100919_p1,001,2019_Oct_09_1237,body_behavioural,3.2.2,59.9425938164854,
1,parcelated_audio/23/23_23.ogg,,0,1,1,1,,,,,0,22,22,22,,,,,,,,,,,,,,,,,,,,,,,,,,,,,,,,,,,,,,,,,,,,,,,,,,,,,,,,,,,,,,,,,1,0.29274849300054484,718.1805409439985,None,718.1805409439985,None,718.1805409439985,None,,,,,,,,,,,,,,,,,,,,,,,,,,,,,,,,,,,,,,,,,,,,,,,,,,,100919_p1,001,2019_Oct_09_1237,body_behavioural,3.2.2,59.9425938164854,
1,parcelated_audio/23/23_24.ogg,,0,1,1,1,,,,,0,23,23,23,,,,,,,,,,,,,,,,,,,,,,,,,,,,,,,,,,,,,,,,,,,,,,,,,,,,,,,,,,,,,,,,,1,0.2871620480000274,721.9981652939969,None,721.9981652939969,None,721.9981652939969,None,,,,,,,,,,,,,,,,,,,,,,,,,,,,,,,,,,,,,,,,,,,,,,,,,,,100919_p1,001,2019_Oct_09_1237,body_behavioural,3.2.2,59.9425938164854,
1,parcelated_audio/23/23_25.ogg,,0,1,1,1,,,,,0,24,24,24,,,,,,,,,,,,,,,,,,,,,,,,,,,,,,,,,,,,,,,,,,,,,,,,,,,,,,,,,,,,,,,,,1,0.7177555829985067,726.484299112999,None,726.484299112999,None,726.484299112999,None,,,,,,,,,,,,,,,,,,,,,,,,,,,,,,,,,,,,,,,,,,,,,,,,,,,100919_p1,001,2019_Oct_09_1237,body_behavioural,3.2.2,59.9425938164854,
1,parcelated_audio/23/23_26.ogg,,0,1,1,1,,,,,0,25,25,25,,,,,,,,,,,,,,,,,,,,,,,,,,,,,,,,,,,,,,,,,,,,,,,,,,,,,,,,,,,,,,,,,1,0.273518090001744,733.5002723109974,None,733.5002723109974,None,733.5002723109974,None,,,,,,,,,,,,,,,,,,,,,,,,,,,,,,,,,,,,,,,,,,,,,,,,,,,100919_p1,001,2019_Oct_09_1237,body_behavioural,3.2.2,59.9425938164854,
1,parcelated_audio/23/23_27.ogg,,0,1,1,1,,,,,0,26,26,26,,,,,,,,,,,,,,,,,,,,,,,,,,,,,,,,,,,,,,,,,,,,,,,,,,,,,,,,,,,,,,,,,1,0.696636482996837,739.1027569269972,None,739.1027569269972,None,739.1027569269972,None,,,,,,,,,,,,,,,,,,,,,,,,,,,,,,,,,,,,,,,,,,,,,,,,,,,100919_p1,001,2019_Oct_09_1237,body_behavioural,3.2.2,59.9425938164854,
1,parcelated_audio/23/23_28.ogg,,0,1,1,1,,,,,0,27,27,27,,,,,,,,,,,,,,,,,,,,,,,,,,,,,,,,,,,,,,,,,,,,,,,,,,,,,,,,,,,,,,,,,1,0.2617845620006847,747.8360268239994,None,747.8360268239994,None,747.8360268239994,None,,,,,,,,,,,,,,,,,,,,,,,,,,,,,,,,,,,,,,,,,,,,,,,,,,,100919_p1,001,2019_Oct_09_1237,body_behavioural,3.2.2,59.9425938164854,
1,parcelated_audio/23/23_29.ogg,,0,1,1,1,,,,,0,28,28,28,,,,,,,,,,,,,,,,,,,,,,,,,,,,,,,,,,,,,,,,,,,,,,,,,,,,,,,,,,,,,,,,,1,0.524748575000558,751.920024158997,None,751.920024158997,None,751.920024158997,None,,,,,,,,,,,,,,,,,,,,,,,,,,,,,,,,,,,,,,,,,,,,,,,,,,,100919_p1,001,2019_Oct_09_1237,body_behavioural,3.2.2,59.9425938164854,
1,parcelated_audio/23/23_30.ogg,,0,1,1,1,,,,,0,29,29,29,,,,,,,,,,,,,,,,,,,,,,,,,,,,,,,,,,,,,,,,,,,,,,,,,,,,,,,,,,,,,,,,,1,0.31039673399936873,758.421608392,None,758.421608392,None,758.421608392,None,,,,,,,,,,,,,,,,,,,,,,,,,,,,,,,,,,,,,,,,,,,,,,,,,,,100919_p1,001,2019_Oct_09_1237,body_behavioural,3.2.2,59.9425938164854,
1,parcelated_audio/23/23_31.ogg,,0,1,1,1,,,,,0,30,30,30,,,,,,,,,,,,,,,,,,,,,,,,,,,,,,,,,,,,,,,,,,,,,,,,,,,,,,,,,,,,,,,,,1,0.23745682400112855,760.8066586949972,None,760.8066586949972,None,760.8066586949972,None,,,,,,,,,,,,,,,,,,,,,,,,,,,,,,,,,,,,,,,,,,,,,,,,,,,100919_p1,001,2019_Oct_09_1237,body_behavioural,3.2.2,59.9425938164854,
1,parcelated_audio/23/23_32.ogg,,0,1,1,1,,,,,0,31,31,31,,,,,,,,,,,,,,,,,,,,,,,,,,,,,,,,,,,,,,,,,,,,,,,,,,,,,,,,,,,,,,,,,1,3.8355295289984497,764.7216811599974,None,764.7216811599974,None,764.7216811599974,None,,,,,,,,,,,,,,,,,,,,,,,,,,,,,,,,,,,,,,,,,,,,,,,,,,,100919_p1,001,2019_Oct_09_1237,body_behavioural,3.2.2,59.9425938164854,
1,parcelated_audio/23/23_33.ogg,,0,1,1,1,,,,,0,32,32,32,,,,,,,,,,,,,,,,,,,,,,,,,,,,,,,,,,,,,,,,,,,,,,,,,,,,,,,,,,,,,,,,,1,0.5174411670013797,774.6905589380003,None,774.6905589380003,None,774.6905589380003,None,,,,,,,,,,,,,,,,,,,,,,,,,,,,,,,,,,,,,,,,,,,,,,,,,,,100919_p1,001,2019_Oct_09_1237,body_behavioural,3.2.2,59.9425938164854,
1,parcelated_audio/23/23_34.ogg,,0,1,1,1,,,,,0,33,33,33,,,,,,,,,,,,,,,,,,,,,,,,,,,,,,,,,,,,,,,,,,,,,,,,,,,,,,,,,,,,,,,,,1,0.5692879010020988,778.8409148209976,None,778.8409148209976,None,778.8409148209976,None,,,,,,,,,,,,,,,,,,,,,,,,,,,,,,,,,,,,,,,,,,,,,,,,,,,100919_p1,001,2019_Oct_09_1237,body_behavioural,3.2.2,59.9425938164854,
1,parcelated_audio/23/23_35.ogg,,0,1,1,1,,,,,0,34,34,34,,,,,,,,,,,,,,,,,,,,,,,,,,,,,,,,,,,,,,,,,,,,,,,,,,,,,,,,,,,,,,,,,1,3.976177310996718,783.774454178998,None,783.774454178998,None,783.774454178998,None,,,,,,,,,,,,,,,,,,,,,,,,,,,,,,,,,,,,,,,,,,,,,,,,,,,100919_p1,001,2019_Oct_09_1237,body_behavioural,3.2.2,59.9425938164854,
1,parcelated_audio/23/23_36.ogg,,0,1,1,1,,,,,0,35,35,35,,,,,,,,,,,,,,,,,,,,,,,,,,,,,,,,,,,,,,,,,,,,,,,,,,,,,,,,,,,,,,,,,1,0.21976943199842935,792.4767476929992,None,792.4767476929992,None,792.4767476929992,None,,,,,,,,,,,,,,,,,,,,,,,,,,,,,,,,,,,,,,,,,,,,,,,,,,,100919_p1,001,2019_Oct_09_1237,body_behavioural,3.2.2,59.9425938164854,
1,parcelated_audio/23/23_37.ogg,,0,1,1,1,,,,,0,36,36,36,,,,,,,,,,,,,,,,,,,,,,,,,,,,,,,,,,,,,,,,,,,,,,,,,,,,,,,,,,,,,,,,,9,0.7500459410002804,797.5778458690002,None,797.5778458690002,None,797.5778458690002,None,,,,,,,,,,,,,,,,,,,,,,,,,,,,,,,,,,,,,,,,,,,,,,,,,,,100919_p1,001,2019_Oct_09_1237,body_behavioural,3.2.2,59.9425938164854,
1,parcelated_audio/23/23_38.ogg,,0,1,1,1,,,,,0,37,37,37,,,,,,,,,,,,,,,,,,,,,,,,,,,,,,,,,,,,,,,,,,,,,,,,,,,,,,,,,,,,,,,,,1,0.5054579479983659,805.8794420079976,None,805.8794420079976,None,805.8794420079976,None,,,,,,,,,,,,,,,,,,,,,,,,,,,,,,,,,,,,,,,,,,,,,,,,,,,100919_p1,001,2019_Oct_09_1237,body_behavioural,3.2.2,59.9425938164854,
1,parcelated_audio/23/23_39.ogg,,0,1,1,1,,,,,0,38,38,38,,,,,,,,,,,,,,,,,,,,,,,,,,,,,,,,,,,,,,,,,,,,,,,,,,,,,,,,,,,,,,,,,1,0.344202497999504,812.7462757229987,None,812.7462757229987,None,812.7462757229987,None,,,,,,,,,,,,,,,,,,,,,,,,,,,,,,,,,,,,,,,,,,,,,,,,,,,100919_p1,001,2019_Oct_09_1237,body_behavioural,3.2.2,59.9425938164854,
1,,,0,1,1,1,,,,,,,,,,,,,,,,,,,,,,,,,,,,,,,,,,,,,,,,,,,,,,,,,,,,,,,,,,,,,,,,,,,,,,,,,,,,,,,,,813.1162918970003,None,813.1162918970003,None,space,1.0063149509987852,813.1162918970003,None,,,,,,,,,,,,,,,,,,,,,,,,,,,,,,,,,,,,,,,,,,,100919_p1,001,2019_Oct_09_1237,body_behavioural,3.2.2,59.9425938164854,
2,,,0,2,2,2,0,0,0,0,,,,,,,,,,,,,,,,,814.1684057739985,None,space,0.6261653370020213,814.1684057739985,None,814.1684057739985,None,814.8354245209994,None,space,0.5991409240014036,814.8354245209994,None,815.5022352959968,None,815.5022352959968,None,815.5022352959968,None,816.1312690449995,None,space,0.6153576479991898,816.1312690449995,None,816.8980280979995,None,816.8980280979995,None,816.8980280979995,None,816.8980280979995,None,816.8980280979995,None,816.8980280979995,None,816.8980280979995,None,,,,,,,,,,,,,,,,,,,,,,,,,,,,,,,,,,,,,,,,,,,,,,,,,,,,,,,,,,,,,,,,,,,,,,,100919_p1,001,2019_Oct_09_1237,body_behavioural,3.2.2,59.9425938164854,
2,parcelated_audio/14/14_1.ogg,,0,2,2,2,,,,,0,0,0,0,,,,,,,,,,,,,,,,,,,,,,,,,,,840.534563915,None,840.534563915,None,840.534563915,None,,,,,,,,,,,,,,,,,,,,,839.9098092919994,None,space,0.5890464339972823,839.9098092919994,None,841.0275395259996,None,space,1.055489772999863,841.0275395259996,None,9,0.38537913499749266,849.0362583259994,None,849.0362583259994,None,849.0362583259994,None,,,,,,,,,,,,,,,,,,,,,,,,,,,,,,,,,,,,,,,,,,,,,,,,,,,100919_p1,001,2019_Oct_09_1237,body_behavioural,3.2.2,59.9425938164854,
2,parcelated_audio/14/14_2.ogg,,0,2,2,2,,,,,0,1,1,1,,,,,,,,,,,,,,,,,,,,,,,,,,,,,,,,,,,,,,,,,,,,,,,,,,,,,,,,,,,,,,,,,1,1.2072381090001727,856.0560876169984,None,856.0560876169984,None,856.0560876169984,None,,,,,,,,,,,,,,,,,,,,,,,,,,,,,,,,,,,,,,,,,,,,,,,,,,,100919_p1,001,2019_Oct_09_1237,body_behavioural,3.2.2,59.9425938164854,
2,parcelated_audio/14/14_3.ogg,,0,2,2,2,,,,,0,2,2,2,,,,,,,,,,,,,,,,,,,,,,,,,,,,,,,,,,,,,,,,,,,,,,,,,,,,,,,,,,,,,,,,,1,3.169522272000904,861.0546456229968,None,861.0546456229968,None,861.0546456229968,None,,,,,,,,,,,,,,,,,,,,,,,,,,,,,,,,,,,,,,,,,,,,,,,,,,,100919_p1,001,2019_Oct_09_1237,body_behavioural,3.2.2,59.9425938164854,
2,parcelated_audio/14/14_4.ogg,,0,2,2,2,,,,,0,3,3,3,,,,,,,,,,,,,,,,,,,,,,,,,,,,,,,,,,,,,,,,,,,,,,,,,,,,,,,,,,,,,,,,,1,0.4000524709990714,872.2562451749982,None,872.2562451749982,None,872.2562451749982,None,,,,,,,,,,,,,,,,,,,,,,,,,,,,,,,,,,,,,,,,,,,,,,,,,,,100919_p1,001,2019_Oct_09_1237,body_behavioural,3.2.2,59.9425938164854,
2,parcelated_audio/14/14_5.ogg,,0,2,2,2,,,,,0,4,4,4,,,,,,,,,,,,,,,,,,,,,,,,,,,,,,,,,,,,,,,,,,,,,,,,,,,,,,,,,,,,,,,,,1,1.7293030030014052,877.5908876549984,None,877.5908876549984,None,877.5908876549984,None,,,,,,,,,,,,,,,,,,,,,,,,,,,,,,,,,,,,,,,,,,,,,,,,,,,100919_p1,001,2019_Oct_09_1237,body_behavioural,3.2.2,59.9425938164854,
2,parcelated_audio/14/14_6.ogg,,0,2,2,2,,,,,0,5,5,5,,,,,,,,,,,,,,,,,,,,,,,,,,,,,,,,,,,,,,,,,,,,,,,,,,,,,,,,,,,,,,,,,1,4.077124143997935,885.2589840889996,None,885.2589840889996,None,885.2589840889996,None,,,,,,,,,,,,,,,,,,,,,,,,,,,,,,,,,,,,,,,,,,,,,,,,,,,100919_p1,001,2019_Oct_09_1237,body_behavioural,3.2.2,59.9425938164854,
2,parcelated_audio/14/14_7.ogg,,0,2,2,2,,,,,0,6,6,6,,,,,,,,,,,,,,,,,,,,,,,,,,,,,,,,,,,,,,,,,,,,,,,,,,,,,,,,,,,,,,,,,1,2.035108562999085,899.0460993749984,None,899.0460993749984,None,899.0460993749984,None,,,,,,,,,,,,,,,,,,,,,,,,,,,,,,,,,,,,,,,,,,,,,,,,,,,100919_p1,001,2019_Oct_09_1237,body_behavioural,3.2.2,59.9425938164854,
2,parcelated_audio/14/14_8.ogg,,0,2,2,2,,,,,0,7,7,7,,,,,,,,,,,,,,,,,,,,,,,,,,,,,,,,,,,,,,,,,,,,,,,,,,,,,,,,,,,,,,,,,1,0.318097592000413,906.3790949409995,None,906.3790949409995,None,906.3790949409995,None,,,,,,,,,,,,,,,,,,,,,,,,,,,,,,,,,,,,,,,,,,,,,,,,,,,100919_p1,001,2019_Oct_09_1237,body_behavioural,3.2.2,59.9425938164854,
2,parcelated_audio/14/14_9.ogg,,0,2,2,2,,,,,0,8,8,8,,,,,,,,,,,,,,,,,,,,,,,,,,,,,,,,,,,,,,,,,,,,,,,,,,,,,,,,,,,,,,,,,1,0.2230635310006619,910.530240885997,None,910.530240885997,None,910.530240885997,None,,,,,,,,,,,,,,,,,,,,,,,,,,,,,,,,,,,,,,,,,,,,,,,,,,,100919_p1,001,2019_Oct_09_1237,body_behavioural,3.2.2,59.9425938164854,
2,parcelated_audio/14/14_10.ogg,,0,2,2,2,,,,,0,9,9,9,,,,,,,,,,,,,,,,,,,,,,,,,,,,,,,,,,,,,,,,,,,,,,,,,,,,,,,,,,,,,,,,,1,0.2315556559988181,925.785560458,None,925.785560458,None,925.785560458,None,,,,,,,,,,,,,,,,,,,,,,,,,,,,,,,,,,,,,,,,,,,,,,,,,,,100919_p1,001,2019_Oct_09_1237,body_behavioural,3.2.2,59.9425938164854,
2,parcelated_audio/14/14_11.ogg,,0,2,2,2,,,,,0,10,10,10,,,,,,,,,,,,,,,,,,,,,,,,,,,,,,,,,,,,,,,,,,,,,,,,,,,,,,,,,,,,,,,,,1,0.25236577599935117,933.3169839539987,None,933.3169839539987,None,933.3169839539987,None,,,,,,,,,,,,,,,,,,,,,,,,,,,,,,,,,,,,,,,,,,,,,,,,,,,100919_p1,001,2019_Oct_09_1237,body_behavioural,3.2.2,59.9425938164854,
2,parcelated_audio/14/14_12.ogg,,0,2,2,2,,,,,0,11,11,11,,,,,,,,,,,,,,,,,,,,,,,,,,,,,,,,,,,,,,,,,,,,,,,,,,,,,,,,,,,,,,,,,1,0.2115098299982492,941.653645680999,None,941.653645680999,None,941.653645680999,None,,,,,,,,,,,,,,,,,,,,,,,,,,,,,,,,,,,,,,,,,,,,,,,,,,,100919_p1,001,2019_Oct_09_1237,body_behavioural,3.2.2,59.9425938164854,
2,parcelated_audio/14/14_13.ogg,,0,2,2,2,,,,,0,12,12,12,,,,,,,,,,,,,,,,,,,,,,,,,,,,,,,,,,,,,,,,,,,,,,,,,,,,,,,,,,,,,,,,,1,0.3074210420018062,948.0698954250001,None,948.0698954250001,None,948.0698954250001,None,,,,,,,,,,,,,,,,,,,,,,,,,,,,,,,,,,,,,,,,,,,,,,,,,,,100919_p1,001,2019_Oct_09_1237,body_behavioural,3.2.2,59.9425938164854,
2,parcelated_audio/14/14_14.ogg,,0,2,2,2,,,,,0,13,13,13,,,,,,,,,,,,,,,,,,,,,,,,,,,,,,,,,,,,,,,,,,,,,,,,,,,,,,,,,,,,,,,,,9,2.7798719679994974,955.0373649100002,None,955.0373649100002,None,955.0373649100002,None,,,,,,,,,,,,,,,,,,,,,,,,,,,,,,,,,,,,,,,,,,,,,,,,,,,100919_p1,001,2019_Oct_09_1237,body_behavioural,3.2.2,59.9425938164854,
2,parcelated_audio/14/14_15.ogg,,0,2,2,2,,,,,0,14,14,14,,,,,,,,,,,,,,,,,,,,,,,,,,,,,,,,,,,,,,,,,,,,,,,,,,,,,,,,,,,,,,,,,1,0.21182780399976764,965.0054920289986,None,965.0054920289986,None,965.0054920289986,None,,,,,,,,,,,,,,,,,,,,,,,,,,,,,,,,,,,,,,,,,,,,,,,,,,,100919_p1,001,2019_Oct_09_1237,body_behavioural,3.2.2,59.9425938164854,
2,parcelated_audio/14/14_16.ogg,,0,2,2,2,,,,,0,15,15,15,,,,,,,,,,,,,,,,,,,,,,,,,,,,,,,,,,,,,,,,,,,,,,,,,,,,,,,,,,,,,,,,,1,0.20595082500221906,970.7233537969987,None,970.7233537969987,None,970.7233537969987,None,,,,,,,,,,,,,,,,,,,,,,,,,,,,,,,,,,,,,,,,,,,,,,,,,,,100919_p1,001,2019_Oct_09_1237,body_behavioural,3.2.2,59.9425938164854,
2,parcelated_audio/14/14_17.ogg,,0,2,2,2,,,,,0,16,16,16,,,,,,,,,,,,,,,,,,,,,,,,,,,,,,,,,,,,,,,,,,,,,,,,,,,,,,,,,,,,,,,,,1,0.2762242410026374,980.7089637859972,None,980.7089637859972,None,980.7089637859972,None,,,,,,,,,,,,,,,,,,,,,,,,,,,,,,,,,,,,,,,,,,,,,,,,,,,100919_p1,001,2019_Oct_09_1237,body_behavioural,3.2.2,59.9425938164854,
2,parcelated_audio/14/14_18.ogg,,0,2,2,2,,,,,0,17,17,17,,,,,,,,,,,,,,,,,,,,,,,,,,,,,,,,,,,,,,,,,,,,,,,,,,,,,,,,,,,,,,,,,1,6.126066083998012,991.0112538789981,None,991.0112538789981,None,991.0112538789981,None,,,,,,,,,,,,,,,,,,,,,,,,,,,,,,,,,,,,,,,,,,,,,,,,,,,100919_p1,001,2019_Oct_09_1237,body_behavioural,3.2.2,59.9425938164854,
2,parcelated_audio/14/14_19.ogg,,0,2,2,2,,,,,0,18,18,18,,,,,,,,,,,,,,,,,,,,,,,,,,,,,,,,,,,,,,,,,,,,,,,,,,,,,,,,,,,,,,,,,1,0.6014994500001194,1000.0956496949984,None,1000.0956496949984,None,1000.0956496949984,None,,,,,,,,,,,,,,,,,,,,,,,,,,,,,,,,,,,,,,,,,,,,,,,,,,,100919_p1,001,2019_Oct_09_1237,body_behavioural,3.2.2,59.9425938164854,
2,parcelated_audio/14/14_20.ogg,,0,2,2,2,,,,,0,19,19,19,,,,,,,,,,,,,,,,,,,,,,,,,,,,,,,,,,,,,,,,,,,,,,,,,,,,,,,,,,,,,,,,,1,0.2798689050032408,1002.929303298999,None,1002.929303298999,None,1002.929303298999,None,,,,,,,,,,,,,,,,,,,,,,,,,,,,,,,,,,,,,,,,,,,,,,,,,,,100919_p1,001,2019_Oct_09_1237,body_behavioural,3.2.2,59.9425938164854,
2,parcelated_audio/14/14_21.ogg,,0,2,2,2,,,,,0,20,20,20,,,,,,,,,,,,,,,,,,,,,,,,,,,,,,,,,,,,,,,,,,,,,,,,,,,,,,,,,,,,,,,,,1,5.1238446939969435,1012.8475035619995,None,1012.8475035619995,None,1012.8475035619995,None,,,,,,,,,,,,,,,,,,,,,,,,,,,,,,,,,,,,,,,,,,,,,,,,,,,100919_p1,001,2019_Oct_09_1237,body_behavioural,3.2.2,59.9425938164854,
2,parcelated_audio/14/14_22.ogg,,0,2,2,2,,,,,0,21,21,21,,,,,,,,,,,,,,,,,,,,,,,,,,,,,,,,,,,,,,,,,,,,,,,,,,,,,,,,,,,,,,,,,1,0.17883235300178058,1024.4163298269996,None,1024.4163298269996,None,1024.4163298269996,None,,,,,,,,,,,,,,,,,,,,,,,,,,,,,,,,,,,,,,,,,,,,,,,,,,,100919_p1,001,2019_Oct_09_1237,body_behavioural,3.2.2,59.9425938164854,
2,parcelated_audio/14/14_23.ogg,,0,2,2,2,,,,,0,22,22,22,,,,,,,,,,,,,,,,,,,,,,,,,,,,,,,,,,,,,,,,,,,,,,,,,,,,,,,,,,,,,,,,,1,0.42276883500016993,1029.7165470039981,None,1029.7165470039981,None,1029.7165470039981,None,,,,,,,,,,,,,,,,,,,,,,,,,,,,,,,,,,,,,,,,,,,,,,,,,,,100919_p1,001,2019_Oct_09_1237,body_behavioural,3.2.2,59.9425938164854,
2,parcelated_audio/14/14_24.ogg,,0,2,2,2,,,,,0,23,23,23,,,,,,,,,,,,,,,,,,,,,,,,,,,,,,,,,,,,,,,,,,,,,,,,,,,,,,,,,,,,,,,,,1,0.12405602400031057,1041.1352642780002,None,1041.1352642780002,None,1041.1352642780002,None,,,,,,,,,,,,,,,,,,,,,,,,,,,,,,,,,,,,,,,,,,,,,,,,,,,100919_p1,001,2019_Oct_09_1237,body_behavioural,3.2.2,59.9425938164854,
2,parcelated_audio/14/14_25.ogg,,0,2,2,2,,,,,0,24,24,24,,,,,,,,,,,,,,,,,,,,,,,,,,,,,,,,,,,,,,,,,,,,,,,,,,,,,,,,,,,,,,,,,1,0.29667050699936226,1048.0025136179975,None,1048.0025136179975,None,1048.0025136179975,None,,,,,,,,,,,,,,,,,,,,,,,,,,,,,,,,,,,,,,,,,,,,,,,,,,,100919_p1,001,2019_Oct_09_1237,body_behavioural,3.2.2,59.9425938164854,
2,parcelated_audio/14/14_26.ogg,,0,2,2,2,,,,,0,25,25,25,,,,,,,,,,,,,,,,,,,,,,,,,,,,,,,,,,,,,,,,,,,,,,,,,,,,,,,,,,,,,,,,,1,0.08141372299724026,1050.5537619089991,None,1050.5537619089991,None,1050.5537619089991,None,,,,,,,,,,,,,,,,,,,,,,,,,,,,,,,,,,,,,,,,,,,,,,,,,,,100919_p1,001,2019_Oct_09_1237,body_behavioural,3.2.2,59.9425938164854,
2,parcelated_audio/14/14_27.ogg,,0,2,2,2,,,,,0,26,26,26,,,,,,,,,,,,,,,,,,,,,,,,,,,,,,,,,,,,,,,,,,,,,,,,,,,,,,,,,,,,,,,,,9,4.504291667999496,1056.7549457349996,None,1056.7549457349996,None,1056.7549457349996,None,,,,,,,,,,,,,,,,,,,,,,,,,,,,,,,,,,,,,,,,,,,,,,,,,,,100919_p1,001,2019_Oct_09_1237,body_behavioural,3.2.2,59.9425938164854,
2,parcelated_audio/14/14_28.ogg,,0,2,2,2,,,,,0,27,27,27,,,,,,,,,,,,,,,,,,,,,,,,,,,,,,,,,,,,,,,,,,,,,,,,,,,,,,,,,,,,,,,,,1,0.2959273950000352,1064.3232571789995,None,1064.3232571789995,None,1064.3232571789995,None,,,,,,,,,,,,,,,,,,,,,,,,,,,,,,,,,,,,,,,,,,,,,,,,,,,100919_p1,001,2019_Oct_09_1237,body_behavioural,3.2.2,59.9425938164854,
2,parcelated_audio/14/14_29.ogg,,0,2,2,2,,,,,0,28,28,28,,,,,,,,,,,,,,,,,,,,,,,,,,,,,,,,,,,,,,,,,,,,,,,,,,,,,,,,,,,,,,,,,1,3.089894311000535,1067.057421141999,None,1067.057421141999,None,1067.057421141999,None,,,,,,,,,,,,,,,,,,,,,,,,,,,,,,,,,,,,,,,,,,,,,,,,,,,100919_p1,001,2019_Oct_09_1237,body_behavioural,3.2.2,59.9425938164854,
2,parcelated_audio/14/14_30.ogg,,0,2,2,2,,,,,0,29,29,29,,,,,,,,,,,,,,,,,,,,,,,,,,,,,,,,,,,,,,,,,,,,,,,,,,,,,,,,,,,,,,,,,1,0.3689193530008197,1074.4742746159973,None,1074.4742746159973,None,1074.4742746159973,None,,,,,,,,,,,,,,,,,,,,,,,,,,,,,,,,,,,,,,,,,,,,,,,,,,,100919_p1,001,2019_Oct_09_1237,body_behavioural,3.2.2,59.9425938164854,
2,parcelated_audio/14/14_31.ogg,,0,2,2,2,,,,,0,30,30,30,,,,,,,,,,,,,,,,,,,,,,,,,,,,,,,,,,,,,,,,,,,,,,,,,,,,,,,,,,,,,,,,,1,0.21773590999873704,1082.1934685989982,None,1082.1934685989982,None,1082.1934685989982,None,,,,,,,,,,,,,,,,,,,,,,,,,,,,,,,,,,,,,,,,,,,,,,,,,,,100919_p1,001,2019_Oct_09_1237,body_behavioural,3.2.2,59.9425938164854,
2,parcelated_audio/14/14_32.ogg,,0,2,2,2,,,,,0,31,31,31,,,,,,,,,,,,,,,,,,,,,,,,,,,,,,,,,,,,,,,,,,,,,,,,,,,,,,,,,,,,,,,,,1,0.2625821649999125,1089.6605786919972,None,1089.6605786919972,None,1089.6605786919972,None,,,,,,,,,,,,,,,,,,,,,,,,,,,,,,,,,,,,,,,,,,,,,,,,,,,100919_p1,001,2019_Oct_09_1237,body_behavioural,3.2.2,59.9425938164854,
2,parcelated_audio/14/14_33.ogg,,0,2,2,2,,,,,0,32,32,32,,,,,,,,,,,,,,,,,,,,,,,,,,,,,,,,,,,,,,,,,,,,,,,,,,,,,,,,,,,,,,,,,1,0.7448551300003601,1096.5784619529986,None,1096.5784619529986,None,1096.5784619529986,None,,,,,,,,,,,,,,,,,,,,,,,,,,,,,,,,,,,,,,,,,,,,,,,,,,,100919_p1,001,2019_Oct_09_1237,body_behavioural,3.2.2,59.9425938164854,
2,,,0,2,2,2,,,,,,,,,,,,,,,,,,,,,,,,,,,,,,,,,,,,,,,,,,,,,,,,,,,,,,,,,,,,,,,,,,,,,,,,,,,,,,,,,1097.361466364,None,1097.361466364,None,space,0.8338389730015479,1097.361466364,None,,,,,,,,,,,,,,,,,,,,,,,,,,,,,,,,,,,,,,,,,,,100919_p1,001,2019_Oct_09_1237,body_behavioural,3.2.2,59.9425938164854,
3,,,0,3,3,3,0,0,0,0,,,,,,,,,,,,,,,,,1098.2499672470003,None,space,0.45725483800197253,1098.2499672470003,None,1098.2499672470003,None,1098.7499826509993,None,space,0.42929359700065106,1098.7499826509993,None,1099.2373421539996,None,1099.2373421539996,None,1099.2373421539996,None,1099.7631473729998,None,space,0.4480920839996543,1099.7631473729998,None,1100.3448972650003,None,1100.3448972650003,None,1100.3448972650003,None,1100.3448972650003,None,1100.3448972650003,None,1100.3448972650003,None,1100.3448972650003,None,,,,,,,,,,,,,,,,,,,,,,,,,,,,,,,,,,,,,,,,,,,,,,,,,,,,,,,,,,,,,,,,,,,,,,,100919_p1,001,2019_Oct_09_1237,body_behavioural,3.2.2,59.9425938164854,
3,parcelated_audio/11/11_1.ogg,,0,3,3,3,,,,,0,0,0,0,,,,,,,,,,,,,,,,,,,,,,,,,,,1115.482678774999,None,1115.482678774999,None,1115.482678774999,None,,,,,,,,,,,,,,,,,,,,,1113.7722545709985,None,space,1.662930097001663,1113.7722545709985,None,1117.1542361079992,None,space,2.2889103070010606,1117.1542361079992,None,9,0.21372636199885164,1131.5000984580001,None,1131.5000984580001,None,1131.5000984580001,None,,,,,,,,,,,,,,,,,,,,,,,,,,,,,,,,,,,,,,,,,,,,,,,,,,,100919_p1,001,2019_Oct_09_1237,body_behavioural,3.2.2,59.9425938164854,
3,parcelated_audio/11/11_2.ogg,,0,3,3,3,,,,,0,1,1,1,,,,,,,,,,,,,,,,,,,,,,,,,,,,,,,,,,,,,,,,,,,,,,,,,,,,,,,,,,,,,,,,,1,0.7142981360011618,1136.2693512349979,None,1136.2693512349979,None,1136.2693512349979,None,,,,,,,,,,,,,,,,,,,,,,,,,,,,,,,,,,,,,,,,,,,,,,,,,,,100919_p1,001,2019_Oct_09_1237,body_behavioural,3.2.2,59.9425938164854,
3,parcelated_audio/11/11_3.ogg,,0,3,3,3,,,,,0,2,2,2,,,,,,,,,,,,,,,,,,,,,,,,,,,,,,,,,,,,,,,,,,,,,,,,,,,,,,,,,,,,,,,,,1,0.3237126630010607,1142.0529241549993,None,1142.0529241549993,None,1142.0529241549993,None,,,,,,,,,,,,,,,,,,,,,,,,,,,,,,,,,,,,,,,,,,,,,,,,,,,100919_p1,001,2019_Oct_09_1237,body_behavioural,3.2.2,59.9425938164854,
3,parcelated_audio/11/11_4.ogg,,0,3,3,3,,,,,0,3,3,3,,,,,,,,,,,,,,,,,,,,,,,,,,,,,,,,,,,,,,,,,,,,,,,,,,,,,,,,,,,,,,,,,1,0.013381257002038183,1151.554563548998,None,1151.554563548998,None,1151.554563548998,None,,,,,,,,,,,,,,,,,,,,,,,,,,,,,,,,,,,,,,,,,,,,,,,,,,,100919_p1,001,2019_Oct_09_1237,body_behavioural,3.2.2,59.9425938164854,
3,parcelated_audio/11/11_5.ogg,,0,3,3,3,,,,,0,4,4,4,,,,,,,,,,,,,,,,,,,,,,,,,,,,,,,,,,,,,,,,,,,,,,,,,,,,,,,,,,,,,,,,,1,0.2282616729971778,1157.388410468,None,1157.388410468,None,1157.388410468,None,,,,,,,,,,,,,,,,,,,,,,,,,,,,,,,,,,,,,,,,,,,,,,,,,,,100919_p1,001,2019_Oct_09_1237,body_behavioural,3.2.2,59.9425938164854,
3,parcelated_audio/11/11_6.ogg,,0,3,3,3,,,,,0,5,5,5,,,,,,,,,,,,,,,,,,,,,,,,,,,,,,,,,,,,,,,,,,,,,,,,,,,,,,,,,,,,,,,,,1,0.34892833099729614,1162.272229858998,None,1162.272229858998,None,1162.272229858998,None,,,,,,,,,,,,,,,,,,,,,,,,,,,,,,,,,,,,,,,,,,,,,,,,,,,100919_p1,001,2019_Oct_09_1237,body_behavioural,3.2.2,59.9425938164854,
3,parcelated_audio/11/11_7.ogg,,0,3,3,3,,,,,0,6,6,6,,,,,,,,,,,,,,,,,,,,,,,,,,,,,,,,,,,,,,,,,,,,,,,,,,,,,,,,,,,,,,,,,1,0.8858609540002362,1169.2260628329968,None,1169.2260628329968,None,1169.2260628329968,None,,,,,,,,,,,,,,,,,,,,,,,,,,,,,,,,,,,,,,,,,,,,,,,,,,,100919_p1,001,2019_Oct_09_1237,body_behavioural,3.2.2,59.9425938164854,
3,parcelated_audio/11/11_8.ogg,,0,3,3,3,,,,,0,7,7,7,,,,,,,,,,,,,,,,,,,,,,,,,,,,,,,,,,,,,,,,,,,,,,,,,,,,,,,,,,,,,,,,,1,0.6179841439989104,1175.9580563959971,None,1175.9580563959971,None,1175.9580563959971,None,,,,,,,,,,,,,,,,,,,,,,,,,,,,,,,,,,,,,,,,,,,,,,,,,,,100919_p1,001,2019_Oct_09_1237,body_behavioural,3.2.2,59.9425938164854,
3,parcelated_audio/11/11_9.ogg,,0,3,3,3,,,,,0,8,8,8,,,,,,,,,,,,,,,,,,,,,,,,,,,,,,,,,,,,,,,,,,,,,,,,,,,,,,,,,,,,,,,,,1,0.4591719890013337,1180.958363431997,None,1180.958363431997,None,1180.958363431997,None,,,,,,,,,,,,,,,,,,,,,,,,,,,,,,,,,,,,,,,,,,,,,,,,,,,100919_p1,001,2019_Oct_09_1237,body_behavioural,3.2.2,59.9425938164854,
3,parcelated_audio/11/11_10.ogg,,0,3,3,3,,,,,0,9,9,9,,,,,,,,,,,,,,,,,,,,,,,,,,,,,,,,,,,,,,,,,,,,,,,,,,,,,,,,,,,,,,,,,1,0.3649802859981719,1186.1261147349978,None,1186.1261147349978,None,1186.1261147349978,None,,,,,,,,,,,,,,,,,,,,,,,,,,,,,,,,,,,,,,,,,,,,,,,,,,,100919_p1,001,2019_Oct_09_1237,body_behavioural,3.2.2,59.9425938164854,
3,parcelated_audio/11/11_11.ogg,,0,3,3,3,,,,,0,10,10,10,,,,,,,,,,,,,,,,,,,,,,,,,,,,,,,,,,,,,,,,,,,,,,,,,,,,,,,,,,,,,,,,,1,0.22687557799872593,1189.7120110249998,None,1189.7120110249998,None,1189.7120110249998,None,,,,,,,,,,,,,,,,,,,,,,,,,,,,,,,,,,,,,,,,,,,,,,,,,,,100919_p1,001,2019_Oct_09_1237,body_behavioural,3.2.2,59.9425938164854,
3,parcelated_audio/11/11_12.ogg,,0,3,3,3,,,,,0,11,11,11,,,,,,,,,,,,,,,,,,,,,,,,,,,,,,,,,,,,,,,,,,,,,,,,,,,,,,,,,,,,,,,,,1,0.27787557400006335,1192.8451489269974,None,1192.8451489269974,None,1192.8451489269974,None,,,,,,,,,,,,,,,,,,,,,,,,,,,,,,,,,,,,,,,,,,,,,,,,,,,100919_p1,001,2019_Oct_09_1237,body_behavioural,3.2.2,59.9425938164854,
3,parcelated_audio/11/11_13.ogg,,0,3,3,3,,,,,0,12,12,12,,,,,,,,,,,,,,,,,,,,,,,,,,,,,,,,,,,,,,,,,,,,,,,,,,,,,,,,,,,,,,,,,1,0.05868673900113208,1196.5282349129993,None,1196.5282349129993,None,1196.5282349129993,None,,,,,,,,,,,,,,,,,,,,,,,,,,,,,,,,,,,,,,,,,,,,,,,,,,,100919_p1,001,2019_Oct_09_1237,body_behavioural,3.2.2,59.9425938164854,
3,parcelated_audio/11/11_14.ogg,,0,3,3,3,,,,,0,13,13,13,,,,,,,,,,,,,,,,,,,,,,,,,,,,,,,,,,,,,,,,,,,,,,,,,,,,,,,,,,,,,,,,,1,0.45773345199995674,1199.3613115419976,None,1199.3613115419976,None,1199.3613115419976,None,,,,,,,,,,,,,,,,,,,,,,,,,,,,,,,,,,,,,,,,,,,,,,,,,,,100919_p1,001,2019_Oct_09_1237,body_behavioural,3.2.2,59.9425938164854,
3,parcelated_audio/11/11_15.ogg,,0,3,3,3,,,,,0,14,14,14,,,,,,,,,,,,,,,,,,,,,,,,,,,,,,,,,,,,,,,,,,,,,,,,,,,,,,,,,,,,,,,,,1,0.507704793002631,1211.0970412539973,None,1211.0970412539973,None,1211.0970412539973,None,,,,,,,,,,,,,,,,,,,,,,,,,,,,,,,,,,,,,,,,,,,,,,,,,,,100919_p1,001,2019_Oct_09_1237,body_behavioural,3.2.2,59.9425938164854,
3,parcelated_audio/11/11_16.ogg,,0,3,3,3,,,,,0,15,15,15,,,,,,,,,,,,,,,,,,,,,,,,,,,,,,,,,,,,,,,,,,,,,,,,,,,,,,,,,,,,,,,,,1,0.36337514799743076,1214.681370858998,None,1214.681370858998,None,1214.681370858998,None,,,,,,,,,,,,,,,,,,,,,,,,,,,,,,,,,,,,,,,,,,,,,,,,,,,100919_p1,001,2019_Oct_09_1237,body_behavioural,3.2.2,59.9425938164854,
3,parcelated_audio/11/11_17.ogg,,0,3,3,3,,,,,0,16,16,16,,,,,,,,,,,,,,,,,,,,,,,,,,,,,,,,,,,,,,,,,,,,,,,,,,,,,,,,,,,,,,,,,1,0.3339797870030452,1222.0993725219996,None,1222.0993725219996,None,1222.0993725219996,None,,,,,,,,,,,,,,,,,,,,,,,,,,,,,,,,,,,,,,,,,,,,,,,,,,,100919_p1,001,2019_Oct_09_1237,body_behavioural,3.2.2,59.9425938164854,
3,parcelated_audio/11/11_18.ogg,,0,3,3,3,,,,,0,17,17,17,,,,,,,,,,,,,,,,,,,,,,,,,,,,,,,,,,,,,,,,,,,,,,,,,,,,,,,,,,,,,,,,,1,0.36382000599769526,1229.9843410249996,None,1229.9843410249996,None,1229.9843410249996,None,,,,,,,,,,,,,,,,,,,,,,,,,,,,,,,,,,,,,,,,,,,,,,,,,,,100919_p1,001,2019_Oct_09_1237,body_behavioural,3.2.2,59.9425938164854,
3,parcelated_audio/11/11_19.ogg,,0,3,3,3,,,,,0,18,18,18,,,,,,,,,,,,,,,,,,,,,,,,,,,,,,,,,,,,,,,,,,,,,,,,,,,,,,,,,,,,,,,,,9,8.432327670001541,1234.984895491998,None,1234.984895491998,None,1234.984895491998,None,,,,,,,,,,,,,,,,,,,,,,,,,,,,,,,,,,,,,,,,,,,,,,,,,,,100919_p1,001,2019_Oct_09_1237,body_behavioural,3.2.2,59.9425938164854,
3,parcelated_audio/11/11_20.ogg,,0,3,3,3,,,,,0,19,19,19,,,,,,,,,,,,,,,,,,,,,,,,,,,,,,,,,,,,,,,,,,,,,,,,,,,,,,,,,,,,,,,,,1,0.3489292079975712,1248.4206142019975,None,1248.4206142019975,None,1248.4206142019975,None,,,,,,,,,,,,,,,,,,,,,,,,,,,,,,,,,,,,,,,,,,,,,,,,,,,100919_p1,001,2019_Oct_09_1237,body_behavioural,3.2.2,59.9425938164854,
3,parcelated_audio/11/11_21.ogg,,0,3,3,3,,,,,0,20,20,20,,,,,,,,,,,,,,,,,,,,,,,,,,,,,,,,,,,,,,,,,,,,,,,,,,,,,,,,,,,,,,,,,1,0.5567098050014465,1257.6052161179978,None,1257.6052161179978,None,1257.6052161179978,None,,,,,,,,,,,,,,,,,,,,,,,,,,,,,,,,,,,,,,,,,,,,,,,,,,,100919_p1,001,2019_Oct_09_1237,body_behavioural,3.2.2,59.9425938164854,
3,parcelated_audio/11/11_22.ogg,,0,3,3,3,,,,,0,21,21,21,,,,,,,,,,,,,,,,,,,,,,,,,,,,,,,,,,,,,,,,,,,,,,,,,,,,,,,,,,,,,,,,,9,0.2860042800020892,1261.5566780679983,None,1261.5566780679983,None,1261.5566780679983,None,,,,,,,,,,,,,,,,,,,,,,,,,,,,,,,,,,,,,,,,,,,,,,,,,,,100919_p1,001,2019_Oct_09_1237,body_behavioural,3.2.2,59.9425938164854,
3,parcelated_audio/11/11_23.ogg,,0,3,3,3,,,,,0,22,22,22,,,,,,,,,,,,,,,,,,,,,,,,,,,,,,,,,,,,,,,,,,,,,,,,,,,,,,,,,,,,,,,,,1,2.617500961998303,1266.7235170249987,None,1266.7235170249987,None,1266.7235170249987,None,,,,,,,,,,,,,,,,,,,,,,,,,,,,,,,,,,,,,,,,,,,,,,,,,,,100919_p1,001,2019_Oct_09_1237,body_behavioural,3.2.2,59.9425938164854,
3,parcelated_audio/11/11_24.ogg,,0,3,3,3,,,,,0,23,23,23,,,,,,,,,,,,,,,,,,,,,,,,,,,,,,,,,,,,,,,,,,,,,,,,,,,,,,,,,,,,,,,,,1,2.6214094389979437,1273.0581442309995,None,1273.0581442309995,None,1273.0581442309995,None,,,,,,,,,,,,,,,,,,,,,,,,,,,,,,,,,,,,,,,,,,,,,,,,,,,100919_p1,001,2019_Oct_09_1237,body_behavioural,3.2.2,59.9425938164854,
3,parcelated_audio/11/11_25.ogg,,0,3,3,3,,,,,0,24,24,24,,,,,,,,,,,,,,,,,,,,,,,,,,,,,,,,,,,,,,,,,,,,,,,,,,,,,,,,,,,,,,,,,1,5.322075768999639,1280.4788191379994,None,1280.4788191379994,None,1280.4788191379994,None,,,,,,,,,,,,,,,,,,,,,,,,,,,,,,,,,,,,,,,,,,,,,,,,,,,100919_p1,001,2019_Oct_09_1237,body_behavioural,3.2.2,59.9425938164854,
3,parcelated_audio/11/11_26.ogg,,0,3,3,3,,,,,0,25,25,25,,,,,,,,,,,,,,,,,,,,,,,,,,,,,,,,,,,,,,,,,,,,,,,,,,,,,,,,,,,,,,,,,1,0.3007344159996137,1290.862925600999,None,1290.862925600999,None,1290.862925600999,None,,,,,,,,,,,,,,,,,,,,,,,,,,,,,,,,,,,,,,,,,,,,,,,,,,,100919_p1,001,2019_Oct_09_1237,body_behavioural,3.2.2,59.9425938164854,
3,parcelated_audio/11/11_27.ogg,,0,3,3,3,,,,,0,26,26,26,,,,,,,,,,,,,,,,,,,,,,,,,,,,,,,,,,,,,,,,,,,,,,,,,,,,,,,,,,,,,,,,,1,1.4143926950018795,1295.2108619859973,None,1295.2108619859973,None,1295.2108619859973,None,,,,,,,,,,,,,,,,,,,,,,,,,,,,,,,,,,,,,,,,,,,,,,,,,,,100919_p1,001,2019_Oct_09_1237,body_behavioural,3.2.2,59.9425938164854,
3,parcelated_audio/11/11_28.ogg,,0,3,3,3,,,,,0,27,27,27,,,,,,,,,,,,,,,,,,,,,,,,,,,,,,,,,,,,,,,,,,,,,,,,,,,,,,,,,,,,,,,,,1,0.32793001100071706,1300.1120647649986,None,1300.1120647649986,None,1300.1120647649986,None,,,,,,,,,,,,,,,,,,,,,,,,,,,,,,,,,,,,,,,,,,,,,,,,,,,100919_p1,001,2019_Oct_09_1237,body_behavioural,3.2.2,59.9425938164854,
3,parcelated_audio/11/11_29.ogg,,0,3,3,3,,,,,0,28,28,28,,,,,,,,,,,,,,,,,,,,,,,,,,,,,,,,,,,,,,,,,,,,,,,,,,,,,,,,,,,,,,,,,1,0.3775872639998852,1304.69890992,None,1304.69890992,None,1304.69890992,None,,,,,,,,,,,,,,,,,,,,,,,,,,,,,,,,,,,,,,,,,,,,,,,,,,,100919_p1,001,2019_Oct_09_1237,body_behavioural,3.2.2,59.9425938164854,
3,parcelated_audio/11/11_30.ogg,,0,3,3,3,,,,,0,29,29,29,,,,,,,,,,,,,,,,,,,,,,,,,,,,,,,,,,,,,,,,,,,,,,,,,,,,,,,,,,,,,,,,,1,1.1926391859997238,1309.681699061999,None,1309.681699061999,None,1309.681699061999,None,,,,,,,,,,,,,,,,,,,,,,,,,,,,,,,,,,,,,,,,,,,,,,,,,,,100919_p1,001,2019_Oct_09_1237,body_behavioural,3.2.2,59.9425938164854,
3,parcelated_audio/11/11_31.ogg,,0,3,3,3,,,,,0,30,30,30,,,,,,,,,,,,,,,,,,,,,,,,,,,,,,,,,,,,,,,,,,,,,,,,,,,,,,,,,,,,,,,,,1,2.3854946790015674,1315.7999153259989,None,1315.7999153259989,None,1315.7999153259989,None,,,,,,,,,,,,,,,,,,,,,,,,,,,,,,,,,,,,,,,,,,,,,,,,,,,100919_p1,001,2019_Oct_09_1237,body_behavioural,3.2.2,59.9425938164854,
3,parcelated_audio/11/11_32.ogg,,0,3,3,3,,,,,0,31,31,31,,,,,,,,,,,,,,,,,,,,,,,,,,,,,,,,,,,,,,,,,,,,,,,,,,,,,,,,,,,,,,,,,9,0.30992932800290873,1322.3499863459983,None,1322.3499863459983,None,1322.3499863459983,None,,,,,,,,,,,,,,,,,,,,,,,,,,,,,,,,,,,,,,,,,,,,,,,,,,,100919_p1,001,2019_Oct_09_1237,body_behavioural,3.2.2,59.9425938164854,
3,parcelated_audio/11/11_33.ogg,,0,3,3,3,,,,,0,32,32,32,,,,,,,,,,,,,,,,,,,,,,,,,,,,,,,,,,,,,,,,,,,,,,,,,,,,,,,,,,,,,,,,,1,0.2555116600015026,1325.2522892119996,None,1325.2522892119996,None,1325.2522892119996,None,,,,,,,,,,,,,,,,,,,,,,,,,,,,,,,,,,,,,,,,,,,,,,,,,,,100919_p1,001,2019_Oct_09_1237,body_behavioural,3.2.2,59.9425938164854,
3,parcelated_audio/11/11_34.ogg,,0,3,3,3,,,,,0,33,33,33,,,,,,,,,,,,,,,,,,,,,,,,,,,,,,,,,,,,,,,,,,,,,,,,,,,,,,,,,,,,,,,,,1,0.3045710059996054,1328.9167571409998,None,1328.9167571409998,None,1328.9167571409998,None,,,,,,,,,,,,,,,,,,,,,,,,,,,,,,,,,,,,,,,,,,,,,,,,,,,100919_p1,001,2019_Oct_09_1237,body_behavioural,3.2.2,59.9425938164854,
3,parcelated_audio/11/11_35.ogg,,0,3,3,3,,,,,0,34,34,34,,,,,,,,,,,,,,,,,,,,,,,,,,,,,,,,,,,,,,,,,,,,,,,,,,,,,,,,,,,,,,,,,1,0.233419814001536,1333.668591456997,None,1333.668591456997,None,1333.668591456997,None,,,,,,,,,,,,,,,,,,,,,,,,,,,,,,,,,,,,,,,,,,,,,,,,,,,100919_p1,001,2019_Oct_09_1237,body_behavioural,3.2.2,59.9425938164854,
3,parcelated_audio/11/11_36.ogg,,0,3,3,3,,,,,0,35,35,35,,,,,,,,,,,,,,,,,,,,,,,,,,,,,,,,,,,,,,,,,,,,,,,,,,,,,,,,,,,,,,,,,1,0.2903358889998344,1343.003431623998,None,1343.003431623998,None,1343.003431623998,None,,,,,,,,,,,,,,,,,,,,,,,,,,,,,,,,,,,,,,,,,,,,,,,,,,,100919_p1,001,2019_Oct_09_1237,body_behavioural,3.2.2,59.9425938164854,
3,parcelated_audio/11/11_37.ogg,,0,3,3,3,,,,,0,36,36,36,,,,,,,,,,,,,,,,,,,,,,,,,,,,,,,,,,,,,,,,,,,,,,,,,,,,,,,,,,,,,,,,,1,0.39871481899899663,1347.537666737997,None,1347.537666737997,None,1347.537666737997,None,,,,,,,,,,,,,,,,,,,,,,,,,,,,,,,,,,,,,,,,,,,,,,,,,,,100919_p1,001,2019_Oct_09_1237,body_behavioural,3.2.2,59.9425938164854,
3,parcelated_audio/11/11_38.ogg,,0,3,3,3,,,,,0,37,37,37,,,,,,,,,,,,,,,,,,,,,,,,,,,,,,,,,,,,,,,,,,,,,,,,,,,,,,,,,,,,,,,,,1,0.5090761760002351,1354.1541644339995,None,1354.1541644339995,None,1354.1541644339995,None,,,,,,,,,,,,,,,,,,,,,,,,,,,,,,,,,,,,,,,,,,,,,,,,,,,100919_p1,001,2019_Oct_09_1237,body_behavioural,3.2.2,59.9425938164854,
3,parcelated_audio/11/11_39.ogg,,0,3,3,3,,,,,0,38,38,38,,,,,,,,,,,,,,,,,,,,,,,,,,,,,,,,,,,,,,,,,,,,,,,,,,,,,,,,,,,,,,,,,1,0.30172448200028157,1359.923911632999,None,1359.923911632999,None,1359.923911632999,None,,,,,,,,,,,,,,,,,,,,,,,,,,,,,,,,,,,,,,,,,,,,,,,,,,,100919_p1,001,2019_Oct_09_1237,body_behavioural,3.2.2,59.9425938164854,
3,parcelated_audio/11/11_40.ogg,,0,3,3,3,,,,,0,39,39,39,,,,,,,,,,,,,,,,,,,,,,,,,,,,,,,,,,,,,,,,,,,,,,,,,,,,,,,,,,,,,,,,,1,0.2650985709988163,1365.9740223699991,None,1365.9740223699991,None,1365.9740223699991,None,,,,,,,,,,,,,,,,,,,,,,,,,,,,,,,,,,,,,,,,,,,,,,,,,,,100919_p1,001,2019_Oct_09_1237,body_behavioural,3.2.2,59.9425938164854,
3,parcelated_audio/11/11_41.ogg,,0,3,3,3,,,,,0,40,40,40,,,,,,,,,,,,,,,,,,,,,,,,,,,,,,,,,,,,,,,,,,,,,,,,,,,,,,,,,,,,,,,,,1,0.6699972089991206,1372.460784715,None,1372.460784715,None,1372.460784715,None,,,,,,,,,,,,,,,,,,,,,,,,,,,,,,,,,,,,,,,,,,,,,,,,,,,100919_p1,001,2019_Oct_09_1237,body_behavioural,3.2.2,59.9425938164854,
3,,,0,3,3,3,,,,,,,,,,,,,,,,,,,,,,,,,,,,,,,,,,,,,,,,,,,,,,,,,,,,,,,,,,,,,,,,,,,,,,,,,,,,,,,,,1373.1597389609997,None,1373.1597389609997,None,space,1.8191551319978316,1373.1597389609997,None,,,,,,,,,,,,,,,,,,,,,,,,,,,,,,,,,,,,,,,,,,,100919_p1,001,2019_Oct_09_1237,body_behavioural,3.2.2,59.9425938164854,
4,,,0,4,4,4,0,0,0,0,,,,,,,,,,,,,,,,,1375.025024622999,None,space,0.8018676930005313,1375.025024622999,None,1375.025024622999,None,1375.8638909429974,None,space,0.5869892600021558,1375.8638909429974,None,1376.5090553429982,None,1376.5090553429982,None,1376.5090553429982,None,1377.1093739129974,None,space,0.4695246800001769,1377.1093739129974,None,1377.7309970889983,None,1377.7309970889983,None,1377.7309970889983,None,1377.7309970889983,None,1377.7309970889983,None,1377.7309970889983,None,1377.7309970889983,None,,,,,,,,,,,,,,,,,,,,,,,,,,,,,,,,,,,,,,,,,,,,,,,,,,,,,,,,,,,,,,,,,,,,,,,100919_p1,001,2019_Oct_09_1237,body_behavioural,3.2.2,59.9425938164854,
4,parcelated_audio/41/41_1.ogg,,0,4,4,4,,,,,0,0,0,0,,,,,,,,,,,,,,,,,,,,,,,,,,,1405.281118019997,None,1405.281118019997,None,1405.281118019997,None,,,,,,,,,,,,,,,,,,,,,1404.337621568,None,space,0.8929354359970603,1404.337621568,None,1405.753123639999,None,space,0.38943637299962575,1405.753123639999,None,9,1.010583413997665,1415.3156124659981,None,1415.3156124659981,None,1415.3156124659981,None,,,,,,,,,,,,,,,,,,,,,,,,,,,,,,,,,,,,,,,,,,,,,,,,,,,100919_p1,001,2019_Oct_09_1237,body_behavioural,3.2.2,59.9425938164854,
4,parcelated_audio/41/41_2.ogg,,0,4,4,4,,,,,0,1,1,1,,,,,,,,,,,,,,,,,,,,,,,,,,,,,,,,,,,,,,,,,,,,,,,,,,,,,,,,,,,,,,,,,1,0.46606411099855904,1423.6666285209976,None,1423.6666285209976,None,1423.6666285209976,None,,,,,,,,,,,,,,,,,,,,,,,,,,,,,,,,,,,,,,,,,,,,,,,,,,,100919_p1,001,2019_Oct_09_1237,body_behavioural,3.2.2,59.9425938164854,
4,parcelated_audio/41/41_3.ogg,,0,4,4,4,,,,,0,2,2,2,,,,,,,,,,,,,,,,,,,,,,,,,,,,,,,,,,,,,,,,,,,,,,,,,,,,,,,,,,,,,,,,,1,0.3908349170014844,1428.4834551799977,None,1428.4834551799977,None,1428.4834551799977,None,,,,,,,,,,,,,,,,,,,,,,,,,,,,,,,,,,,,,,,,,,,,,,,,,,,100919_p1,001,2019_Oct_09_1237,body_behavioural,3.2.2,59.9425938164854,
4,parcelated_audio/41/41_4.ogg,,0,4,4,4,,,,,0,3,3,3,,,,,,,,,,,,,,,,,,,,,,,,,,,,,,,,,,,,,,,,,,,,,,,,,,,,,,,,,,,,,,,,,1,3.88827844700063,1432.9029373979974,None,1432.9029373979974,None,1432.9029373979974,None,,,,,,,,,,,,,,,,,,,,,,,,,,,,,,,,,,,,,,,,,,,,,,,,,,,100919_p1,001,2019_Oct_09_1237,body_behavioural,3.2.2,59.9425938164854,
4,parcelated_audio/41/41_5.ogg,,0,4,4,4,,,,,0,4,4,4,,,,,,,,,,,,,,,,,,,,,,,,,,,,,,,,,,,,,,,,,,,,,,,,,,,,,,,,,,,,,,,,,1,0.6022838469980343,1443.0049066819993,None,1443.0049066819993,None,1443.0049066819993,None,,,,,,,,,,,,,,,,,,,,,,,,,,,,,,,,,,,,,,,,,,,,,,,,,,,100919_p1,001,2019_Oct_09_1237,body_behavioural,3.2.2,59.9425938164854,
4,parcelated_audio/41/41_6.ogg,,0,4,4,4,,,,,0,5,5,5,,,,,,,,,,,,,,,,,,,,,,,,,,,,,,,,,,,,,,,,,,,,,,,,,,,,,,,,,,,,,,,,,1,0.009715944001072785,1453.6215908049999,None,1453.6215908049999,None,1453.6215908049999,None,,,,,,,,,,,,,,,,,,,,,,,,,,,,,,,,,,,,,,,,,,,,,,,,,,,100919_p1,001,2019_Oct_09_1237,body_behavioural,3.2.2,59.9425938164854,
4,parcelated_audio/41/41_7.ogg,,0,4,4,4,,,,,0,6,6,6,,,,,,,,,,,,,,,,,,,,,,,,,,,,,,,,,,,,,,,,,,,,,,,,,,,,,,,,,,,,,,,,,1,0.02137317600136157,1461.4418181779984,None,1461.4418181779984,None,1461.4418181779984,None,,,,,,,,,,,,,,,,,,,,,,,,,,,,,,,,,,,,,,,,,,,,,,,,,,,100919_p1,001,2019_Oct_09_1237,body_behavioural,3.2.2,59.9425938164854,
4,parcelated_audio/41/41_8.ogg,,0,4,4,4,,,,,0,7,7,7,,,,,,,,,,,,,,,,,,,,,,,,,,,,,,,,,,,,,,,,,,,,,,,,,,,,,,,,,,,,,,,,,1,0.24701124399871333,1465.7762822879995,None,1465.7762822879995,None,1465.7762822879995,None,,,,,,,,,,,,,,,,,,,,,,,,,,,,,,,,,,,,,,,,,,,,,,,,,,,100919_p1,001,2019_Oct_09_1237,body_behavioural,3.2.2,59.9425938164854,
4,parcelated_audio/41/41_9.ogg,,0,4,4,4,,,,,0,8,8,8,,,,,,,,,,,,,,,,,,,,,,,,,,,,,,,,,,,,,,,,,,,,,,,,,,,,,,,,,,,,,,,,,1,0.30517607100046007,1475.742014749998,None,1475.742014749998,None,1475.742014749998,None,,,,,,,,,,,,,,,,,,,,,,,,,,,,,,,,,,,,,,,,,,,,,,,,,,,100919_p1,001,2019_Oct_09_1237,body_behavioural,3.2.2,59.9425938164854,
4,parcelated_audio/41/41_10.ogg,,0,4,4,4,,,,,0,9,9,9,,,,,,,,,,,,,,,,,,,,,,,,,,,,,,,,,,,,,,,,,,,,,,,,,,,,,,,,,,,,,,,,,1,0.5003766529989662,1482.6427846829974,None,1482.6427846829974,None,1482.6427846829974,None,,,,,,,,,,,,,,,,,,,,,,,,,,,,,,,,,,,,,,,,,,,,,,,,,,,100919_p1,001,2019_Oct_09_1237,body_behavioural,3.2.2,59.9425938164854,
4,parcelated_audio/41/41_11.ogg,,0,4,4,4,,,,,0,10,10,10,,,,,,,,,,,,,,,,,,,,,,,,,,,,,,,,,,,,,,,,,,,,,,,,,,,,,,,,,,,,,,,,,1,0.2591149029976805,1486.9960508749973,None,1486.9960508749973,None,1486.9960508749973,None,,,,,,,,,,,,,,,,,,,,,,,,,,,,,,,,,,,,,,,,,,,,,,,,,,,100919_p1,001,2019_Oct_09_1237,body_behavioural,3.2.2,59.9425938164854,
4,parcelated_audio/41/41_12.ogg,,0,4,4,4,,,,,0,11,11,11,,,,,,,,,,,,,,,,,,,,,,,,,,,,,,,,,,,,,,,,,,,,,,,,,,,,,,,,,,,,,,,,,1,0.3602887320012087,1497.062920217999,None,1497.062920217999,None,1497.062920217999,None,,,,,,,,,,,,,,,,,,,,,,,,,,,,,,,,,,,,,,,,,,,,,,,,,,,100919_p1,001,2019_Oct_09_1237,body_behavioural,3.2.2,59.9425938164854,
4,parcelated_audio/41/41_13.ogg,,0,4,4,4,,,,,0,12,12,12,,,,,,,,,,,,,,,,,,,,,,,,,,,,,,,,,,,,,,,,,,,,,,,,,,,,,,,,,,,,,,,,,1,0.2208806380003807,1503.3144196879985,None,1503.3144196879985,None,1503.3144196879985,None,,,,,,,,,,,,,,,,,,,,,,,,,,,,,,,,,,,,,,,,,,,,,,,,,,,100919_p1,001,2019_Oct_09_1237,body_behavioural,3.2.2,59.9425938164854,
4,parcelated_audio/41/41_14.ogg,,0,4,4,4,,,,,0,13,13,13,,,,,,,,,,,,,,,,,,,,,,,,,,,,,,,,,,,,,,,,,,,,,,,,,,,,,,,,,,,,,,,,,9,0.2942603580013383,1510.8649330659973,None,1510.8649330659973,None,1510.8649330659973,None,,,,,,,,,,,,,,,,,,,,,,,,,,,,,,,,,,,,,,,,,,,,,,,,,,,100919_p1,001,2019_Oct_09_1237,body_behavioural,3.2.2,59.9425938164854,
4,parcelated_audio/41/41_15.ogg,,0,4,4,4,,,,,0,14,14,14,,,,,,,,,,,,,,,,,,,,,,,,,,,,,,,,,,,,,,,,,,,,,,,,,,,,,,,,,,,,,,,,,1,0.114700392998202,1514.6524246059998,None,1514.6524246059998,None,1514.6524246059998,None,,,,,,,,,,,,,,,,,,,,,,,,,,,,,,,,,,,,,,,,,,,,,,,,,,,100919_p1,001,2019_Oct_09_1237,body_behavioural,3.2.2,59.9425938164854,
4,parcelated_audio/41/41_16.ogg,,0,4,4,4,,,,,0,15,15,15,,,,,,,,,,,,,,,,,,,,,,,,,,,,,,,,,,,,,,,,,,,,,,,,,,,,,,,,,,,,,,,,,1,0.2984661929986032,1519.7167371180003,None,1519.7167371180003,None,1519.7167371180003,None,,,,,,,,,,,,,,,,,,,,,,,,,,,,,,,,,,,,,,,,,,,,,,,,,,,100919_p1,001,2019_Oct_09_1237,body_behavioural,3.2.2,59.9425938164854,
4,parcelated_audio/41/41_17.ogg,,0,4,4,4,,,,,0,16,16,16,,,,,,,,,,,,,,,,,,,,,,,,,,,,,,,,,,,,,,,,,,,,,,,,,,,,,,,,,,,,,,,,,1,0.2590910670005542,1524.2841453889996,None,1524.2841453889996,None,1524.2841453889996,None,,,,,,,,,,,,,,,,,,,,,,,,,,,,,,,,,,,,,,,,,,,,,,,,,,,100919_p1,001,2019_Oct_09_1237,body_behavioural,3.2.2,59.9425938164854,
4,parcelated_audio/41/41_18.ogg,,0,4,4,4,,,,,0,17,17,17,,,,,,,,,,,,,,,,,,,,,,,,,,,,,,,,,,,,,,,,,,,,,,,,,,,,,,,,,,,,,,,,,1,0.23198502200102666,1527.151202686,None,1527.151202686,None,1527.151202686,None,,,,,,,,,,,,,,,,,,,,,,,,,,,,,,,,,,,,,,,,,,,,,,,,,,,100919_p1,001,2019_Oct_09_1237,body_behavioural,3.2.2,59.9425938164854,
4,parcelated_audio/41/41_19.ogg,,0,4,4,4,,,,,0,18,18,18,,,,,,,,,,,,,,,,,,,,,,,,,,,,,,,,,,,,,,,,,,,,,,,,,,,,,,,,,,,,,,,,,1,0.4859412740006519,1534.3532288749993,None,1534.3532288749993,None,1534.3532288749993,None,,,,,,,,,,,,,,,,,,,,,,,,,,,,,,,,,,,,,,,,,,,,,,,,,,,100919_p1,001,2019_Oct_09_1237,body_behavioural,3.2.2,59.9425938164854,
4,parcelated_audio/41/41_20.ogg,,0,4,4,4,,,,,0,19,19,19,,,,,,,,,,,,,,,,,,,,,,,,,,,,,,,,,,,,,,,,,,,,,,,,,,,,,,,,,,,,,,,,,1,0.2899243270003353,1539.853378255997,None,1539.853378255997,None,1539.853378255997,None,,,,,,,,,,,,,,,,,,,,,,,,,,,,,,,,,,,,,,,,,,,,,,,,,,,100919_p1,001,2019_Oct_09_1237,body_behavioural,3.2.2,59.9425938164854,
4,parcelated_audio/41/41_21.ogg,,0,4,4,4,,,,,0,20,20,20,,,,,,,,,,,,,,,,,,,,,,,,,,,,,,,,,,,,,,,,,,,,,,,,,,,,,,,,,,,,,,,,,1,3.730838708997908,1548.020344610999,None,1548.020344610999,None,1548.020344610999,None,,,,,,,,,,,,,,,,,,,,,,,,,,,,,,,,,,,,,,,,,,,,,,,,,,,100919_p1,001,2019_Oct_09_1237,body_behavioural,3.2.2,59.9425938164854,
4,parcelated_audio/41/41_22.ogg,,0,4,4,4,,,,,0,21,21,21,,,,,,,,,,,,,,,,,,,,,,,,,,,,,,,,,,,,,,,,,,,,,,,,,,,,,,,,,,,,,,,,,1,0.3813099639992288,1567.640571857999,None,1567.640571857999,None,1567.640571857999,None,,,,,,,,,,,,,,,,,,,,,,,,,,,,,,,,,,,,,,,,,,,,,,,,,,,100919_p1,001,2019_Oct_09_1237,body_behavioural,3.2.2,59.9425938164854,
4,parcelated_audio/41/41_23.ogg,,0,4,4,4,,,,,0,22,22,22,,,,,,,,,,,,,,,,,,,,,,,,,,,,,,,,,,,,,,,,,,,,,,,,,,,,,,,,,,,,,,,,,1,0.38968697500240523,1574.095119259,None,1574.095119259,None,1574.095119259,None,,,,,,,,,,,,,,,,,,,,,,,,,,,,,,,,,,,,,,,,,,,,,,,,,,,100919_p1,001,2019_Oct_09_1237,body_behavioural,3.2.2,59.9425938164854,
4,parcelated_audio/41/41_24.ogg,,0,4,4,4,,,,,0,23,23,23,,,,,,,,,,,,,,,,,,,,,,,,,,,,,,,,,,,,,,,,,,,,,,,,,,,,,,,,,,,,,,,,,1,0.4489167610008735,1581.2270786819972,None,1581.2270786819972,None,1581.2270786819972,None,,,,,,,,,,,,,,,,,,,,,,,,,,,,,,,,,,,,,,,,,,,,,,,,,,,100919_p1,001,2019_Oct_09_1237,body_behavioural,3.2.2,59.9425938164854,
4,parcelated_audio/41/41_25.ogg,,0,4,4,4,,,,,0,24,24,24,,,,,,,,,,,,,,,,,,,,,,,,,,,,,,,,,,,,,,,,,,,,,,,,,,,,,,,,,,,,,,,,,1,0.4906967149981938,1584.9941907009998,None,1584.9941907009998,None,1584.9941907009998,None,,,,,,,,,,,,,,,,,,,,,,,,,,,,,,,,,,,,,,,,,,,,,,,,,,,100919_p1,001,2019_Oct_09_1237,body_behavioural,3.2.2,59.9425938164854,
4,parcelated_audio/41/41_26.ogg,,0,4,4,4,,,,,0,25,25,25,,,,,,,,,,,,,,,,,,,,,,,,,,,,,,,,,,,,,,,,,,,,,,,,,,,,,,,,,,,,,,,,,1,0.31008525699871825,1591.0640707989987,None,1591.0640707989987,None,1591.0640707989987,None,,,,,,,,,,,,,,,,,,,,,,,,,,,,,,,,,,,,,,,,,,,,,,,,,,,100919_p1,001,2019_Oct_09_1237,body_behavioural,3.2.2,59.9425938164854,
4,parcelated_audio/41/41_27.ogg,,0,4,4,4,,,,,0,26,26,26,,,,,,,,,,,,,,,,,,,,,,,,,,,,,,,,,,,,,,,,,,,,,,,,,,,,,,,,,,,,,,,,,1,1.3818189660014468,1595.3147168429969,None,1595.3147168429969,None,1595.3147168429969,None,,,,,,,,,,,,,,,,,,,,,,,,,,,,,,,,,,,,,,,,,,,,,,,,,,,100919_p1,001,2019_Oct_09_1237,body_behavioural,3.2.2,59.9425938164854,
4,parcelated_audio/41/41_28.ogg,,0,4,4,4,,,,,0,27,27,27,,,,,,,,,,,,,,,,,,,,,,,,,,,,,,,,,,,,,,,,,,,,,,,,,,,,,,,,,,,,,,,,,9,8.520633027001168,1605.1136877499994,None,1605.1136877499994,None,1605.1136877499994,None,,,,,,,,,,,,,,,,,,,,,,,,,,,,,,,,,,,,,,,,,,,,,,,,,,,100919_p1,001,2019_Oct_09_1237,body_behavioural,3.2.2,59.9425938164854,
4,parcelated_audio/41/41_29.ogg,,0,4,4,4,,,,,0,28,28,28,,,,,,,,,,,,,,,,,,,,,,,,,,,,,,,,,,,,,,,,,,,,,,,,,,,,,,,,,,,,,,,,,1,0.2963966320021427,1620.317230321998,None,1620.317230321998,None,1620.317230321998,None,,,,,,,,,,,,,,,,,,,,,,,,,,,,,,,,,,,,,,,,,,,,,,,,,,,100919_p1,001,2019_Oct_09_1237,body_behavioural,3.2.2,59.9425938164854,
4,parcelated_audio/41/41_30.ogg,,0,4,4,4,,,,,0,29,29,29,,,,,,,,,,,,,,,,,,,,,,,,,,,,,,,,,,,,,,,,,,,,,,,,,,,,,,,,,,,,,,,,,1,0.25862307799980044,1629.3874068639998,None,1629.3874068639998,None,1629.3874068639998,None,,,,,,,,,,,,,,,,,,,,,,,,,,,,,,,,,,,,,,,,,,,,,,,,,,,100919_p1,001,2019_Oct_09_1237,body_behavioural,3.2.2,59.9425938164854,
4,parcelated_audio/41/41_31.ogg,,0,4,4,4,,,,,0,30,30,30,,,,,,,,,,,,,,,,,,,,,,,,,,,,,,,,,,,,,,,,,,,,,,,,,,,,,,,,,,,,,,,,,1,0.3235973889968591,1640.487508580998,None,1640.487508580998,None,1640.487508580998,None,,,,,,,,,,,,,,,,,,,,,,,,,,,,,,,,,,,,,,,,,,,,,,,,,,,100919_p1,001,2019_Oct_09_1237,body_behavioural,3.2.2,59.9425938164854,
4,parcelated_audio/41/41_32.ogg,,0,4,4,4,,,,,0,31,31,31,,,,,,,,,,,,,,,,,,,,,,,,,,,,,,,,,,,,,,,,,,,,,,,,,,,,,,,,,,,,,,,,,1,0.043830180999066215,1649.2392913549993,None,1649.2392913549993,None,1649.2392913549993,None,,,,,,,,,,,,,,,,,,,,,,,,,,,,,,,,,,,,,,,,,,,,,,,,,,,100919_p1,001,2019_Oct_09_1237,body_behavioural,3.2.2,59.9425938164854,
4,parcelated_audio/41/41_33.ogg,,0,4,4,4,,,,,0,32,32,32,,,,,,,,,,,,,,,,,,,,,,,,,,,,,,,,,,,,,,,,,,,,,,,,,,,,,,,,,,,,,,,,,1,0.2903063410012692,1653.424613321,None,1653.424613321,None,1653.424613321,None,,,,,,,,,,,,,,,,,,,,,,,,,,,,,,,,,,,,,,,,,,,,,,,,,,,100919_p1,001,2019_Oct_09_1237,body_behavioural,3.2.2,59.9425938164854,
4,parcelated_audio/41/41_34.ogg,,0,4,4,4,,,,,0,33,33,33,,,,,,,,,,,,,,,,,,,,,,,,,,,,,,,,,,,,,,,,,,,,,,,,,,,,,,,,,,,,,,,,,1,0.27828760299962596,1659.3235848389995,None,1659.3235848389995,None,1659.3235848389995,None,,,,,,,,,,,,,,,,,,,,,,,,,,,,,,,,,,,,,,,,,,,,,,,,,,,100919_p1,001,2019_Oct_09_1237,body_behavioural,3.2.2,59.9425938164854,
4,parcelated_audio/41/41_35.ogg,,0,4,4,4,,,,,0,34,34,34,,,,,,,,,,,,,,,,,,,,,,,,,,,,,,,,,,,,,,,,,,,,,,,,,,,,,,,,,,,,,,,,,9,0.36315546200057724,1665.1425762749968,None,1665.1425762749968,None,1665.1425762749968,None,,,,,,,,,,,,,,,,,,,,,,,,,,,,,,,,,,,,,,,,,,,,,,,,,,,100919_p1,001,2019_Oct_09_1237,body_behavioural,3.2.2,59.9425938164854,
4,parcelated_audio/41/41_36.ogg,,0,4,4,4,,,,,0,35,35,35,,,,,,,,,,,,,,,,,,,,,,,,,,,,,,,,,,,,,,,,,,,,,,,,,,,,,,,,,,,,,,,,,1,0.3211344099981943,1672.6100211119992,None,1672.6100211119992,None,1672.6100211119992,None,,,,,,,,,,,,,,,,,,,,,,,,,,,,,,,,,,,,,,,,,,,,,,,,,,,100919_p1,001,2019_Oct_09_1237,body_behavioural,3.2.2,59.9425938164854,
4,parcelated_audio/41/41_37.ogg,,0,4,4,4,,,,,0,36,36,36,,,,,,,,,,,,,,,,,,,,,,,,,,,,,,,,,,,,,,,,,,,,,,,,,,,,,,,,,,,,,,,,,1,0.28058836800119025,1678.5102211329977,None,1678.5102211329977,None,1678.5102211329977,None,,,,,,,,,,,,,,,,,,,,,,,,,,,,,,,,,,,,,,,,,,,,,,,,,,,100919_p1,001,2019_Oct_09_1237,body_behavioural,3.2.2,59.9425938164854,
4,,,0,4,4,4,,,,,,,,,,,,,,,,,,,,,,,,,,,,,,,,,,,,,,,,,,,,,,,,,,,,,,,,,,,,,,,,,,,,,,,,,,,,,,,,,1678.8125108860004,None,1678.8125108860004,None,space,0.890364615002909,1678.8125108860004,None,,,,,,,,,,,,,,,,,,,,,,,,,,,,,,,,,,,,,,,,,,,100919_p1,001,2019_Oct_09_1237,body_behavioural,3.2.2,59.9425938164854,
5,,,0,5,5,5,0,0,0,0,,,,,,,,,,,,,,,,,1679.744017744997,None,space,0.9349742070007778,1679.744017744997,None,1679.744017744997,None,1680.715553389,None,space,2.2433172470009595,1680.715553389,None,1683.0108986039995,None,1683.0108986039995,None,1683.0108986039995,None,1683.567263334,None,space,0.5516025810029532,1683.567263334,None,1684.262416360998,None,1684.262416360998,None,1684.262416360998,None,1684.262416360998,None,1684.262416360998,None,1684.262416360998,None,1684.262416360998,None,,,,,,,,,,,,,,,,,,,,,,,,,,,,,,,,,,,,,,,,,,,,,,,,,,,,,,,,,,,,,,,,,,,,,,,100919_p1,001,2019_Oct_09_1237,body_behavioural,3.2.2,59.9425938164854,
5,parcelated_audio/44/44_1.ogg,,0,5,5,5,,,,,0,0,0,0,,,,,,,,,,,,,,,,,,,,,,,,,,,1707.6180766109974,None,1707.6180766109974,None,1707.6180766109974,None,,,,,,,,,,,,,,,,,,,,,1707.088248336,None,space,0.4813197930016031,1707.088248336,None,1709.441247087998,None,space,0.5921786979997705,1709.441247087998,None,9,3.1866532229978475,1718.0350822719993,None,1718.0350822719993,None,1718.0350822719993,None,,,,,,,,,,,,,,,,,,,,,,,,,,,,,,,,,,,,,,,,,,,,,,,,,,,100919_p1,001,2019_Oct_09_1237,body_behavioural,3.2.2,59.9425938164854,
5,parcelated_audio/44/44_2.ogg,,0,5,5,5,,,,,0,1,1,1,,,,,,,,,,,,,,,,,,,,,,,,,,,,,,,,,,,,,,,,,,,,,,,,,,,,,,,,,,,,,,,,,1,0.08636484900125652,1730.420823209999,None,1730.420823209999,None,1730.420823209999,None,,,,,,,,,,,,,,,,,,,,,,,,,,,,,,,,,,,,,,,,,,,,,,,,,,,100919_p1,001,2019_Oct_09_1237,body_behavioural,3.2.2,59.9425938164854,
5,parcelated_audio/44/44_3.ogg,,0,5,5,5,,,,,0,2,2,2,,,,,,,,,,,,,,,,,,,,,,,,,,,,,,,,,,,,,,,,,,,,,,,,,,,,,,,,,,,,,,,,,1,0.277058889001637,1736.0528327949978,None,1736.0528327949978,None,1736.0528327949978,None,,,,,,,,,,,,,,,,,,,,,,,,,,,,,,,,,,,,,,,,,,,,,,,,,,,100919_p1,001,2019_Oct_09_1237,body_behavioural,3.2.2,59.9425938164854,
5,parcelated_audio/44/44_4.ogg,,0,5,5,5,,,,,0,3,3,3,,,,,,,,,,,,,,,,,,,,,,,,,,,,,,,,,,,,,,,,,,,,,,,,,,,,,,,,,,,,,,,,,1,0.37418729499768233,1741.4877722469973,None,1741.4877722469973,None,1741.4877722469973,None,,,,,,,,,,,,,,,,,,,,,,,,,,,,,,,,,,,,,,,,,,,,,,,,,,,100919_p1,001,2019_Oct_09_1237,body_behavioural,3.2.2,59.9425938164854,
5,parcelated_audio/44/44_5.ogg,,0,5,5,5,,,,,0,4,4,4,,,,,,,,,,,,,,,,,,,,,,,,,,,,,,,,,,,,,,,,,,,,,,,,,,,,,,,,,,,,,,,,,1,9.336776711999846,1748.1890422389988,None,1748.1890422389988,None,1748.1890422389988,None,,,,,,,,,,,,,,,,,,,,,,,,,,,,,,,,,,,,,,,,,,,,,,,,,,,100919_p1,001,2019_Oct_09_1237,body_behavioural,3.2.2,59.9425938164854,
5,parcelated_audio/44/44_6.ogg,,0,5,5,5,,,,,0,5,5,5,,,,,,,,,,,,,,,,,,,,,,,,,,,,,,,,,,,,,,,,,,,,,,,,,,,,,,,,,,,,,,,,,1,1.0118446060005226,1764.5582888030003,None,1764.5582888030003,None,1764.5582888030003,None,,,,,,,,,,,,,,,,,,,,,,,,,,,,,,,,,,,,,,,,,,,,,,,,,,,100919_p1,001,2019_Oct_09_1237,body_behavioural,3.2.2,59.9425938164854,
5,parcelated_audio/44/44_7.ogg,,0,5,5,5,,,,,0,6,6,6,,,,,,,,,,,,,,,,,,,,,,,,,,,,,,,,,,,,,,,,,,,,,,,,,,,,,,,,,,,,,,,,,1,0.37582950899741263,1771.67522818,None,1771.67522818,None,1771.67522818,None,,,,,,,,,,,,,,,,,,,,,,,,,,,,,,,,,,,,,,,,,,,,,,,,,,,100919_p1,001,2019_Oct_09_1237,body_behavioural,3.2.2,59.9425938164854,
5,parcelated_audio/44/44_8.ogg,,0,5,5,5,,,,,0,7,7,7,,,,,,,,,,,,,,,,,,,,,,,,,,,,,,,,,,,,,,,,,,,,,,,,,,,,,,,,,,,,,,,,,1,0.32290703800026677,1776.3925275399997,None,1776.3925275399997,None,1776.3925275399997,None,,,,,,,,,,,,,,,,,,,,,,,,,,,,,,,,,,,,,,,,,,,,,,,,,,,100919_p1,001,2019_Oct_09_1237,body_behavioural,3.2.2,59.9425938164854,
5,parcelated_audio/44/44_9.ogg,,0,5,5,5,,,,,0,8,8,8,,,,,,,,,,,,,,,,,,,,,,,,,,,,,,,,,,,,,,,,,,,,,,,,,,,,,,,,,,,,,,,,,9,0.17997706800088054,1780.4938914919985,None,1780.4938914919985,None,1780.4938914919985,None,,,,,,,,,,,,,,,,,,,,,,,,,,,,,,,,,,,,,,,,,,,,,,,,,,,100919_p1,001,2019_Oct_09_1237,body_behavioural,3.2.2,59.9425938164854,
5,parcelated_audio/44/44_10.ogg,,0,5,5,5,,,,,0,9,9,9,,,,,,,,,,,,,,,,,,,,,,,,,,,,,,,,,,,,,,,,,,,,,,,,,,,,,,,,,,,,,,,,,9,3.6105422389991872,1790.8791421889982,None,1790.8791421889982,None,1790.8791421889982,None,,,,,,,,,,,,,,,,,,,,,,,,,,,,,,,,,,,,,,,,,,,,,,,,,,,100919_p1,001,2019_Oct_09_1237,body_behavioural,3.2.2,59.9425938164854,
5,parcelated_audio/44/44_11.ogg,,0,5,5,5,,,,,0,10,10,10,,,,,,,,,,,,,,,,,,,,,,,,,,,,,,,,,,,,,,,,,,,,,,,,,,,,,,,,,,,,,,,,,1,0.4077947049991053,1798.1133087359995,None,1798.1133087359995,None,1798.1133087359995,None,,,,,,,,,,,,,,,,,,,,,,,,,,,,,,,,,,,,,,,,,,,,,,,,,,,100919_p1,001,2019_Oct_09_1237,body_behavioural,3.2.2,59.9425938164854,
5,parcelated_audio/44/44_12.ogg,,0,5,5,5,,,,,0,11,11,11,,,,,,,,,,,,,,,,,,,,,,,,,,,,,,,,,,,,,,,,,,,,,,,,,,,,,,,,,,,,,,,,,1,0.4255898979972699,1809.1988513189972,None,1809.1988513189972,None,1809.1988513189972,None,,,,,,,,,,,,,,,,,,,,,,,,,,,,,,,,,,,,,,,,,,,,,,,,,,,100919_p1,001,2019_Oct_09_1237,body_behavioural,3.2.2,59.9425938164854,
5,parcelated_audio/44/44_13.ogg,,0,5,5,5,,,,,0,12,12,12,,,,,,,,,,,,,,,,,,,,,,,,,,,,,,,,,,,,,,,,,,,,,,,,,,,,,,,,,,,,,,,,,1,0.4569859350012848,1816.884201236,None,1816.884201236,None,1816.884201236,None,,,,,,,,,,,,,,,,,,,,,,,,,,,,,,,,,,,,,,,,,,,,,,,,,,,100919_p1,001,2019_Oct_09_1237,body_behavioural,3.2.2,59.9425938164854,
5,parcelated_audio/44/44_14.ogg,,0,5,5,5,,,,,0,13,13,13,,,,,,,,,,,,,,,,,,,,,,,,,,,,,,,,,,,,,,,,,,,,,,,,,,,,,,,,,,,,,,,,,1,0.27200357599940617,1823.7356282170003,None,1823.7356282170003,None,1823.7356282170003,None,,,,,,,,,,,,,,,,,,,,,,,,,,,,,,,,,,,,,,,,,,,,,,,,,,,100919_p1,001,2019_Oct_09_1237,body_behavioural,3.2.2,59.9425938164854,
5,parcelated_audio/44/44_15.ogg,,0,5,5,5,,,,,0,14,14,14,,,,,,,,,,,,,,,,,,,,,,,,,,,,,,,,,,,,,,,,,,,,,,,,,,,,,,,,,,,,,,,,,1,0.2912041710005724,1828.1852633229973,None,1828.1852633229973,None,1828.1852633229973,None,,,,,,,,,,,,,,,,,,,,,,,,,,,,,,,,,,,,,,,,,,,,,,,,,,,100919_p1,001,2019_Oct_09_1237,body_behavioural,3.2.2,59.9425938164854,
5,parcelated_audio/44/44_16.ogg,,0,5,5,5,,,,,0,15,15,15,,,,,,,,,,,,,,,,,,,,,,,,,,,,,,,,,,,,,,,,,,,,,,,,,,,,,,,,,,,,,,,,,1,0.3208194690014352,1832.5379928199982,None,1832.5379928199982,None,1832.5379928199982,None,,,,,,,,,,,,,,,,,,,,,,,,,,,,,,,,,,,,,,,,,,,,,,,,,,,100919_p1,001,2019_Oct_09_1237,body_behavioural,3.2.2,59.9425938164854,
5,parcelated_audio/44/44_17.ogg,,0,5,5,5,,,,,0,16,16,16,,,,,,,,,,,,,,,,,,,,,,,,,,,,,,,,,,,,,,,,,,,,,,,,,,,,,,,,,,,,,,,,,1,0.3329585899991798,1841.4212320999977,None,1841.4212320999977,None,1841.4212320999977,None,,,,,,,,,,,,,,,,,,,,,,,,,,,,,,,,,,,,,,,,,,,,,,,,,,,100919_p1,001,2019_Oct_09_1237,body_behavioural,3.2.2,59.9425938164854,
5,parcelated_audio/44/44_18.ogg,,0,5,5,5,,,,,0,17,17,17,,,,,,,,,,,,,,,,,,,,,,,,,,,,,,,,,,,,,,,,,,,,,,,,,,,,,,,,,,,,,,,,,9,0.8439670219995605,1851.6562465749994,None,1851.6562465749994,None,1851.6562465749994,None,,,,,,,,,,,,,,,,,,,,,,,,,,,,,,,,,,,,,,,,,,,,,,,,,,,100919_p1,001,2019_Oct_09_1237,body_behavioural,3.2.2,59.9425938164854,
5,parcelated_audio/44/44_19.ogg,,0,5,5,5,,,,,0,18,18,18,,,,,,,,,,,,,,,,,,,,,,,,,,,,,,,,,,,,,,,,,,,,,,,,,,,,,,,,,,,,,,,,,1,0.27002088999870466,1863.5408299759983,None,1863.5408299759983,None,1863.5408299759983,None,,,,,,,,,,,,,,,,,,,,,,,,,,,,,,,,,,,,,,,,,,,,,,,,,,,100919_p1,001,2019_Oct_09_1237,body_behavioural,3.2.2,59.9425938164854,
5,parcelated_audio/44/44_20.ogg,,0,5,5,5,,,,,0,19,19,19,,,,,,,,,,,,,,,,,,,,,,,,,,,,,,,,,,,,,,,,,,,,,,,,,,,,,,,,,,,,,,,,,1,0.06141566999940551,1872.1094970739978,None,1872.1094970739978,None,1872.1094970739978,None,,,,,,,,,,,,,,,,,,,,,,,,,,,,,,,,,,,,,,,,,,,,,,,,,,,100919_p1,001,2019_Oct_09_1237,body_behavioural,3.2.2,59.9425938164854,
5,parcelated_audio/44/44_21.ogg,,0,5,5,5,,,,,0,20,20,20,,,,,,,,,,,,,,,,,,,,,,,,,,,,,,,,,,,,,,,,,,,,,,,,,,,,,,,,,,,,,,,,,1,0.8645125430011831,1881.1610305909999,None,1881.1610305909999,None,1881.1610305909999,None,,,,,,,,,,,,,,,,,,,,,,,,,,,,,,,,,,,,,,,,,,,,,,,,,,,100919_p1,001,2019_Oct_09_1237,body_behavioural,3.2.2,59.9425938164854,
5,parcelated_audio/44/44_22.ogg,,0,5,5,5,,,,,0,21,21,21,,,,,,,,,,,,,,,,,,,,,,,,,,,,,,,,,,,,,,,,,,,,,,,,,,,,,,,,,,,,,,,,,1,0.17910533800022677,1887.0282159889975,None,1887.0282159889975,None,1887.0282159889975,None,,,,,,,,,,,,,,,,,,,,,,,,,,,,,,,,,,,,,,,,,,,,,,,,,,,100919_p1,001,2019_Oct_09_1237,body_behavioural,3.2.2,59.9425938164854,
5,parcelated_audio/44/44_23.ogg,,0,5,5,5,,,,,0,22,22,22,,,,,,,,,,,,,,,,,,,,,,,,,,,,,,,,,,,,,,,,,,,,,,,,,,,,,,,,,,,,,,,,,1,0.6410037059977185,1893.9154492449998,None,1893.9154492449998,None,1893.9154492449998,None,,,,,,,,,,,,,,,,,,,,,,,,,,,,,,,,,,,,,,,,,,,,,,,,,,,100919_p1,001,2019_Oct_09_1237,body_behavioural,3.2.2,59.9425938164854,
5,parcelated_audio/44/44_24.ogg,,0,5,5,5,,,,,0,23,23,23,,,,,,,,,,,,,,,,,,,,,,,,,,,,,,,,,,,,,,,,,,,,,,,,,,,,,,,,,,,,,,,,,9,0.2804095249994134,1903.3642278739972,None,1903.3642278739972,None,1903.3642278739972,None,,,,,,,,,,,,,,,,,,,,,,,,,,,,,,,,,,,,,,,,,,,,,,,,,,,100919_p1,001,2019_Oct_09_1237,body_behavioural,3.2.2,59.9425938164854,
5,parcelated_audio/44/44_25.ogg,,0,5,5,5,,,,,0,24,24,24,,,,,,,,,,,,,,,,,,,,,,,,,,,,,,,,,,,,,,,,,,,,,,,,,,,,,,,,,,,,,,,,,1,0.3299800579989096,1910.018574597998,None,1910.018574597998,None,1910.018574597998,None,,,,,,,,,,,,,,,,,,,,,,,,,,,,,,,,,,,,,,,,,,,,,,,,,,,100919_p1,001,2019_Oct_09_1237,body_behavioural,3.2.2,59.9425938164854,
5,parcelated_audio/44/44_26.ogg,,0,5,5,5,,,,,0,25,25,25,,,,,,,,,,,,,,,,,,,,,,,,,,,,,,,,,,,,,,,,,,,,,,,,,,,,,,,,,,,,,,,,,1,0.33845716699943296,1915.268975130999,None,1915.268975130999,None,1915.268975130999,None,,,,,,,,,,,,,,,,,,,,,,,,,,,,,,,,,,,,,,,,,,,,,,,,,,,100919_p1,001,2019_Oct_09_1237,body_behavioural,3.2.2,59.9425938164854,
5,parcelated_audio/44/44_27.ogg,,0,5,5,5,,,,,0,26,26,26,,,,,,,,,,,,,,,,,,,,,,,,,,,,,,,,,,,,,,,,,,,,,,,,,,,,,,,,,,,,,,,,,1,0.45922201800203766,1922.6685691429993,None,1922.6685691429993,None,1922.6685691429993,None,,,,,,,,,,,,,,,,,,,,,,,,,,,,,,,,,,,,,,,,,,,,,,,,,,,100919_p1,001,2019_Oct_09_1237,body_behavioural,3.2.2,59.9425938164854,
5,parcelated_audio/44/44_28.ogg,,0,5,5,5,,,,,0,27,27,27,,,,,,,,,,,,,,,,,,,,,,,,,,,,,,,,,,,,,,,,,,,,,,,,,,,,,,,,,,,,,,,,,1,0.32144892199721653,1934.4892193729975,None,1934.4892193729975,None,1934.4892193729975,None,,,,,,,,,,,,,,,,,,,,,,,,,,,,,,,,,,,,,,,,,,,,,,,,,,,100919_p1,001,2019_Oct_09_1237,body_behavioural,3.2.2,59.9425938164854,
5,,,0,5,5,5,,,,,,,,,,,,,,,,,,,,,,,,,,,,,,,,,,,,,,,,,,,,,,,,,,,,,,,,,,,,,,,,,,,,,,,,,,,,,,,,,1934.859070577997,None,1934.859070577997,None,space,0.9834304100004374,1934.859070577997,None,,,,,,,,,,,,,,,,,,,,,,,,,,,,,,,,,,,,,,,,,,,100919_p1,001,2019_Oct_09_1237,body_behavioural,3.2.2,59.9425938164854,
6,,,0,6,6,6,0,0,0,0,,,,,,,,,,,,,,,,,1935.8752657229998,None,space,0.42324559000189765,1935.8752657229998,None,1935.8752657229998,None,1936.3199837479988,None,space,0.4906971300006262,1936.3199837479988,None,1936.871331907998,None,1936.871331907998,None,1936.871331907998,None,1937.6376618229988,None,space,0.500886243997229,1937.6376618229988,None,1938.2888802179987,None,1938.2888802179987,None,1938.2888802179987,None,1938.2888802179987,None,1938.2888802179987,None,1938.2888802179987,None,1938.2888802179987,None,,,,,,,,,,,,,,,,,,,,,,,,,,,,,,,,,,,,,,,,,,,,,,,,,,,,,,,,,,,,,,,,,,,,,,,100919_p1,001,2019_Oct_09_1237,body_behavioural,3.2.2,59.9425938164854,
6,parcelated_audio/22/22_1.ogg,,0,6,6,6,,,,,0,0,0,0,,,,,,,,,,,,,,,,,,,,,,,,,,,1961.6246786019983,None,1961.6246786019983,None,1961.6246786019983,None,,,,,,,,,,,,,,,,,,,,,1960.5986898409974,None,space,0.9823787970017293,1960.5986898409974,None,1962.197959068999,None,space,0.8312259770027595,1962.197959068999,None,9,0.3645183389999147,1976.1765441259995,None,1976.1765441259995,None,1976.1765441259995,None,,,,,,,,,,,,,,,,,,,,,,,,,,,,,,,,,,,,,,,,,,,,,,,,,,,100919_p1,001,2019_Oct_09_1237,body_behavioural,3.2.2,59.9425938164854,
6,parcelated_audio/22/22_2.ogg,,0,6,6,6,,,,,0,1,1,1,,,,,,,,,,,,,,,,,,,,,,,,,,,,,,,,,,,,,,,,,,,,,,,,,,,,,,,,,,,,,,,,,1,0.08639620800022385,1982.894802032999,None,1982.894802032999,None,1982.894802032999,None,,,,,,,,,,,,,,,,,,,,,,,,,,,,,,,,,,,,,,,,,,,,,,,,,,,100919_p1,001,2019_Oct_09_1237,body_behavioural,3.2.2,59.9425938164854,
6,parcelated_audio/22/22_3.ogg,,0,6,6,6,,,,,0,2,2,2,,,,,,,,,,,,,,,,,,,,,,,,,,,,,,,,,,,,,,,,,,,,,,,,,,,,,,,,,,,,,,,,,1,0.3550611890022992,1996.0141209059984,None,1996.0141209059984,None,1996.0141209059984,None,,,,,,,,,,,,,,,,,,,,,,,,,,,,,,,,,,,,,,,,,,,,,,,,,,,100919_p1,001,2019_Oct_09_1237,body_behavioural,3.2.2,59.9425938164854,
6,parcelated_audio/22/22_4.ogg,,0,6,6,6,,,,,0,3,3,3,,,,,,,,,,,,,,,,,,,,,,,,,,,,,,,,,,,,,,,,,,,,,,,,,,,,,,,,,,,,,,,,,9,3.204752550002013,2008.8690855459972,None,2008.8690855459972,None,2008.8690855459972,None,,,,,,,,,,,,,,,,,,,,,,,,,,,,,,,,,,,,,,,,,,,,,,,,,,,100919_p1,001,2019_Oct_09_1237,body_behavioural,3.2.2,59.9425938164854,
6,parcelated_audio/22/22_5.ogg,,0,6,6,6,,,,,0,4,4,4,,,,,,,,,,,,,,,,,,,,,,,,,,,,,,,,,,,,,,,,,,,,,,,,,,,,,,,,,,,,,,,,,1,0.3305697970026813,2018.1013685409998,None,2018.1013685409998,None,2018.1013685409998,None,,,,,,,,,,,,,,,,,,,,,,,,,,,,,,,,,,,,,,,,,,,,,,,,,,,100919_p1,001,2019_Oct_09_1237,body_behavioural,3.2.2,59.9425938164854,
6,parcelated_audio/22/22_6.ogg,,0,6,6,6,,,,,0,5,5,5,,,,,,,,,,,,,,,,,,,,,,,,,,,,,,,,,,,,,,,,,,,,,,,,,,,,,,,,,,,,,,,,,1,0.4681725880000158,2027.7016069969977,None,2027.7016069969977,None,2027.7016069969977,None,,,,,,,,,,,,,,,,,,,,,,,,,,,,,,,,,,,,,,,,,,,,,,,,,,,100919_p1,001,2019_Oct_09_1237,body_behavioural,3.2.2,59.9425938164854,
6,parcelated_audio/22/22_7.ogg,,0,6,6,6,,,,,0,6,6,6,,,,,,,,,,,,,,,,,,,,,,,,,,,,,,,,,,,,,,,,,,,,,,,,,,,,,,,,,,,,,,,,,1,0.33878376399661647,2033.2364946639973,None,2033.2364946639973,None,2033.2364946639973,None,,,,,,,,,,,,,,,,,,,,,,,,,,,,,,,,,,,,,,,,,,,,,,,,,,,100919_p1,001,2019_Oct_09_1237,body_behavioural,3.2.2,59.9425938164854,
6,parcelated_audio/22/22_8.ogg,,0,6,6,6,,,,,0,7,7,7,,,,,,,,,,,,,,,,,,,,,,,,,,,,,,,,,,,,,,,,,,,,,,,,,,,,,,,,,,,,,,,,,1,1.773185933001514,2037.17145591,None,2037.17145591,None,2037.17145591,None,,,,,,,,,,,,,,,,,,,,,,,,,,,,,,,,,,,,,,,,,,,,,,,,,,,100919_p1,001,2019_Oct_09_1237,body_behavioural,3.2.2,59.9425938164854,
6,parcelated_audio/22/22_9.ogg,,0,6,6,6,,,,,0,8,8,8,,,,,,,,,,,,,,,,,,,,,,,,,,,,,,,,,,,,,,,,,,,,,,,,,,,,,,,,,,,,,,,,,1,3.865810177001549,2042.9219710619982,None,2042.9219710619982,None,2042.9219710619982,None,,,,,,,,,,,,,,,,,,,,,,,,,,,,,,,,,,,,,,,,,,,,,,,,,,,100919_p1,001,2019_Oct_09_1237,body_behavioural,3.2.2,59.9425938164854,
6,parcelated_audio/22/22_10.ogg,,0,6,6,6,,,,,0,9,9,9,,,,,,,,,,,,,,,,,,,,,,,,,,,,,,,,,,,,,,,,,,,,,,,,,,,,,,,,,,,,,,,,,1,0.4947915750017273,2051.6249145660004,None,2051.6249145660004,None,2051.6249145660004,None,,,,,,,,,,,,,,,,,,,,,,,,,,,,,,,,,,,,,,,,,,,,,,,,,,,100919_p1,001,2019_Oct_09_1237,body_behavioural,3.2.2,59.9425938164854,
6,parcelated_audio/22/22_11.ogg,,0,6,6,6,,,,,0,10,10,10,,,,,,,,,,,,,,,,,,,,,,,,,,,,,,,,,,,,,,,,,,,,,,,,,,,,,,,,,,,,,,,,,1,0.42235886299749836,2059.4946711619996,None,2059.4946711619996,None,2059.4946711619996,None,,,,,,,,,,,,,,,,,,,,,,,,,,,,,,,,,,,,,,,,,,,,,,,,,,,100919_p1,001,2019_Oct_09_1237,body_behavioural,3.2.2,59.9425938164854,
6,parcelated_audio/22/22_12.ogg,,0,6,6,6,,,,,0,11,11,11,,,,,,,,,,,,,,,,,,,,,,,,,,,,,,,,,,,,,,,,,,,,,,,,,,,,,,,,,,,,,,,,,1,0.2929810070017993,2067.709510515997,None,2067.709510515997,None,2067.709510515997,None,,,,,,,,,,,,,,,,,,,,,,,,,,,,,,,,,,,,,,,,,,,,,,,,,,,100919_p1,001,2019_Oct_09_1237,body_behavioural,3.2.2,59.9425938164854,
6,parcelated_audio/22/22_13.ogg,,0,6,6,6,,,,,0,12,12,12,,,,,,,,,,,,,,,,,,,,,,,,,,,,,,,,,,,,,,,,,,,,,,,,,,,,,,,,,,,,,,,,,1,0.32841463899967493,2075.3770541699996,None,2075.3770541699996,None,2075.3770541699996,None,,,,,,,,,,,,,,,,,,,,,,,,,,,,,,,,,,,,,,,,,,,,,,,,,,,100919_p1,001,2019_Oct_09_1237,body_behavioural,3.2.2,59.9425938164854,
6,parcelated_audio/22/22_14.ogg,,0,6,6,6,,,,,0,13,13,13,,,,,,,,,,,,,,,,,,,,,,,,,,,,,,,,,,,,,,,,,,,,,,,,,,,,,,,,,,,,,,,,,1,0.25503444599962677,2081.3963640119982,None,2081.3963640119982,None,2081.3963640119982,None,,,,,,,,,,,,,,,,,,,,,,,,,,,,,,,,,,,,,,,,,,,,,,,,,,,100919_p1,001,2019_Oct_09_1237,body_behavioural,3.2.2,59.9425938164854,
6,parcelated_audio/22/22_15.ogg,,0,6,6,6,,,,,0,14,14,14,,,,,,,,,,,,,,,,,,,,,,,,,,,,,,,,,,,,,,,,,,,,,,,,,,,,,,,,,,,,,,,,,1,0.35949153100227704,2089.5134009229987,None,2089.5134009229987,None,2089.5134009229987,None,,,,,,,,,,,,,,,,,,,,,,,,,,,,,,,,,,,,,,,,,,,,,,,,,,,100919_p1,001,2019_Oct_09_1237,body_behavioural,3.2.2,59.9425938164854,
6,parcelated_audio/22/22_16.ogg,,0,6,6,6,,,,,0,15,15,15,,,,,,,,,,,,,,,,,,,,,,,,,,,,,,,,,,,,,,,,,,,,,,,,,,,,,,,,,,,,,,,,,1,0.3698719229978451,2098.63101343,None,2098.63101343,None,2098.63101343,None,,,,,,,,,,,,,,,,,,,,,,,,,,,,,,,,,,,,,,,,,,,,,,,,,,,100919_p1,001,2019_Oct_09_1237,body_behavioural,3.2.2,59.9425938164854,
6,parcelated_audio/22/22_17.ogg,,0,6,6,6,,,,,0,16,16,16,,,,,,,,,,,,,,,,,,,,,,,,,,,,,,,,,,,,,,,,,,,,,,,,,,,,,,,,,,,,,,,,,1,0.5431510800008255,2102.2649169409997,None,2102.2649169409997,None,2102.2649169409997,None,,,,,,,,,,,,,,,,,,,,,,,,,,,,,,,,,,,,,,,,,,,,,,,,,,,100919_p1,001,2019_Oct_09_1237,body_behavioural,3.2.2,59.9425938164854,
6,parcelated_audio/22/22_18.ogg,,0,6,6,6,,,,,0,17,17,17,,,,,,,,,,,,,,,,,,,,,,,,,,,,,,,,,,,,,,,,,,,,,,,,,,,,,,,,,,,,,,,,,1,0.3430785320015275,2109.650404074997,None,2109.650404074997,None,2109.650404074997,None,,,,,,,,,,,,,,,,,,,,,,,,,,,,,,,,,,,,,,,,,,,,,,,,,,,100919_p1,001,2019_Oct_09_1237,body_behavioural,3.2.2,59.9425938164854,
6,parcelated_audio/22/22_19.ogg,,0,6,6,6,,,,,0,18,18,18,,,,,,,,,,,,,,,,,,,,,,,,,,,,,,,,,,,,,,,,,,,,,,,,,,,,,,,,,,,,,,,,,1,0.4963982129993383,2115.0507066110004,None,2115.0507066110004,None,2115.0507066110004,None,,,,,,,,,,,,,,,,,,,,,,,,,,,,,,,,,,,,,,,,,,,,,,,,,,,100919_p1,001,2019_Oct_09_1237,body_behavioural,3.2.2,59.9425938164854,
6,parcelated_audio/22/22_20.ogg,,0,6,6,6,,,,,0,19,19,19,,,,,,,,,,,,,,,,,,,,,,,,,,,,,,,,,,,,,,,,,,,,,,,,,,,,,,,,,,,,,,,,,9,0.5300472079979954,2129.7216305129987,None,2129.7216305129987,None,2129.7216305129987,None,,,,,,,,,,,,,,,,,,,,,,,,,,,,,,,,,,,,,,,,,,,,,,,,,,,100919_p1,001,2019_Oct_09_1237,body_behavioural,3.2.2,59.9425938164854,
6,parcelated_audio/22/22_21.ogg,,0,6,6,6,,,,,0,20,20,20,,,,,,,,,,,,,,,,,,,,,,,,,,,,,,,,,,,,,,,,,,,,,,,,,,,,,,,,,,,,,,,,,1,0.5623180820002744,2132.3373070609996,None,2132.3373070609996,None,2132.3373070609996,None,,,,,,,,,,,,,,,,,,,,,,,,,,,,,,,,,,,,,,,,,,,,,,,,,,,100919_p1,001,2019_Oct_09_1237,body_behavioural,3.2.2,59.9425938164854,
6,parcelated_audio/22/22_22.ogg,,0,6,6,6,,,,,0,21,21,21,,,,,,,,,,,,,,,,,,,,,,,,,,,,,,,,,,,,,,,,,,,,,,,,,,,,,,,,,,,,,,,,,1,0.2902662619999319,2136.121511057998,None,2136.121511057998,None,2136.121511057998,None,,,,,,,,,,,,,,,,,,,,,,,,,,,,,,,,,,,,,,,,,,,,,,,,,,,100919_p1,001,2019_Oct_09_1237,body_behavioural,3.2.2,59.9425938164854,
6,parcelated_audio/22/22_23.ogg,,0,6,6,6,,,,,0,22,22,22,,,,,,,,,,,,,,,,,,,,,,,,,,,,,,,,,,,,,,,,,,,,,,,,,,,,,,,,,,,,,,,,,1,0.21364363500106265,2143.0061353969977,None,2143.0061353969977,None,2143.0061353969977,None,,,,,,,,,,,,,,,,,,,,,,,,,,,,,,,,,,,,,,,,,,,,,,,,,,,100919_p1,001,2019_Oct_09_1237,body_behavioural,3.2.2,59.9425938164854,
6,parcelated_audio/22/22_24.ogg,,0,6,6,6,,,,,0,23,23,23,,,,,,,,,,,,,,,,,,,,,,,,,,,,,,,,,,,,,,,,,,,,,,,,,,,,,,,,,,,,,,,,,1,0.49805281099907006,2149.041565436997,None,2149.041565436997,None,2149.041565436997,None,,,,,,,,,,,,,,,,,,,,,,,,,,,,,,,,,,,,,,,,,,,,,,,,,,,100919_p1,001,2019_Oct_09_1237,body_behavioural,3.2.2,59.9425938164854,
6,parcelated_audio/22/22_25.ogg,,0,6,6,6,,,,,0,24,24,24,,,,,,,,,,,,,,,,,,,,,,,,,,,,,,,,,,,,,,,,,,,,,,,,,,,,,,,,,,,,,,,,,1,0.08789214999706019,2162.291766948998,None,2162.291766948998,None,2162.291766948998,None,,,,,,,,,,,,,,,,,,,,,,,,,,,,,,,,,,,,,,,,,,,,,,,,,,,100919_p1,001,2019_Oct_09_1237,body_behavioural,3.2.2,59.9425938164854,
6,parcelated_audio/22/22_26.ogg,,0,6,6,6,,,,,0,25,25,25,,,,,,,,,,,,,,,,,,,,,,,,,,,,,,,,,,,,,,,,,,,,,,,,,,,,,,,,,,,,,,,,,1,1.1273566109994135,2169.196323119999,None,2169.196323119999,None,2169.196323119999,None,,,,,,,,,,,,,,,,,,,,,,,,,,,,,,,,,,,,,,,,,,,,,,,,,,,100919_p1,001,2019_Oct_09_1237,body_behavioural,3.2.2,59.9425938164854,
6,parcelated_audio/22/22_27.ogg,,0,6,6,6,,,,,0,26,26,26,,,,,,,,,,,,,,,,,,,,,,,,,,,,,,,,,,,,,,,,,,,,,,,,,,,,,,,,,,,,,,,,,1,0.48202734699953,2174.8113457129984,None,2174.8113457129984,None,2174.8113457129984,None,,,,,,,,,,,,,,,,,,,,,,,,,,,,,,,,,,,,,,,,,,,,,,,,,,,100919_p1,001,2019_Oct_09_1237,body_behavioural,3.2.2,59.9425938164854,
6,parcelated_audio/22/22_28.ogg,,0,6,6,6,,,,,0,27,27,27,,,,,,,,,,,,,,,,,,,,,,,,,,,,,,,,,,,,,,,,,,,,,,,,,,,,,,,,,,,,,,,,,1,0.31235757200192893,2181.0982774900003,None,2181.0982774900003,None,2181.0982774900003,None,,,,,,,,,,,,,,,,,,,,,,,,,,,,,,,,,,,,,,,,,,,,,,,,,,,100919_p1,001,2019_Oct_09_1237,body_behavioural,3.2.2,59.9425938164854,
6,parcelated_audio/22/22_29.ogg,,0,6,6,6,,,,,0,28,28,28,,,,,,,,,,,,,,,,,,,,,,,,,,,,,,,,,,,,,,,,,,,,,,,,,,,,,,,,,,,,,,,,,1,0.4968594079982722,2187.1963031399973,None,2187.1963031399973,None,2187.1963031399973,None,,,,,,,,,,,,,,,,,,,,,,,,,,,,,,,,,,,,,,,,,,,,,,,,,,,100919_p1,001,2019_Oct_09_1237,body_behavioural,3.2.2,59.9425938164854,
6,parcelated_audio/22/22_30.ogg,,0,6,6,6,,,,,0,29,29,29,,,,,,,,,,,,,,,,,,,,,,,,,,,,,,,,,,,,,,,,,,,,,,,,,,,,,,,,,,,,,,,,,1,0.32483289200172294,2190.4803099109995,None,2190.4803099109995,None,2190.4803099109995,None,,,,,,,,,,,,,,,,,,,,,,,,,,,,,,,,,,,,,,,,,,,,,,,,,,,100919_p1,001,2019_Oct_09_1237,body_behavioural,3.2.2,59.9425938164854,
6,parcelated_audio/22/22_31.ogg,,0,6,6,6,,,,,0,30,30,30,,,,,,,,,,,,,,,,,,,,,,,,,,,,,,,,,,,,,,,,,,,,,,,,,,,,,,,,,,,,,,,,,1,0.3551315819968295,2196.050157974998,None,2196.050157974998,None,2196.050157974998,None,,,,,,,,,,,,,,,,,,,,,,,,,,,,,,,,,,,,,,,,,,,,,,,,,,,100919_p1,001,2019_Oct_09_1237,body_behavioural,3.2.2,59.9425938164854,
6,parcelated_audio/22/22_32.ogg,,0,6,6,6,,,,,0,31,31,31,,,,,,,,,,,,,,,,,,,,,,,,,,,,,,,,,,,,,,,,,,,,,,,,,,,,,,,,,,,,,,,,,1,0.4609128900010546,2202.8162578349984,None,2202.8162578349984,None,2202.8162578349984,None,,,,,,,,,,,,,,,,,,,,,,,,,,,,,,,,,,,,,,,,,,,,,,,,,,,100919_p1,001,2019_Oct_09_1237,body_behavioural,3.2.2,59.9425938164854,
6,parcelated_audio/22/22_33.ogg,,0,6,6,6,,,,,0,32,32,32,,,,,,,,,,,,,,,,,,,,,,,,,,,,,,,,,,,,,,,,,,,,,,,,,,,,,,,,,,,,,,,,,9,0.284433541000908,2207.816733792999,None,2207.816733792999,None,2207.816733792999,None,,,,,,,,,,,,,,,,,,,,,,,,,,,,,,,,,,,,,,,,,,,,,,,,,,,100919_p1,001,2019_Oct_09_1237,body_behavioural,3.2.2,59.9425938164854,
6,parcelated_audio/22/22_34.ogg,,0,6,6,6,,,,,0,33,33,33,,,,,,,,,,,,,,,,,,,,,,,,,,,,,,,,,,,,,,,,,,,,,,,,,,,,,,,,,,,,,,,,,1,1.7865689079990261,2216.2346092609987,None,2216.2346092609987,None,2216.2346092609987,None,,,,,,,,,,,,,,,,,,,,,,,,,,,,,,,,,,,,,,,,,,,,,,,,,,,100919_p1,001,2019_Oct_09_1237,body_behavioural,3.2.2,59.9425938164854,
6,parcelated_audio/22/22_35.ogg,,0,6,6,6,,,,,0,34,34,34,,,,,,,,,,,,,,,,,,,,,,,,,,,,,,,,,,,,,,,,,,,,,,,,,,,,,,,,,,,,,,,,,1,0.3368612819976988,2225.620415197998,None,2225.620415197998,None,2225.620415197998,None,,,,,,,,,,,,,,,,,,,,,,,,,,,,,,,,,,,,,,,,,,,,,,,,,,,100919_p1,001,2019_Oct_09_1237,body_behavioural,3.2.2,59.9425938164854,
6,parcelated_audio/22/22_36.ogg,,0,6,6,6,,,,,0,35,35,35,,,,,,,,,,,,,,,,,,,,,,,,,,,,,,,,,,,,,,,,,,,,,,,,,,,,,,,,,,,,,,,,,1,3.0489100859995233,2238.755727058997,None,2238.755727058997,None,2238.755727058997,None,,,,,,,,,,,,,,,,,,,,,,,,,,,,,,,,,,,,,,,,,,,,,,,,,,,100919_p1,001,2019_Oct_09_1237,body_behavioural,3.2.2,59.9425938164854,
6,parcelated_audio/22/22_37.ogg,,0,6,6,6,,,,,0,36,36,36,,,,,,,,,,,,,,,,,,,,,,,,,,,,,,,,,,,,,,,,,,,,,,,,,,,,,,,,,,,,,,,,,1,0.32652371800213587,2249.057673749998,None,2249.057673749998,None,2249.057673749998,None,,,,,,,,,,,,,,,,,,,,,,,,,,,,,,,,,,,,,,,,,,,,,,,,,,,100919_p1,001,2019_Oct_09_1237,body_behavioural,3.2.2,59.9425938164854,
6,,,0,6,6,6,,,,,,,,,,,,,,,,,,,,,,,,,,,,,,,,,,,,,,,,,,,,,,,,,,,,,,,,,,,,,,,,,,,,,,,,,,,,,,,,,2249.4100794789993,None,2249.4100794789993,None,space,0.926114628000505,2249.4100794789993,None,,,,,,,,,,,,,,,,,,,,,,,,,,,,,,,,,,,,,,,,,,,100919_p1,001,2019_Oct_09_1237,body_behavioural,3.2.2,59.9425938164854,
7,,,0,7,7,7,0,0,0,0,,,,,,,,,,,,,,,,,2250.3735066049994,None,space,0.3707108410017099,2250.3735066049994,None,2250.3735066049994,None,2250.7735322259978,None,space,0.5466420769989782,2250.7735322259978,None,2251.373861111999,None,2251.373861111999,None,2251.373861111999,None,2252.225009267,None,space,0.4951692959984939,2252.225009267,None,2252.8578820539988,None,2252.8578820539988,None,2252.8578820539988,None,2252.8578820539988,None,2252.8578820539988,None,2252.8578820539988,None,2252.8578820539988,None,,,,,,,,,,,,,,,,,,,,,,,,,,,,,,,,,,,,,,,,,,,,,,,,,,,,,,,,,,,,,,,,,,,,,,,100919_p1,001,2019_Oct_09_1237,body_behavioural,3.2.2,59.9425938164854,
7,,,0,7,7,7,1,0,1,0,,,,,,,,,,,,,,,,,,,,,,,,,,,,,,,2271.8667267349992,None,2271.8667267349992,None,2271.8667267349992,None,2272.550050951999,None,space,0.47744753699953435,2272.550050951999,None,2273.165959209,None,2273.165959209,None,2273.165959209,None,2273.165959209,None,2273.165959209,None,2273.165959209,None,2273.165959209,None,,,,,,,,,,,,,,,,,,,,,,,,,,,,,,,,,,,,,,,,,,,,,,,,,,,,,,,,,,,,,,,,,,,,,,,100919_p1,001,2019_Oct_09_1237,body_behavioural,3.2.2,59.9425938164854,
7,,,0,7,7,7,2,0,2,0,,,,,,,,,,,,,,,,,,,,,,,,,,,,,,,2296.454799977997,None,2296.454799977997,None,2296.454799977997,None,2296.9913906309994,None,space,0.39581343199824914,2296.9913906309994,None,2297.5316190409976,None,2297.5316190409976,None,2297.5316190409976,None,2297.5316190409976,None,2297.5316190409976,None,2297.5316190409976,None,2297.5316190409976,None,,,,,,,,,,,,,,,,,,,,,,,,,,,,,,,,,,,,,,,,,,,,,,,,,,,,,,,,,,,,,,,,,,,,,,,100919_p1,001,2019_Oct_09_1237,body_behavioural,3.2.2,59.9425938164854,
7,,,0,7,7,7,3,0,3,0,,,,,,,,,,,,,,,,,,,,,,,,,,,,,,,2329.7429252529982,None,2329.7429252529982,None,2329.7429252529982,None,2330.187001520997,None,space,0.4428379279997898,2330.187001520997,None,2330.7873725749996,None,2330.7873725749996,None,2330.7873725749996,None,2330.7873725749996,None,2330.7873725749996,None,2330.7873725749996,None,2330.7873725749996,None,,,,,,,,,,,,,,,,,,,,,,,,,,,,,,,,,,,,,,,,,,,,,,,,,,,,,,,,,,,,,,,,,,,,,,,100919_p1,001,2019_Oct_09_1237,body_behavioural,3.2.2,59.9425938164854,
7,parcelated_audio/33/33_1.ogg,,0,7,7,7,,,,,0,0,0,0,,,,,,,,,,,,,,,,,,,,,,,,,,,2349.8248914389987,None,2349.8248914389987,None,2349.8248914389987,None,,,,,,,,,,,,,,,,,,,,,2348.9630625600003,None,space,0.8290848350006854,2348.9630625600003,None,2350.848652892997,None,space,0.9593572450030479,2350.848652892997,None,9,1.7781194180024613,2361.859239499998,None,2361.859239499998,None,2361.859239499998,None,,,,,,,,,,,,,,,,,,,,,,,,,,,,,,,,,,,,,,,,,,,,,,,,,,,100919_p1,001,2019_Oct_09_1237,body_behavioural,3.2.2,59.9425938164854,
7,parcelated_audio/33/33_2.ogg,,0,7,7,7,,,,,0,1,1,1,,,,,,,,,,,,,,,,,,,,,,,,,,,,,,,,,,,,,,,,,,,,,,,,,,,,,,,,,,,,,,,,,1,0.46281541300049867,2374.161435629998,None,2374.161435629998,None,2374.161435629998,None,,,,,,,,,,,,,,,,,,,,,,,,,,,,,,,,,,,,,,,,,,,,,,,,,,,100919_p1,001,2019_Oct_09_1237,body_behavioural,3.2.2,59.9425938164854,
7,parcelated_audio/33/33_3.ogg,,0,7,7,7,,,,,0,2,2,2,,,,,,,,,,,,,,,,,,,,,,,,,,,,,,,,,,,,,,,,,,,,,,,,,,,,,,,,,,,,,,,,,1,0.3317936770035885,2381.2307744619975,None,2381.2307744619975,None,2381.2307744619975,None,,,,,,,,,,,,,,,,,,,,,,,,,,,,,,,,,,,,,,,,,,,,,,,,,,,100919_p1,001,2019_Oct_09_1237,body_behavioural,3.2.2,59.9425938164854,
7,parcelated_audio/33/33_4.ogg,,0,7,7,7,,,,,0,3,3,3,,,,,,,,,,,,,,,,,,,,,,,,,,,,,,,,,,,,,,,,,,,,,,,,,,,,,,,,,,,,,,,,,1,0.2795345720005571,2385.229809299999,None,2385.229809299999,None,2385.229809299999,None,,,,,,,,,,,,,,,,,,,,,,,,,,,,,,,,,,,,,,,,,,,,,,,,,,,100919_p1,001,2019_Oct_09_1237,body_behavioural,3.2.2,59.9425938164854,
7,parcelated_audio/33/33_5.ogg,,0,7,7,7,,,,,0,4,4,4,,,,,,,,,,,,,,,,,,,,,,,,,,,,,,,,,,,,,,,,,,,,,,,,,,,,,,,,,,,,,,,,,1,0.35921907699957956,2396.832228264997,None,2396.832228264997,None,2396.832228264997,None,,,,,,,,,,,,,,,,,,,,,,,,,,,,,,,,,,,,,,,,,,,,,,,,,,,100919_p1,001,2019_Oct_09_1237,body_behavioural,3.2.2,59.9425938164854,
7,parcelated_audio/33/33_6.ogg,,0,7,7,7,,,,,0,5,5,5,,,,,,,,,,,,,,,,,,,,,,,,,,,,,,,,,,,,,,,,,,,,,,,,,,,,,,,,,,,,,,,,,1,10.324380818001373,2408.986526646,None,2408.986526646,None,2408.986526646,None,,,,,,,,,,,,,,,,,,,,,,,,,,,,,,,,,,,,,,,,,,,,,,,,,,,100919_p1,001,2019_Oct_09_1237,body_behavioural,3.2.2,59.9425938164854,
7,parcelated_audio/33/33_7.ogg,,0,7,7,7,,,,,0,6,6,6,,,,,,,,,,,,,,,,,,,,,,,,,,,,,,,,,,,,,,,,,,,,,,,,,,,,,,,,,,,,,,,,,1,0.3821917780005606,2433.9391464929977,None,2433.9391464929977,None,2433.9391464929977,None,,,,,,,,,,,,,,,,,,,,,,,,,,,,,,,,,,,,,,,,,,,,,,,,,,,100919_p1,001,2019_Oct_09_1237,body_behavioural,3.2.2,59.9425938164854,
7,parcelated_audio/33/33_8.ogg,,0,7,7,7,,,,,0,7,7,7,,,,,,,,,,,,,,,,,,,,,,,,,,,,,,,,,,,,,,,,,,,,,,,,,,,,,,,,,,,,,,,,,1,0.30063464699924225,2440.5387519899996,None,2440.5387519899996,None,2440.5387519899996,None,,,,,,,,,,,,,,,,,,,,,,,,,,,,,,,,,,,,,,,,,,,,,,,,,,,100919_p1,001,2019_Oct_09_1237,body_behavioural,3.2.2,59.9425938164854,
7,parcelated_audio/33/33_9.ogg,,0,7,7,7,,,,,0,8,8,8,,,,,,,,,,,,,,,,,,,,,,,,,,,,,,,,,,,,,,,,,,,,,,,,,,,,,,,,,,,,,,,,,1,0.1998263869973016,2444.6405359579985,None,2444.6405359579985,None,2444.6405359579985,None,,,,,,,,,,,,,,,,,,,,,,,,,,,,,,,,,,,,,,,,,,,,,,,,,,,100919_p1,001,2019_Oct_09_1237,body_behavioural,3.2.2,59.9425938164854,
7,parcelated_audio/33/33_10.ogg,,0,7,7,7,,,,,0,9,9,9,,,,,,,,,,,,,,,,,,,,,,,,,,,,,,,,,,,,,,,,,,,,,,,,,,,,,,,,,,,,,,,,,1,0.3095270279991382,2450.2943439029987,None,2450.2943439029987,None,2450.2943439029987,None,,,,,,,,,,,,,,,,,,,,,,,,,,,,,,,,,,,,,,,,,,,,,,,,,,,100919_p1,001,2019_Oct_09_1237,body_behavioural,3.2.2,59.9425938164854,
7,parcelated_audio/33/33_11.ogg,,0,7,7,7,,,,,0,10,10,10,,,,,,,,,,,,,,,,,,,,,,,,,,,,,,,,,,,,,,,,,,,,,,,,,,,,,,,,,,,,,,,,,9,0.4821819150020019,2465.095006288997,None,2465.095006288997,None,2465.095006288997,None,,,,,,,,,,,,,,,,,,,,,,,,,,,,,,,,,,,,,,,,,,,,,,,,,,,100919_p1,001,2019_Oct_09_1237,body_behavioural,3.2.2,59.9425938164854,
7,parcelated_audio/33/33_12.ogg,,0,7,7,7,,,,,0,11,11,11,,,,,,,,,,,,,,,,,,,,,,,,,,,,,,,,,,,,,,,,,,,,,,,,,,,,,,,,,,,,,,,,,1,0.2169580390000192,2471.744423652999,None,2471.744423652999,None,2471.744423652999,None,,,,,,,,,,,,,,,,,,,,,,,,,,,,,,,,,,,,,,,,,,,,,,,,,,,100919_p1,001,2019_Oct_09_1237,body_behavioural,3.2.2,59.9425938164854,
