count,audio,instructText,trials.thisRepN,trials.thisTrialN,trials.thisN,trials.thisIndex,trials_7.thisRepN,trials_7.thisTrialN,trials_7.thisN,trials_7.thisIndex,trials_2.thisRepN,trials_2.thisTrialN,trials_2.thisN,trials_2.thisIndex,trials_3.thisRepN,trials_3.thisTrialN,trials_3.thisN,trials_3.thisIndex,trials_4.thisRepN,trials_4.thisTrialN,trials_4.thisN,trials_4.thisIndex,order of stories,order of perspectives,participant 2 order - stories,participant 2 order  - schemas types,text_38.started,text_38.stopped,key_resp_8.keys,key_resp_8.rt,key_resp_8.started,key_resp_8.stopped,text_39.started,text_39.stopped,text_33.started,text_33.stopped,key_resp_5.keys,key_resp_5.rt,key_resp_5.started,key_resp_5.stopped,text_4.started,text_4.stopped,image.started,image.stopped,text_5.started,text_5.stopped,text_37.started,text_37.stopped,key_resp_7.keys,key_resp_7.rt,key_resp_7.started,key_resp_7.stopped,question1_2.started,question1_2.stopped,question2_2.started,question2_2.stopped,question3_2.started,question3_2.stopped,question4_2.started,question4_2.stopped,question5_2.started,question5_2.stopped,question6_2.started,question6_2.stopped,image_15.started,image_15.stopped,text_49.started,text_49.stopped,key_resp_15.keys,key_resp_15.rt,key_resp_15.started,key_resp_15.stopped,text_50.started,text_50.stopped,key_resp_14.keys,key_resp_14.rt,key_resp_14.started,key_resp_14.stopped,story_presses.keys,story_presses.rt,story_presses.started,story_presses.stopped,text_34.started,text_34.stopped,text_35.started,text_35.stopped,text.started,text.stopped,text_52.started,text_52.stopped,key_resp_16.keys,key_resp_16.rt,key_resp_16.started,key_resp_16.stopped,story time,text_45.started,text_45.stopped,key_resp_6.keys,key_resp_6.rt,key_resp_6.started,key_resp_6.stopped,key_resp_2.keys,key_resp_2.rt,key_resp_2.started,key_resp_2.stopped,text_6.started,text_6.stopped,text_24.started,text_24.stopped,text_41.started,text_41.stopped,key_resp_10.keys,key_resp_10.rt,key_resp_10.started,key_resp_10.stopped,text_42.started,text_42.stopped,text_51.started,text_51.stopped,recall,text_9.started,text_9.stopped,text_10.started,text_10.stopped,image_4.started,image_4.stopped,polygon.started,polygon.stopped,bottom_line.started,bottom_line.stopped,right_line_2.started,right_line_2.stopped,left_line.started,left_line.stopped,text_48.started,text_48.stopped,participant,session,date,expName,psychopyVersion,frameRate,
0,,,0,0,0,0,0,0,0,0,,,,,,,,,,,,,[44 32 13 23 42 34 21 11 12 22 31 33 41 14 24 43],"['Location' 'Location' 'Location' 'Social' 'Social' 'Social' 'Location'
 'Social' 'Social' 'Location' 'Location' 'Social' 'Social' 'Location'
 'Social' 'Location']",[12 22 31 33 41 14 24 43],"['Social' 'Location' 'Location' 'Social' 'Social' 'Location' 'Social'
 'Location']",35.274585792999915,None,space,33.34027481300018,35.274585792999915,None,35.274585792999915,None,68.6449740569999,None,space,1.6818653130001167,68.6449740569999,None,70.43278355199982,None,70.43278355199982,None,70.43278355199982,None,71.77357786799985,None,space,2.985162432999914,71.77357786799985,None,74.92393786299999,None,74.92393786299999,None,74.92393786299999,None,74.92393786299999,None,74.92393786299999,None,74.92393786299999,None,74.92393786299999,None,,,,,,,,,,,,,,,,,,,,,,,,,,,,,,,,,,,,,,,,,,,,,,,,,,,,,,,,,,,,,,,,,,,,,,,101719_p1,001,2019_Oct_17_1158,body_behavioural,3.2.2,60.15229502422574,
0,parcelated_audio/44/44_1.ogg,,0,0,0,0,,,,,0,0,0,0,,,,,,,,,,,,,,,,,,,,,,,,,,,94.4105123349998,None,94.4105123349998,None,94.4105123349998,None,,,,,,,,,,,,,,,,,,,,,91.88546501699989,None,space,2.4853693590000603,91.88546501699989,None,95.5278924879999,None,space,1.7389454290000685,95.5278924879999,None,9,11.32419849300004,105.631764299,None,105.631764299,None,105.631764299,None,,,,,,,,,,,,,,,,,,,,,,,,,,,,,,,,,,,,,,,,,,,,,,,,,,,101719_p1,001,2019_Oct_17_1158,body_behavioural,3.2.2,60.15229502422574,
0,parcelated_audio/44/44_2.ogg,,0,0,0,0,,,,,0,1,1,1,,,,,,,,,,,,,,,,,,,,,,,,,,,,,,,,,,,,,,,,,,,,,,,,,,,,,,,,,,,,,,,,,1,1.7726484510001228,126.18258160699997,None,126.18258160699997,None,126.18258160699997,None,,,,,,,,,,,,,,,,,,,,,,,,,,,,,,,,,,,,,,,,,,,,,,,,,,,101719_p1,001,2019_Oct_17_1158,body_behavioural,3.2.2,60.15229502422574,
0,parcelated_audio/44/44_3.ogg,,0,0,0,0,,,,,0,2,2,2,,,,,,,,,,,,,,,,,,,,,,,,,,,,,,,,,,,,,,,,,,,,,,,,,,,,,,,,,,,,,,,,,1,1.0810022690000096,133.48400049299994,None,133.48400049299994,None,133.48400049299994,None,,,,,,,,,,,,,,,,,,,,,,,,,,,,,,,,,,,,,,,,,,,,,,,,,,,101719_p1,001,2019_Oct_17_1158,body_behavioural,3.2.2,60.15229502422574,
0,parcelated_audio/44/44_4.ogg,,0,0,0,0,,,,,0,3,3,3,,,,,,,,,,,,,,,,,,,,,,,,,,,,,,,,,,,,,,,,,,,,,,,,,,,,,,,,,,,,,,,,,1,0.9807353149999471,139.72035950699978,None,139.72035950699978,None,139.72035950699978,None,,,,,,,,,,,,,,,,,,,,,,,,,,,,,,,,,,,,,,,,,,,,,,,,,,,101719_p1,001,2019_Oct_17_1158,body_behavioural,3.2.2,60.15229502422574,
0,parcelated_audio/44/44_5.ogg,,0,0,0,0,,,,,0,4,4,4,,,,,,,,,,,,,,,,,,,,,,,,,,,,,,,,,,,,,,,,,,,,,,,,,,,,,,,,,,,,,,,,,1,0.5934300789999725,147.01967017799984,None,147.01967017799984,None,147.01967017799984,None,,,,,,,,,,,,,,,,,,,,,,,,,,,,,,,,,,,,,,,,,,,,,,,,,,,101719_p1,001,2019_Oct_17_1158,body_behavioural,3.2.2,60.15229502422574,
0,parcelated_audio/44/44_6.ogg,,0,0,0,0,,,,,0,5,5,5,,,,,,,,,,,,,,,,,,,,,,,,,,,,,,,,,,,,,,,,,,,,,,,,,,,,,,,,,,,,,,,,,1,1.541966979000108,154.65513558099997,None,154.65513558099997,None,154.65513558099997,None,,,,,,,,,,,,,,,,,,,,,,,,,,,,,,,,,,,,,,,,,,,,,,,,,,,101719_p1,001,2019_Oct_17_1158,body_behavioural,3.2.2,60.15229502422574,
0,parcelated_audio/44/44_7.ogg,,0,0,0,0,,,,,0,6,6,6,,,,,,,,,,,,,,,,,,,,,,,,,,,,,,,,,,,,,,,,,,,,,,,,,,,,,,,,,,,,,,,,,1,0.9553463749998627,162.30599477299984,None,162.30599477299984,None,162.30599477299984,None,,,,,,,,,,,,,,,,,,,,,,,,,,,,,,,,,,,,,,,,,,,,,,,,,,,101719_p1,001,2019_Oct_17_1158,body_behavioural,3.2.2,60.15229502422574,
0,parcelated_audio/44/44_8.ogg,,0,0,0,0,,,,,0,7,7,7,,,,,,,,,,,,,,,,,,,,,,,,,,,,,,,,,,,,,,,,,,,,,,,,,,,,,,,,,,,,,,,,,9,1.2095373320000817,167.59079073399994,None,167.59079073399994,None,167.59079073399994,None,,,,,,,,,,,,,,,,,,,,,,,,,,,,,,,,,,,,,,,,,,,,,,,,,,,101719_p1,001,2019_Oct_17_1158,body_behavioural,3.2.2,60.15229502422574,
0,parcelated_audio/44/44_9.ogg,,0,0,0,0,,,,,0,8,8,8,,,,,,,,,,,,,,,,,,,,,,,,,,,,,,,,,,,,,,,,,,,,,,,,,,,,,,,,,,,,,,,,,1,1.3695672609999292,172.5594150039999,None,172.5594150039999,None,172.5594150039999,None,,,,,,,,,,,,,,,,,,,,,,,,,,,,,,,,,,,,,,,,,,,,,,,,,,,101719_p1,001,2019_Oct_17_1158,body_behavioural,3.2.2,60.15229502422574,
0,parcelated_audio/44/44_10.ogg,,0,0,0,0,,,,,0,9,9,9,,,,,,,,,,,,,,,,,,,,,,,,,,,,,,,,,,,,,,,,,,,,,,,,,,,,,,,,,,,,,,,,,1,0.763025910999886,184.1424382959999,None,184.1424382959999,None,184.1424382959999,None,,,,,,,,,,,,,,,,,,,,,,,,,,,,,,,,,,,,,,,,,,,,,,,,,,,101719_p1,001,2019_Oct_17_1158,body_behavioural,3.2.2,60.15229502422574,
0,parcelated_audio/44/44_11.ogg,,0,0,0,0,,,,,0,10,10,10,,,,,,,,,,,,,,,,,,,,,,,,,,,,,,,,,,,,,,,,,,,,,,,,,,,,,,,,,,,,,,,,,9,1.1306373929999154,188.52681661199995,None,188.52681661199995,None,188.52681661199995,None,,,,,,,,,,,,,,,,,,,,,,,,,,,,,,,,,,,,,,,,,,,,,,,,,,,101719_p1,001,2019_Oct_17_1158,body_behavioural,3.2.2,60.15229502422574,
0,parcelated_audio/44/44_12.ogg,,0,0,0,0,,,,,0,11,11,11,,,,,,,,,,,,,,,,,,,,,,,,,,,,,,,,,,,,,,,,,,,,,,,,,,,,,,,,,,,,,,,,,1,0.3291937379999581,200.3300887869998,None,200.3300887869998,None,200.3300887869998,None,,,,,,,,,,,,,,,,,,,,,,,,,,,,,,,,,,,,,,,,,,,,,,,,,,,101719_p1,001,2019_Oct_17_1158,body_behavioural,3.2.2,60.15229502422574,
0,parcelated_audio/44/44_13.ogg,,0,0,0,0,,,,,0,12,12,12,,,,,,,,,,,,,,,,,,,,,,,,,,,,,,,,,,,,,,,,,,,,,,,,,,,,,,,,,,,,,,,,,1,0.6285230020000654,207.8966245529998,None,207.8966245529998,None,207.8966245529998,None,,,,,,,,,,,,,,,,,,,,,,,,,,,,,,,,,,,,,,,,,,,,,,,,,,,101719_p1,001,2019_Oct_17_1158,body_behavioural,3.2.2,60.15229502422574,
0,parcelated_audio/44/44_14.ogg,,0,0,0,0,,,,,0,13,13,13,,,,,,,,,,,,,,,,,,,,,,,,,,,,,,,,,,,,,,,,,,,,,,,,,,,,,,,,,,,,,,,,,1,1.5132149439998557,214.91473801099983,None,214.91473801099983,None,214.91473801099983,None,,,,,,,,,,,,,,,,,,,,,,,,,,,,,,,,,,,,,,,,,,,,,,,,,,,101719_p1,001,2019_Oct_17_1158,body_behavioural,3.2.2,60.15229502422574,
0,parcelated_audio/44/44_15.ogg,,0,0,0,0,,,,,0,14,14,14,,,,,,,,,,,,,,,,,,,,,,,,,,,,,,,,,,,,,,,,,,,,,,,,,,,,,,,,,,,,,,,,,1,1.4984612749999542,220.59853011699988,None,220.59853011699988,None,220.59853011699988,None,,,,,,,,,,,,,,,,,,,,,,,,,,,,,,,,,,,,,,,,,,,,,,,,,,,101719_p1,001,2019_Oct_17_1158,body_behavioural,3.2.2,60.15229502422574,
0,parcelated_audio/44/44_16.ogg,,0,0,0,0,,,,,0,15,15,15,,,,,,,,,,,,,,,,,,,,,,,,,,,,,,,,,,,,,,,,,,,,,,,,,,,,,,,,,,,,,,,,,1,0.3705854160000399,226.21626813599983,None,226.21626813599983,None,226.21626813599983,None,,,,,,,,,,,,,,,,,,,,,,,,,,,,,,,,,,,,,,,,,,,,,,,,,,,101719_p1,001,2019_Oct_17_1158,body_behavioural,3.2.2,60.15229502422574,
0,parcelated_audio/44/44_17.ogg,,0,0,0,0,,,,,0,16,16,16,,,,,,,,,,,,,,,,,,,,,,,,,,,,,,,,,,,,,,,,,,,,,,,,,,,,,,,,,,,,,,,,,1,1.270616696000161,235.15198801299994,None,235.15198801299994,None,235.15198801299994,None,,,,,,,,,,,,,,,,,,,,,,,,,,,,,,,,,,,,,,,,,,,,,,,,,,,101719_p1,001,2019_Oct_17_1158,body_behavioural,3.2.2,60.15229502422574,
0,parcelated_audio/44/44_18.ogg,,0,0,0,0,,,,,0,17,17,17,,,,,,,,,,,,,,,,,,,,,,,,,,,,,,,,,,,,,,,,,,,,,,,,,,,,,,,,,,,,,,,,,1,1.6218170270001337,246.35289918599983,None,246.35289918599983,None,246.35289918599983,None,,,,,,,,,,,,,,,,,,,,,,,,,,,,,,,,,,,,,,,,,,,,,,,,,,,101719_p1,001,2019_Oct_17_1158,body_behavioural,3.2.2,60.15229502422574,
0,parcelated_audio/44/44_19.ogg,,0,0,0,0,,,,,0,18,18,18,,,,,,,,,,,,,,,,,,,,,,,,,,,,,,,,,,,,,,,,,,,,,,,,,,,,,,,,,,,,,,,,,9,2.32838300100002,259.039953988,None,259.039953988,None,259.039953988,None,,,,,,,,,,,,,,,,,,,,,,,,,,,,,,,,,,,,,,,,,,,,,,,,,,,101719_p1,001,2019_Oct_17_1158,body_behavioural,3.2.2,60.15229502422574,
0,parcelated_audio/44/44_20.ogg,,0,0,0,0,,,,,0,19,19,19,,,,,,,,,,,,,,,,,,,,,,,,,,,,,,,,,,,,,,,,,,,,,,,,,,,,,,,,,,,,,,,,,1,0.4653958239998701,269.6737345629999,None,269.6737345629999,None,269.6737345629999,None,,,,,,,,,,,,,,,,,,,,,,,,,,,,,,,,,,,,,,,,,,,,,,,,,,,101719_p1,001,2019_Oct_17_1158,body_behavioural,3.2.2,60.15229502422574,
0,parcelated_audio/44/44_21.ogg,,0,0,0,0,,,,,0,20,20,20,,,,,,,,,,,,,,,,,,,,,,,,,,,,,,,,,,,,,,,,,,,,,,,,,,,,,,,,,,,,,,,,,9,3.6008415219998824,279.1582560349998,None,279.1582560349998,None,279.1582560349998,None,,,,,,,,,,,,,,,,,,,,,,,,,,,,,,,,,,,,,,,,,,,,,,,,,,,101719_p1,001,2019_Oct_17_1158,body_behavioural,3.2.2,60.15229502422574,
0,parcelated_audio/44/44_22.ogg,,0,0,0,0,,,,,0,21,21,21,,,,,,,,,,,,,,,,,,,,,,,,,,,,,,,,,,,,,,,,,,,,,,,,,,,,,,,,,,,,,,,,,1,0.2955622989998119,287.7439496049999,None,287.7439496049999,None,287.7439496049999,None,,,,,,,,,,,,,,,,,,,,,,,,,,,,,,,,,,,,,,,,,,,,,,,,,,,101719_p1,001,2019_Oct_17_1158,body_behavioural,3.2.2,60.15229502422574,
0,parcelated_audio/44/44_23.ogg,,0,0,0,0,,,,,0,22,22,22,,,,,,,,,,,,,,,,,,,,,,,,,,,,,,,,,,,,,,,,,,,,,,,,,,,,,,,,,,,,,,,,,1,0.3239240709999649,294.7610536589998,None,294.7610536589998,None,294.7610536589998,None,,,,,,,,,,,,,,,,,,,,,,,,,,,,,,,,,,,,,,,,,,,,,,,,,,,101719_p1,001,2019_Oct_17_1158,body_behavioural,3.2.2,60.15229502422574,
0,parcelated_audio/44/44_24.ogg,,0,0,0,0,,,,,0,23,23,23,,,,,,,,,,,,,,,,,,,,,,,,,,,,,,,,,,,,,,,,,,,,,,,,,,,,,,,,,,,,,,,,,1,1.1673200969999016,303.91311420499983,None,303.91311420499983,None,303.91311420499983,None,,,,,,,,,,,,,,,,,,,,,,,,,,,,,,,,,,,,,,,,,,,,,,,,,,,101719_p1,001,2019_Oct_17_1158,body_behavioural,3.2.2,60.15229502422574,
0,parcelated_audio/44/44_25.ogg,,0,0,0,0,,,,,0,24,24,24,,,,,,,,,,,,,,,,,,,,,,,,,,,,,,,,,,,,,,,,,,,,,,,,,,,,,,,,,,,,,,,,,1,0.5047726340001191,311.48106842699985,None,311.48106842699985,None,311.48106842699985,None,,,,,,,,,,,,,,,,,,,,,,,,,,,,,,,,,,,,,,,,,,,,,,,,,,,101719_p1,001,2019_Oct_17_1158,body_behavioural,3.2.2,60.15229502422574,
0,parcelated_audio/44/44_26.ogg,,0,0,0,0,,,,,0,25,25,25,,,,,,,,,,,,,,,,,,,,,,,,,,,,,,,,,,,,,,,,,,,,,,,,,,,,,,,,,,,,,,,,,9,0.8467689389999578,316.914963104,None,316.914963104,None,316.914963104,None,,,,,,,,,,,,,,,,,,,,,,,,,,,,,,,,,,,,,,,,,,,,,,,,,,,101719_p1,001,2019_Oct_17_1158,body_behavioural,3.2.2,60.15229502422574,
0,parcelated_audio/44/44_27.ogg,,0,0,0,0,,,,,0,26,26,26,,,,,,,,,,,,,,,,,,,,,,,,,,,,,,,,,,,,,,,,,,,,,,,,,,,,,,,,,,,,,,,,,9,0.4400521860000026,324.816994284,None,324.816994284,None,324.816994284,None,,,,,,,,,,,,,,,,,,,,,,,,,,,,,,,,,,,,,,,,,,,,,,,,,,,101719_p1,001,2019_Oct_17_1158,body_behavioural,3.2.2,60.15229502422574,
0,parcelated_audio/44/44_28.ogg,,0,0,0,0,,,,,0,27,27,27,,,,,,,,,,,,,,,,,,,,,,,,,,,,,,,,,,,,,,,,,,,,,,,,,,,,,,,,,,,,,,,,,1,0.3752151329999833,336.61989782,None,336.61989782,None,336.61989782,None,,,,,,,,,,,,,,,,,,,,,,,,,,,,,,,,,,,,,,,,,,,,,,,,,,,101719_p1,001,2019_Oct_17_1158,body_behavioural,3.2.2,60.15229502422574,
0,,,0,0,0,0,,,,,,,,,,,,,,,,,,,,,,,,,,,,,,,,,,,,,,,,,,,,,,,,,,,,,,,,,,,,,,,,,,,,,,,,,,,,,,,,,337.035448933,None,337.035448933,None,space,1.7516703480000615,337.035448933,None,,,,,,,,,,,,,,,,,,,,,,,,,,,,,,,,,,,,,,,,,,,101719_p1,001,2019_Oct_17_1158,body_behavioural,3.2.2,60.15229502422574,
1,,,0,1,1,1,0,0,0,0,,,,,,,,,,,,,,,,,338.835238442,None,space,0.7278695090001293,338.835238442,None,338.835238442,None,339.62407951399996,None,space,0.5550308649999351,339.62407951399996,None,340.27413744599994,None,340.27413744599994,None,340.27413744599994,None,342.30243304099986,None,space,1.0287917329999345,342.30243304099986,None,343.46945394299996,None,343.46945394299996,None,343.46945394299996,None,343.46945394299996,None,343.46945394299996,None,343.46945394299996,None,343.46945394299996,None,,,,,,,,,,,,,,,,,,,,,,,,,,,,,,,,,,,,,,,,,,,,,,,,,,,,,,,,,,,,,,,,,,,,,,,101719_p1,001,2019_Oct_17_1158,body_behavioural,3.2.2,60.15229502422574,
1,parcelated_audio/32/32_1.ogg,,0,1,1,1,,,,,0,0,0,0,,,,,,,,,,,,,,,,,,,,,,,,,,,360.65733969999997,None,360.65733969999997,None,360.65733969999997,None,,,,,,,,,,,,,,,,,,,,,359.36278598399986,None,space,1.2536825739998676,359.36278598399986,None,362.2727836849999,None,space,1.1676772229998278,362.2727836849999,None,9,1.1104256090000035,374.891447577,None,374.891447577,None,374.891447577,None,,,,,,,,,,,,,,,,,,,,,,,,,,,,,,,,,,,,,,,,,,,,,,,,,,,101719_p1,001,2019_Oct_17_1158,body_behavioural,3.2.2,60.15229502422574,
1,parcelated_audio/32/32_2.ogg,,0,1,1,1,,,,,0,1,1,1,,,,,,,,,,,,,,,,,,,,,,,,,,,,,,,,,,,,,,,,,,,,,,,,,,,,,,,,,,,,,,,,,1,0.655404666000095,384.4260496139998,None,384.4260496139998,None,384.4260496139998,None,,,,,,,,,,,,,,,,,,,,,,,,,,,,,,,,,,,,,,,,,,,,,,,,,,,101719_p1,001,2019_Oct_17_1158,body_behavioural,3.2.2,60.15229502422574,
1,parcelated_audio/32/32_3.ogg,,0,1,1,1,,,,,0,2,2,2,,,,,,,,,,,,,,,,,,,,,,,,,,,,,,,,,,,,,,,,,,,,,,,,,,,,,,,,,,,,,,,,,1,0.3639373109999724,390.727924263,None,390.727924263,None,390.727924263,None,,,,,,,,,,,,,,,,,,,,,,,,,,,,,,,,,,,,,,,,,,,,,,,,,,,101719_p1,001,2019_Oct_17_1158,body_behavioural,3.2.2,60.15229502422574,
1,parcelated_audio/32/32_4.ogg,,0,1,1,1,,,,,0,3,3,3,,,,,,,,,,,,,,,,,,,,,,,,,,,,,,,,,,,,,,,,,,,,,,,,,,,,,,,,,,,,,,,,,1,1.2270574140000008,397.86385486999984,None,397.86385486999984,None,397.86385486999984,None,,,,,,,,,,,,,,,,,,,,,,,,,,,,,,,,,,,,,,,,,,,,,,,,,,,101719_p1,001,2019_Oct_17_1158,body_behavioural,3.2.2,60.15229502422574,
1,parcelated_audio/32/32_5.ogg,,0,1,1,1,,,,,0,4,4,4,,,,,,,,,,,,,,,,,,,,,,,,,,,,,,,,,,,,,,,,,,,,,,,,,,,,,,,,,,,,,,,,,1,0.3654381960000137,410.8645206429999,None,410.8645206429999,None,410.8645206429999,None,,,,,,,,,,,,,,,,,,,,,,,,,,,,,,,,,,,,,,,,,,,,,,,,,,,101719_p1,001,2019_Oct_17_1158,body_behavioural,3.2.2,60.15229502422574,
1,parcelated_audio/32/32_6.ogg,,0,1,1,1,,,,,0,5,5,5,,,,,,,,,,,,,,,,,,,,,,,,,,,,,,,,,,,,,,,,,,,,,,,,,,,,,,,,,,,,,,,,,1,0.31171029300003283,419.7994036619998,None,419.7994036619998,None,419.7994036619998,None,,,,,,,,,,,,,,,,,,,,,,,,,,,,,,,,,,,,,,,,,,,,,,,,,,,101719_p1,001,2019_Oct_17_1158,body_behavioural,3.2.2,60.15229502422574,
1,parcelated_audio/32/32_7.ogg,,0,1,1,1,,,,,0,6,6,6,,,,,,,,,,,,,,,,,,,,,,,,,,,,,,,,,,,,,,,,,,,,,,,,,,,,,,,,,,,,,,,,,9,2.014122587999964,423.5995213419999,None,423.5995213419999,None,423.5995213419999,None,,,,,,,,,,,,,,,,,,,,,,,,,,,,,,,,,,,,,,,,,,,,,,,,,,,101719_p1,001,2019_Oct_17_1158,body_behavioural,3.2.2,60.15229502422574,
1,parcelated_audio/32/32_8.ogg,,0,1,1,1,,,,,0,7,7,7,,,,,,,,,,,,,,,,,,,,,,,,,,,,,,,,,,,,,,,,,,,,,,,,,,,,,,,,,,,,,,,,,1,0.8617662619999464,430.16947038599983,None,430.16947038599983,None,430.16947038599983,None,,,,,,,,,,,,,,,,,,,,,,,,,,,,,,,,,,,,,,,,,,,,,,,,,,,101719_p1,001,2019_Oct_17_1158,body_behavioural,3.2.2,60.15229502422574,
1,parcelated_audio/32/32_9.ogg,,0,1,1,1,,,,,0,8,8,8,,,,,,,,,,,,,,,,,,,,,,,,,,,,,,,,,,,,,,,,,,,,,,,,,,,,,,,,,,,,,,,,,1,0.7527049789998728,439.8042716839998,None,439.8042716839998,None,439.8042716839998,None,,,,,,,,,,,,,,,,,,,,,,,,,,,,,,,,,,,,,,,,,,,,,,,,,,,101719_p1,001,2019_Oct_17_1158,body_behavioural,3.2.2,60.15229502422574,
1,parcelated_audio/32/32_10.ogg,,0,1,1,1,,,,,0,9,9,9,,,,,,,,,,,,,,,,,,,,,,,,,,,,,,,,,,,,,,,,,,,,,,,,,,,,,,,,,,,,,,,,,1,0.5019180580000011,445.32096654999987,None,445.32096654999987,None,445.32096654999987,None,,,,,,,,,,,,,,,,,,,,,,,,,,,,,,,,,,,,,,,,,,,,,,,,,,,101719_p1,001,2019_Oct_17_1158,body_behavioural,3.2.2,60.15229502422574,
1,parcelated_audio/32/32_11.ogg,,0,1,1,1,,,,,0,10,10,10,,,,,,,,,,,,,,,,,,,,,,,,,,,,,,,,,,,,,,,,,,,,,,,,,,,,,,,,,,,,,,,,,1,0.3237094880000768,451.9872649839999,None,451.9872649839999,None,451.9872649839999,None,,,,,,,,,,,,,,,,,,,,,,,,,,,,,,,,,,,,,,,,,,,,,,,,,,,101719_p1,001,2019_Oct_17_1158,body_behavioural,3.2.2,60.15229502422574,
1,parcelated_audio/32/32_12.ogg,,0,1,1,1,,,,,0,11,11,11,,,,,,,,,,,,,,,,,,,,,,,,,,,,,,,,,,,,,,,,,,,,,,,,,,,,,,,,,,,,,,,,,9,1.4382942049999201,461.85894291599993,None,461.85894291599993,None,461.85894291599993,None,,,,,,,,,,,,,,,,,,,,,,,,,,,,,,,,,,,,,,,,,,,,,,,,,,,101719_p1,001,2019_Oct_17_1158,body_behavioural,3.2.2,60.15229502422574,
1,parcelated_audio/32/32_13.ogg,,0,1,1,1,,,,,0,12,12,12,,,,,,,,,,,,,,,,,,,,,,,,,,,,,,,,,,,,,,,,,,,,,,,,,,,,,,,,,,,,,,,,,1,0.3645716609998999,472.9907995839999,None,472.9907995839999,None,472.9907995839999,None,,,,,,,,,,,,,,,,,,,,,,,,,,,,,,,,,,,,,,,,,,,,,,,,,,,101719_p1,001,2019_Oct_17_1158,body_behavioural,3.2.2,60.15229502422574,
1,parcelated_audio/32/32_14.ogg,,0,1,1,1,,,,,0,13,13,13,,,,,,,,,,,,,,,,,,,,,,,,,,,,,,,,,,,,,,,,,,,,,,,,,,,,,,,,,,,,,,,,,1,0.39115570400008437,481.5098202539998,None,481.5098202539998,None,481.5098202539998,None,,,,,,,,,,,,,,,,,,,,,,,,,,,,,,,,,,,,,,,,,,,,,,,,,,,101719_p1,001,2019_Oct_17_1158,body_behavioural,3.2.2,60.15229502422574,
1,parcelated_audio/32/32_15.ogg,,0,1,1,1,,,,,0,14,14,14,,,,,,,,,,,,,,,,,,,,,,,,,,,,,,,,,,,,,,,,,,,,,,,,,,,,,,,,,,,,,,,,,1,0.8958993020000889,488.877955531,None,488.877955531,None,488.877955531,None,,,,,,,,,,,,,,,,,,,,,,,,,,,,,,,,,,,,,,,,,,,,,,,,,,,101719_p1,001,2019_Oct_17_1158,body_behavioural,3.2.2,60.15229502422574,
1,parcelated_audio/32/32_16.ogg,,0,1,1,1,,,,,0,15,15,15,,,,,,,,,,,,,,,,,,,,,,,,,,,,,,,,,,,,,,,,,,,,,,,,,,,,,,,,,,,,,,,,,1,2.905909456000245,497.4654821319998,None,497.4654821319998,None,497.4654821319998,None,,,,,,,,,,,,,,,,,,,,,,,,,,,,,,,,,,,,,,,,,,,,,,,,,,,101719_p1,001,2019_Oct_17_1158,body_behavioural,3.2.2,60.15229502422574,
1,parcelated_audio/32/32_17.ogg,,0,1,1,1,,,,,0,16,16,16,,,,,,,,,,,,,,,,,,,,,,,,,,,,,,,,,,,,,,,,,,,,,,,,,,,,,,,,,,,,,,,,,9,0.8703991160000442,508.74783470299985,None,508.74783470299985,None,508.74783470299985,None,,,,,,,,,,,,,,,,,,,,,,,,,,,,,,,,,,,,,,,,,,,,,,,,,,,101719_p1,001,2019_Oct_17_1158,body_behavioural,3.2.2,60.15229502422574,
1,parcelated_audio/32/32_18.ogg,,0,1,1,1,,,,,0,17,17,17,,,,,,,,,,,,,,,,,,,,,,,,,,,,,,,,,,,,,,,,,,,,,,,,,,,,,,,,,,,,,,,,,1,0.4303915550003694,513.998332381,None,513.998332381,None,513.998332381,None,,,,,,,,,,,,,,,,,,,,,,,,,,,,,,,,,,,,,,,,,,,,,,,,,,,101719_p1,001,2019_Oct_17_1158,body_behavioural,3.2.2,60.15229502422574,
1,parcelated_audio/32/32_19.ogg,,0,1,1,1,,,,,0,18,18,18,,,,,,,,,,,,,,,,,,,,,,,,,,,,,,,,,,,,,,,,,,,,,,,,,,,,,,,,,,,,,,,,,1,0.35170100999994247,522.5836618679998,None,522.5836618679998,None,522.5836618679998,None,,,,,,,,,,,,,,,,,,,,,,,,,,,,,,,,,,,,,,,,,,,,,,,,,,,101719_p1,001,2019_Oct_17_1158,body_behavioural,3.2.2,60.15229502422574,
1,parcelated_audio/32/32_20.ogg,,0,1,1,1,,,,,0,19,19,19,,,,,,,,,,,,,,,,,,,,,,,,,,,,,,,,,,,,,,,,,,,,,,,,,,,,,,,,,,,,,,,,,1,0.316194123999594,533.9188988879998,None,533.9188988879998,None,533.9188988879998,None,,,,,,,,,,,,,,,,,,,,,,,,,,,,,,,,,,,,,,,,,,,,,,,,,,,101719_p1,001,2019_Oct_17_1158,body_behavioural,3.2.2,60.15229502422574,
1,parcelated_audio/32/32_21.ogg,,0,1,1,1,,,,,0,20,20,20,,,,,,,,,,,,,,,,,,,,,,,,,,,,,,,,,,,,,,,,,,,,,,,,,,,,,,,,,,,,,,,,,1,0.7858454580000398,543.170268526,None,543.170268526,None,543.170268526,None,,,,,,,,,,,,,,,,,,,,,,,,,,,,,,,,,,,,,,,,,,,,,,,,,,,101719_p1,001,2019_Oct_17_1158,body_behavioural,3.2.2,60.15229502422574,
1,parcelated_audio/32/32_22.ogg,,0,1,1,1,,,,,0,21,21,21,,,,,,,,,,,,,,,,,,,,,,,,,,,,,,,,,,,,,,,,,,,,,,,,,,,,,,,,,,,,,,,,,9,0.8695336139999199,558.072926302,None,558.072926302,None,558.072926302,None,,,,,,,,,,,,,,,,,,,,,,,,,,,,,,,,,,,,,,,,,,,,,,,,,,,101719_p1,001,2019_Oct_17_1158,body_behavioural,3.2.2,60.15229502422574,
1,parcelated_audio/32/32_23.ogg,,0,1,1,1,,,,,0,22,22,22,,,,,,,,,,,,,,,,,,,,,,,,,,,,,,,,,,,,,,,,,,,,,,,,,,,,,,,,,,,,,,,,,1,0.40952661700021054,568.0906199519998,None,568.0906199519998,None,568.0906199519998,None,,,,,,,,,,,,,,,,,,,,,,,,,,,,,,,,,,,,,,,,,,,,,,,,,,,101719_p1,001,2019_Oct_17_1158,body_behavioural,3.2.2,60.15229502422574,
1,parcelated_audio/32/32_24.ogg,,0,1,1,1,,,,,0,23,23,23,,,,,,,,,,,,,,,,,,,,,,,,,,,,,,,,,,,,,,,,,,,,,,,,,,,,,,,,,,,,,,,,,1,0.37850785099999484,579.8993192800001,None,579.8993192800001,None,579.8993192800001,None,,,,,,,,,,,,,,,,,,,,,,,,,,,,,,,,,,,,,,,,,,,,,,,,,,,101719_p1,001,2019_Oct_17_1158,body_behavioural,3.2.2,60.15229502422574,
1,parcelated_audio/32/32_25.ogg,,0,1,1,1,,,,,0,24,24,24,,,,,,,,,,,,,,,,,,,,,,,,,,,,,,,,,,,,,,,,,,,,,,,,,,,,,,,,,,,,,,,,,1,0.6579249100000197,586.4270525639997,None,586.4270525639997,None,586.4270525639997,None,,,,,,,,,,,,,,,,,,,,,,,,,,,,,,,,,,,,,,,,,,,,,,,,,,,101719_p1,001,2019_Oct_17_1158,body_behavioural,3.2.2,60.15229502422574,
1,parcelated_audio/32/32_26.ogg,,0,1,1,1,,,,,0,25,25,25,,,,,,,,,,,,,,,,,,,,,,,,,,,,,,,,,,,,,,,,,,,,,,,,,,,,,,,,,,,,,,,,,1,0.8824727340002028,600.530510719,None,600.530510719,None,600.530510719,None,,,,,,,,,,,,,,,,,,,,,,,,,,,,,,,,,,,,,,,,,,,,,,,,,,,101719_p1,001,2019_Oct_17_1158,body_behavioural,3.2.2,60.15229502422574,
1,parcelated_audio/32/32_27.ogg,,0,1,1,1,,,,,0,26,26,26,,,,,,,,,,,,,,,,,,,,,,,,,,,,,,,,,,,,,,,,,,,,,,,,,,,,,,,,,,,,,,,,,9,2.6605056729999887,608.4309819859998,None,608.4309819859998,None,608.4309819859998,None,,,,,,,,,,,,,,,,,,,,,,,,,,,,,,,,,,,,,,,,,,,,,,,,,,,101719_p1,001,2019_Oct_17_1158,body_behavioural,3.2.2,60.15229502422574,
1,parcelated_audio/32/32_28.ogg,,0,1,1,1,,,,,0,27,27,27,,,,,,,,,,,,,,,,,,,,,,,,,,,,,,,,,,,,,,,,,,,,,,,,,,,,,,,,,,,,,,,,,1,0.6979891850000968,617.8658753839998,None,617.8658753839998,None,617.8658753839998,None,,,,,,,,,,,,,,,,,,,,,,,,,,,,,,,,,,,,,,,,,,,,,,,,,,,101719_p1,001,2019_Oct_17_1158,body_behavioural,3.2.2,60.15229502422574,
1,parcelated_audio/32/32_29.ogg,,0,1,1,1,,,,,0,28,28,28,,,,,,,,,,,,,,,,,,,,,,,,,,,,,,,,,,,,,,,,,,,,,,,,,,,,,,,,,,,,,,,,,1,1.1408494090001113,621.2992578219998,None,621.2992578219998,None,621.2992578219998,None,,,,,,,,,,,,,,,,,,,,,,,,,,,,,,,,,,,,,,,,,,,,,,,,,,,101719_p1,001,2019_Oct_17_1158,body_behavioural,3.2.2,60.15229502422574,
1,parcelated_audio/32/32_30.ogg,,0,1,1,1,,,,,0,29,29,29,,,,,,,,,,,,,,,,,,,,,,,,,,,,,,,,,,,,,,,,,,,,,,,,,,,,,,,,,,,,,,,,,1,0.8719168009997702,629.5681630769998,None,629.5681630769998,None,629.5681630769998,None,,,,,,,,,,,,,,,,,,,,,,,,,,,,,,,,,,,,,,,,,,,,,,,,,,,101719_p1,001,2019_Oct_17_1158,body_behavioural,3.2.2,60.15229502422574,
1,parcelated_audio/32/32_31.ogg,,0,1,1,1,,,,,0,30,30,30,,,,,,,,,,,,,,,,,,,,,,,,,,,,,,,,,,,,,,,,,,,,,,,,,,,,,,,,,,,,,,,,,1,0.9977216550000776,636.8696804559997,None,636.8696804559997,None,636.8696804559997,None,,,,,,,,,,,,,,,,,,,,,,,,,,,,,,,,,,,,,,,,,,,,,,,,,,,101719_p1,001,2019_Oct_17_1158,body_behavioural,3.2.2,60.15229502422574,
1,parcelated_audio/32/32_32.ogg,,0,1,1,1,,,,,0,31,31,31,,,,,,,,,,,,,,,,,,,,,,,,,,,,,,,,,,,,,,,,,,,,,,,,,,,,,,,,,,,,,,,,,9,3.715431485999943,647.6713242600001,None,647.6713242600001,None,647.6713242600001,None,,,,,,,,,,,,,,,,,,,,,,,,,,,,,,,,,,,,,,,,,,,,,,,,,,,101719_p1,001,2019_Oct_17_1158,body_behavioural,3.2.2,60.15229502422574,
1,parcelated_audio/32/32_33.ogg,,0,1,1,1,,,,,0,32,32,32,,,,,,,,,,,,,,,,,,,,,,,,,,,,,,,,,,,,,,,,,,,,,,,,,,,,,,,,,,,,,,,,,1,1.1709512590000486,657.2082795220001,None,657.2082795220001,None,657.2082795220001,None,,,,,,,,,,,,,,,,,,,,,,,,,,,,,,,,,,,,,,,,,,,,,,,,,,,101719_p1,001,2019_Oct_17_1158,body_behavioural,3.2.2,60.15229502422574,
1,,,0,1,1,1,,,,,,,,,,,,,,,,,,,,,,,,,,,,,,,,,,,,,,,,,,,,,,,,,,,,,,,,,,,,,,,,,,,,,,,,,,,,,,,,,658.4230362209998,None,658.4230362209998,None,space,0.9961839610000425,658.4230362209998,None,,,,,,,,,,,,,,,,,,,,,,,,,,,,,,,,,,,,,,,,,,,101719_p1,001,2019_Oct_17_1158,body_behavioural,3.2.2,60.15229502422574,
2,,,0,2,2,2,0,0,0,0,,,,,,,,,,,,,,,,,659.4556530499997,None,space,0.8836573309999949,659.4556530499997,None,659.4556530499997,None,660.3777181459998,None,space,1.5456255459998829,660.3777181459998,None,661.9737451019998,None,661.9737451019998,None,661.9737451019998,None,662.8238650799997,None,space,0.6594929540001431,662.8238650799997,None,663.631648411,None,663.631648411,None,663.631648411,None,663.631648411,None,663.631648411,None,663.631648411,None,663.631648411,None,,,,,,,,,,,,,,,,,,,,,,,,,,,,,,,,,,,,,,,,,,,,,,,,,,,,,,,,,,,,,,,,,,,,,,,101719_p1,001,2019_Oct_17_1158,body_behavioural,3.2.2,60.15229502422574,
2,parcelated_audio/13/13_1.ogg,,0,2,2,2,,,,,0,0,0,0,,,,,,,,,,,,,,,,,,,,,,,,,,,677.4618173629999,None,677.4618173629999,None,677.4618173629999,None,,,,,,,,,,,,,,,,,,,,,676.6693859750001,None,space,0.7418553020002037,676.6693859750001,None,677.9258147559997,None,space,0.5895398259999638,677.9258147559997,None,9,3.668798100999993,690.285246229,None,690.285246229,None,690.285246229,None,,,,,,,,,,,,,,,,,,,,,,,,,,,,,,,,,,,,,,,,,,,,,,,,,,,101719_p1,001,2019_Oct_17_1158,body_behavioural,3.2.2,60.15229502422574,
2,parcelated_audio/13/13_2.ogg,,0,2,2,2,,,,,0,1,1,1,,,,,,,,,,,,,,,,,,,,,,,,,,,,,,,,,,,,,,,,,,,,,,,,,,,,,,,,,,,,,,,,,1,1.9622243989997514,700.147107431,None,700.147107431,None,700.147107431,None,,,,,,,,,,,,,,,,,,,,,,,,,,,,,,,,,,,,,,,,,,,,,,,,,,,101719_p1,001,2019_Oct_17_1158,body_behavioural,3.2.2,60.15229502422574,
2,parcelated_audio/13/13_3.ogg,,0,2,2,2,,,,,0,2,2,2,,,,,,,,,,,,,,,,,,,,,,,,,,,,,,,,,,,,,,,,,,,,,,,,,,,,,,,,,,,,,,,,,1,3.4338601579997885,710.564733335,None,710.564733335,None,710.564733335,None,,,,,,,,,,,,,,,,,,,,,,,,,,,,,,,,,,,,,,,,,,,,,,,,,,,101719_p1,001,2019_Oct_17_1158,body_behavioural,3.2.2,60.15229502422574,
2,parcelated_audio/13/13_4.ogg,,0,2,2,2,,,,,0,3,3,3,,,,,,,,,,,,,,,,,,,,,,,,,,,,,,,,,,,,,,,,,,,,,,,,,,,,,,,,,,,,,,,,,9,0.33751063899990186,724.3000604279998,None,724.3000604279998,None,724.3000604279998,None,,,,,,,,,,,,,,,,,,,,,,,,,,,,,,,,,,,,,,,,,,,,,,,,,,,101719_p1,001,2019_Oct_17_1158,body_behavioural,3.2.2,60.15229502422574,
2,parcelated_audio/13/13_5.ogg,,0,2,2,2,,,,,0,4,4,4,,,,,,,,,,,,,,,,,,,,,,,,,,,,,,,,,,,,,,,,,,,,,,,,,,,,,,,,,,,,,,,,,1,0.49260596300018733,730.7519960100001,None,730.7519960100001,None,730.7519960100001,None,,,,,,,,,,,,,,,,,,,,,,,,,,,,,,,,,,,,,,,,,,,,,,,,,,,101719_p1,001,2019_Oct_17_1158,body_behavioural,3.2.2,60.15229502422574,
2,parcelated_audio/13/13_6.ogg,,0,2,2,2,,,,,0,5,5,5,,,,,,,,,,,,,,,,,,,,,,,,,,,,,,,,,,,,,,,,,,,,,,,,,,,,,,,,,,,,,,,,,1,1.120560583999577,736.018617898,None,736.018617898,None,736.018617898,None,,,,,,,,,,,,,,,,,,,,,,,,,,,,,,,,,,,,,,,,,,,,,,,,,,,101719_p1,001,2019_Oct_17_1158,body_behavioural,3.2.2,60.15229502422574,
2,parcelated_audio/13/13_7.ogg,,0,2,2,2,,,,,0,6,6,6,,,,,,,,,,,,,,,,,,,,,,,,,,,,,,,,,,,,,,,,,,,,,,,,,,,,,,,,,,,,,,,,,1,1.4449162810001326,744.8871852059999,None,744.8871852059999,None,744.8871852059999,None,,,,,,,,,,,,,,,,,,,,,,,,,,,,,,,,,,,,,,,,,,,,,,,,,,,101719_p1,001,2019_Oct_17_1158,body_behavioural,3.2.2,60.15229502422574,
2,parcelated_audio/13/13_8.ogg,,0,2,2,2,,,,,0,7,7,7,,,,,,,,,,,,,,,,,,,,,,,,,,,,,,,,,,,,,,,,,,,,,,,,,,,,,,,,,,,,,,,,,1,1.165812489000018,751.7211784159997,None,751.7211784159997,None,751.7211784159997,None,,,,,,,,,,,,,,,,,,,,,,,,,,,,,,,,,,,,,,,,,,,,,,,,,,,101719_p1,001,2019_Oct_17_1158,body_behavioural,3.2.2,60.15229502422574,
2,parcelated_audio/13/13_9.ogg,,0,2,2,2,,,,,0,8,8,8,,,,,,,,,,,,,,,,,,,,,,,,,,,,,,,,,,,,,,,,,,,,,,,,,,,,,,,,,,,,,,,,,1,1.9233570540000073,757.5582743130001,None,757.5582743130001,None,757.5582743130001,None,,,,,,,,,,,,,,,,,,,,,,,,,,,,,,,,,,,,,,,,,,,,,,,,,,,101719_p1,001,2019_Oct_17_1158,body_behavioural,3.2.2,60.15229502422574,
2,parcelated_audio/13/13_10.ogg,,0,2,2,2,,,,,0,9,9,9,,,,,,,,,,,,,,,,,,,,,,,,,,,,,,,,,,,,,,,,,,,,,,,,,,,,,,,,,,,,,,,,,1,3.6898513010000897,765.3423780729997,None,765.3423780729997,None,765.3423780729997,None,,,,,,,,,,,,,,,,,,,,,,,,,,,,,,,,,,,,,,,,,,,,,,,,,,,101719_p1,001,2019_Oct_17_1158,body_behavioural,3.2.2,60.15229502422574,
2,parcelated_audio/13/13_11.ogg,,0,2,2,2,,,,,0,10,10,10,,,,,,,,,,,,,,,,,,,,,,,,,,,,,,,,,,,,,,,,,,,,,,,,,,,,,,,,,,,,,,,,,1,0.5693170370000189,773.6267863679998,None,773.6267863679998,None,773.6267863679998,None,,,,,,,,,,,,,,,,,,,,,,,,,,,,,,,,,,,,,,,,,,,,,,,,,,,101719_p1,001,2019_Oct_17_1158,body_behavioural,3.2.2,60.15229502422574,
2,parcelated_audio/13/13_12.ogg,,0,2,2,2,,,,,0,11,11,11,,,,,,,,,,,,,,,,,,,,,,,,,,,,,,,,,,,,,,,,,,,,,,,,,,,,,,,,,,,,,,,,,1,0.4574497959997643,782.7439119579997,None,782.7439119579997,None,782.7439119579997,None,,,,,,,,,,,,,,,,,,,,,,,,,,,,,,,,,,,,,,,,,,,,,,,,,,,101719_p1,001,2019_Oct_17_1158,body_behavioural,3.2.2,60.15229502422574,
2,parcelated_audio/13/13_13.ogg,,0,2,2,2,,,,,0,12,12,12,,,,,,,,,,,,,,,,,,,,,,,,,,,,,,,,,,,,,,,,,,,,,,,,,,,,,,,,,,,,,,,,,9,0.9443853000002491,793.1954672619997,None,793.1954672619997,None,793.1954672619997,None,,,,,,,,,,,,,,,,,,,,,,,,,,,,,,,,,,,,,,,,,,,,,,,,,,,101719_p1,001,2019_Oct_17_1158,body_behavioural,3.2.2,60.15229502422574,
2,parcelated_audio/13/13_14.ogg,,0,2,2,2,,,,,0,13,13,13,,,,,,,,,,,,,,,,,,,,,,,,,,,,,,,,,,,,,,,,,,,,,,,,,,,,,,,,,,,,,,,,,1,0.3657466849999764,802.4133497759997,None,802.4133497759997,None,802.4133497759997,None,,,,,,,,,,,,,,,,,,,,,,,,,,,,,,,,,,,,,,,,,,,,,,,,,,,101719_p1,001,2019_Oct_17_1158,body_behavioural,3.2.2,60.15229502422574,
2,parcelated_audio/13/13_15.ogg,,0,2,2,2,,,,,0,14,14,14,,,,,,,,,,,,,,,,,,,,,,,,,,,,,,,,,,,,,,,,,,,,,,,,,,,,,,,,,,,,,,,,,1,0.5110672740001974,811.531269238,None,811.531269238,None,811.531269238,None,,,,,,,,,,,,,,,,,,,,,,,,,,,,,,,,,,,,,,,,,,,,,,,,,,,101719_p1,001,2019_Oct_17_1158,body_behavioural,3.2.2,60.15229502422574,
2,parcelated_audio/13/13_16.ogg,,0,2,2,2,,,,,0,15,15,15,,,,,,,,,,,,,,,,,,,,,,,,,,,,,,,,,,,,,,,,,,,,,,,,,,,,,,,,,,,,,,,,,1,1.8280085850001342,814.4323415759998,None,814.4323415759998,None,814.4323415759998,None,,,,,,,,,,,,,,,,,,,,,,,,,,,,,,,,,,,,,,,,,,,,,,,,,,,101719_p1,001,2019_Oct_17_1158,body_behavioural,3.2.2,60.15229502422574,
2,parcelated_audio/13/13_17.ogg,,0,2,2,2,,,,,0,16,16,16,,,,,,,,,,,,,,,,,,,,,,,,,,,,,,,,,,,,,,,,,,,,,,,,,,,,,,,,,,,,,,,,,9,0.34408699200002957,823.1671384109998,None,823.1671384109998,None,823.1671384109998,None,,,,,,,,,,,,,,,,,,,,,,,,,,,,,,,,,,,,,,,,,,,,,,,,,,,101719_p1,001,2019_Oct_17_1158,body_behavioural,3.2.2,60.15229502422574,
2,parcelated_audio/13/13_18.ogg,,0,2,2,2,,,,,0,17,17,17,,,,,,,,,,,,,,,,,,,,,,,,,,,,,,,,,,,,,,,,,,,,,,,,,,,,,,,,,,,,,,,,,1,0.7494169319998036,825.569830575,None,825.569830575,None,825.569830575,None,,,,,,,,,,,,,,,,,,,,,,,,,,,,,,,,,,,,,,,,,,,,,,,,,,,101719_p1,001,2019_Oct_17_1158,body_behavioural,3.2.2,60.15229502422574,
2,parcelated_audio/13/13_19.ogg,,0,2,2,2,,,,,0,18,18,18,,,,,,,,,,,,,,,,,,,,,,,,,,,,,,,,,,,,,,,,,,,,,,,,,,,,,,,,,,,,,,,,,1,0.4331041619998359,836.5881260210001,None,836.5881260210001,None,836.5881260210001,None,,,,,,,,,,,,,,,,,,,,,,,,,,,,,,,,,,,,,,,,,,,,,,,,,,,101719_p1,001,2019_Oct_17_1158,body_behavioural,3.2.2,60.15229502422574,
2,parcelated_audio/13/13_20.ogg,,0,2,2,2,,,,,0,19,19,19,,,,,,,,,,,,,,,,,,,,,,,,,,,,,,,,,,,,,,,,,,,,,,,,,,,,,,,,,,,,,,,,,9,0.42740646599986576,845.0708229029999,None,845.0708229029999,None,845.0708229029999,None,,,,,,,,,,,,,,,,,,,,,,,,,,,,,,,,,,,,,,,,,,,,,,,,,,,101719_p1,001,2019_Oct_17_1158,body_behavioural,3.2.2,60.15229502422574,
2,parcelated_audio/13/13_21.ogg,,0,2,2,2,,,,,0,20,20,20,,,,,,,,,,,,,,,,,,,,,,,,,,,,,,,,,,,,,,,,,,,,,,,,,,,,,,,,,,,,,,,,,1,0.67666733499982,850.7409464589998,None,850.7409464589998,None,850.7409464589998,None,,,,,,,,,,,,,,,,,,,,,,,,,,,,,,,,,,,,,,,,,,,,,,,,,,,101719_p1,001,2019_Oct_17_1158,body_behavioural,3.2.2,60.15229502422574,
2,parcelated_audio/13/13_22.ogg,,0,2,2,2,,,,,0,21,21,21,,,,,,,,,,,,,,,,,,,,,,,,,,,,,,,,,,,,,,,,,,,,,,,,,,,,,,,,,,,,,,,,,1,0.6275253449998672,854.8063295189997,None,854.8063295189997,None,854.8063295189997,None,,,,,,,,,,,,,,,,,,,,,,,,,,,,,,,,,,,,,,,,,,,,,,,,,,,101719_p1,001,2019_Oct_17_1158,body_behavioural,3.2.2,60.15229502422574,
2,parcelated_audio/13/13_23.ogg,,0,2,2,2,,,,,0,22,22,22,,,,,,,,,,,,,,,,,,,,,,,,,,,,,,,,,,,,,,,,,,,,,,,,,,,,,,,,,,,,,,,,,1,2.1705282040002203,858.9234494269997,None,858.9234494269997,None,858.9234494269997,None,,,,,,,,,,,,,,,,,,,,,,,,,,,,,,,,,,,,,,,,,,,,,,,,,,,101719_p1,001,2019_Oct_17_1158,body_behavioural,3.2.2,60.15229502422574,
2,parcelated_audio/13/13_24.ogg,,0,2,2,2,,,,,0,23,23,23,,,,,,,,,,,,,,,,,,,,,,,,,,,,,,,,,,,,,,,,,,,,,,,,,,,,,,,,,,,,,,,,,1,0.9623047079999196,866.4408204859999,None,866.4408204859999,None,866.4408204859999,None,,,,,,,,,,,,,,,,,,,,,,,,,,,,,,,,,,,,,,,,,,,,,,,,,,,101719_p1,001,2019_Oct_17_1158,body_behavioural,3.2.2,60.15229502422574,
2,parcelated_audio/13/13_25.ogg,,0,2,2,2,,,,,0,24,24,24,,,,,,,,,,,,,,,,,,,,,,,,,,,,,,,,,,,,,,,,,,,,,,,,,,,,,,,,,,,,,,,,,1,1.5409206369999993,874.1924252010001,None,874.1924252010001,None,874.1924252010001,None,,,,,,,,,,,,,,,,,,,,,,,,,,,,,,,,,,,,,,,,,,,,,,,,,,,101719_p1,001,2019_Oct_17_1158,body_behavioural,3.2.2,60.15229502422574,
2,parcelated_audio/13/13_26.ogg,,0,2,2,2,,,,,0,25,25,25,,,,,,,,,,,,,,,,,,,,,,,,,,,,,,,,,,,,,,,,,,,,,,,,,,,,,,,,,,,,,,,,,9,2.0747917180001423,885.5614270789999,None,885.5614270789999,None,885.5614270789999,None,,,,,,,,,,,,,,,,,,,,,,,,,,,,,,,,,,,,,,,,,,,,,,,,,,,101719_p1,001,2019_Oct_17_1158,body_behavioural,3.2.2,60.15229502422574,
2,parcelated_audio/13/13_27.ogg,,0,2,2,2,,,,,0,26,26,26,,,,,,,,,,,,,,,,,,,,,,,,,,,,,,,,,,,,,,,,,,,,,,,,,,,,,,,,,,,,,,,,,1,0.9012136169999394,894.9963987509998,None,894.9963987509998,None,894.9963987509998,None,,,,,,,,,,,,,,,,,,,,,,,,,,,,,,,,,,,,,,,,,,,,,,,,,,,101719_p1,001,2019_Oct_17_1158,body_behavioural,3.2.2,60.15229502422574,
2,parcelated_audio/13/13_28.ogg,,0,2,2,2,,,,,0,27,27,27,,,,,,,,,,,,,,,,,,,,,,,,,,,,,,,,,,,,,,,,,,,,,,,,,,,,,,,,,,,,,,,,,1,0.44086240100023133,902.1807579559998,None,902.1807579559998,None,902.1807579559998,None,,,,,,,,,,,,,,,,,,,,,,,,,,,,,,,,,,,,,,,,,,,,,,,,,,,101719_p1,001,2019_Oct_17_1158,body_behavioural,3.2.2,60.15229502422574,
2,parcelated_audio/13/13_29.ogg,,0,2,2,2,,,,,0,28,28,28,,,,,,,,,,,,,,,,,,,,,,,,,,,,,,,,,,,,,,,,,,,,,,,,,,,,,,,,,,,,,,,,,1,0.7312008420003622,907.9316580070001,None,907.9316580070001,None,907.9316580070001,None,,,,,,,,,,,,,,,,,,,,,,,,,,,,,,,,,,,,,,,,,,,,,,,,,,,101719_p1,001,2019_Oct_17_1158,body_behavioural,3.2.2,60.15229502422574,
2,parcelated_audio/13/13_30.ogg,,0,2,2,2,,,,,0,29,29,29,,,,,,,,,,,,,,,,,,,,,,,,,,,,,,,,,,,,,,,,,,,,,,,,,,,,,,,,,,,,,,,,,1,2.0374163900000895,914.1828086419998,None,914.1828086419998,None,914.1828086419998,None,,,,,,,,,,,,,,,,,,,,,,,,,,,,,,,,,,,,,,,,,,,,,,,,,,,101719_p1,001,2019_Oct_17_1158,body_behavioural,3.2.2,60.15229502422574,
2,parcelated_audio/13/13_31.ogg,,0,2,2,2,,,,,0,30,30,30,,,,,,,,,,,,,,,,,,,,,,,,,,,,,,,,,,,,,,,,,,,,,,,,,,,,,,,,,,,,,,,,,1,1.4758537929997146,919.5994985189998,None,919.5994985189998,None,919.5994985189998,None,,,,,,,,,,,,,,,,,,,,,,,,,,,,,,,,,,,,,,,,,,,,,,,,,,,101719_p1,001,2019_Oct_17_1158,body_behavioural,3.2.2,60.15229502422574,
2,parcelated_audio/13/13_32.ogg,,0,2,2,2,,,,,0,31,31,31,,,,,,,,,,,,,,,,,,,,,,,,,,,,,,,,,,,,,,,,,,,,,,,,,,,,,,,,,,,,,,,,,1,0.9949108549999437,924.6351926919999,None,924.6351926919999,None,924.6351926919999,None,,,,,,,,,,,,,,,,,,,,,,,,,,,,,,,,,,,,,,,,,,,,,,,,,,,101719_p1,001,2019_Oct_17_1158,body_behavioural,3.2.2,60.15229502422574,
2,parcelated_audio/13/13_33.ogg,,0,2,2,2,,,,,0,32,32,32,,,,,,,,,,,,,,,,,,,,,,,,,,,,,,,,,,,,,,,,,,,,,,,,,,,,,,,,,,,,,,,,,1,1.2484509160003654,931.6692634799999,None,931.6692634799999,None,931.6692634799999,None,,,,,,,,,,,,,,,,,,,,,,,,,,,,,,,,,,,,,,,,,,,,,,,,,,,101719_p1,001,2019_Oct_17_1158,body_behavioural,3.2.2,60.15229502422574,
2,,,0,2,2,2,,,,,,,,,,,,,,,,,,,,,,,,,,,,,,,,,,,,,,,,,,,,,,,,,,,,,,,,,,,,,,,,,,,,,,,,,,,,,,,,,932.9524421019998,None,932.9524421019998,None,space,1.1972811690002345,932.9524421019998,None,,,,,,,,,,,,,,,,,,,,,,,,,,,,,,,,,,,,,,,,,,,101719_p1,001,2019_Oct_17_1158,body_behavioural,3.2.2,60.15229502422574,
3,,,0,3,3,3,0,0,0,0,,,,,,,,,,,,,,,,,934.1906257829999,None,space,0.3669606240000576,934.1906257829999,None,934.1906257829999,None,934.5910403529999,None,space,0.5905566030000955,934.5910403529999,None,935.2466044989999,None,935.2466044989999,None,935.2466044989999,None,936.203345225,None,space,0.6103105010001855,936.203345225,None,936.9526557060001,None,936.9526557060001,None,936.9526557060001,None,936.9526557060001,None,936.9526557060001,None,936.9526557060001,None,936.9526557060001,None,,,,,,,,,,,,,,,,,,,,,,,,,,,,,,,,,,,,,,,,,,,,,,,,,,,,,,,,,,,,,,,,,,,,,,,101719_p1,001,2019_Oct_17_1158,body_behavioural,3.2.2,60.15229502422574,
3,parcelated_audio/23/23_1.ogg,,0,3,3,3,,,,,0,0,0,0,,,,,,,,,,,,,,,,,,,,,,,,,,,949.6059902720001,None,949.6059902720001,None,949.6059902720001,None,,,,,,,,,,,,,,,,,,,,,948.3947379019999,None,space,1.1630112049997479,948.3947379019999,None,950.089608899,None,space,0.38812539899981857,950.089608899,None,9,1.0043072260000372,960.9901653039999,None,960.9901653039999,None,960.9901653039999,None,,,,,,,,,,,,,,,,,,,,,,,,,,,,,,,,,,,,,,,,,,,,,,,,,,,101719_p1,001,2019_Oct_17_1158,body_behavioural,3.2.2,60.15229502422574,
3,parcelated_audio/23/23_2.ogg,,0,3,3,3,,,,,0,1,1,1,,,,,,,,,,,,,,,,,,,,,,,,,,,,,,,,,,,,,,,,,,,,,,,,,,,,,,,,,,,,,,,,,1,1.2632683050001106,968.977339499,None,968.977339499,None,968.977339499,None,,,,,,,,,,,,,,,,,,,,,,,,,,,,,,,,,,,,,,,,,,,,,,,,,,,101719_p1,001,2019_Oct_17_1158,body_behavioural,3.2.2,60.15229502422574,
3,parcelated_audio/23/23_3.ogg,,0,3,3,3,,,,,0,2,2,2,,,,,,,,,,,,,,,,,,,,,,,,,,,,,,,,,,,,,,,,,,,,,,,,,,,,,,,,,,,,,,,,,1,0.6415693839999221,976.0924553409998,None,976.0924553409998,None,976.0924553409998,None,,,,,,,,,,,,,,,,,,,,,,,,,,,,,,,,,,,,,,,,,,,,,,,,,,,101719_p1,001,2019_Oct_17_1158,body_behavioural,3.2.2,60.15229502422574,
3,parcelated_audio/23/23_4.ogg,,0,3,3,3,,,,,0,3,3,3,,,,,,,,,,,,,,,,,,,,,,,,,,,,,,,,,,,,,,,,,,,,,,,,,,,,,,,,,,,,,,,,,1,0.2568374960001165,988.063647749,None,988.063647749,None,988.063647749,None,,,,,,,,,,,,,,,,,,,,,,,,,,,,,,,,,,,,,,,,,,,,,,,,,,,101719_p1,001,2019_Oct_17_1158,body_behavioural,3.2.2,60.15229502422574,
3,parcelated_audio/23/23_5.ogg,,0,3,3,3,,,,,0,4,4,4,,,,,,,,,,,,,,,,,,,,,,,,,,,,,,,,,,,,,,,,,,,,,,,,,,,,,,,,,,,,,,,,,1,0.8334875900000043,994.631883798,None,994.631883798,None,994.631883798,None,,,,,,,,,,,,,,,,,,,,,,,,,,,,,,,,,,,,,,,,,,,,,,,,,,,101719_p1,001,2019_Oct_17_1158,body_behavioural,3.2.2,60.15229502422574,
3,parcelated_audio/23/23_6.ogg,,0,3,3,3,,,,,0,5,5,5,,,,,,,,,,,,,,,,,,,,,,,,,,,,,,,,,,,,,,,,,,,,,,,,,,,,,,,,,,,,,,,,,1,0.6220117830002891,1002.9802390449997,None,1002.9802390449997,None,1002.9802390449997,None,,,,,,,,,,,,,,,,,,,,,,,,,,,,,,,,,,,,,,,,,,,,,,,,,,,101719_p1,001,2019_Oct_17_1158,body_behavioural,3.2.2,60.15229502422574,
3,parcelated_audio/23/23_7.ogg,,0,3,3,3,,,,,0,6,6,6,,,,,,,,,,,,,,,,,,,,,,,,,,,,,,,,,,,,,,,,,,,,,,,,,,,,,,,,,,,,,,,,,9,1.0561485130001529,1010.4492018849999,None,1010.4492018849999,None,1010.4492018849999,None,,,,,,,,,,,,,,,,,,,,,,,,,,,,,,,,,,,,,,,,,,,,,,,,,,,101719_p1,001,2019_Oct_17_1158,body_behavioural,3.2.2,60.15229502422574,
3,parcelated_audio/23/23_8.ogg,,0,3,3,3,,,,,0,7,7,7,,,,,,,,,,,,,,,,,,,,,,,,,,,,,,,,,,,,,,,,,,,,,,,,,,,,,,,,,,,,,,,,,1,0.5763902879998568,1016.9830892309999,None,1016.9830892309999,None,1016.9830892309999,None,,,,,,,,,,,,,,,,,,,,,,,,,,,,,,,,,,,,,,,,,,,,,,,,,,,101719_p1,001,2019_Oct_17_1158,body_behavioural,3.2.2,60.15229502422574,
3,parcelated_audio/23/23_9.ogg,,0,3,3,3,,,,,0,8,8,8,,,,,,,,,,,,,,,,,,,,,,,,,,,,,,,,,,,,,,,,,,,,,,,,,,,,,,,,,,,,,,,,,1,0.5845724079999854,1022.016784525,None,1022.016784525,None,1022.016784525,None,,,,,,,,,,,,,,,,,,,,,,,,,,,,,,,,,,,,,,,,,,,,,,,,,,,101719_p1,001,2019_Oct_17_1158,body_behavioural,3.2.2,60.15229502422574,
3,parcelated_audio/23/23_10.ogg,,0,3,3,3,,,,,0,9,9,9,,,,,,,,,,,,,,,,,,,,,,,,,,,,,,,,,,,,,,,,,,,,,,,,,,,,,,,,,,,,,,,,,1,0.3930844410001555,1026.667773042,None,1026.667773042,None,1026.667773042,None,,,,,,,,,,,,,,,,,,,,,,,,,,,,,,,,,,,,,,,,,,,,,,,,,,,101719_p1,001,2019_Oct_17_1158,body_behavioural,3.2.2,60.15229502422574,
3,parcelated_audio/23/23_11.ogg,,0,3,3,3,,,,,0,10,10,10,,,,,,,,,,,,,,,,,,,,,,,,,,,,,,,,,,,,,,,,,,,,,,,,,,,,,,,,,,,,,,,,,1,0.7084037479999097,1035.2862014,None,1035.2862014,None,1035.2862014,None,,,,,,,,,,,,,,,,,,,,,,,,,,,,,,,,,,,,,,,,,,,,,,,,,,,101719_p1,001,2019_Oct_17_1158,body_behavioural,3.2.2,60.15229502422574,
3,parcelated_audio/23/23_12.ogg,,0,3,3,3,,,,,0,11,11,11,,,,,,,,,,,,,,,,,,,,,,,,,,,,,,,,,,,,,,,,,,,,,,,,,,,,,,,,,,,,,,,,,9,1.1384168609997687,1043.2392961799999,None,1043.2392961799999,None,1043.2392961799999,None,,,,,,,,,,,,,,,,,,,,,,,,,,,,,,,,,,,,,,,,,,,,,,,,,,,101719_p1,001,2019_Oct_17_1158,body_behavioural,3.2.2,60.15229502422574,
3,parcelated_audio/23/23_13.ogg,,0,3,3,3,,,,,0,12,12,12,,,,,,,,,,,,,,,,,,,,,,,,,,,,,,,,,,,,,,,,,,,,,,,,,,,,,,,,,,,,,,,,,1,0.3173465029999534,1051.2561191049997,None,1051.2561191049997,None,1051.2561191049997,None,,,,,,,,,,,,,,,,,,,,,,,,,,,,,,,,,,,,,,,,,,,,,,,,,,,101719_p1,001,2019_Oct_17_1158,body_behavioural,3.2.2,60.15229502422574,
3,parcelated_audio/23/23_14.ogg,,0,3,3,3,,,,,0,13,13,13,,,,,,,,,,,,,,,,,,,,,,,,,,,,,,,,,,,,,,,,,,,,,,,,,,,,,,,,,,,,,,,,,9,0.7110252130000845,1056.006582327,None,1056.006582327,None,1056.006582327,None,,,,,,,,,,,,,,,,,,,,,,,,,,,,,,,,,,,,,,,,,,,,,,,,,,,101719_p1,001,2019_Oct_17_1158,body_behavioural,3.2.2,60.15229502422574,
3,parcelated_audio/23/23_15.ogg,,0,3,3,3,,,,,0,14,14,14,,,,,,,,,,,,,,,,,,,,,,,,,,,,,,,,,,,,,,,,,,,,,,,,,,,,,,,,,,,,,,,,,1,0.48805030799985616,1061.224052416,None,1061.224052416,None,1061.224052416,None,,,,,,,,,,,,,,,,,,,,,,,,,,,,,,,,,,,,,,,,,,,,,,,,,,,101719_p1,001,2019_Oct_17_1158,body_behavioural,3.2.2,60.15229502422574,
3,parcelated_audio/23/23_16.ogg,,0,3,3,3,,,,,0,15,15,15,,,,,,,,,,,,,,,,,,,,,,,,,,,,,,,,,,,,,,,,,,,,,,,,,,,,,,,,,,,,,,,,,1,0.49262984699998924,1068.3755886709998,None,1068.3755886709998,None,1068.3755886709998,None,,,,,,,,,,,,,,,,,,,,,,,,,,,,,,,,,,,,,,,,,,,,,,,,,,,101719_p1,001,2019_Oct_17_1158,body_behavioural,3.2.2,60.15229502422574,
3,parcelated_audio/23/23_17.ogg,,0,3,3,3,,,,,0,16,16,16,,,,,,,,,,,,,,,,,,,,,,,,,,,,,,,,,,,,,,,,,,,,,,,,,,,,,,,,,,,,,,,,,1,0.6148411389999637,1075.7095216299997,None,1075.7095216299997,None,1075.7095216299997,None,,,,,,,,,,,,,,,,,,,,,,,,,,,,,,,,,,,,,,,,,,,,,,,,,,,101719_p1,001,2019_Oct_17_1158,body_behavioural,3.2.2,60.15229502422574,
3,parcelated_audio/23/23_18.ogg,,0,3,3,3,,,,,0,17,17,17,,,,,,,,,,,,,,,,,,,,,,,,,,,,,,,,,,,,,,,,,,,,,,,,,,,,,,,,,,,,,,,,,1,0.3472683909999432,1088.378135101,None,1088.378135101,None,1088.378135101,None,,,,,,,,,,,,,,,,,,,,,,,,,,,,,,,,,,,,,,,,,,,,,,,,,,,101719_p1,001,2019_Oct_17_1158,body_behavioural,3.2.2,60.15229502422574,
3,parcelated_audio/23/23_19.ogg,,0,3,3,3,,,,,0,18,18,18,,,,,,,,,,,,,,,,,,,,,,,,,,,,,,,,,,,,,,,,,,,,,,,,,,,,,,,,,,,,,,,,,9,1.4651962110001477,1094.5632702,None,1094.5632702,None,1094.5632702,None,,,,,,,,,,,,,,,,,,,,,,,,,,,,,,,,,,,,,,,,,,,,,,,,,,,101719_p1,001,2019_Oct_17_1158,body_behavioural,3.2.2,60.15229502422574,
3,parcelated_audio/23/23_20.ogg,,0,3,3,3,,,,,0,19,19,19,,,,,,,,,,,,,,,,,,,,,,,,,,,,,,,,,,,,,,,,,,,,,,,,,,,,,,,,,,,,,,,,,1,0.3350530079997043,1098.9814224949998,None,1098.9814224949998,None,1098.9814224949998,None,,,,,,,,,,,,,,,,,,,,,,,,,,,,,,,,,,,,,,,,,,,,,,,,,,,101719_p1,001,2019_Oct_17_1158,body_behavioural,3.2.2,60.15229502422574,
3,parcelated_audio/23/23_21.ogg,,0,3,3,3,,,,,0,20,20,20,,,,,,,,,,,,,,,,,,,,,,,,,,,,,,,,,,,,,,,,,,,,,,,,,,,,,,,,,,,,,,,,,1,0.35274605899985545,1107.081490893,None,1107.081490893,None,1107.081490893,None,,,,,,,,,,,,,,,,,,,,,,,,,,,,,,,,,,,,,,,,,,,,,,,,,,,101719_p1,001,2019_Oct_17_1158,body_behavioural,3.2.2,60.15229502422574,
3,parcelated_audio/23/23_22.ogg,,0,3,3,3,,,,,0,21,21,21,,,,,,,,,,,,,,,,,,,,,,,,,,,,,,,,,,,,,,,,,,,,,,,,,,,,,,,,,,,,,,,,,1,0.9635489899997083,1110.199058819,None,1110.199058819,None,1110.199058819,None,,,,,,,,,,,,,,,,,,,,,,,,,,,,,,,,,,,,,,,,,,,,,,,,,,,101719_p1,001,2019_Oct_17_1158,body_behavioural,3.2.2,60.15229502422574,
3,parcelated_audio/23/23_23.ogg,,0,3,3,3,,,,,0,22,22,22,,,,,,,,,,,,,,,,,,,,,,,,,,,,,,,,,,,,,,,,,,,,,,,,,,,,,,,,,,,,,,,,,1,2.2908769450000364,1115.4204675029998,None,1115.4204675029998,None,1115.4204675029998,None,,,,,,,,,,,,,,,,,,,,,,,,,,,,,,,,,,,,,,,,,,,,,,,,,,,101719_p1,001,2019_Oct_17_1158,body_behavioural,3.2.2,60.15229502422574,
3,parcelated_audio/23/23_24.ogg,,0,3,3,3,,,,,0,23,23,23,,,,,,,,,,,,,,,,,,,,,,,,,,,,,,,,,,,,,,,,,,,,,,,,,,,,,,,,,,,,,,,,,1,0.7278633750001973,1121.23367931,None,1121.23367931,None,1121.23367931,None,,,,,,,,,,,,,,,,,,,,,,,,,,,,,,,,,,,,,,,,,,,,,,,,,,,101719_p1,001,2019_Oct_17_1158,body_behavioural,3.2.2,60.15229502422574,
3,parcelated_audio/23/23_25.ogg,,0,3,3,3,,,,,0,24,24,24,,,,,,,,,,,,,,,,,,,,,,,,,,,,,,,,,,,,,,,,,,,,,,,,,,,,,,,,,,,,,,,,,1,1.2119770939998489,1126.1852492729997,None,1126.1852492729997,None,1126.1852492729997,None,,,,,,,,,,,,,,,,,,,,,,,,,,,,,,,,,,,,,,,,,,,,,,,,,,,101719_p1,001,2019_Oct_17_1158,body_behavioural,3.2.2,60.15229502422574,
3,parcelated_audio/23/23_26.ogg,,0,3,3,3,,,,,0,25,25,25,,,,,,,,,,,,,,,,,,,,,,,,,,,,,,,,,,,,,,,,,,,,,,,,,,,,,,,,,,,,,,,,,1,0.3357488080000621,1133.705341216,None,1133.705341216,None,1133.705341216,None,,,,,,,,,,,,,,,,,,,,,,,,,,,,,,,,,,,,,,,,,,,,,,,,,,,101719_p1,001,2019_Oct_17_1158,body_behavioural,3.2.2,60.15229502422574,
3,parcelated_audio/23/23_27.ogg,,0,3,3,3,,,,,0,26,26,26,,,,,,,,,,,,,,,,,,,,,,,,,,,,,,,,,,,,,,,,,,,,,,,,,,,,,,,,,,,,,,,,,1,0.600788977999855,1139.371452486,None,1139.371452486,None,1139.371452486,None,,,,,,,,,,,,,,,,,,,,,,,,,,,,,,,,,,,,,,,,,,,,,,,,,,,101719_p1,001,2019_Oct_17_1158,body_behavioural,3.2.2,60.15229502422574,
3,parcelated_audio/23/23_28.ogg,,0,3,3,3,,,,,0,27,27,27,,,,,,,,,,,,,,,,,,,,,,,,,,,,,,,,,,,,,,,,,,,,,,,,,,,,,,,,,,,,,,,,,1,0.313359777000187,1148.0217487439998,None,1148.0217487439998,None,1148.0217487439998,None,,,,,,,,,,,,,,,,,,,,,,,,,,,,,,,,,,,,,,,,,,,,,,,,,,,101719_p1,001,2019_Oct_17_1158,body_behavioural,3.2.2,60.15229502422574,
3,parcelated_audio/23/23_29.ogg,,0,3,3,3,,,,,0,28,28,28,,,,,,,,,,,,,,,,,,,,,,,,,,,,,,,,,,,,,,,,,,,,,,,,,,,,,,,,,,,,,,,,,1,0.34244789900003525,1152.158536101,None,1152.158536101,None,1152.158536101,None,,,,,,,,,,,,,,,,,,,,,,,,,,,,,,,,,,,,,,,,,,,,,,,,,,,101719_p1,001,2019_Oct_17_1158,body_behavioural,3.2.2,60.15229502422574,
3,parcelated_audio/23/23_30.ogg,,0,3,3,3,,,,,0,29,29,29,,,,,,,,,,,,,,,,,,,,,,,,,,,,,,,,,,,,,,,,,,,,,,,,,,,,,,,,,,,,,,,,,1,0.31081221300019024,1158.475758794,None,1158.475758794,None,1158.475758794,None,,,,,,,,,,,,,,,,,,,,,,,,,,,,,,,,,,,,,,,,,,,,,,,,,,,101719_p1,001,2019_Oct_17_1158,body_behavioural,3.2.2,60.15229502422574,
3,parcelated_audio/23/23_31.ogg,,0,3,3,3,,,,,0,30,30,30,,,,,,,,,,,,,,,,,,,,,,,,,,,,,,,,,,,,,,,,,,,,,,,,,,,,,,,,,,,,,,,,,1,0.680343516999983,1160.874306126,None,1160.874306126,None,1160.874306126,None,,,,,,,,,,,,,,,,,,,,,,,,,,,,,,,,,,,,,,,,,,,,,,,,,,,101719_p1,001,2019_Oct_17_1158,body_behavioural,3.2.2,60.15229502422574,
3,parcelated_audio/23/23_32.ogg,,0,3,3,3,,,,,0,31,31,31,,,,,,,,,,,,,,,,,,,,,,,,,,,,,,,,,,,,,,,,,,,,,,,,,,,,,,,,,,,,,,,,,1,0.45607218000031935,1165.226665285,None,1165.226665285,None,1165.226665285,None,,,,,,,,,,,,,,,,,,,,,,,,,,,,,,,,,,,,,,,,,,,,,,,,,,,101719_p1,001,2019_Oct_17_1158,body_behavioural,3.2.2,60.15229502422574,
3,parcelated_audio/23/23_33.ogg,,0,3,3,3,,,,,0,32,32,32,,,,,,,,,,,,,,,,,,,,,,,,,,,,,,,,,,,,,,,,,,,,,,,,,,,,,,,,,,,,,,,,,1,0.7357563499999742,1171.808743629,None,1171.808743629,None,1171.808743629,None,,,,,,,,,,,,,,,,,,,,,,,,,,,,,,,,,,,,,,,,,,,,,,,,,,,101719_p1,001,2019_Oct_17_1158,body_behavioural,3.2.2,60.15229502422574,
3,parcelated_audio/23/23_34.ogg,,0,3,3,3,,,,,0,33,33,33,,,,,,,,,,,,,,,,,,,,,,,,,,,,,,,,,,,,,,,,,,,,,,,,,,,,,,,,,,,,,,,,,9,0.838621950000288,1176.195866749,None,1176.195866749,None,1176.195866749,None,,,,,,,,,,,,,,,,,,,,,,,,,,,,,,,,,,,,,,,,,,,,,,,,,,,101719_p1,001,2019_Oct_17_1158,body_behavioural,3.2.2,60.15229502422574,
3,parcelated_audio/23/23_35.ogg,,0,3,3,3,,,,,0,34,34,34,,,,,,,,,,,,,,,,,,,,,,,,,,,,,,,,,,,,,,,,,,,,,,,,,,,,,,,,,,,,,,,,,1,0.3529445819999637,1181.410887157,None,1181.410887157,None,1181.410887157,None,,,,,,,,,,,,,,,,,,,,,,,,,,,,,,,,,,,,,,,,,,,,,,,,,,,101719_p1,001,2019_Oct_17_1158,body_behavioural,3.2.2,60.15229502422574,
3,parcelated_audio/23/23_36.ogg,,0,3,3,3,,,,,0,35,35,35,,,,,,,,,,,,,,,,,,,,,,,,,,,,,,,,,,,,,,,,,,,,,,,,,,,,,,,,,,,,,,,,,1,0.333481785999993,1186.49558697,None,1186.49558697,None,1186.49558697,None,,,,,,,,,,,,,,,,,,,,,,,,,,,,,,,,,,,,,,,,,,,,,,,,,,,101719_p1,001,2019_Oct_17_1158,body_behavioural,3.2.2,60.15229502422574,
3,parcelated_audio/23/23_37.ogg,,0,3,3,3,,,,,0,36,36,36,,,,,,,,,,,,,,,,,,,,,,,,,,,,,,,,,,,,,,,,,,,,,,,,,,,,,,,,,,,,,,,,,1,0.5161131459999524,1191.6982590619998,None,1191.6982590619998,None,1191.6982590619998,None,,,,,,,,,,,,,,,,,,,,,,,,,,,,,,,,,,,,,,,,,,,,,,,,,,,101719_p1,001,2019_Oct_17_1158,body_behavioural,3.2.2,60.15229502422574,
3,parcelated_audio/23/23_38.ogg,,0,3,3,3,,,,,0,37,37,37,,,,,,,,,,,,,,,,,,,,,,,,,,,,,,,,,,,,,,,,,,,,,,,,,,,,,,,,,,,,,,,,,1,0.7532724369998505,1199.780817822,None,1199.780817822,None,1199.780817822,None,,,,,,,,,,,,,,,,,,,,,,,,,,,,,,,,,,,,,,,,,,,,,,,,,,,101719_p1,001,2019_Oct_17_1158,body_behavioural,3.2.2,60.15229502422574,
3,parcelated_audio/23/23_39.ogg,,0,3,3,3,,,,,0,38,38,38,,,,,,,,,,,,,,,,,,,,,,,,,,,,,,,,,,,,,,,,,,,,,,,,,,,,,,,,,,,,,,,,,1,0.3025140339996142,1206.882088254,None,1206.882088254,None,1206.882088254,None,,,,,,,,,,,,,,,,,,,,,,,,,,,,,,,,,,,,,,,,,,,,,,,,,,,101719_p1,001,2019_Oct_17_1158,body_behavioural,3.2.2,60.15229502422574,
3,,,0,3,3,3,,,,,,,,,,,,,,,,,,,,,,,,,,,,,,,,,,,,,,,,,,,,,,,,,,,,,,,,,,,,,,,,,,,,,,,,,,,,,,,,,1207.223911148,None,1207.223911148,None,space,0.8726583839998057,1207.223911148,None,,,,,,,,,,,,,,,,,,,,,,,,,,,,,,,,,,,,,,,,,,,101719_p1,001,2019_Oct_17_1158,body_behavioural,3.2.2,60.15229502422574,
4,,,0,4,4,4,0,0,0,0,,,,,,,,,,,,,,,,,1208.13679785,None,space,0.663799544000085,1208.13679785,None,1208.13679785,None,1208.837097895,None,space,0.579502539999794,1208.837097895,None,1209.4736980179998,None,1209.4736980179998,None,1209.4736980179998,None,1210.149321003,None,space,0.7712776909997956,1210.149321003,None,1211.0666123190001,None,1211.0666123190001,None,1211.0666123190001,None,1211.0666123190001,None,1211.0666123190001,None,1211.0666123190001,None,1211.0666123190001,None,,,,,,,,,,,,,,,,,,,,,,,,,,,,,,,,,,,,,,,,,,,,,,,,,,,,,,,,,,,,,,,,,,,,,,,101719_p1,001,2019_Oct_17_1158,body_behavioural,3.2.2,60.15229502422574,
4,parcelated_audio/42/42_1.ogg,,0,4,4,4,,,,,0,0,0,0,,,,,,,,,,,,,,,,,,,,,,,,,,,1225.9371164799998,None,1225.9371164799998,None,1225.9371164799998,None,,,,,,,,,,,,,,,,,,,,,1225.0923371709998,None,space,0.8017590019999261,1225.0923371709998,None,1226.3613187509998,None,space,0.5727728689998912,1226.3613187509998,None,9,1.995156808000047,1235.4037442809997,None,1235.4037442809997,None,1235.4037442809997,None,,,,,,,,,,,,,,,,,,,,,,,,,,,,,,,,,,,,,,,,,,,,,,,,,,,101719_p1,001,2019_Oct_17_1158,body_behavioural,3.2.2,60.15229502422574,
4,parcelated_audio/42/42_2.ogg,,0,4,4,4,,,,,0,1,1,1,,,,,,,,,,,,,,,,,,,,,,,,,,,,,,,,,,,,,,,,,,,,,,,,,,,,,,,,,,,,,,,,,1,0.3525585930001398,1250.191299448,None,1250.191299448,None,1250.191299448,None,,,,,,,,,,,,,,,,,,,,,,,,,,,,,,,,,,,,,,,,,,,,,,,,,,,101719_p1,001,2019_Oct_17_1158,body_behavioural,3.2.2,60.15229502422574,
4,parcelated_audio/42/42_3.ogg,,0,4,4,4,,,,,0,2,2,2,,,,,,,,,,,,,,,,,,,,,,,,,,,,,,,,,,,,,,,,,,,,,,,,,,,,,,,,,,,,,,,,,1,0.4540590560000055,1260.92542261,None,1260.92542261,None,1260.92542261,None,,,,,,,,,,,,,,,,,,,,,,,,,,,,,,,,,,,,,,,,,,,,,,,,,,,101719_p1,001,2019_Oct_17_1158,body_behavioural,3.2.2,60.15229502422574,
4,parcelated_audio/42/42_4.ogg,,0,4,4,4,,,,,0,3,3,3,,,,,,,,,,,,,,,,,,,,,,,,,,,,,,,,,,,,,,,,,,,,,,,,,,,,,,,,,,,,,,,,,1,0.3711169600001085,1275.162618136,None,1275.162618136,None,1275.162618136,None,,,,,,,,,,,,,,,,,,,,,,,,,,,,,,,,,,,,,,,,,,,,,,,,,,,101719_p1,001,2019_Oct_17_1158,body_behavioural,3.2.2,60.15229502422574,
4,parcelated_audio/42/42_5.ogg,,0,4,4,4,,,,,0,4,4,4,,,,,,,,,,,,,,,,,,,,,,,,,,,,,,,,,,,,,,,,,,,,,,,,,,,,,,,,,,,,,,,,,1,0.7414799819998734,1287.078238978,None,1287.078238978,None,1287.078238978,None,,,,,,,,,,,,,,,,,,,,,,,,,,,,,,,,,,,,,,,,,,,,,,,,,,,101719_p1,001,2019_Oct_17_1158,body_behavioural,3.2.2,60.15229502422574,
4,parcelated_audio/42/42_6.ogg,,0,4,4,4,,,,,0,5,5,5,,,,,,,,,,,,,,,,,,,,,,,,,,,,,,,,,,,,,,,,,,,,,,,,,,,,,,,,,,,,,,,,,9,1.926126510999893,1294.379748738,None,1294.379748738,None,1294.379748738,None,,,,,,,,,,,,,,,,,,,,,,,,,,,,,,,,,,,,,,,,,,,,,,,,,,,101719_p1,001,2019_Oct_17_1158,body_behavioural,3.2.2,60.15229502422574,
4,parcelated_audio/42/42_7.ogg,,0,4,4,4,,,,,0,6,6,6,,,,,,,,,,,,,,,,,,,,,,,,,,,,,,,,,,,,,,,,,,,,,,,,,,,,,,,,,,,,,,,,,1,0.8365484680002737,1301.564656275,None,1301.564656275,None,1301.564656275,None,,,,,,,,,,,,,,,,,,,,,,,,,,,,,,,,,,,,,,,,,,,,,,,,,,,101719_p1,001,2019_Oct_17_1158,body_behavioural,3.2.2,60.15229502422574,
4,parcelated_audio/42/42_8.ogg,,0,4,4,4,,,,,0,7,7,7,,,,,,,,,,,,,,,,,,,,,,,,,,,,,,,,,,,,,,,,,,,,,,,,,,,,,,,,,,,,,,,,,1,0.9436955940000189,1305.6496636559998,None,1305.6496636559998,None,1305.6496636559998,None,,,,,,,,,,,,,,,,,,,,,,,,,,,,,,,,,,,,,,,,,,,,,,,,,,,101719_p1,001,2019_Oct_17_1158,body_behavioural,3.2.2,60.15229502422574,
4,parcelated_audio/42/42_9.ogg,,0,4,4,4,,,,,0,8,8,8,,,,,,,,,,,,,,,,,,,,,,,,,,,,,,,,,,,,,,,,,,,,,,,,,,,,,,,,,,,,,,,,,1,0.404624638000314,1315.2166036709998,None,1315.2166036709998,None,1315.2166036709998,None,,,,,,,,,,,,,,,,,,,,,,,,,,,,,,,,,,,,,,,,,,,,,,,,,,,101719_p1,001,2019_Oct_17_1158,body_behavioural,3.2.2,60.15229502422574,
4,parcelated_audio/42/42_10.ogg,,0,4,4,4,,,,,0,9,9,9,,,,,,,,,,,,,,,,,,,,,,,,,,,,,,,,,,,,,,,,,,,,,,,,,,,,,,,,,,,,,,,,,1,0.27637479999975767,1320.0343530399998,None,1320.0343530399998,None,1320.0343530399998,None,,,,,,,,,,,,,,,,,,,,,,,,,,,,,,,,,,,,,,,,,,,,,,,,,,,101719_p1,001,2019_Oct_17_1158,body_behavioural,3.2.2,60.15229502422574,
4,parcelated_audio/42/42_11.ogg,,0,4,4,4,,,,,0,10,10,10,,,,,,,,,,,,,,,,,,,,,,,,,,,,,,,,,,,,,,,,,,,,,,,,,,,,,,,,,,,,,,,,,1,1.8204812280000624,1325.369620919,None,1325.369620919,None,1325.369620919,None,,,,,,,,,,,,,,,,,,,,,,,,,,,,,,,,,,,,,,,,,,,,,,,,,,,101719_p1,001,2019_Oct_17_1158,body_behavioural,3.2.2,60.15229502422574,
4,parcelated_audio/42/42_12.ogg,,0,4,4,4,,,,,0,11,11,11,,,,,,,,,,,,,,,,,,,,,,,,,,,,,,,,,,,,,,,,,,,,,,,,,,,,,,,,,,,,,,,,,1,0.8546280669997941,1333.253707447,None,1333.253707447,None,1333.253707447,None,,,,,,,,,,,,,,,,,,,,,,,,,,,,,,,,,,,,,,,,,,,,,,,,,,,101719_p1,001,2019_Oct_17_1158,body_behavioural,3.2.2,60.15229502422574,
4,parcelated_audio/42/42_13.ogg,,0,4,4,4,,,,,0,12,12,12,,,,,,,,,,,,,,,,,,,,,,,,,,,,,,,,,,,,,,,,,,,,,,,,,,,,,,,,,,,,,,,,,9,0.9453621089996886,1341.3543693949998,None,1341.3543693949998,None,1341.3543693949998,None,,,,,,,,,,,,,,,,,,,,,,,,,,,,,,,,,,,,,,,,,,,,,,,,,,,101719_p1,001,2019_Oct_17_1158,body_behavioural,3.2.2,60.15229502422574,
4,parcelated_audio/42/42_14.ogg,,0,4,4,4,,,,,0,13,13,13,,,,,,,,,,,,,,,,,,,,,,,,,,,,,,,,,,,,,,,,,,,,,,,,,,,,,,,,,,,,,,,,,1,0.35835348999989947,1347.0905023499997,None,1347.0905023499997,None,1347.0905023499997,None,,,,,,,,,,,,,,,,,,,,,,,,,,,,,,,,,,,,,,,,,,,,,,,,,,,101719_p1,001,2019_Oct_17_1158,body_behavioural,3.2.2,60.15229502422574,
4,parcelated_audio/42/42_15.ogg,,0,4,4,4,,,,,0,14,14,14,,,,,,,,,,,,,,,,,,,,,,,,,,,,,,,,,,,,,,,,,,,,,,,,,,,,,,,,,,,,,,,,,1,0.7428811600002518,1353.3905033549997,None,1353.3905033549997,None,1353.3905033549997,None,,,,,,,,,,,,,,,,,,,,,,,,,,,,,,,,,,,,,,,,,,,,,,,,,,,101719_p1,001,2019_Oct_17_1158,body_behavioural,3.2.2,60.15229502422574,
4,parcelated_audio/42/42_16.ogg,,0,4,4,4,,,,,0,15,15,15,,,,,,,,,,,,,,,,,,,,,,,,,,,,,,,,,,,,,,,,,,,,,,,,,,,,,,,,,,,,,,,,,1,0.8754741010002363,1359.7743892,None,1359.7743892,None,1359.7743892,None,,,,,,,,,,,,,,,,,,,,,,,,,,,,,,,,,,,,,,,,,,,,,,,,,,,101719_p1,001,2019_Oct_17_1158,body_behavioural,3.2.2,60.15229502422574,
4,parcelated_audio/42/42_17.ogg,,0,4,4,4,,,,,0,16,16,16,,,,,,,,,,,,,,,,,,,,,,,,,,,,,,,,,,,,,,,,,,,,,,,,,,,,,,,,,,,,,,,,,1,0.39073860700000296,1370.427357234,None,1370.427357234,None,1370.427357234,None,,,,,,,,,,,,,,,,,,,,,,,,,,,,,,,,,,,,,,,,,,,,,,,,,,,101719_p1,001,2019_Oct_17_1158,body_behavioural,3.2.2,60.15229502422574,
4,parcelated_audio/42/42_18.ogg,,0,4,4,4,,,,,0,17,17,17,,,,,,,,,,,,,,,,,,,,,,,,,,,,,,,,,,,,,,,,,,,,,,,,,,,,,,,,,,,,,,,,,1,1.3860739419997117,1376.328100556,None,1376.328100556,None,1376.328100556,None,,,,,,,,,,,,,,,,,,,,,,,,,,,,,,,,,,,,,,,,,,,,,,,,,,,101719_p1,001,2019_Oct_17_1158,body_behavioural,3.2.2,60.15229502422574,
4,parcelated_audio/42/42_19.ogg,,0,4,4,4,,,,,0,18,18,18,,,,,,,,,,,,,,,,,,,,,,,,,,,,,,,,,,,,,,,,,,,,,,,,,,,,,,,,,,,,,,,,,1,1.0086313820002033,1386.962586065,None,1386.962586065,None,1386.962586065,None,,,,,,,,,,,,,,,,,,,,,,,,,,,,,,,,,,,,,,,,,,,,,,,,,,,101719_p1,001,2019_Oct_17_1158,body_behavioural,3.2.2,60.15229502422574,
4,parcelated_audio/42/42_20.ogg,,0,4,4,4,,,,,0,19,19,19,,,,,,,,,,,,,,,,,,,,,,,,,,,,,,,,,,,,,,,,,,,,,,,,,,,,,,,,,,,,,,,,,1,2.4803558889998385,1392.6980008419998,None,1392.6980008419998,None,1392.6980008419998,None,,,,,,,,,,,,,,,,,,,,,,,,,,,,,,,,,,,,,,,,,,,,,,,,,,,101719_p1,001,2019_Oct_17_1158,body_behavioural,3.2.2,60.15229502422574,
4,parcelated_audio/42/42_21.ogg,,0,4,4,4,,,,,0,20,20,20,,,,,,,,,,,,,,,,,,,,,,,,,,,,,,,,,,,,,,,,,,,,,,,,,,,,,,,,,,,,,,,,,1,1.50067071400008,1405.166951388,None,1405.166951388,None,1405.166951388,None,,,,,,,,,,,,,,,,,,,,,,,,,,,,,,,,,,,,,,,,,,,,,,,,,,,101719_p1,001,2019_Oct_17_1158,body_behavioural,3.2.2,60.15229502422574,
4,parcelated_audio/42/42_22.ogg,,0,4,4,4,,,,,0,21,21,21,,,,,,,,,,,,,,,,,,,,,,,,,,,,,,,,,,,,,,,,,,,,,,,,,,,,,,,,,,,,,,,,,1,1.7141926949998378,1411.533802876,None,1411.533802876,None,1411.533802876,None,,,,,,,,,,,,,,,,,,,,,,,,,,,,,,,,,,,,,,,,,,,,,,,,,,,101719_p1,001,2019_Oct_17_1158,body_behavioural,3.2.2,60.15229502422574,
4,parcelated_audio/42/42_23.ogg,,0,4,4,4,,,,,0,22,22,22,,,,,,,,,,,,,,,,,,,,,,,,,,,,,,,,,,,,,,,,,,,,,,,,,,,,,,,,,,,,,,,,,9,1.3133864490000633,1419.551622448,None,1419.551622448,None,1419.551622448,None,,,,,,,,,,,,,,,,,,,,,,,,,,,,,,,,,,,,,,,,,,,,,,,,,,,101719_p1,001,2019_Oct_17_1158,body_behavioural,3.2.2,60.15229502422574,
4,parcelated_audio/42/42_24.ogg,,0,4,4,4,,,,,0,23,23,23,,,,,,,,,,,,,,,,,,,,,,,,,,,,,,,,,,,,,,,,,,,,,,,,,,,,,,,,,,,,,,,,,1,0.4100284510000165,1429.386743591,None,1429.386743591,None,1429.386743591,None,,,,,,,,,,,,,,,,,,,,,,,,,,,,,,,,,,,,,,,,,,,,,,,,,,,101719_p1,001,2019_Oct_17_1158,body_behavioural,3.2.2,60.15229502422574,
4,parcelated_audio/42/42_25.ogg,,0,4,4,4,,,,,0,24,24,24,,,,,,,,,,,,,,,,,,,,,,,,,,,,,,,,,,,,,,,,,,,,,,,,,,,,,,,,,,,,,,,,,1,0.48663908599974093,1436.1048414159998,None,1436.1048414159998,None,1436.1048414159998,None,,,,,,,,,,,,,,,,,,,,,,,,,,,,,,,,,,,,,,,,,,,,,,,,,,,101719_p1,001,2019_Oct_17_1158,body_behavioural,3.2.2,60.15229502422574,
4,parcelated_audio/42/42_26.ogg,,0,4,4,4,,,,,0,25,25,25,,,,,,,,,,,,,,,,,,,,,,,,,,,,,,,,,,,,,,,,,,,,,,,,,,,,,,,,,,,,,,,,,1,1.185697077000441,1442.5729226249998,None,1442.5729226249998,None,1442.5729226249998,None,,,,,,,,,,,,,,,,,,,,,,,,,,,,,,,,,,,,,,,,,,,,,,,,,,,101719_p1,001,2019_Oct_17_1158,body_behavioural,3.2.2,60.15229502422574,
4,parcelated_audio/42/42_27.ogg,,0,4,4,4,,,,,0,26,26,26,,,,,,,,,,,,,,,,,,,,,,,,,,,,,,,,,,,,,,,,,,,,,,,,,,,,,,,,,,,,,,,,,1,0.529080979000355,1451.524756951,None,1451.524756951,None,1451.524756951,None,,,,,,,,,,,,,,,,,,,,,,,,,,,,,,,,,,,,,,,,,,,,,,,,,,,101719_p1,001,2019_Oct_17_1158,body_behavioural,3.2.2,60.15229502422574,
4,parcelated_audio/42/42_28.ogg,,0,4,4,4,,,,,0,27,27,27,,,,,,,,,,,,,,,,,,,,,,,,,,,,,,,,,,,,,,,,,,,,,,,,,,,,,,,,,,,,,,,,,1,0.7455220040001223,1457.7912236149998,None,1457.7912236149998,None,1457.7912236149998,None,,,,,,,,,,,,,,,,,,,,,,,,,,,,,,,,,,,,,,,,,,,,,,,,,,,101719_p1,001,2019_Oct_17_1158,body_behavioural,3.2.2,60.15229502422574,
4,parcelated_audio/42/42_29.ogg,,0,4,4,4,,,,,0,28,28,28,,,,,,,,,,,,,,,,,,,,,,,,,,,,,,,,,,,,,,,,,,,,,,,,,,,,,,,,,,,,,,,,,1,0.746370527000181,1465.526331579,None,1465.526331579,None,1465.526331579,None,,,,,,,,,,,,,,,,,,,,,,,,,,,,,,,,,,,,,,,,,,,,,,,,,,,101719_p1,001,2019_Oct_17_1158,body_behavioural,3.2.2,60.15229502422574,
4,parcelated_audio/42/42_30.ogg,,0,4,4,4,,,,,0,29,29,29,,,,,,,,,,,,,,,,,,,,,,,,,,,,,,,,,,,,,,,,,,,,,,,,,,,,,,,,,,,,,,,,,1,0.8098079799997322,1477.21258211,None,1477.21258211,None,1477.21258211,None,,,,,,,,,,,,,,,,,,,,,,,,,,,,,,,,,,,,,,,,,,,,,,,,,,,101719_p1,001,2019_Oct_17_1158,body_behavioural,3.2.2,60.15229502422574,
4,parcelated_audio/42/42_31.ogg,,0,4,4,4,,,,,0,30,30,30,,,,,,,,,,,,,,,,,,,,,,,,,,,,,,,,,,,,,,,,,,,,,,,,,,,,,,,,,,,,,,,,,1,0.6650424399999793,1484.2962279319997,None,1484.2962279319997,None,1484.2962279319997,None,,,,,,,,,,,,,,,,,,,,,,,,,,,,,,,,,,,,,,,,,,,,,,,,,,,101719_p1,001,2019_Oct_17_1158,body_behavioural,3.2.2,60.15229502422574,
4,parcelated_audio/42/42_32.ogg,,0,4,4,4,,,,,0,31,31,31,,,,,,,,,,,,,,,,,,,,,,,,,,,,,,,,,,,,,,,,,,,,,,,,,,,,,,,,,,,,,,,,,9,0.39501334600026894,1493.1977361269999,None,1493.1977361269999,None,1493.1977361269999,None,,,,,,,,,,,,,,,,,,,,,,,,,,,,,,,,,,,,,,,,,,,,,,,,,,,101719_p1,001,2019_Oct_17_1158,body_behavioural,3.2.2,60.15229502422574,
4,parcelated_audio/42/42_33.ogg,,0,4,4,4,,,,,0,32,32,32,,,,,,,,,,,,,,,,,,,,,,,,,,,,,,,,,,,,,,,,,,,,,,,,,,,,,,,,,,,,,,,,,1,0.29473953400020036,1500.7160034769997,None,1500.7160034769997,None,1500.7160034769997,None,,,,,,,,,,,,,,,,,,,,,,,,,,,,,,,,,,,,,,,,,,,,,,,,,,,101719_p1,001,2019_Oct_17_1158,body_behavioural,3.2.2,60.15229502422574,
4,parcelated_audio/42/42_34.ogg,,0,4,4,4,,,,,0,33,33,33,,,,,,,,,,,,,,,,,,,,,,,,,,,,,,,,,,,,,,,,,,,,,,,,,,,,,,,,,,,,,,,,,1,0.7342987550000544,1511.8170543959998,None,1511.8170543959998,None,1511.8170543959998,None,,,,,,,,,,,,,,,,,,,,,,,,,,,,,,,,,,,,,,,,,,,,,,,,,,,101719_p1,001,2019_Oct_17_1158,body_behavioural,3.2.2,60.15229502422574,
4,parcelated_audio/42/42_35.ogg,,0,4,4,4,,,,,0,34,34,34,,,,,,,,,,,,,,,,,,,,,,,,,,,,,,,,,,,,,,,,,,,,,,,,,,,,,,,,,,,,,,,,,1,0.4433741029997691,1522.3706305429998,None,1522.3706305429998,None,1522.3706305429998,None,,,,,,,,,,,,,,,,,,,,,,,,,,,,,,,,,,,,,,,,,,,,,,,,,,,101719_p1,001,2019_Oct_17_1158,body_behavioural,3.2.2,60.15229502422574,
4,,,0,4,4,4,,,,,,,,,,,,,,,,,,,,,,,,,,,,,,,,,,,,,,,,,,,,,,,,,,,,,,,,,,,,,,,,,,,,,,,,,,,,,,,,,1522.8528725579997,None,1522.8528725579997,None,space,1.1450896770002146,1522.8528725579997,None,,,,,,,,,,,,,,,,,,,,,,,,,,,,,,,,,,,,,,,,,,,101719_p1,001,2019_Oct_17_1158,body_behavioural,3.2.2,60.15229502422574,
5,,,0,5,5,5,0,0,0,0,,,,,,,,,,,,,,,,,1524.040316062,None,space,0.8056822590001502,1524.040316062,None,1524.040316062,None,1524.869425687,None,space,0.6566699909999443,1524.869425687,None,1525.5950905909997,None,1525.5950905909997,None,1525.5950905909997,None,1526.469221228,None,space,0.8248899619998156,1526.469221228,None,1527.436488307,None,1527.436488307,None,1527.436488307,None,1527.436488307,None,1527.436488307,None,1527.436488307,None,1527.436488307,None,,,,,,,,,,,,,,,,,,,,,,,,,,,,,,,,,,,,,,,,,,,,,,,,,,,,,,,,,,,,,,,,,,,,,,,101719_p1,001,2019_Oct_17_1158,body_behavioural,3.2.2,60.15229502422574,
5,,,0,5,5,5,1,0,1,0,,,,,,,,,,,,,,,,,,,,,,,,,,,,,,,1539.2443427309997,None,1539.2443427309997,None,1539.2443427309997,None,1540.072842403,None,space,0.5533819870001935,1540.072842403,None,1540.7559539789997,None,1540.7559539789997,None,1540.7559539789997,None,1540.7559539789997,None,1540.7559539789997,None,1540.7559539789997,None,1540.7559539789997,None,,,,,,,,,,,,,,,,,,,,,,,,,,,,,,,,,,,,,,,,,,,,,,,,,,,,,,,,,,,,,,,,,,,,,,,101719_p1,001,2019_Oct_17_1158,body_behavioural,3.2.2,60.15229502422574,
5,parcelated_audio/34/34_1.ogg,,0,5,5,5,,,,,0,0,0,0,,,,,,,,,,,,,,,,,,,,,,,,,,,1556.733091113,None,1556.733091113,None,1556.733091113,None,,,,,,,,,,,,,,,,,,,,,1554.2963768029997,None,space,2.3792392989998916,1554.2963768029997,None,1557.1412693559998,None,space,1.1103267290000076,1557.1412693559998,None,9,1.679739495999911,1567.059614258,None,1567.059614258,None,1567.059614258,None,,,,,,,,,,,,,,,,,,,,,,,,,,,,,,,,,,,,,,,,,,,,,,,,,,,101719_p1,001,2019_Oct_17_1158,body_behavioural,3.2.2,60.15229502422574,
5,parcelated_audio/34/34_2.ogg,,0,5,5,5,,,,,0,1,1,1,,,,,,,,,,,,,,,,,,,,,,,,,,,,,,,,,,,,,,,,,,,,,,,,,,,,,,,,,,,,,,,,,1,0.5784496319997743,1573.3785195819999,None,1573.3785195819999,None,1573.3785195819999,None,,,,,,,,,,,,,,,,,,,,,,,,,,,,,,,,,,,,,,,,,,,,,,,,,,,101719_p1,001,2019_Oct_17_1158,body_behavioural,3.2.2,60.15229502422574,
5,parcelated_audio/34/34_3.ogg,,0,5,5,5,,,,,0,2,2,2,,,,,,,,,,,,,,,,,,,,,,,,,,,,,,,,,,,,,,,,,,,,,,,,,,,,,,,,,,,,,,,,,1,1.0657520899999327,1578.678845401,None,1578.678845401,None,1578.678845401,None,,,,,,,,,,,,,,,,,,,,,,,,,,,,,,,,,,,,,,,,,,,,,,,,,,,101719_p1,001,2019_Oct_17_1158,body_behavioural,3.2.2,60.15229502422574,
5,parcelated_audio/34/34_4.ogg,,0,5,5,5,,,,,0,3,3,3,,,,,,,,,,,,,,,,,,,,,,,,,,,,,,,,,,,,,,,,,,,,,,,,,,,,,,,,,,,,,,,,,1,0.9920101319999048,1589.4304958699997,None,1589.4304958699997,None,1589.4304958699997,None,,,,,,,,,,,,,,,,,,,,,,,,,,,,,,,,,,,,,,,,,,,,,,,,,,,101719_p1,001,2019_Oct_17_1158,body_behavioural,3.2.2,60.15229502422574,
5,parcelated_audio/34/34_5.ogg,,0,5,5,5,,,,,0,4,4,4,,,,,,,,,,,,,,,,,,,,,,,,,,,,,,,,,,,,,,,,,,,,,,,,,,,,,,,,,,,,,,,,,1,1.6245953490001739,1600.9328879769998,None,1600.9328879769998,None,1600.9328879769998,None,,,,,,,,,,,,,,,,,,,,,,,,,,,,,,,,,,,,,,,,,,,,,,,,,,,101719_p1,001,2019_Oct_17_1158,body_behavioural,3.2.2,60.15229502422574,
5,parcelated_audio/34/34_6.ogg,,0,5,5,5,,,,,0,5,5,5,,,,,,,,,,,,,,,,,,,,,,,,,,,,,,,,,,,,,,,,,,,,,,,,,,,,,,,,,,,,,,,,,1,1.477516356000251,1611.334773464,None,1611.334773464,None,1611.334773464,None,,,,,,,,,,,,,,,,,,,,,,,,,,,,,,,,,,,,,,,,,,,,,,,,,,,101719_p1,001,2019_Oct_17_1158,body_behavioural,3.2.2,60.15229502422574,
5,parcelated_audio/34/34_7.ogg,,0,5,5,5,,,,,0,6,6,6,,,,,,,,,,,,,,,,,,,,,,,,,,,,,,,,,,,,,,,,,,,,,,,,,,,,,,,,,,,,,,,,,9,0.44421995499988043,1618.8864128049997,None,1618.8864128049997,None,1618.8864128049997,None,,,,,,,,,,,,,,,,,,,,,,,,,,,,,,,,,,,,,,,,,,,,,,,,,,,101719_p1,001,2019_Oct_17_1158,body_behavioural,3.2.2,60.15229502422574,
5,parcelated_audio/34/34_8.ogg,,0,5,5,5,,,,,0,7,7,7,,,,,,,,,,,,,,,,,,,,,,,,,,,,,,,,,,,,,,,,,,,,,,,,,,,,,,,,,,,,,,,,,1,0.3066375999997035,1627.3873467249998,None,1627.3873467249998,None,1627.3873467249998,None,,,,,,,,,,,,,,,,,,,,,,,,,,,,,,,,,,,,,,,,,,,,,,,,,,,101719_p1,001,2019_Oct_17_1158,body_behavioural,3.2.2,60.15229502422574,
5,parcelated_audio/34/34_9.ogg,,0,5,5,5,,,,,0,8,8,8,,,,,,,,,,,,,,,,,,,,,,,,,,,,,,,,,,,,,,,,,,,,,,,,,,,,,,,,,,,,,,,,,1,0.3332722990003276,1632.5883039990001,None,1632.5883039990001,None,1632.5883039990001,None,,,,,,,,,,,,,,,,,,,,,,,,,,,,,,,,,,,,,,,,,,,,,,,,,,,101719_p1,001,2019_Oct_17_1158,body_behavioural,3.2.2,60.15229502422574,
5,parcelated_audio/34/34_10.ogg,,0,5,5,5,,,,,0,9,9,9,,,,,,,,,,,,,,,,,,,,,,,,,,,,,,,,,,,,,,,,,,,,,,,,,,,,,,,,,,,,,,,,,1,0.36175161600021966,1640.0229674599998,None,1640.0229674599998,None,1640.0229674599998,None,,,,,,,,,,,,,,,,,,,,,,,,,,,,,,,,,,,,,,,,,,,,,,,,,,,101719_p1,001,2019_Oct_17_1158,body_behavioural,3.2.2,60.15229502422574,
5,parcelated_audio/34/34_11.ogg,,0,5,5,5,,,,,0,10,10,10,,,,,,,,,,,,,,,,,,,,,,,,,,,,,,,,,,,,,,,,,,,,,,,,,,,,,,,,,,,,,,,,,1,0.4892333719999442,1643.906158947,None,1643.906158947,None,1643.906158947,None,,,,,,,,,,,,,,,,,,,,,,,,,,,,,,,,,,,,,,,,,,,,,,,,,,,101719_p1,001,2019_Oct_17_1158,body_behavioural,3.2.2,60.15229502422574,
5,parcelated_audio/34/34_12.ogg,,0,5,5,5,,,,,0,11,11,11,,,,,,,,,,,,,,,,,,,,,,,,,,,,,,,,,,,,,,,,,,,,,,,,,,,,,,,,,,,,,,,,,9,0.3066225279999344,1652.624597632,None,1652.624597632,None,1652.624597632,None,,,,,,,,,,,,,,,,,,,,,,,,,,,,,,,,,,,,,,,,,,,,,,,,,,,101719_p1,001,2019_Oct_17_1158,body_behavioural,3.2.2,60.15229502422574,
5,parcelated_audio/34/34_13.ogg,,0,5,5,5,,,,,0,12,12,12,,,,,,,,,,,,,,,,,,,,,,,,,,,,,,,,,,,,,,,,,,,,,,,,,,,,,,,,,,,,,,,,,1,0.5519587060002777,1656.8925574789998,None,1656.8925574789998,None,1656.8925574789998,None,,,,,,,,,,,,,,,,,,,,,,,,,,,,,,,,,,,,,,,,,,,,,,,,,,,101719_p1,001,2019_Oct_17_1158,body_behavioural,3.2.2,60.15229502422574,
5,parcelated_audio/34/34_14.ogg,,0,5,5,5,,,,,0,13,13,13,,,,,,,,,,,,,,,,,,,,,,,,,,,,,,,,,,,,,,,,,,,,,,,,,,,,,,,,,,,,,,,,,1,0.7511907329999303,1662.1929280839997,None,1662.1929280839997,None,1662.1929280839997,None,,,,,,,,,,,,,,,,,,,,,,,,,,,,,,,,,,,,,,,,,,,,,,,,,,,101719_p1,001,2019_Oct_17_1158,body_behavioural,3.2.2,60.15229502422574,
5,parcelated_audio/34/34_15.ogg,,0,5,5,5,,,,,0,14,14,14,,,,,,,,,,,,,,,,,,,,,,,,,,,,,,,,,,,,,,,,,,,,,,,,,,,,,,,,,,,,,,,,,1,0.7853962180001872,1667.2108096169998,None,1667.2108096169998,None,1667.2108096169998,None,,,,,,,,,,,,,,,,,,,,,,,,,,,,,,,,,,,,,,,,,,,,,,,,,,,101719_p1,001,2019_Oct_17_1158,body_behavioural,3.2.2,60.15229502422574,
5,parcelated_audio/34/34_16.ogg,,0,5,5,5,,,,,0,15,15,15,,,,,,,,,,,,,,,,,,,,,,,,,,,,,,,,,,,,,,,,,,,,,,,,,,,,,,,,,,,,,,,,,1,0.402938795999944,1681.0959177029997,None,1681.0959177029997,None,1681.0959177029997,None,,,,,,,,,,,,,,,,,,,,,,,,,,,,,,,,,,,,,,,,,,,,,,,,,,,101719_p1,001,2019_Oct_17_1158,body_behavioural,3.2.2,60.15229502422574,
5,parcelated_audio/34/34_17.ogg,,0,5,5,5,,,,,0,16,16,16,,,,,,,,,,,,,,,,,,,,,,,,,,,,,,,,,,,,,,,,,,,,,,,,,,,,,,,,,,,,,,,,,1,1.2103163980000318,1690.531035149,None,1690.531035149,None,1690.531035149,None,,,,,,,,,,,,,,,,,,,,,,,,,,,,,,,,,,,,,,,,,,,,,,,,,,,101719_p1,001,2019_Oct_17_1158,body_behavioural,3.2.2,60.15229502422574,
5,parcelated_audio/34/34_18.ogg,,0,5,5,5,,,,,0,17,17,17,,,,,,,,,,,,,,,,,,,,,,,,,,,,,,,,,,,,,,,,,,,,,,,,,,,,,,,,,,,,,,,,,9,0.9456249700001536,1697.682686987,None,1697.682686987,None,1697.682686987,None,,,,,,,,,,,,,,,,,,,,,,,,,,,,,,,,,,,,,,,,,,,,,,,,,,,101719_p1,001,2019_Oct_17_1158,body_behavioural,3.2.2,60.15229502422574,
5,parcelated_audio/34/34_19.ogg,,0,5,5,5,,,,,0,18,18,18,,,,,,,,,,,,,,,,,,,,,,,,,,,,,,,,,,,,,,,,,,,,,,,,,,,,,,,,,,,,,,,,,1,1.3229448829997636,1704.9340349859997,None,1704.9340349859997,None,1704.9340349859997,None,,,,,,,,,,,,,,,,,,,,,,,,,,,,,,,,,,,,,,,,,,,,,,,,,,,101719_p1,001,2019_Oct_17_1158,body_behavioural,3.2.2,60.15229502422574,
5,parcelated_audio/34/34_20.ogg,,0,5,5,5,,,,,0,19,19,19,,,,,,,,,,,,,,,,,,,,,,,,,,,,,,,,,,,,,,,,,,,,,,,,,,,,,,,,,,,,,,,,,1,1.1559647219996805,1714.784730042,None,1714.784730042,None,1714.784730042,None,,,,,,,,,,,,,,,,,,,,,,,,,,,,,,,,,,,,,,,,,,,,,,,,,,,101719_p1,001,2019_Oct_17_1158,body_behavioural,3.2.2,60.15229502422574,
5,parcelated_audio/34/34_21.ogg,,0,5,5,5,,,,,0,20,20,20,,,,,,,,,,,,,,,,,,,,,,,,,,,,,,,,,,,,,,,,,,,,,,,,,,,,,,,,,,,,,,,,,1,0.6468087599996579,1722.385846927,None,1722.385846927,None,1722.385846927,None,,,,,,,,,,,,,,,,,,,,,,,,,,,,,,,,,,,,,,,,,,,,,,,,,,,101719_p1,001,2019_Oct_17_1158,body_behavioural,3.2.2,60.15229502422574,
5,parcelated_audio/34/34_22.ogg,,0,5,5,5,,,,,0,21,21,21,,,,,,,,,,,,,,,,,,,,,,,,,,,,,,,,,,,,,,,,,,,,,,,,,,,,,,,,,,,,,,,,,1,0.461412651000046,1728.2383811459997,None,1728.2383811459997,None,1728.2383811459997,None,,,,,,,,,,,,,,,,,,,,,,,,,,,,,,,,,,,,,,,,,,,,,,,,,,,101719_p1,001,2019_Oct_17_1158,body_behavioural,3.2.2,60.15229502422574,
5,parcelated_audio/34/34_23.ogg,,0,5,5,5,,,,,0,22,22,22,,,,,,,,,,,,,,,,,,,,,,,,,,,,,,,,,,,,,,,,,,,,,,,,,,,,,,,,,,,,,,,,,1,0.3526441900003192,1736.5719345589998,None,1736.5719345589998,None,1736.5719345589998,None,,,,,,,,,,,,,,,,,,,,,,,,,,,,,,,,,,,,,,,,,,,,,,,,,,,101719_p1,001,2019_Oct_17_1158,body_behavioural,3.2.2,60.15229502422574,
5,parcelated_audio/34/34_24.ogg,,0,5,5,5,,,,,0,23,23,23,,,,,,,,,,,,,,,,,,,,,,,,,,,,,,,,,,,,,,,,,,,,,,,,,,,,,,,,,,,,,,,,,9,0.6618647580003199,1742.822732376,None,1742.822732376,None,1742.822732376,None,,,,,,,,,,,,,,,,,,,,,,,,,,,,,,,,,,,,,,,,,,,,,,,,,,,101719_p1,001,2019_Oct_17_1158,body_behavioural,3.2.2,60.15229502422574,
5,parcelated_audio/34/34_25.ogg,,0,5,5,5,,,,,0,24,24,24,,,,,,,,,,,,,,,,,,,,,,,,,,,,,,,,,,,,,,,,,,,,,,,,,,,,,,,,,,,,,,,,,1,0.3936647170003198,1750.1246725039998,None,1750.1246725039998,None,1750.1246725039998,None,,,,,,,,,,,,,,,,,,,,,,,,,,,,,,,,,,,,,,,,,,,,,,,,,,,101719_p1,001,2019_Oct_17_1158,body_behavioural,3.2.2,60.15229502422574,
5,parcelated_audio/34/34_26.ogg,,0,5,5,5,,,,,0,25,25,25,,,,,,,,,,,,,,,,,,,,,,,,,,,,,,,,,,,,,,,,,,,,,,,,,,,,,,,,,,,,,,,,,1,0.6798258519997944,1760.259529313,None,1760.259529313,None,1760.259529313,None,,,,,,,,,,,,,,,,,,,,,,,,,,,,,,,,,,,,,,,,,,,,,,,,,,,101719_p1,001,2019_Oct_17_1158,body_behavioural,3.2.2,60.15229502422574,
5,parcelated_audio/34/34_27.ogg,,0,5,5,5,,,,,0,26,26,26,,,,,,,,,,,,,,,,,,,,,,,,,,,,,,,,,,,,,,,,,,,,,,,,,,,,,,,,,,,,,,,,,1,0.5035699800000657,1768.5105344749998,None,1768.5105344749998,None,1768.5105344749998,None,,,,,,,,,,,,,,,,,,,,,,,,,,,,,,,,,,,,,,,,,,,,,,,,,,,101719_p1,001,2019_Oct_17_1158,body_behavioural,3.2.2,60.15229502422574,
5,,,0,5,5,5,,,,,,,,,,,,,,,,,,,,,,,,,,,,,,,,,,,,,,,,,,,,,,,,,,,,,,,,,,,,,,,,,,,,,,,,,,,,,,,,,1769.045196358,None,1769.045196358,None,space,1.3529168760001085,1769.045196358,None,,,,,,,,,,,,,,,,,,,,,,,,,,,,,,,,,,,,,,,,,,,101719_p1,001,2019_Oct_17_1158,body_behavioural,3.2.2,60.15229502422574,
6,,,0,6,6,6,0,0,0,0,,,,,,,,,,,,,,,,,1770.444591049,None,space,0.5533736370002771,1770.444591049,None,1770.444591049,None,1771.027771503,None,space,0.9782249350000711,1771.027771503,None,1772.060904409,None,1772.060904409,None,1772.060904409,None,1772.711495712,None,space,0.8866035969999757,1772.711495712,None,1773.728085863,None,1773.728085863,None,1773.728085863,None,1773.728085863,None,1773.728085863,None,1773.728085863,None,1773.728085863,None,,,,,,,,,,,,,,,,,,,,,,,,,,,,,,,,,,,,,,,,,,,,,,,,,,,,,,,,,,,,,,,,,,,,,,,101719_p1,001,2019_Oct_17_1158,body_behavioural,3.2.2,60.15229502422574,
6,parcelated_audio/21/21_1.ogg,,0,6,6,6,,,,,0,0,0,0,,,,,,,,,,,,,,,,,,,,,,,,,,,1786.347755011,None,1786.347755011,None,1786.347755011,None,,,,,,,,,,,,,,,,,,,,,1785.4695284329998,None,space,0.834075765000307,1785.4695284329998,None,1786.6306766749997,None,space,0.48894232400016335,1786.6306766749997,None,9,0.7616061680000712,1801.4674425709998,None,1801.4674425709998,None,1801.4674425709998,None,,,,,,,,,,,,,,,,,,,,,,,,,,,,,,,,,,,,,,,,,,,,,,,,,,,101719_p1,001,2019_Oct_17_1158,body_behavioural,3.2.2,60.15229502422574,
6,parcelated_audio/21/21_2.ogg,,0,6,6,6,,,,,0,1,1,1,,,,,,,,,,,,,,,,,,,,,,,,,,,,,,,,,,,,,,,,,,,,,,,,,,,,,,,,,,,,,,,,,1,0.38823365600001125,1809.7347481519998,None,1809.7347481519998,None,1809.7347481519998,None,,,,,,,,,,,,,,,,,,,,,,,,,,,,,,,,,,,,,,,,,,,,,,,,,,,101719_p1,001,2019_Oct_17_1158,body_behavioural,3.2.2,60.15229502422574,
6,parcelated_audio/21/21_3.ogg,,0,6,6,6,,,,,0,2,2,2,,,,,,,,,,,,,,,,,,,,,,,,,,,,,,,,,,,,,,,,,,,,,,,,,,,,,,,,,,,,,,,,,1,0.5717283439998937,1817.886368398,None,1817.886368398,None,1817.886368398,None,,,,,,,,,,,,,,,,,,,,,,,,,,,,,,,,,,,,,,,,,,,,,,,,,,,101719_p1,001,2019_Oct_17_1158,body_behavioural,3.2.2,60.15229502422574,
6,parcelated_audio/21/21_4.ogg,,0,6,6,6,,,,,0,3,3,3,,,,,,,,,,,,,,,,,,,,,,,,,,,,,,,,,,,,,,,,,,,,,,,,,,,,,,,,,,,,,,,,,1,0.598360491999756,1829.5717578699998,None,1829.5717578699998,None,1829.5717578699998,None,,,,,,,,,,,,,,,,,,,,,,,,,,,,,,,,,,,,,,,,,,,,,,,,,,,101719_p1,001,2019_Oct_17_1158,body_behavioural,3.2.2,60.15229502422574,
6,parcelated_audio/21/21_5.ogg,,0,6,6,6,,,,,0,4,4,4,,,,,,,,,,,,,,,,,,,,,,,,,,,,,,,,,,,,,,,,,,,,,,,,,,,,,,,,,,,,,,,,,1,0.4592269839999972,1835.288755583,None,1835.288755583,None,1835.288755583,None,,,,,,,,,,,,,,,,,,,,,,,,,,,,,,,,,,,,,,,,,,,,,,,,,,,101719_p1,001,2019_Oct_17_1158,body_behavioural,3.2.2,60.15229502422574,
6,parcelated_audio/21/21_6.ogg,,0,6,6,6,,,,,0,5,5,5,,,,,,,,,,,,,,,,,,,,,,,,,,,,,,,,,,,,,,,,,,,,,,,,,,,,,,,,,,,,,,,,,9,0.9613858110001274,1843.9910932609998,None,1843.9910932609998,None,1843.9910932609998,None,,,,,,,,,,,,,,,,,,,,,,,,,,,,,,,,,,,,,,,,,,,,,,,,,,,101719_p1,001,2019_Oct_17_1158,body_behavioural,3.2.2,60.15229502422574,
6,parcelated_audio/21/21_7.ogg,,0,6,6,6,,,,,0,6,6,6,,,,,,,,,,,,,,,,,,,,,,,,,,,,,,,,,,,,,,,,,,,,,,,,,,,,,,,,,,,,,,,,,1,1.0750284910000119,1849.542596127,None,1849.542596127,None,1849.542596127,None,,,,,,,,,,,,,,,,,,,,,,,,,,,,,,,,,,,,,,,,,,,,,,,,,,,101719_p1,001,2019_Oct_17_1158,body_behavioural,3.2.2,60.15229502422574,
6,parcelated_audio/21/21_8.ogg,,0,6,6,6,,,,,0,7,7,7,,,,,,,,,,,,,,,,,,,,,,,,,,,,,,,,,,,,,,,,,,,,,,,,,,,,,,,,,,,,,,,,,1,0.6796799269995972,1861.6103318969997,None,1861.6103318969997,None,1861.6103318969997,None,,,,,,,,,,,,,,,,,,,,,,,,,,,,,,,,,,,,,,,,,,,,,,,,,,,101719_p1,001,2019_Oct_17_1158,body_behavioural,3.2.2,60.15229502422574,
6,parcelated_audio/21/21_9.ogg,,0,6,6,6,,,,,0,8,8,8,,,,,,,,,,,,,,,,,,,,,,,,,,,,,,,,,,,,,,,,,,,,,,,,,,,,,,,,,,,,,,,,,1,1.0556944549998661,1869.7616490009998,None,1869.7616490009998,None,1869.7616490009998,None,,,,,,,,,,,,,,,,,,,,,,,,,,,,,,,,,,,,,,,,,,,,,,,,,,,101719_p1,001,2019_Oct_17_1158,body_behavioural,3.2.2,60.15229502422574,
6,parcelated_audio/21/21_10.ogg,,0,6,6,6,,,,,0,9,9,9,,,,,,,,,,,,,,,,,,,,,,,,,,,,,,,,,,,,,,,,,,,,,,,,,,,,,,,,,,,,,,,,,1,0.6601447660000304,1877.7461944629997,None,1877.7461944629997,None,1877.7461944629997,None,,,,,,,,,,,,,,,,,,,,,,,,,,,,,,,,,,,,,,,,,,,,,,,,,,,101719_p1,001,2019_Oct_17_1158,body_behavioural,3.2.2,60.15229502422574,
6,parcelated_audio/21/21_11.ogg,,0,6,6,6,,,,,0,10,10,10,,,,,,,,,,,,,,,,,,,,,,,,,,,,,,,,,,,,,,,,,,,,,,,,,,,,,,,,,,,,,,,,,1,1.073459314000047,1885.5971516839998,None,1885.5971516839998,None,1885.5971516839998,None,,,,,,,,,,,,,,,,,,,,,,,,,,,,,,,,,,,,,,,,,,,,,,,,,,,101719_p1,001,2019_Oct_17_1158,body_behavioural,3.2.2,60.15229502422574,
6,parcelated_audio/21/21_12.ogg,,0,6,6,6,,,,,0,11,11,11,,,,,,,,,,,,,,,,,,,,,,,,,,,,,,,,,,,,,,,,,,,,,,,,,,,,,,,,,,,,,,,,,9,1.141671093000241,1895.064943735,None,1895.064943735,None,1895.064943735,None,,,,,,,,,,,,,,,,,,,,,,,,,,,,,,,,,,,,,,,,,,,,,,,,,,,101719_p1,001,2019_Oct_17_1158,body_behavioural,3.2.2,60.15229502422574,
6,parcelated_audio/21/21_13.ogg,,0,6,6,6,,,,,0,12,12,12,,,,,,,,,,,,,,,,,,,,,,,,,,,,,,,,,,,,,,,,,,,,,,,,,,,,,,,,,,,,,,,,,1,0.6282709199999772,1899.615855631,None,1899.615855631,None,1899.615855631,None,,,,,,,,,,,,,,,,,,,,,,,,,,,,,,,,,,,,,,,,,,,,,,,,,,,101719_p1,001,2019_Oct_17_1158,body_behavioural,3.2.2,60.15229502422574,
6,parcelated_audio/21/21_14.ogg,,0,6,6,6,,,,,0,13,13,13,,,,,,,,,,,,,,,,,,,,,,,,,,,,,,,,,,,,,,,,,,,,,,,,,,,,,,,,,,,,,,,,,1,1.0123585219998859,1905.7341241429997,None,1905.7341241429997,None,1905.7341241429997,None,,,,,,,,,,,,,,,,,,,,,,,,,,,,,,,,,,,,,,,,,,,,,,,,,,,101719_p1,001,2019_Oct_17_1158,body_behavioural,3.2.2,60.15229502422574,
6,parcelated_audio/21/21_15.ogg,,0,6,6,6,,,,,0,14,14,14,,,,,,,,,,,,,,,,,,,,,,,,,,,,,,,,,,,,,,,,,,,,,,,,,,,,,,,,,,,,,,,,,1,0.2819378180001877,1913.6515250229997,None,1913.6515250229997,None,1913.6515250229997,None,,,,,,,,,,,,,,,,,,,,,,,,,,,,,,,,,,,,,,,,,,,,,,,,,,,101719_p1,001,2019_Oct_17_1158,body_behavioural,3.2.2,60.15229502422574,
6,parcelated_audio/21/21_16.ogg,,0,6,6,6,,,,,0,15,15,15,,,,,,,,,,,,,,,,,,,,,,,,,,,,,,,,,,,,,,,,,,,,,,,,,,,,,,,,,,,,,,,,,1,1.179376238000259,1920.086234948,None,1920.086234948,None,1920.086234948,None,,,,,,,,,,,,,,,,,,,,,,,,,,,,,,,,,,,,,,,,,,,,,,,,,,,101719_p1,001,2019_Oct_17_1158,body_behavioural,3.2.2,60.15229502422574,
6,parcelated_audio/21/21_17.ogg,,0,6,6,6,,,,,0,16,16,16,,,,,,,,,,,,,,,,,,,,,,,,,,,,,,,,,,,,,,,,,,,,,,,,,,,,,,,,,,,,,,,,,1,2.5601053659997888,1923.503523702,None,1923.503523702,None,1923.503523702,None,,,,,,,,,,,,,,,,,,,,,,,,,,,,,,,,,,,,,,,,,,,,,,,,,,,101719_p1,001,2019_Oct_17_1158,body_behavioural,3.2.2,60.15229502422574,
6,parcelated_audio/21/21_18.ogg,,0,6,6,6,,,,,0,17,17,17,,,,,,,,,,,,,,,,,,,,,,,,,,,,,,,,,,,,,,,,,,,,,,,,,,,,,,,,,,,,,,,,,1,0.39703736400042544,1939.2899514459998,None,1939.2899514459998,None,1939.2899514459998,None,,,,,,,,,,,,,,,,,,,,,,,,,,,,,,,,,,,,,,,,,,,,,,,,,,,101719_p1,001,2019_Oct_17_1158,body_behavioural,3.2.2,60.15229502422574,
6,parcelated_audio/21/21_19.ogg,,0,6,6,6,,,,,0,18,18,18,,,,,,,,,,,,,,,,,,,,,,,,,,,,,,,,,,,,,,,,,,,,,,,,,,,,,,,,,,,,,,,,,9,1.4148195289999421,1942.657302848,None,1942.657302848,None,1942.657302848,None,,,,,,,,,,,,,,,,,,,,,,,,,,,,,,,,,,,,,,,,,,,,,,,,,,,101719_p1,001,2019_Oct_17_1158,body_behavioural,3.2.2,60.15229502422574,
6,parcelated_audio/21/21_20.ogg,,0,6,6,6,,,,,0,19,19,19,,,,,,,,,,,,,,,,,,,,,,,,,,,,,,,,,,,,,,,,,,,,,,,,,,,,,,,,,,,,,,,,,1,0.5138669379998646,1952.875274843,None,1952.875274843,None,1952.875274843,None,,,,,,,,,,,,,,,,,,,,,,,,,,,,,,,,,,,,,,,,,,,,,,,,,,,101719_p1,001,2019_Oct_17_1158,body_behavioural,3.2.2,60.15229502422574,
6,parcelated_audio/21/21_21.ogg,,0,6,6,6,,,,,0,20,20,20,,,,,,,,,,,,,,,,,,,,,,,,,,,,,,,,,,,,,,,,,,,,,,,,,,,,,,,,,,,,,,,,,1,0.3774566629999754,1964.494660232,None,1964.494660232,None,1964.494660232,None,,,,,,,,,,,,,,,,,,,,,,,,,,,,,,,,,,,,,,,,,,,,,,,,,,,101719_p1,001,2019_Oct_17_1158,body_behavioural,3.2.2,60.15229502422574,
6,parcelated_audio/21/21_22.ogg,,0,6,6,6,,,,,0,21,21,21,,,,,,,,,,,,,,,,,,,,,,,,,,,,,,,,,,,,,,,,,,,,,,,,,,,,,,,,,,,,,,,,,1,0.4120077070001571,1975.8620915189997,None,1975.8620915189997,None,1975.8620915189997,None,,,,,,,,,,,,,,,,,,,,,,,,,,,,,,,,,,,,,,,,,,,,,,,,,,,101719_p1,001,2019_Oct_17_1158,body_behavioural,3.2.2,60.15229502422574,
6,parcelated_audio/21/21_23.ogg,,0,6,6,6,,,,,0,22,22,22,,,,,,,,,,,,,,,,,,,,,,,,,,,,,,,,,,,,,,,,,,,,,,,,,,,,,,,,,,,,,,,,,1,1.515396125999814,1981.3300604559997,None,1981.3300604559997,None,1981.3300604559997,None,,,,,,,,,,,,,,,,,,,,,,,,,,,,,,,,,,,,,,,,,,,,,,,,,,,101719_p1,001,2019_Oct_17_1158,body_behavioural,3.2.2,60.15229502422574,
6,parcelated_audio/21/21_24.ogg,,0,6,6,6,,,,,0,23,23,23,,,,,,,,,,,,,,,,,,,,,,,,,,,,,,,,,,,,,,,,,,,,,,,,,,,,,,,,,,,,,,,,,9,2.654278374999649,1987.4980463069999,None,1987.4980463069999,None,1987.4980463069999,None,,,,,,,,,,,,,,,,,,,,,,,,,,,,,,,,,,,,,,,,,,,,,,,,,,,101719_p1,001,2019_Oct_17_1158,body_behavioural,3.2.2,60.15229502422574,
6,parcelated_audio/21/21_25.ogg,,0,6,6,6,,,,,0,24,24,24,,,,,,,,,,,,,,,,,,,,,,,,,,,,,,,,,,,,,,,,,,,,,,,,,,,,,,,,,,,,,,,,,1,1.1583659880002415,1999.6837043089997,None,1999.6837043089997,None,1999.6837043089997,None,,,,,,,,,,,,,,,,,,,,,,,,,,,,,,,,,,,,,,,,,,,,,,,,,,,101719_p1,001,2019_Oct_17_1158,body_behavioural,3.2.2,60.15229502422574,
6,parcelated_audio/21/21_26.ogg,,0,6,6,6,,,,,0,25,25,25,,,,,,,,,,,,,,,,,,,,,,,,,,,,,,,,,,,,,,,,,,,,,,,,,,,,,,,,,,,,,,,,,1,1.3596391129999574,2004.901345942,None,2004.901345942,None,2004.901345942,None,,,,,,,,,,,,,,,,,,,,,,,,,,,,,,,,,,,,,,,,,,,,,,,,,,,101719_p1,001,2019_Oct_17_1158,body_behavioural,3.2.2,60.15229502422574,
6,parcelated_audio/21/21_27.ogg,,0,6,6,6,,,,,0,26,26,26,,,,,,,,,,,,,,,,,,,,,,,,,,,,,,,,,,,,,,,,,,,,,,,,,,,,,,,,,,,,,,,,,1,0.3685096570002315,2013.538085469,None,2013.538085469,None,2013.538085469,None,,,,,,,,,,,,,,,,,,,,,,,,,,,,,,,,,,,,,,,,,,,,,,,,,,,101719_p1,001,2019_Oct_17_1158,body_behavioural,3.2.2,60.15229502422574,
6,parcelated_audio/21/21_28.ogg,,0,6,6,6,,,,,0,27,27,27,,,,,,,,,,,,,,,,,,,,,,,,,,,,,,,,,,,,,,,,,,,,,,,,,,,,,,,,,,,,,,,,,1,1.054230261000157,2020.103178269,None,2020.103178269,None,2020.103178269,None,,,,,,,,,,,,,,,,,,,,,,,,,,,,,,,,,,,,,,,,,,,,,,,,,,,101719_p1,001,2019_Oct_17_1158,body_behavioural,3.2.2,60.15229502422574,
6,parcelated_audio/21/21_29.ogg,,0,6,6,6,,,,,0,28,28,28,,,,,,,,,,,,,,,,,,,,,,,,,,,,,,,,,,,,,,,,,,,,,,,,,,,,,,,,,,,,,,,,,9,2.365840161000051,2025.488016597,None,2025.488016597,None,2025.488016597,None,,,,,,,,,,,,,,,,,,,,,,,,,,,,,,,,,,,,,,,,,,,,,,,,,,,101719_p1,001,2019_Oct_17_1158,body_behavioural,3.2.2,60.15229502422574,
6,parcelated_audio/21/21_30.ogg,,0,6,6,6,,,,,0,29,29,29,,,,,,,,,,,,,,,,,,,,,,,,,,,,,,,,,,,,,,,,,,,,,,,,,,,,,,,,,,,,,,,,,1,0.8009493199997451,2033.189158731,None,2033.189158731,None,2033.189158731,None,,,,,,,,,,,,,,,,,,,,,,,,,,,,,,,,,,,,,,,,,,,,,,,,,,,101719_p1,001,2019_Oct_17_1158,body_behavioural,3.2.2,60.15229502422574,
6,,,0,6,6,6,,,,,,,,,,,,,,,,,,,,,,,,,,,,,,,,,,,,,,,,,,,,,,,,,,,,,,,,,,,,,,,,,,,,,,,,,,,,,,,,,2034.0392018269997,None,2034.0392018269997,None,space,0.7430194700000357,2034.0392018269997,None,,,,,,,,,,,,,,,,,,,,,,,,,,,,,,,,,,,,,,,,,,,101719_p1,001,2019_Oct_17_1158,body_behavioural,3.2.2,60.15229502422574,
7,,,0,7,7,7,0,0,0,0,,,,,,,,,,,,,,,,,2034.822518571,None,space,0.471704026000225,2034.822518571,None,2034.822518571,None,2035.322413129,None,space,1.2758095760000288,2035.322413129,None,2036.6570170909997,None,2036.6570170909997,None,2036.6570170909997,None,2037.522809111,None,space,0.5312994800001434,2037.522809111,None,2038.2062286519997,None,2038.2062286519997,None,2038.2062286519997,None,2038.2062286519997,None,2038.2062286519997,None,2038.2062286519997,None,2038.2062286519997,None,,,,,,,,,,,,,,,,,,,,,,,,,,,,,,,,,,,,,,,,,,,,,,,,,,,,,,,,,,,,,,,,,,,,,,,101719_p1,001,2019_Oct_17_1158,body_behavioural,3.2.2,60.15229502422574,
7,parcelated_audio/11/11_1.ogg,,0,7,7,7,,,,,0,0,0,0,,,,,,,,,,,,,,,,,,,,,,,,,,,2057.7434066839996,None,2057.7434066839996,None,2057.7434066839996,None,,,,,,,,,,,,,,,,,,,,,2056.6318966339995,None,space,1.0684644210000442,2056.6318966339995,None,2058.4604962559997,None,space,0.42385946500007776,2058.4604962559997,None,9,1.2218789070002458,2070.9626486609995,None,2070.9626486609995,None,2070.9626486609995,None,,,,,,,,,,,,,,,,,,,,,,,,,,,,,,,,,,,,,,,,,,,,,,,,,,,101719_p1,001,2019_Oct_17_1158,body_behavioural,3.2.2,60.15229502422574,
7,parcelated_audio/11/11_2.ogg,,0,7,7,7,,,,,0,1,1,1,,,,,,,,,,,,,,,,,,,,,,,,,,,,,,,,,,,,,,,,,,,,,,,,,,,,,,,,,,,,,,,,,1,1.5653773129997717,2076.7461102709995,None,2076.7461102709995,None,2076.7461102709995,None,,,,,,,,,,,,,,,,,,,,,,,,,,,,,,,,,,,,,,,,,,,,,,,,,,,101719_p1,001,2019_Oct_17_1158,body_behavioural,3.2.2,60.15229502422574,
7,parcelated_audio/11/11_3.ogg,,0,7,7,7,,,,,0,2,2,2,,,,,,,,,,,,,,,,,,,,,,,,,,,,,,,,,,,,,,,,,,,,,,,,,,,,,,,,,,,,,,,,,1,2.1455987809999897,2083.3967224059998,None,2083.3967224059998,None,2083.3967224059998,None,,,,,,,,,,,,,,,,,,,,,,,,,,,,,,,,,,,,,,,,,,,,,,,,,,,101719_p1,001,2019_Oct_17_1158,body_behavioural,3.2.2,60.15229502422574,
7,parcelated_audio/11/11_4.ogg,,0,7,7,7,,,,,0,3,3,3,,,,,,,,,,,,,,,,,,,,,,,,,,,,,,,,,,,,,,,,,,,,,,,,,,,,,,,,,,,,,,,,,1,0.5207101680002779,2094.6996453499996,None,2094.6996453499996,None,2094.6996453499996,None,,,,,,,,,,,,,,,,,,,,,,,,,,,,,,,,,,,,,,,,,,,,,,,,,,,101719_p1,001,2019_Oct_17_1158,body_behavioural,3.2.2,60.15229502422574,
7,parcelated_audio/11/11_5.ogg,,0,7,7,7,,,,,0,4,4,4,,,,,,,,,,,,,,,,,,,,,,,,,,,,,,,,,,,,,,,,,,,,,,,,,,,,,,,,,,,,,,,,,9,1.7625179789997674,2101.05070332,None,2101.05070332,None,2101.05070332,None,,,,,,,,,,,,,,,,,,,,,,,,,,,,,,,,,,,,,,,,,,,,,,,,,,,101719_p1,001,2019_Oct_17_1158,body_behavioural,3.2.2,60.15229502422574,
7,parcelated_audio/11/11_6.ogg,,0,7,7,7,,,,,0,5,5,5,,,,,,,,,,,,,,,,,,,,,,,,,,,,,,,,,,,,,,,,,,,,,,,,,,,,,,,,,,,,,,,,,1,0.7885022119999121,2107.4530173499998,None,2107.4530173499998,None,2107.4530173499998,None,,,,,,,,,,,,,,,,,,,,,,,,,,,,,,,,,,,,,,,,,,,,,,,,,,,101719_p1,001,2019_Oct_17_1158,body_behavioural,3.2.2,60.15229502422574,
7,parcelated_audio/11/11_7.ogg,,0,7,7,7,,,,,0,6,6,6,,,,,,,,,,,,,,,,,,,,,,,,,,,,,,,,,,,,,,,,,,,,,,,,,,,,,,,,,,,,,,,,,1,1.5367845850000776,2114.87093799,None,2114.87093799,None,2114.87093799,None,,,,,,,,,,,,,,,,,,,,,,,,,,,,,,,,,,,,,,,,,,,,,,,,,,,101719_p1,001,2019_Oct_17_1158,body_behavioural,3.2.2,60.15229502422574,
7,parcelated_audio/11/11_8.ogg,,0,7,7,7,,,,,0,7,7,7,,,,,,,,,,,,,,,,,,,,,,,,,,,,,,,,,,,,,,,,,,,,,,,,,,,,,,,,,,,,,,,,,1,0.7168635459997859,2122.2373228999995,None,2122.2373228999995,None,2122.2373228999995,None,,,,,,,,,,,,,,,,,,,,,,,,,,,,,,,,,,,,,,,,,,,,,,,,,,,101719_p1,001,2019_Oct_17_1158,body_behavioural,3.2.2,60.15229502422574,
7,parcelated_audio/11/11_9.ogg,,0,7,7,7,,,,,0,8,8,8,,,,,,,,,,,,,,,,,,,,,,,,,,,,,,,,,,,,,,,,,,,,,,,,,,,,,,,,,,,,,,,,,1,0.4352902030000223,2127.30627575,None,2127.30627575,None,2127.30627575,None,,,,,,,,,,,,,,,,,,,,,,,,,,,,,,,,,,,,,,,,,,,,,,,,,,,101719_p1,001,2019_Oct_17_1158,body_behavioural,3.2.2,60.15229502422574,
7,parcelated_audio/11/11_10.ogg,,0,7,7,7,,,,,0,9,9,9,,,,,,,,,,,,,,,,,,,,,,,,,,,,,,,,,,,,,,,,,,,,,,,,,,,,,,,,,,,,,,,,,9,0.5124595920001411,2132.4223621559995,None,2132.4223621559995,None,2132.4223621559995,None,,,,,,,,,,,,,,,,,,,,,,,,,,,,,,,,,,,,,,,,,,,,,,,,,,,101719_p1,001,2019_Oct_17_1158,body_behavioural,3.2.2,60.15229502422574,
7,parcelated_audio/11/11_11.ogg,,0,7,7,7,,,,,0,10,10,10,,,,,,,,,,,,,,,,,,,,,,,,,,,,,,,,,,,,,,,,,,,,,,,,,,,,,,,,,,,,,,,,,1,0.44274407000011706,2136.1736156770003,None,2136.1736156770003,None,2136.1736156770003,None,,,,,,,,,,,,,,,,,,,,,,,,,,,,,,,,,,,,,,,,,,,,,,,,,,,101719_p1,001,2019_Oct_17_1158,body_behavioural,3.2.2,60.15229502422574,
7,parcelated_audio/11/11_12.ogg,,0,7,7,7,,,,,0,11,11,11,,,,,,,,,,,,,,,,,,,,,,,,,,,,,,,,,,,,,,,,,,,,,,,,,,,,,,,,,,,,,,,,,1,0.3332613749998927,2139.523205247,None,2139.523205247,None,2139.523205247,None,,,,,,,,,,,,,,,,,,,,,,,,,,,,,,,,,,,,,,,,,,,,,,,,,,,101719_p1,001,2019_Oct_17_1158,body_behavioural,3.2.2,60.15229502422574,
7,parcelated_audio/11/11_13.ogg,,0,7,7,7,,,,,0,12,12,12,,,,,,,,,,,,,,,,,,,,,,,,,,,,,,,,,,,,,,,,,,,,,,,,,,,,,,,,,,,,,,,,,1,0.3834568990000662,2143.2570334370002,None,2143.2570334370002,None,2143.2570334370002,None,,,,,,,,,,,,,,,,,,,,,,,,,,,,,,,,,,,,,,,,,,,,,,,,,,,101719_p1,001,2019_Oct_17_1158,body_behavioural,3.2.2,60.15229502422574,
7,parcelated_audio/11/11_14.ogg,,0,7,7,7,,,,,0,13,13,13,,,,,,,,,,,,,,,,,,,,,,,,,,,,,,,,,,,,,,,,,,,,,,,,,,,,,,,,,,,,,,,,,1,0.6804369629999201,2146.407960654,None,2146.407960654,None,2146.407960654,None,,,,,,,,,,,,,,,,,,,,,,,,,,,,,,,,,,,,,,,,,,,,,,,,,,,101719_p1,001,2019_Oct_17_1158,body_behavioural,3.2.2,60.15229502422574,
7,parcelated_audio/11/11_15.ogg,,0,7,7,7,,,,,0,14,14,14,,,,,,,,,,,,,,,,,,,,,,,,,,,,,,,,,,,,,,,,,,,,,,,,,,,,,,,,,,,,,,,,,1,0.8128557630002433,2158.344024831,None,2158.344024831,None,2158.344024831,None,,,,,,,,,,,,,,,,,,,,,,,,,,,,,,,,,,,,,,,,,,,,,,,,,,,101719_p1,001,2019_Oct_17_1158,body_behavioural,3.2.2,60.15229502422574,
7,parcelated_audio/11/11_16.ogg,,0,7,7,7,,,,,0,15,15,15,,,,,,,,,,,,,,,,,,,,,,,,,,,,,,,,,,,,,,,,,,,,,,,,,,,,,,,,,,,,,,,,,1,0.7281672029998845,2162.2278571669995,None,2162.2278571669995,None,2162.2278571669995,None,,,,,,,,,,,,,,,,,,,,,,,,,,,,,,,,,,,,,,,,,,,,,,,,,,,101719_p1,001,2019_Oct_17_1158,body_behavioural,3.2.2,60.15229502422574,
7,parcelated_audio/11/11_17.ogg,,0,7,7,7,,,,,0,16,16,16,,,,,,,,,,,,,,,,,,,,,,,,,,,,,,,,,,,,,,,,,,,,,,,,,,,,,,,,,,,,,,,,,1,0.26807753799994316,2170.012405114,None,2170.012405114,None,2170.012405114,None,,,,,,,,,,,,,,,,,,,,,,,,,,,,,,,,,,,,,,,,,,,,,,,,,,,101719_p1,001,2019_Oct_17_1158,body_behavioural,3.2.2,60.15229502422574,
7,parcelated_audio/11/11_18.ogg,,0,7,7,7,,,,,0,17,17,17,,,,,,,,,,,,,,,,,,,,,,,,,,,,,,,,,,,,,,,,,,,,,,,,,,,,,,,,,,,,,,,,,1,0.3236249780002254,2177.832134737,None,2177.832134737,None,2177.832134737,None,,,,,,,,,,,,,,,,,,,,,,,,,,,,,,,,,,,,,,,,,,,,,,,,,,,101719_p1,001,2019_Oct_17_1158,body_behavioural,3.2.2,60.15229502422574,
7,parcelated_audio/11/11_19.ogg,,0,7,7,7,,,,,0,18,18,18,,,,,,,,,,,,,,,,,,,,,,,,,,,,,,,,,,,,,,,,,,,,,,,,,,,,,,,,,,,,,,,,,1,0.5219679529996029,2182.7970403070003,None,2182.7970403070003,None,2182.7970403070003,None,,,,,,,,,,,,,,,,,,,,,,,,,,,,,,,,,,,,,,,,,,,,,,,,,,,101719_p1,001,2019_Oct_17_1158,body_behavioural,3.2.2,60.15229502422574,
7,parcelated_audio/11/11_20.ogg,,0,7,7,7,,,,,0,19,19,19,,,,,,,,,,,,,,,,,,,,,,,,,,,,,,,,,,,,,,,,,,,,,,,,,,,,,,,,,,,,,,,,,1,0.7090094529999078,2188.3320797959996,None,2188.3320797959996,None,2188.3320797959996,None,,,,,,,,,,,,,,,,,,,,,,,,,,,,,,,,,,,,,,,,,,,,,,,,,,,101719_p1,001,2019_Oct_17_1158,body_behavioural,3.2.2,60.15229502422574,
7,parcelated_audio/11/11_21.ogg,,0,7,7,7,,,,,0,20,20,20,,,,,,,,,,,,,,,,,,,,,,,,,,,,,,,,,,,,,,,,,,,,,,,,,,,,,,,,,,,,,,,,,1,2.5638230949998615,2197.8838481049997,None,2197.8838481049997,None,2197.8838481049997,None,,,,,,,,,,,,,,,,,,,,,,,,,,,,,,,,,,,,,,,,,,,,,,,,,,,101719_p1,001,2019_Oct_17_1158,body_behavioural,3.2.2,60.15229502422574,
7,parcelated_audio/11/11_22.ogg,,0,7,7,7,,,,,0,21,21,21,,,,,,,,,,,,,,,,,,,,,,,,,,,,,,,,,,,,,,,,,,,,,,,,,,,,,,,,,,,,,,,,,1,0.3417304330000661,2203.834027529,None,2203.834027529,None,2203.834027529,None,,,,,,,,,,,,,,,,,,,,,,,,,,,,,,,,,,,,,,,,,,,,,,,,,,,101719_p1,001,2019_Oct_17_1158,body_behavioural,3.2.2,60.15229502422574,
7,parcelated_audio/11/11_23.ogg,,0,7,7,7,,,,,0,22,22,22,,,,,,,,,,,,,,,,,,,,,,,,,,,,,,,,,,,,,,,,,,,,,,,,,,,,,,,,,,,,,,,,,1,0.4083788990001267,2209.0184833739995,None,2209.0184833739995,None,2209.0184833739995,None,,,,,,,,,,,,,,,,,,,,,,,,,,,,,,,,,,,,,,,,,,,,,,,,,,,101719_p1,001,2019_Oct_17_1158,body_behavioural,3.2.2,60.15229502422574,
7,parcelated_audio/11/11_24.ogg,,0,7,7,7,,,,,0,23,23,23,,,,,,,,,,,,,,,,,,,,,,,,,,,,,,,,,,,,,,,,,,,,,,,,,,,,,,,,,,,,,,,,,1,3.049154413999986,2213.1529455150003,None,2213.1529455150003,None,2213.1529455150003,None,,,,,,,,,,,,,,,,,,,,,,,,,,,,,,,,,,,,,,,,,,,,,,,,,,,101719_p1,001,2019_Oct_17_1158,body_behavioural,3.2.2,60.15229502422574,
7,parcelated_audio/11/11_25.ogg,,0,7,7,7,,,,,0,24,24,24,,,,,,,,,,,,,,,,,,,,,,,,,,,,,,,,,,,,,,,,,,,,,,,,,,,,,,,,,,,,,,,,,9,0.3532615489998534,2221.02096034,None,2221.02096034,None,2221.02096034,None,,,,,,,,,,,,,,,,,,,,,,,,,,,,,,,,,,,,,,,,,,,,,,,,,,,101719_p1,001,2019_Oct_17_1158,body_behavioural,3.2.2,60.15229502422574,
7,parcelated_audio/11/11_26.ogg,,0,7,7,7,,,,,0,25,25,25,,,,,,,,,,,,,,,,,,,,,,,,,,,,,,,,,,,,,,,,,,,,,,,,,,,,,,,,,,,,,,,,,1,0.24819596699990143,2226.4385888549996,None,2226.4385888549996,None,2226.4385888549996,None,,,,,,,,,,,,,,,,,,,,,,,,,,,,,,,,,,,,,,,,,,,,,,,,,,,101719_p1,001,2019_Oct_17_1158,body_behavioural,3.2.2,60.15229502422574,
7,parcelated_audio/11/11_27.ogg,,0,7,7,7,,,,,0,26,26,26,,,,,,,,,,,,,,,,,,,,,,,,,,,,,,,,,,,,,,,,,,,,,,,,,,,,,,,,,,,,,,,,,1,0.3062328380001418,2230.7391055489998,None,2230.7391055489998,None,2230.7391055489998,None,,,,,,,,,,,,,,,,,,,,,,,,,,,,,,,,,,,,,,,,,,,,,,,,,,,101719_p1,001,2019_Oct_17_1158,body_behavioural,3.2.2,60.15229502422574,
7,parcelated_audio/11/11_28.ogg,,0,7,7,7,,,,,0,27,27,27,,,,,,,,,,,,,,,,,,,,,,,,,,,,,,,,,,,,,,,,,,,,,,,,,,,,,,,,,,,,,,,,,1,0.3745762910002668,2234.555783709,None,2234.555783709,None,2234.555783709,None,,,,,,,,,,,,,,,,,,,,,,,,,,,,,,,,,,,,,,,,,,,,,,,,,,,101719_p1,001,2019_Oct_17_1158,body_behavioural,3.2.2,60.15229502422574,
7,parcelated_audio/11/11_29.ogg,,0,7,7,7,,,,,0,28,28,28,,,,,,,,,,,,,,,,,,,,,,,,,,,,,,,,,,,,,,,,,,,,,,,,,,,,,,,,,,,,,,,,,1,0.42866944800016427,2239.2070650099995,None,2239.2070650099995,None,2239.2070650099995,None,,,,,,,,,,,,,,,,,,,,,,,,,,,,,,,,,,,,,,,,,,,,,,,,,,,101719_p1,001,2019_Oct_17_1158,body_behavioural,3.2.2,60.15229502422574,
7,parcelated_audio/11/11_30.ogg,,0,7,7,7,,,,,0,29,29,29,,,,,,,,,,,,,,,,,,,,,,,,,,,,,,,,,,,,,,,,,,,,,,,,,,,,,,,,,,,,,,,,,1,0.944766866000009,2244.225971424,None,2244.225971424,None,2244.225971424,None,,,,,,,,,,,,,,,,,,,,,,,,,,,,,,,,,,,,,,,,,,,,,,,,,,,101719_p1,001,2019_Oct_17_1158,body_behavioural,3.2.2,60.15229502422574,
7,parcelated_audio/11/11_31.ogg,,0,7,7,7,,,,,0,30,30,30,,,,,,,,,,,,,,,,,,,,,,,,,,,,,,,,,,,,,,,,,,,,,,,,,,,,,,,,,,,,,,,,,1,0.6725089560000015,2250.0933255359996,None,2250.0933255359996,None,2250.0933255359996,None,,,,,,,,,,,,,,,,,,,,,,,,,,,,,,,,,,,,,,,,,,,,,,,,,,,101719_p1,001,2019_Oct_17_1158,body_behavioural,3.2.2,60.15229502422574,
7,parcelated_audio/11/11_32.ogg,,0,7,7,7,,,,,0,31,31,31,,,,,,,,,,,,,,,,,,,,,,,,,,,,,,,,,,,,,,,,,,,,,,,,,,,,,,,,,,,,,,,,,1,0.3429009019996556,2254.910951471,None,2254.910951471,None,2254.910951471,None,,,,,,,,,,,,,,,,,,,,,,,,,,,,,,,,,,,,,,,,,,,,,,,,,,,101719_p1,001,2019_Oct_17_1158,body_behavioural,3.2.2,60.15229502422574,
7,parcelated_audio/11/11_33.ogg,,0,7,7,7,,,,,0,32,32,32,,,,,,,,,,,,,,,,,,,,,,,,,,,,,,,,,,,,,,,,,,,,,,,,,,,,,,,,,,,,,,,,,1,0.3218265190002967,2257.860030363,None,2257.860030363,None,2257.860030363,None,,,,,,,,,,,,,,,,,,,,,,,,,,,,,,,,,,,,,,,,,,,,,,,,,,,101719_p1,001,2019_Oct_17_1158,body_behavioural,3.2.2,60.15229502422574,
7,parcelated_audio/11/11_34.ogg,,0,7,7,7,,,,,0,33,33,33,,,,,,,,,,,,,,,,,,,,,,,,,,,,,,,,,,,,,,,,,,,,,,,,,,,,,,,,,,,,,,,,,1,0.2992070590003095,2261.5945364869995,None,2261.5945364869995,None,2261.5945364869995,None,,,,,,,,,,,,,,,,,,,,,,,,,,,,,,,,,,,,,,,,,,,,,,,,,,,101719_p1,001,2019_Oct_17_1158,body_behavioural,3.2.2,60.15229502422574,
7,parcelated_audio/11/11_35.ogg,,0,7,7,7,,,,,0,34,34,34,,,,,,,,,,,,,,,,,,,,,,,,,,,,,,,,,,,,,,,,,,,,,,,,,,,,,,,,,,,,,,,,,1,0.5263098049999826,2266.3453659079996,None,2266.3453659079996,None,2266.3453659079996,None,,,,,,,,,,,,,,,,,,,,,,,,,,,,,,,,,,,,,,,,,,,,,,,,,,,101719_p1,001,2019_Oct_17_1158,body_behavioural,3.2.2,60.15229502422574,
7,parcelated_audio/11/11_36.ogg,,0,7,7,7,,,,,0,35,35,35,,,,,,,,,,,,,,,,,,,,,,,,,,,,,,,,,,,,,,,,,,,,,,,,,,,,,,,,,,,,,,,,,9,1.7801913959997364,2275.979792555,None,2275.979792555,None,2275.979792555,None,,,,,,,,,,,,,,,,,,,,,,,,,,,,,,,,,,,,,,,,,,,,,,,,,,,101719_p1,001,2019_Oct_17_1158,body_behavioural,3.2.2,60.15229502422574,
7,parcelated_audio/11/11_37.ogg,,0,7,7,7,,,,,0,36,36,36,,,,,,,,,,,,,,,,,,,,,,,,,,,,,,,,,,,,,,,,,,,,,,,,,,,,,,,,,,,,,,,,,1,0.3105391240001154,2282.0145626989997,None,2282.0145626989997,None,2282.0145626989997,None,,,,,,,,,,,,,,,,,,,,,,,,,,,,,,,,,,,,,,,,,,,,,,,,,,,101719_p1,001,2019_Oct_17_1158,body_behavioural,3.2.2,60.15229502422574,
7,parcelated_audio/11/11_38.ogg,,0,7,7,7,,,,,0,37,37,37,,,,,,,,,,,,,,,,,,,,,,,,,,,,,,,,,,,,,,,,,,,,,,,,,,,,,,,,,,,,,,,,,1,0.33525850899968646,2288.5656079689998,None,2288.5656079689998,None,2288.5656079689998,None,,,,,,,,,,,,,,,,,,,,,,,,,,,,,,,,,,,,,,,,,,,,,,,,,,,101719_p1,001,2019_Oct_17_1158,body_behavioural,3.2.2,60.15229502422574,
7,parcelated_audio/11/11_39.ogg,,0,7,7,7,,,,,0,38,38,38,,,,,,,,,,,,,,,,,,,,,,,,,,,,,,,,,,,,,,,,,,,,,,,,,,,,,,,,,,,,,,,,,1,0.43764390500018635,2294.182821888,None,2294.182821888,None,2294.182821888,None,,,,,,,,,,,,,,,,,,,,,,,,,,,,,,,,,,,,,,,,,,,,,,,,,,,101719_p1,001,2019_Oct_17_1158,body_behavioural,3.2.2,60.15229502422574,
7,parcelated_audio/11/11_40.ogg,,0,7,7,7,,,,,0,39,39,39,,,,,,,,,,,,,,,,,,,,,,,,,,,,,,,,,,,,,,,,,,,,,,,,,,,,,,,,,,,,,,,,,1,0.3353962579999461,2300.367699394,None,2300.367699394,None,2300.367699394,None,,,,,,,,,,,,,,,,,,,,,,,,,,,,,,,,,,,,,,,,,,,,,,,,,,,101719_p1,001,2019_Oct_17_1158,body_behavioural,3.2.2,60.15229502422574,
7,parcelated_audio/11/11_41.ogg,,0,7,7,7,,,,,0,40,40,40,,,,,,,,,,,,,,,,,,,,,,,,,,,,,,,,,,,,,,,,,,,,,,,,,,,,,,,,,,,,,,,,,1,0.3202868319999652,2306.9351154059996,None,2306.9351154059996,None,2306.9351154059996,None,,,,,,,,,,,,,,,,,,,,,,,,,,,,,,,,,,,,,,,,,,,,,,,,,,,101719_p1,001,2019_Oct_17_1158,body_behavioural,3.2.2,60.15229502422574,
7,,,0,7,7,7,,,,,,,,,,,,,,,,,,,,,,,,,,,,,,,,,,,,,,,,,,,,,,,,,,,,,,,,,,,,,,,,,,,,,,,,,,,,,,,,,2307.301799383,None,2307.301799383,None,space,0.9615523769998617,2307.301799383,None,,,,,,,,,,,,,,,,,,,,,,,,,,,,,,,,,,,,,,,,,,,101719_p1,001,2019_Oct_17_1158,body_behavioural,3.2.2,60.15229502422574,
,,,,,,,,,,,,,,,,,,,,,,,,,,,,,,,,,,,,,,,,,,,,,,,,,,,,,,,,,,,,,,,,,,,,,,,,,,,,,,,,,,,,,,,,,,,,,,,2273.835646785,2308.2848074369995,None,space,0.5465263460000642,2308.2848074369995,None,,,,,,,,,,,,,,,,,,,,,,,,,,,,,,,,,,,,101719_p1,001,2019_Oct_17_1158,body_behavioural,3.2.2,60.15229502422574,
