,count,storyText,locationEvent,socialEvent,locationEventSize,socialEventSize,instructText,trials.thisRepN,trials.thisTrialN,trials.thisN,trials.thisIndex,trials_7.thisRepN,trials_7.thisTrialN,trials_7.thisN,trials_7.thisIndex,trials_2.thisRepN,trials_2.thisTrialN,trials_2.thisN,trials_2.thisIndex,trials_3.thisRepN,trials_3.thisTrialN,trials_3.thisN,trials_3.thisIndex,trials_4.thisRepN,trials_4.thisTrialN,trials_4.thisN,trials_4.thisIndex,trials_5.thisRepN,trials_5.thisTrialN,trials_5.thisN,trials_5.thisIndex,trials_6.thisRepN,trials_6.thisTrialN,trials_6.thisN,trials_6.thisIndex,trials_8.thisRepN,trials_8.thisTrialN,trials_8.thisN,trials_8.thisIndex,order of stories,order of perspectives,key_resp_8.keys,key_resp_8.rt,key_resp_5.keys,key_resp_5.rt,key_resp_7.keys,key_resp_7.rt,story_presses.keys,story_presses.rt,story time,key_resp_6.keys,key_resp_6.rt,key_resp_2.keys,key_resp_2.rt,key_resp_10.keys,key_resp_10.rt,recall,recall time,key_resp_12.keys,key_resp_12.rt,key_resp_3.keys,key_resp_3.rt,key_resp_11.keys,key_resp_11.rt,question1_answer,order of question,question2_answer,question3_answer,question4_answer,question5_answer,question6_answer,question7_answer,question8_answer,questions time,key_resp_13.keys,key_resp_13.rt,participant,session,date,expName,psychopyVersion,frameRate,Unnamed: 82,count,storyText,locationEvent,socialEvent,locationEventSize,socialEventSize,instructText,trials.thisRepN,trials.thisTrialN,trials.thisN,trials.thisIndex,trials_7.thisRepN,trials_7.thisTrialN,trials_7.thisN,trials_7.thisIndex,trials_2.thisRepN,trials_2.thisTrialN,trials_2.thisN,trials_2.thisIndex,trials_3.thisRepN,trials_3.thisTrialN,trials_3.thisN,trials_3.thisIndex,trials_4.thisRepN,trials_4.thisTrialN,trials_4.thisN,trials_4.thisIndex,trials_5.thisRepN,trials_5.thisTrialN,trials_5.thisN,trials_5.thisIndex,trials_6.thisRepN,trials_6.thisTrialN,trials_6.thisN,trials_6.thisIndex,trials_8.thisRepN,trials_8.thisTrialN,trials_8.thisN,trials_8.thisIndex,order of stories,order of perspectives,key_resp_8.keys,key_resp_8.rt,key_resp_5.keys,key_resp_5.rt,key_resp_7.keys,key_resp_7.rt,story_presses.keys,story_presses.rt,story time,key_resp_6.keys,key_resp_6.rt,key_resp_2.keys,key_resp_2.rt,key_resp_10.keys,key_resp_10.rt,recall,recall time,key_resp_12.keys,key_resp_12.rt,key_resp_3.keys,key_resp_3.rt,key_resp_11.keys,key_resp_11.rt,question1_answer,order of question,question2_answer,question3_answer,question4_answer,question5_answer,question6_answer,question7_answer,question8_answer,questions time,key_resp_13.keys,key_resp_13.rt,participant,session,date,expName,psychopyVersion,frameRate,Unnamed: 82
0,0.0,,,,,,,0.0,0.0,0.0,0.0,0.0,0.0,0.0,0.0,,,,,,,,,,,,,,,,,,,,,,,,,[24 43 11 32 34 13 22 41],"['Social' 'Social' 'Social' 'Social' 'Location' 'Location' 'Location'
 'Location']",space,6.6182751349988385,space,1.403429728001356,space,2.5195569780044025,,,,,,,,,,,,,,,,,,,,,,,,,,,,,,030519_p3,1,2019_Mar_05_1619,body_behavioural,3.0.4,60.05180681032672,,0.0,,,,,,,0.0,0.0,0.0,0.0,0.0,0.0,0.0,0.0,,,,,,,,,,,,,,,,,,,,,,,,,[21 34 12 44 43 11 33 22],"['Location' 'Location' 'Location' 'Social' 'Location' 'Social' 'Social'
 'Social']",space,4.772385093005141,space,2.3846531200106256,space,2.787027419981314,,,,,,,,,,,,,,,,,,,,,,,,,,,,,,030819_p1,1.0,2019_Mar_08_1213,body_behavioural,3.0.4,59.84914662825267,
1,0.0,"Lana walked into lecture holding hands with her boyfriend, Aaron, who was trying to contain his excitement and anticipation for proposing to Lana in this class. ",1.0,1.0,,,,0.0,0.0,0.0,0.0,,,,,0.0,0.0,0.0,0.0,,,,,,,,,,,,,,,,,,,,,,,,,,,,,9.0,12.387683306995315,,,,,,,,,,,,,,,,,,,,,,,,,,,,030519_p3,1,2019_Mar_05_1619,body_behavioural,3.0.4,60.05180681032672,,0.0,"Alvira and Senna walked into the restaurant hand in sweaty hand with quite different expectations: Senna was going to propose tonight, and Alvira had no idea.",1.0,1.0,None,None,,0.0,0.0,0.0,0.0,,,,,0.0,0.0,0.0,0.0,,,,,,,,,,,,,,,,,,,,,,,,,,,,,9.0,17.294373973010806,,,,,,,,,,,,,,,,,,,,,,,,,,,,030819_p1,1.0,2019_Mar_08_1213,body_behavioural,3.0.4,59.84914662825267,
2,0.0,"Lana was lost in thought, still puzzling over a calculus problem on her problem set due that night.",1.0,1.0,,,,0.0,0.0,0.0,0.0,,,,,0.0,1.0,1.0,1.0,,,,,,,,,,,,,,,,,,,,,,,,,,,,,1.0,16.203589598007966,,,,,,,,,,,,,,,,,,,,,,,,,,,,030519_p3,1,2019_Mar_05_1619,body_behavioural,3.0.4,60.05180681032672,,0.0,"He took a deep breath, trying to calm his nerves as worst case scenarios ran through his mind. ",1.0,1.0,None,None,,0.0,0.0,0.0,0.0,,,,,0.0,1.0,1.0,1.0,,,,,,,,,,,,,,,,,,,,,,,,,,,,,1.0,6.787052730011054,,,,,,,,,,,,,,,,,,,,,,,,,,,,030819_p1,1.0,2019_Mar_08_1213,body_behavioural,3.0.4,59.84914662825267,
3,0.0,"The lecture hall was the fanciest one at Princeton, with chandeliers, high ceilings, wood floors and double-decker chalkboards.",1.0,1.0,,,,0.0,0.0,0.0,0.0,,,,,0.0,2.0,2.0,2.0,,,,,,,,,,,,,,,,,,,,,,,,,,,,,1.0,3.1530125649878755,,,,,,,,,,,,,,,,,,,,,,,,,,,,030519_p3,1,2019_Mar_05_1619,body_behavioural,3.0.4,60.05180681032672,,0.0,The entrance of the restaurant was dazzling; chandeliers spread their warm light onto the delicate place settings of all the tables filled with guests dressed to the nines. ,1.0,1.0,None,None,,0.0,0.0,0.0,0.0,,,,,0.0,2.0,2.0,2.0,,,,,,,,,,,,,,,,,,,,,,,,,,,,,1.0,14.754674860014347,,,,,,,,,,,,,,,,,,,,,,,,,,,,030819_p1,1.0,2019_Mar_08_1213,body_behavioural,3.0.4,59.84914662825267,
4,0.0,"This is where Aaron and Lana had met two years ago during an economics class, and now they were back together in the same lecture hall for their Chemistry class. ",1.0,1.0,,,,0.0,0.0,0.0,0.0,,,,,0.0,3.0,3.0,3.0,,,,,,,,,,,,,,,,,,,,,,,,,,,,,1.0,12.501436856997314,,,,,,,,,,,,,,,,,,,,,,,,,,,,030519_p3,1,2019_Mar_05_1619,body_behavioural,3.0.4,60.05180681032672,,0.0,"Through the floor-to-ceiling arched windows of the back wall, they saw the sun setting onto the Pacific ocean.",1.0,1.0,None,None,,0.0,0.0,0.0,0.0,,,,,0.0,3.0,3.0,3.0,,,,,,,,,,,,,,,,,,,,,,,,,,,,,1.0,7.303545486996883,,,,,,,,,,,,,,,,,,,,,,,,,,,,030819_p1,1.0,2019_Mar_08_1213,body_behavioural,3.0.4,59.84914662825267,
5,0.0,The professor caught Aaron's eye as he walked up to the front of the classroom and gave him a wink before the lecture began. ,1.0,1.0,,,,0.0,0.0,0.0,0.0,,,,,0.0,4.0,4.0,4.0,,,,,,,,,,,,,,,,,,,,,,,,,,,,,1.0,14.521056027995654,,,,,,,,,,,,,,,,,,,,,,,,,,,,030519_p3,1,2019_Mar_05_1619,body_behavioural,3.0.4,60.05180681032672,,0.0,"This was surely one of the best restaurants on the west coast, situated right on the beach.",1.0,1.0,None,None,,0.0,0.0,0.0,0.0,,,,,0.0,4.0,4.0,4.0,,,,,,,,,,,,,,,,,,,,,,,,,,,,,1.0,4.253910828003427,,,,,,,,,,,,,,,,,,,,,,,,,,,,030819_p1,1.0,2019_Mar_08_1213,body_behavioural,3.0.4,59.84914662825267,
6,0.0,Aaron responded with a huge grin. ,1.0,1.0,,,,0.0,0.0,0.0,0.0,,,,,0.0,5.0,5.0,5.0,,,,,,,,,,,,,,,,,,,,,,,,,,,,,1.0,2.7871165149990698,,,,,,,,,,,,,,,,,,,,,,,,,,,,030519_p3,1,2019_Mar_05_1619,body_behavioural,3.0.4,60.05180681032672,,0.0,"Senna gave his name to the host, who quickly located their reservation with an almost comically wide customer-service smile.",1.0,1.0,7.0,None,,0.0,0.0,0.0,0.0,,,,,0.0,5.0,5.0,5.0,,,,,,,,,,,,,,,,,,,,,,,,,,,,,1.0,11.06757273999392,,,,,,,,,,,,,,,,,,,,,,,,,,,,030819_p1,1.0,2019_Mar_08_1213,body_behavioural,3.0.4,59.84914662825267,
7,0.0,"The professor cleared his throat and said,“Alright, good afternoon, everyone!",2.0,1.0,,,,0.0,0.0,0.0,0.0,,,,,0.0,6.0,6.0,6.0,,,,,,,,,,,,,,,,,,,,,,,,,,,,,1.0,1.7846350649924716,,,,,,,,,,,,,,,,,,,,,,,,,,,,030519_p3,1,2019_Mar_05_1619,body_behavioural,3.0.4,60.05180681032672,,0.0,He led them to a table right by the window.,2.0,1.0,None,None,,0.0,0.0,0.0,0.0,,,,,0.0,6.0,6.0,6.0,,,,,,,,,,,,,,,,,,,,,,,,,,,,,1.0,2.1839656450029,,,,,,,,,,,,,,,,,,,,,,,,,,,,030819_p1,1.0,2019_Mar_08_1213,body_behavioural,3.0.4,59.84914662825267,
8,0.0,"Last week we talked about the structure of the periodic table, and this week the topic is ions.",2.0,1.0,,,,0.0,0.0,0.0,0.0,,,,,0.0,7.0,7.0,7.0,,,,,,,,,,,,,,,,,,,,,,,,,,,,,1.0,2.5367155199928675,,,,,,,,,,,,,,,,,,,,,,,,,,,,030519_p3,1,2019_Mar_05_1619,body_behavioural,3.0.4,60.05180681032672,,0.0,"He brought out some very small menus, with a short list of the celebrity chef's carefully selected daily dishes written in a loopy, cursive font unadorned by any mention of prices.",2.0,1.0,None,9.0,,0.0,0.0,0.0,0.0,,,,,0.0,7.0,7.0,7.0,,,,,,,,,,,,,,,,,,,,,,,,,,,,,1.0,11.121216987987282,,,,,,,,,,,,,,,,,,,,,,,,,,,,030819_p1,1.0,2019_Mar_08_1213,body_behavioural,3.0.4,59.84914662825267,
9,0.0,These are atoms or molecules in which the number of electrons does not equal the number of protons.,2.0,1.0,,,,0.0,0.0,0.0,0.0,,,,,0.0,8.0,8.0,8.0,,,,,,,,,,,,,,,,,,,,,,,,,,,,,1.0,1.4528621750068849,,,,,,,,,,,,,,,,,,,,,,,,,,,,030519_p3,1,2019_Mar_05_1619,body_behavioural,3.0.4,60.05180681032672,,0.0,Senna slipped off to the bathroom to check to make sure the ring was in order.,2.0,2.0,None,None,,0.0,0.0,0.0,0.0,,,,,0.0,8.0,8.0,8.0,,,,,,,,,,,,,,,,,,,,,,,,,,,,,1.0,4.636487200012198,,,,,,,,,,,,,,,,,,,,,,,,,,,,030819_p1,1.0,2019_Mar_08_1213,body_behavioural,3.0.4,59.84914662825267,
10,0.0,"Now, let me get my computer set up, one moment, class.”",2.0,1.0,,,,0.0,0.0,0.0,0.0,,,,,0.0,9.0,9.0,9.0,,,,,,,,,,,,,,,,,,,,,,,,,,,,,1.0,2.6860509899997855,,,,,,,,,,,,,,,,,,,,,,,,,,,,030519_p3,1,2019_Mar_05_1619,body_behavioural,3.0.4,60.05180681032672,,0.0,"The ring contained a canary diamond that had been in his grandmother’s wedding ring, and it was a brilliant stone that was accentuated by the small white diamonds encircling it.",2.0,2.0,None,None,,0.0,0.0,0.0,0.0,,,,,0.0,9.0,9.0,9.0,,,,,,,,,,,,,,,,,,,,,,,,,,,,,1.0,8.220921575004468,,,,,,,,,,,,,,,,,,,,,,,,,,,,030819_p1,1.0,2019_Mar_08_1213,body_behavioural,3.0.4,59.84914662825267,
11,0.0,Lana pulled out her Calculus problem set and puzzled over it.,2.0,1.0,,,,0.0,0.0,0.0,0.0,,,,,0.0,10.0,10.0,10.0,,,,,,,,,,,,,,,,,,,,,,,,,,,,,1.0,1.5530861449951772,,,,,,,,,,,,,,,,,,,,,,,,,,,,030519_p3,1,2019_Mar_05_1619,body_behavioural,3.0.4,60.05180681032672,,0.0,"He walked back to the table after handing the small, velvet box to a waiter at the front podium.",2.0,2.0,6.0,None,,0.0,0.0,0.0,0.0,,,,,0.0,10.0,10.0,10.0,,,,,,,,,,,,,,,,,,,,,,,,,,,,,1.0,10.603940849978244,,,,,,,,,,,,,,,,,,,,,,,,,,,,030819_p1,1.0,2019_Mar_08_1213,body_behavioural,3.0.4,59.84914662825267,
12,0.0,"While she was distracted, Aaron unzipped the small pocket in his backpack and pulled out the ring box.",2.0,2.0,,,,0.0,0.0,0.0,0.0,,,,,0.0,11.0,11.0,11.0,,,,,,,,,,,,,,,,,,,,,,,,,,,,,1.0,19.03523860500718,,,,,,,,,,,,,,,,,,,,,,,,,,,,030519_p3,1,2019_Mar_05_1619,body_behavioural,3.0.4,60.05180681032672,,0.0,He came back just as their waiter was approaching the table to get their order.,3.0,2.0,None,None,,0.0,0.0,0.0,0.0,,,,,0.0,11.0,11.0,11.0,,,,,,,,,,,,,,,,,,,,,,,,,,,,,1.0,2.4033125099958847,,,,,,,,,,,,,,,,,,,,,,,,,,,,030819_p1,1.0,2019_Mar_08_1213,body_behavioural,3.0.4,59.84914662825267,
13,0.0,He opened it up and looked at the ring.,2.0,2.0,,,,0.0,0.0,0.0,0.0,,,,,0.0,12.0,12.0,12.0,,,,,,,,,,,,,,,,,,,,,,,,,,,,,9.0,4.5032886830013,,,,,,,,,,,,,,,,,,,,,,,,,,,,030519_p3,1,2019_Mar_05_1619,body_behavioural,3.0.4,60.05180681032672,,0.0,"Senna ordered the oysters with garlic-parmesan sauce, and Alvira ordered the sauteed sea scallops with caramelized apples. ",3.0,2.0,None,None,,0.0,0.0,0.0,0.0,,,,,0.0,12.0,12.0,12.0,,,,,,,,,,,,,,,,,,,,,,,,,,,,,1.0,8.186150143010309,,,,,,,,,,,,,,,,,,,,,,,,,,,,030819_p1,1.0,2019_Mar_08_1213,body_behavioural,3.0.4,59.84914662825267,
14,0.0,"Instead of one large diamond, there were 5 diamonds embedded in a thick band. ",2.0,2.0,,,,0.0,0.0,0.0,0.0,,,,,0.0,13.0,13.0,13.0,,,,,,,,,,,,,,,,,,,,,,,,,,,,,1.0,3.4699288099945984,,,,,,,,,,,,,,,,,,,,,,,,,,,,030519_p3,1,2019_Mar_05_1619,body_behavioural,3.0.4,60.05180681032672,,0.0,"“Excellent choices,” the waiter said with a subsequent brisk spin away from the table.",3.0,2.0,None,None,,0.0,0.0,0.0,0.0,,,,,0.0,13.0,13.0,13.0,,,,,,,,,,,,,,,,,,,,,,,,,,,,,1.0,3.052095355000347,,,,,,,,,,,,,,,,,,,,,,,,,,,,030819_p1,1.0,2019_Mar_08_1213,body_behavioural,3.0.4,59.84914662825267,
15,0.0,He knew Lana would like this because her style was not flashy but more about simple elegance.,2.0,2.0,,,,0.0,0.0,0.0,0.0,,,,,0.0,14.0,14.0,14.0,,,,,,,,,,,,,,,,,,,,,,,,,,,,,1.0,2.1008108500100207,,,,,,,,,,,,,,,,,,,,,,,,,,,,030519_p3,1,2019_Mar_05_1619,body_behavioural,3.0.4,60.05180681032672,,0.0,"“What a beautiful place, Senna. ",3.0,2.0,None,None,,0.0,0.0,0.0,0.0,,,,,0.0,14.0,14.0,14.0,,,,,,,,,,,,,,,,,,,,,,,,,,,,,1.0,4.7037775369826695,,,,,,,,,,,,,,,,,,,,,,,,,,,,030819_p1,1.0,2019_Mar_08_1213,body_behavioural,3.0.4,59.84914662825267,
16,0.0,Aaron put the ring back into the bag as the professor began the lecture. ,3.0,2.0,,,,0.0,0.0,0.0,0.0,,,,,0.0,15.0,15.0,15.0,,,,,,,,,,,,,,,,,,,,,,,,,,,,,9.0,5.519524310002454,,,,,,,,,,,,,,,,,,,,,,,,,,,,030519_p3,1,2019_Mar_05_1619,body_behavioural,3.0.4,60.05180681032672,,0.0,"Really this is too much just to celebrate the first tomatoes I grew in the garden, like, this is absurd,” Alvira said.",3.0,2.0,None,None,,0.0,0.0,0.0,0.0,,,,,0.0,15.0,15.0,15.0,,,,,,,,,,,,,,,,,,,,,,,,,,,,,1.0,9.201075136981672,,,,,,,,,,,,,,,,,,,,,,,,,,,,030819_p1,1.0,2019_Mar_08_1213,body_behavioural,3.0.4,59.84914662825267,
17,0.0,“Recall from previous lectures that the number of protons determines the identity of the element. ,3.0,2.0,,,,0.0,0.0,0.0,0.0,,,,,0.0,16.0,16.0,16.0,,,,,,,,,,,,,,,,,,,,,,,,,,,,,1.0,4.936975133008673,,,,,,,,,,,,,,,,,,,,,,,,,,,,030519_p3,1,2019_Mar_05_1619,body_behavioural,3.0.4,60.05180681032672,,0.0,"Senna laughed and said, “No, those were really the best tomatoes I’ve ever had. ",3.0,2.0,None,None,,0.0,0.0,0.0,0.0,,,,,0.0,16.0,16.0,16.0,,,,,,,,,,,,,,,,,,,,,,,,,,,,,1.0,3.03615575801814,,,,,,,,,,,,,,,,,,,,,,,,,,,,030819_p1,1.0,2019_Mar_08_1213,body_behavioural,3.0.4,59.84914662825267,
18,0.0,"So for example, all atoms of sodium have 11 protons in the nucleus. ",3.0,2.0,,,,0.0,0.0,0.0,0.0,,,,,0.0,17.0,17.0,17.0,,,,,,,,,,,,,,,,,,,,,,,,,,,,,1.0,1.085967584993341,,,,,,,,,,,,,,,,,,,,,,,,,,,,030519_p3,1,2019_Mar_05_1619,body_behavioural,3.0.4,60.05180681032672,,0.0,We had to celebrate.” ,3.0,2.0,None,None,,0.0,0.0,0.0,0.0,,,,,0.0,17.0,17.0,17.0,,,,,,,,,,,,,,,,,,,,,,,,,,,,,1.0,2.6499616669898387,,,,,,,,,,,,,,,,,,,,,,,,,,,,030819_p1,1.0,2019_Mar_08_1213,body_behavioural,3.0.4,59.84914662825267,
19,0.0,"And if you look on the periodic table, the atomic number for sodium, the symbol is Na, is eleven.”",3.0,2.0,,,,0.0,0.0,0.0,0.0,,,,,0.0,18.0,18.0,18.0,,,,,,,,,,,,,,,,,,,,,,,,,,,,,1.0,1.317407739988994,,,,,,,,,,,,,,,,,,,,,,,,,,,,030519_p3,1,2019_Mar_05_1619,body_behavioural,3.0.4,60.05180681032672,,0.0,"They talked and laughed as the sun sank below the horizon, and the glow from the ocean was replaced by the glow from the chandeliers.",3.0,2.0,8.0,None,,0.0,0.0,0.0,0.0,,,,,0.0,18.0,18.0,18.0,,,,,,,,,,,,,,,,,,,,,,,,,,,,,1.0,5.953901900007622,,,,,,,,,,,,,,,,,,,,,,,,,,,,030819_p1,1.0,2019_Mar_08_1213,body_behavioural,3.0.4,59.84914662825267,
20,0.0,Lana was taking notes while Aaron was texting all of his friends in the class to get ready for the proposal. ,3.0,2.0,,,,0.0,0.0,0.0,0.0,,,,,0.0,19.0,19.0,19.0,,,,,,,,,,,,,,,,,,,,,,,,,,,,,9.0,2.952609291998669,,,,,,,,,,,,,,,,,,,,,,,,,,,,030519_p3,1,2019_Mar_05_1619,body_behavioural,3.0.4,60.05180681032672,,0.0,"The waiter eventually returned with their meals, and everything was even more delicious than they had expected, especially the oysters, which Senna said tasted like the ocean. ",4.0,2.0,None,None,,0.0,0.0,0.0,0.0,,,,,0.0,19.0,19.0,19.0,,,,,,,,,,,,,,,,,,,,,,,,,,,,,1.0,6.720189979998394,,,,,,,,,,,,,,,,,,,,,,,,,,,,030819_p1,1.0,2019_Mar_08_1213,body_behavioural,3.0.4,59.84914662825267,
21,0.0,"Right after talking about how two ions bond into one stable molecule by covalent bonds, the professor stopped the lecture and asked Lana to come to the front of the class to do a demonstration. ",3.0,2.0,,,,0.0,0.0,0.0,0.0,,,,,0.0,20.0,20.0,20.0,,,,,,,,,,,,,,,,,,,,,,,,,,,,,9.0,5.236946645003627,,,,,,,,,,,,,,,,,,,,,,,,,,,,030519_p3,1,2019_Mar_05_1619,body_behavioural,3.0.4,60.05180681032672,,0.0,Then he paused and looked at Alvira meaningfully. ,4.0,2.0,None,None,,0.0,0.0,0.0,0.0,,,,,0.0,20.0,20.0,20.0,,,,,,,,,,,,,,,,,,,,,,,,,,,,,1.0,3.3365146319847554,,,,,,,,,,,,,,,,,,,,,,,,,,,,030819_p1,1.0,2019_Mar_08_1213,body_behavioural,3.0.4,59.84914662825267,
22,0.0,"She walked to the front of the class confused, and the professor asked her to stand in the middle of the stage.",3.0,2.0,,,,0.0,0.0,0.0,0.0,,,,,0.0,21.0,21.0,21.0,,,,,,,,,,,,,,,,,,,,,,,,,,,,,1.0,3.0363954200001904,,,,,,,,,,,,,,,,,,,,,,,,,,,,030519_p3,1,2019_Mar_05_1619,body_behavioural,3.0.4,60.05180681032672,,0.0, “It’s really been the best three years of my life with you.,4.0,2.0,None,None,,0.0,0.0,0.0,0.0,,,,,0.0,21.0,21.0,21.0,,,,,,,,,,,,,,,,,,,,,,,,,,,,,1.0,3.750927802000661,,,,,,,,,,,,,,,,,,,,,,,,,,,,030819_p1,1.0,2019_Mar_08_1213,body_behavioural,3.0.4,59.84914662825267,
23,0.0,"Then Aaron walked up and, taking Lana’s hand, got down on one knee. ",3.0,3.0,,,,0.0,0.0,0.0,0.0,,,,,0.0,22.0,22.0,22.0,,,,,,,,,,,,,,,,,,,,,,,,,,,,,9.0,9.236780507999356,,,,,,,,,,,,,,,,,,,,,,,,,,,,030519_p3,1,2019_Mar_05_1619,body_behavioural,3.0.4,60.05180681032672,,0.0,"I couldn’t imagine it any other way, and I don’t want to.",4.0,2.0,None,None,,0.0,0.0,0.0,0.0,,,,,0.0,22.0,22.0,22.0,,,,,,,,,,,,,,,,,,,,,,,,,,,,,1.0,2.4699823099945206,,,,,,,,,,,,,,,,,,,,,,,,,,,,030819_p1,1.0,2019_Mar_08_1213,body_behavioural,3.0.4,59.84914662825267,
24,0.0,"“It's time for us to make a bond of our own, Lana.",3.0,3.0,,,,0.0,0.0,0.0,0.0,,,,,0.0,23.0,23.0,23.0,,,,,,,,,,,,,,,,,,,,,,,,,,,,,1.0,2.6527379879989894,,,,,,,,,,,,,,,,,,,,,,,,,,,,030519_p3,1,2019_Mar_05_1619,body_behavioural,3.0.4,60.05180681032672,,0.0,"I really want to spend the rest of my years eating garden tomatoes, whatever it is, with you.” ",4.0,2.0,None,None,,0.0,0.0,0.0,0.0,,,,,0.0,23.0,23.0,23.0,,,,,,,,,,,,,,,,,,,,,,,,,,,,,1.0,4.053263405017788,,,,,,,,,,,,,,,,,,,,,,,,,,,,030819_p1,1.0,2019_Mar_08_1213,body_behavioural,3.0.4,59.84914662825267,
25,0.0,Will you marry me?” ,3.0,3.0,,,,0.0,0.0,0.0,0.0,,,,,0.0,24.0,24.0,24.0,,,,,,,,,,,,,,,,,,,,,,,,,,,,,1.0,0.9030444800009718,,,,,,,,,,,,,,,,,,,,,,,,,,,,030519_p3,1,2019_Mar_05_1619,body_behavioural,3.0.4,60.05180681032672,,0.0,"Alvira smiled, “I want the same with you too, Senna.” ",4.0,2.0,None,17.0,,0.0,0.0,0.0,0.0,,,,,0.0,24.0,24.0,24.0,,,,,,,,,,,,,,,,,,,,,,,,,,,,,1.0,2.436792559979949,,,,,,,,,,,,,,,,,,,,,,,,,,,,030819_p1,1.0,2019_Mar_08_1213,body_behavioural,3.0.4,59.84914662825267,
26,0.0,Lana gasped and put her other hand to her mouth and started looking around the room as if trying to convince herself that this was really happening.,3.0,3.0,,,,0.0,0.0,0.0,0.0,,,,,0.0,25.0,25.0,25.0,,,,,,,,,,,,,,,,,,,,,,,,,,,,,1.0,2.0523504890006734,,,,,,,,,,,,,,,,,,,,,,,,,,,,030519_p3,1,2019_Mar_05_1619,body_behavioural,3.0.4,60.05180681032672,,0.0,"Senna nodded at the waiter who had been watching attentively, and he quickly strode over to place a small, elegant cake topped with the ring in front of Alvira. ",4.0,3.0,None,None,,0.0,0.0,0.0,0.0,,,,,0.0,25.0,25.0,25.0,,,,,,,,,,,,,,,,,,,,,,,,,,,,,1.0,6.953584281989607,,,,,,,,,,,,,,,,,,,,,,,,,,,,030819_p1,1.0,2019_Mar_08_1213,body_behavioural,3.0.4,59.84914662825267,
27,0.0,For a few moments everyone was in suspense waiting for the Lana’s shock to wear off and for her to answer. ,3.0,3.0,,,,0.0,0.0,0.0,0.0,,,,,0.0,26.0,26.0,26.0,,,,,,,,,,,,,,,,,,,,,,,,,,,,,1.0,1.86826683000254,,,,,,,,,,,,,,,,,,,,,,,,,,,,030519_p3,1,2019_Mar_05_1619,body_behavioural,3.0.4,60.05180681032672,,0.0,Her eyes widened in shock when she realized what she was looking at.,4.0,3.0,None,None,,0.0,0.0,0.0,0.0,,,,,0.0,26.0,26.0,26.0,,,,,,,,,,,,,,,,,,,,,,,,,,,,,1.0,6.186891175020719,,,,,,,,,,,,,,,,,,,,,,,,,,,,030819_p1,1.0,2019_Mar_08_1213,body_behavioural,3.0.4,59.84914662825267,
28,0.0,"Finally, she said, “Yes!”",3.0,4.0,,,,0.0,0.0,0.0,0.0,,,,,0.0,27.0,27.0,27.0,,,,,,,,,,,,,,,,,,,,,,,,,,,,,1.0,0.9005522229999771,,,,,,,,,,,,,,,,,,,,,,,,,,,,030519_p3,1,2019_Mar_05_1619,body_behavioural,3.0.4,60.05180681032672,,0.0,"“Alvira, will you marry me? ",4.0,3.0,None,None,,0.0,0.0,0.0,0.0,,,,,0.0,27.0,27.0,27.0,,,,,,,,,,,,,,,,,,,,,,,,,,,,,1.0,3.5190063299960457,,,,,,,,,,,,,,,,,,,,,,,,,,,,030819_p1,1.0,2019_Mar_08_1213,body_behavioural,3.0.4,59.84914662825267,
29,0.0,"Aaron put the ring on her finger, and they hugged while the whole class clapped. ",3.0,4.0,,,,0.0,0.0,0.0,0.0,,,,,0.0,28.0,28.0,28.0,,,,,,,,,,,,,,,,,,,,,,,,,,,,,1.0,2.2197929030080563,,,,,,,,,,,,,,,,,,,,,,,,,,,,030519_p3,1,2019_Mar_05_1619,body_behavioural,3.0.4,60.05180681032672,,0.0,"I love you, and I will never stop loving you.” ",4.0,3.0,None,None,,0.0,0.0,0.0,0.0,,,,,0.0,28.0,28.0,28.0,,,,,,,,,,,,,,,,,,,,,,,,,,,,,1.0,6.0538534650113425,,,,,,,,,,,,,,,,,,,,,,,,,,,,030819_p1,1.0,2019_Mar_08_1213,body_behavioural,3.0.4,59.84914662825267,
30,0.0,"Their friends came up and hugged both of them, and the professor gave Aaron a celebratory handshake.",3.0,4.0,,,,0.0,0.0,0.0,0.0,,,,,0.0,29.0,29.0,29.0,,,,,,,,,,,,,,,,,,,,,,,,,,,,,1.0,2.8017798539949577,,,,,,,,,,,,,,,,,,,,,,,,,,,,030519_p3,1,2019_Mar_05_1619,body_behavioural,3.0.4,60.05180681032672,,0.0,Alvira started to cry.,4.0,3.0,None,None,,0.0,0.0,0.0,0.0,,,,,0.0,29.0,29.0,29.0,,,,,,,,,,,,,,,,,,,,,,,,,,,,,1.0,2.0193190450081597,,,,,,,,,,,,,,,,,,,,,,,,,,,,030819_p1,1.0,2019_Mar_08_1213,body_behavioural,3.0.4,59.84914662825267,
31,0.0,"They made their way back to their seats, Lana and Aaron hand-in-hand and beaming. ",3.0,4.0,,,,0.0,0.0,0.0,0.0,,,,,0.0,30.0,30.0,30.0,,,,,,,,,,,,,,,,,,,,,,,,,,,,,1.0,2.87068647799606,,,,,,,,,,,,,,,,,,,,,,,,,,,,030519_p3,1,2019_Mar_05_1619,body_behavioural,3.0.4,60.05180681032672,,0.0,"The room became silent, and everyone turned to their table. ",4.0,3.0,None,5.0,,0.0,0.0,0.0,0.0,,,,,0.0,30.0,30.0,30.0,,,,,,,,,,,,,,,,,,,,,,,,,,,,,1.0,2.58649235998746,,,,,,,,,,,,,,,,,,,,,,,,,,,,030819_p1,1.0,2019_Mar_08_1213,body_behavioural,3.0.4,59.84914662825267,
32,0.0,"The professor then dismissed the class, saying, “That was enough excitement for today!",4.0,4.0,,,,0.0,0.0,0.0,0.0,,,,,0.0,31.0,31.0,31.0,,,,,,,,,,,,,,,,,,,,,,,,,,,,,1.0,2.0701855470106243,,,,,,,,,,,,,,,,,,,,,,,,,,,,030519_p3,1,2019_Mar_05_1619,body_behavioural,3.0.4,60.05180681032672,,0.0,"“Yes, of course, yes!” she shouted as she wiped away tears.",4.0,4.0,None,None,,0.0,0.0,0.0,0.0,,,,,0.0,31.0,31.0,31.0,,,,,,,,,,,,,,,,,,,,,,,,,,,,,1.0,2.5696411449753214,,,,,,,,,,,,,,,,,,,,,,,,,,,,030819_p1,1.0,2019_Mar_08_1213,body_behavioural,3.0.4,59.84914662825267,
33,0.0,Don’t forget there’s an exam next week on the first two chapters of the textbook.”,4.0,4.0,,,,0.0,0.0,0.0,0.0,,,,,0.0,32.0,32.0,32.0,,,,,,,,,,,,,,,,,,,,,,,,,,,,,1.0,2.150659432998509,,,,,,,,,,,,,,,,,,,,,,,,,,,,030519_p3,1,2019_Mar_05_1619,body_behavioural,3.0.4,60.05180681032672,,0.0,The neighboring tables exploded in applause.,4.0,4.0,None,None,,0.0,0.0,0.0,0.0,,,,,0.0,32.0,32.0,32.0,,,,,,,,,,,,,,,,,,,,,,,,,,,,,1.0,3.751885852019768,,,,,,,,,,,,,,,,,,,,,,,,,,,,030819_p1,1.0,2019_Mar_08_1213,body_behavioural,3.0.4,59.84914662825267,
34,0.0,"As everyone was packing up their notebooks and leaving, Lana was already on her phone calling her family members to tell them the exciting news.",4.0,4.0,,,,0.0,0.0,0.0,0.0,,,,,0.0,33.0,33.0,33.0,,,,,,,,,,,,,,,,,,,,,,,,,,,,,1.0,3.2032845979993,,,,,,,,,,,,,,,,,,,,,,,,,,,,030519_p3,1,2019_Mar_05_1619,body_behavioural,3.0.4,60.05180681032672,,0.0,The waiter returned with a bottle of champagne and popped it. ,4.0,4.0,None,None,,0.0,0.0,0.0,0.0,,,,,0.0,33.0,33.0,33.0,,,,,,,,,,,,,,,,,,,,,,,,,,,,,1.0,3.7700647700112313,,,,,,,,,,,,,,,,,,,,,,,,,,,,030819_p1,1.0,2019_Mar_08_1213,body_behavioural,3.0.4,59.84914662825267,
35,0.0,,,,,,,0.0,0.0,0.0,0.0,,,,,,,,,,,,,,,,,,,,,,,,,,,,,,,,,,,,,,,,,,,,,,,,,,,,,,,,,,,,,,,,,,030519_p3,1,2019_Mar_05_1619,body_behavioural,3.0.4,60.05180681032672,,0.0,"All of this went unnoticed by Senna and Alvira as they looked into each others’ eyes, and he slipped the ring onto her finger. ",4.0,4.0,None,None,,0.0,0.0,0.0,0.0,,,,,0.0,34.0,34.0,34.0,,,,,,,,,,,,,,,,,,,,,,,,,,,,,1.0,7.903614850016312,,,,,,,,,,,,,,,,,,,,,,,,,,,,030819_p1,1.0,2019_Mar_08_1213,body_behavioural,3.0.4,59.84914662825267,
36,1.0,,,,,,,0.0,1.0,1.0,1.0,0.0,0.0,0.0,0.0,,,,,,,,,,,,,,,,,,,,,,,,,,,space,3.7367333400034113,space,0.7694543599936878,space,0.7695070300105726,,,,,,,,,,,,,,,,,,,,,,,,,,,,,,030519_p3,1,2019_Mar_05_1619,body_behavioural,3.0.4,60.05180681032672,,0.0,"She held up her hand to admire it, and her glittering tears of joy matched the shine from her ring.   
",4.0,4.0,17.0,5.0,,0.0,0.0,0.0,0.0,,,,,0.0,35.0,35.0,35.0,,,,,,,,,,,,,,,,,,,,,,,,,,,,,1.0,14.751758957980199,,,,,,,,,,,,,,,,,,,,,,,,,,,,030819_p1,1.0,2019_Mar_08_1213,body_behavioural,3.0.4,59.84914662825267,
37,1.0,"Simon and Carina noticed each other as they walked into the grocery store at the same time, their carts nearly colliding as they squeezed into the entrance.",1.0,1.0,,,,0.0,1.0,1.0,1.0,,,,,0.0,0.0,0.0,0.0,,,,,,,,,,,,,,,,,,,,,,,,,,,,,1.0,13.403537420002975,,,,,,,,,,,,,,,,,,,,,,,,,,,,030519_p3,1,2019_Mar_05_1619,body_behavioural,3.0.4,60.05180681032672,,0.0,,,,,,,0.0,0.0,0.0,0.0,,,,,,,,,,,,,,,,,,,,,,,,,,,,,,,,,,,,,,,,,,,,,,,,,,,,,,,,,,,,,,,,,,030819_p1,1.0,2019_Mar_08_1213,body_behavioural,3.0.4,59.84914662825267,
38,1.0,"They were both new to the Boston area, and this was their first time in this store. ",1.0,1.0,,,,0.0,1.0,1.0,1.0,,,,,0.0,1.0,1.0,1.0,,,,,,,,,,,,,,,,,,,,,,,,,,,,,1.0,1.702978258006624,,,,,,,,,,,,,,,,,,,,,,,,,,,,030519_p3,1,2019_Mar_05_1619,body_behavioural,3.0.4,60.05180681032672,,1.0,,,,,,,0.0,1.0,1.0,1.0,0.0,0.0,0.0,0.0,,,,,,,,,,,,,,,,,,,,,,,,,,,space,2.8365920580108654,space,3.186888860014733,space,1.8027814619999845,,,,,,,,,,,,,,,,,,,,,,,,,,,,,,030819_p1,1.0,2019_Mar_08_1213,body_behavioural,3.0.4,59.84914662825267,
39,1.0,"It kind of looked like a large warehouse, with high unfurnished ceilings, industrial lights, and large packages of food. ",1.0,1.0,,,,0.0,1.0,1.0,1.0,,,,,0.0,2.0,2.0,2.0,,,,,,,,,,,,,,,,,,,,,,,,,,,,,1.0,2.003070890001254,,,,,,,,,,,,,,,,,,,,,,,,,,,,030519_p3,1,2019_Mar_05_1619,body_behavioural,3.0.4,60.05180681032672,,1.0,,,,,,,0.0,1.0,1.0,1.0,1.0,0.0,1.0,0.0,,,,,,,,,,,,,,,,,,,,,,,,,,,,,,,space,0.6693021520040929,,,,,,,,,,,,,,,,,,,,,,,,,,,,,,030819_p1,1.0,2019_Mar_08_1213,body_behavioural,3.0.4,59.84914662825267,
40,1.0,"They went off along separate routes, but soon ended up back together in the meat section. ",2.0,1.0,,,,0.0,1.0,1.0,1.0,,,,,0.0,3.0,3.0,3.0,,,,,,,,,,,,,,,,,,,,,,,,,,,,,1.0,3.4694068450044138,,,,,,,,,,,,,,,,,,,,,,,,,,,,030519_p3,1,2019_Mar_05_1619,body_behavioural,3.0.4,60.05180681032672,,1.0,Charlie saw Alma as they walked into class and he motioned for her to come sit in the back next to him: they had business to discuss.,1.0,1.0,,,,0.0,1.0,1.0,1.0,,,,,0.0,0.0,0.0,0.0,,,,,,,,,,,,,,,,,,,,,,,,,,,,,9.0,18.48808942499454,,,,,,,,,,,,,,,,,,,,,,,,,,,,030819_p1,1.0,2019_Mar_08_1213,body_behavioural,3.0.4,59.84914662825267,
41,1.0,"They were both preparing for barbecues, so they were looking over the same cuts of meat. ",2.0,1.0,,,,0.0,1.0,1.0,1.0,,,,,0.0,4.0,4.0,4.0,,,,,,,,,,,,,,,,,,,,,,,,,,,,,1.0,2.203292224992765,,,,,,,,,,,,,,,,,,,,,,,,,,,,030519_p3,1,2019_Mar_05_1619,body_behavioural,3.0.4,60.05180681032672,,1.0,Charlie and Alma were both economics students with entrepreneurial bents.,1.0,1.0,,,,0.0,1.0,1.0,1.0,,,,,0.0,1.0,1.0,1.0,,,,,,,,,,,,,,,,,,,,,,,,,,,,,1.0,8.044856558000902,,,,,,,,,,,,,,,,,,,,,,,,,,,,030819_p1,1.0,2019_Mar_08_1213,body_behavioural,3.0.4,59.84914662825267,
42,1.0,"Simon really wanted to talk to Carina, and Carina really wanted to say something to Simon, but they felt embarrassed striking up a conversation with a stranger.",2.0,1.0,,,,0.0,1.0,1.0,1.0,,,,,0.0,5.0,5.0,5.0,,,,,,,,,,,,,,,,,,,,,,,,,,,,,1.0,4.820406742001069,,,,,,,,,,,,,,,,,,,,,,,,,,,,030519_p3,1,2019_Mar_05_1619,body_behavioural,3.0.4,60.05180681032672,,1.0,They were also both very busy and in the same class.,1.0,1.0,,,,0.0,1.0,1.0,1.0,,,,,0.0,2.0,2.0,2.0,,,,,,,,,,,,,,,,,,,,,,,,,,,,,1.0,2.071188820991665,,,,,,,,,,,,,,,,,,,,,,,,,,,,030819_p1,1.0,2019_Mar_08_1213,body_behavioural,3.0.4,59.84914662825267,
43,1.0,"Carina suddenly turned to Simon and, pointing at a Cornish hen, asked, “Isn’t this meat cute?”",2.0,2.0,,,,0.0,1.0,1.0,1.0,,,,,0.0,6.0,6.0,6.0,,,,,,,,,,,,,,,,,,,,,,,,,,,,,1.0,5.353131398005644,,,,,,,,,,,,,,,,,,,,,,,,,,,,030519_p3,1,2019_Mar_05_1619,body_behavioural,3.0.4,60.05180681032672,,1.0,"After talking at a party, Charlie had discovered that Alma was looking for financing for her web development company.",1.0,1.0,,,,0.0,1.0,1.0,1.0,,,,,0.0,3.0,3.0,3.0,,,,,,,,,,,,,,,,,,,,,,,,,,,,,1.0,4.119632387999444,,,,,,,,,,,,,,,,,,,,,,,,,,,,030819_p1,1.0,2019_Mar_08_1213,body_behavioural,3.0.4,59.84914662825267,
44,1.0,"He laughed, and said, “It is very cute.",2.0,2.0,,,,0.0,1.0,1.0,1.0,,,,,0.0,7.0,7.0,7.0,,,,,,,,,,,,,,,,,,,,,,,,,,,,,1.0,1.1705797650065506,,,,,,,,,,,,,,,,,,,,,,,,,,,,030519_p3,1,2019_Mar_05_1619,body_behavioural,3.0.4,60.05180681032672,,1.0,It was serendipitous because he had been talking with other members of his venture capital group about making an investment. ,1.0,1.0,,,,0.0,1.0,1.0,1.0,,,,,0.0,4.0,4.0,4.0,,,,,,,,,,,,,,,,,,,,,,,,,,,,,1.0,8.203848984994693,,,,,,,,,,,,,,,,,,,,,,,,,,,,030819_p1,1.0,2019_Mar_08_1213,body_behavioural,3.0.4,59.84914662825267,
45,1.0,"Probably the younger brother of this guy,” and he picked up a regular-sized chicken.",2.0,2.0,,,,0.0,1.0,1.0,1.0,,,,,0.0,8.0,8.0,8.0,,,,,,,,,,,,,,,,,,,,,,,,,,,,,1.0,2.9197843729925808,,,,,,,,,,,,,,,,,,,,,,,,,,,,030519_p3,1,2019_Mar_05_1619,body_behavioural,3.0.4,60.05180681032672,,1.0,"His financial group had come to a decision that morning about Alma’s idea, and he didn't want to wait until after class to discuss the proposal with her. ",1.0,1.0,,,,0.0,1.0,1.0,1.0,,,,,0.0,5.0,5.0,5.0,,,,,,,,,,,,,,,,,,,,,,,,,,,,,1.0,6.370578093017683,,,,,,,,,,,,,,,,,,,,,,,,,,,,030819_p1,1.0,2019_Mar_08_1213,body_behavioural,3.0.4,59.84914662825267,
46,1.0,"“Unlucky family,” she responded. ",2.0,2.0,,,,0.0,1.0,1.0,1.0,,,,,0.0,9.0,9.0,9.0,,,,,,,,,,,,,,,,,,,,,,,,,,,,,1.0,1.3028033430018695,,,,,,,,,,,,,,,,,,,,,,,,,,,,030519_p3,1,2019_Mar_05_1619,body_behavioural,3.0.4,60.05180681032672,,1.0,"The class was in a large auditorium with small, foldable desks on the side of each cushioned chair. ",1.0,1.0,,,,0.0,1.0,1.0,1.0,,,,,0.0,6.0,6.0,6.0,,,,,,,,,,,,,,,,,,,,,,,,,,,,,9.0,7.30305950998445,,,,,,,,,,,,,,,,,,,,,,,,,,,,030819_p1,1.0,2019_Mar_08_1213,body_behavioural,3.0.4,59.84914662825267,
47,1.0,They continued to chat as they picked out their groceries.,2.0,2.0,,,,0.0,1.0,1.0,1.0,,,,,0.0,10.0,10.0,10.0,,,,,,,,,,,,,,,,,,,,,,,,,,,,,1.0,1.7523379510093946,,,,,,,,,,,,,,,,,,,,,,,,,,,,030519_p3,1,2019_Mar_05_1619,body_behavioural,3.0.4,60.05180681032672,,1.0,"There were large windows on both sides of the hall, and they could see the first flurries of a winter storm starting outside. ",1.0,1.0,,,,0.0,1.0,1.0,1.0,,,,,0.0,7.0,7.0,7.0,,,,,,,,,,,,,,,,,,,,,,,,,,,,,1.0,5.520055679982761,,,,,,,,,,,,,,,,,,,,,,,,,,,,030819_p1,1.0,2019_Mar_08_1213,body_behavioural,3.0.4,59.84914662825267,
48,1.0,"Simon helped Carina pick out the best ribs and his personal favorite barbeque sauce, and she helped him gather the  peppers, onions, and spices for a vegetable kabob she recommended.",2.0,2.0,,,,0.0,1.0,1.0,1.0,,,,,0.0,11.0,11.0,11.0,,,,,,,,,,,,,,,,,,,,,,,,,,,,,1.0,2.703027284995187,,,,,,,,,,,,,,,,,,,,,,,,,,,,030519_p3,1,2019_Mar_05_1619,body_behavioural,3.0.4,60.05180681032672,,1.0,"“Here we are at Lecture Seven already in History of the Eternal City,” said the professor. ",2.0,1.0,,,,0.0,1.0,1.0,1.0,,,,,0.0,8.0,8.0,8.0,,,,,,,,,,,,,,,,,,,,,,,,,,,,,9.0,4.686751917994116,,,,,,,,,,,,,,,,,,,,,,,,,,,,030819_p1,1.0,2019_Mar_08_1213,body_behavioural,3.0.4,59.84914662825267,
49,1.0,"When they were both finished shopping, they went to the checkout area.",3.0,2.0,,,,0.0,1.0,1.0,1.0,,,,,0.0,12.0,12.0,12.0,,,,,,,,,,,,,,,,,,,,,,,,,,,,,1.0,1.8864713050134012,,,,,,,,,,,,,,,,,,,,,,,,,,,,030519_p3,1,2019_Mar_05_1619,body_behavioural,3.0.4,60.05180681032672,,1.0,“We're going to talk today about the age of the first Roman emperor: Augustus.” ,2.0,1.0,,,,0.0,1.0,1.0,1.0,,,,,0.0,9.0,9.0,9.0,,,,,,,,,,,,,,,,,,,,,,,,,,,,,1.0,2.819584365002811,,,,,,,,,,,,,,,,,,,,,,,,,,,,030819_p1,1.0,2019_Mar_08_1213,body_behavioural,3.0.4,59.84914662825267,
50,1.0,"Simon was disappointed to see that the lines were short, since he had been hoping for an excuse to spend more time with Carina.",3.0,2.0,,,,0.0,1.0,1.0,1.0,,,,,0.0,13.0,13.0,13.0,,,,,,,,,,,,,,,,,,,,,,,,,,,,,1.0,4.585020347993122,,,,,,,,,,,,,,,,,,,,,,,,,,,,030519_p3,1,2019_Mar_05_1619,body_behavioural,3.0.4,60.05180681032672,,1.0,"She went into some recap of the last lecture, and Charlie took this as an opportunity to start talking to Alma.",2.0,1.0,,,,0.0,1.0,1.0,1.0,,,,,0.0,10.0,10.0,10.0,,,,,,,,,,,,,,,,,,,,,,,,,,,,,1.0,6.1850010710186325,,,,,,,,,,,,,,,,,,,,,,,,,,,,030819_p1,1.0,2019_Mar_08_1213,body_behavioural,3.0.4,59.84914662825267,
51,1.0,"They had real chemistry, and both of them could definitely see a future together despite having just met.",3.0,2.0,,,,0.0,1.0,1.0,1.0,,,,,0.0,14.0,14.0,14.0,,,,,,,,,,,,,,,,,,,,,,,,,,,,,1.0,2.1204047670034925,,,,,,,,,,,,,,,,,,,,,,,,,,,,030519_p3,1,2019_Mar_05_1619,body_behavioural,3.0.4,60.05180681032672,,1.0,"“Okay so I’ve been thinking about your startup idea, and I have talked about it with my fellow investors.",2.0,2.0,,,,0.0,1.0,1.0,1.0,,,,,0.0,11.0,11.0,11.0,,,,,,,,,,,,,,,,,,,,,,,,,,,,,9.0,4.502918042999227,,,,,,,,,,,,,,,,,,,,,,,,,,,,030819_p1,1.0,2019_Mar_08_1213,body_behavioural,3.0.4,59.84914662825267,
52,1.0,"“So you haven’t been around the city much?”, Simon asked. ",3.0,2.0,,,,0.0,1.0,1.0,1.0,,,,,0.0,15.0,15.0,15.0,,,,,,,,,,,,,,,,,,,,,,,,,,,,,1.0,5.600980028000777,,,,,,,,,,,,,,,,,,,,,,,,,,,,030519_p3,1,2019_Mar_05_1619,body_behavioural,3.0.4,60.05180681032672,,1.0,We’d like to invest half of what you originally suggested.,2.0,2.0,,,,0.0,1.0,1.0,1.0,,,,,0.0,12.0,12.0,12.0,,,,,,,,,,,,,,,,,,,,,,,,,,,,,1.0,8.287037115020214,,,,,,,,,,,,,,,,,,,,,,,,,,,,030819_p1,1.0,2019_Mar_08_1213,body_behavioural,3.0.4,59.84914662825267,
53,1.0,"“No, not really.",3.0,2.0,,,,0.0,1.0,1.0,1.0,,,,,0.0,16.0,16.0,16.0,,,,,,,,,,,,,,,,,,,,,,,,,,,,,1.0,2.9198282150027812,,,,,,,,,,,,,,,,,,,,,,,,,,,,030519_p3,1,2019_Mar_05_1619,body_behavioural,3.0.4,60.05180681032672,,1.0,"Rather than $30,000, we start with $15,000.",2.0,2.0,,,,0.0,1.0,1.0,1.0,,,,,0.0,13.0,13.0,13.0,,,,,,,,,,,,,,,,,,,,,,,,,,,,,1.0,3.7696404570015143,,,,,,,,,,,,,,,,,,,,,,,,,,,,030819_p1,1.0,2019_Mar_08_1213,body_behavioural,3.0.4,59.84914662825267,
54,1.0,I’ve mainly been working and setting up my apartment.”,3.0,2.0,,,,0.0,1.0,1.0,1.0,,,,,0.0,17.0,17.0,17.0,,,,,,,,,,,,,,,,,,,,,,,,,,,,,1.0,2.6033442229963843,,,,,,,,,,,,,,,,,,,,,,,,,,,,030519_p3,1,2019_Mar_05_1619,body_behavioural,3.0.4,60.05180681032672,,1.0,We would see how the company does and then invest the other half later.” ,2.0,2.0,,,,0.0,1.0,1.0,1.0,,,,,0.0,14.0,14.0,14.0,,,,,,,,,,,,,,,,,,,,,,,,,,,,,1.0,4.335191641992424,,,,,,,,,,,,,,,,,,,,,,,,,,,,030819_p1,1.0,2019_Mar_08_1213,body_behavioural,3.0.4,59.84914662825267,
55,1.0,"Simon asked her, “Ok well, if you’d like I could pick you up next weekend, and we could go around Harvard Square and get dinner.",3.0,3.0,,,,0.0,1.0,1.0,1.0,,,,,0.0,18.0,18.0,18.0,,,,,,,,,,,,,,,,,,,,,,,,,,,,,1.0,6.351488429994787,,,,,,,,,,,,,,,,,,,,,,,,,,,,030519_p3,1,2019_Mar_05_1619,body_behavioural,3.0.4,60.05180681032672,,1.0,"Alma, tapping her pen on her notebook, narrowed her eyes and pursed her lips.",2.0,2.0,,,,0.0,1.0,1.0,1.0,,,,,0.0,15.0,15.0,15.0,,,,,,,,,,,,,,,,,,,,,,,,,,,,,1.0,2.9874317619833164,,,,,,,,,,,,,,,,,,,,,,,,,,,,030819_p1,1.0,2019_Mar_08_1213,body_behavioural,3.0.4,59.84914662825267,
56,1.0,"There are a lot of great places around there, and it’s really nice during the summer.",3.0,3.0,,,,0.0,1.0,1.0,1.0,,,,,0.0,19.0,19.0,19.0,,,,,,,,,,,,,,,,,,,,,,,,,,,,,1.0,3.020008257997688,,,,,,,,,,,,,,,,,,,,,,,,,,,,030519_p3,1,2019_Mar_05_1619,body_behavioural,3.0.4,60.05180681032672,,1.0,She turned back to the lecture as she considered this.,2.0,2.0,,,,0.0,1.0,1.0,1.0,,,,,0.0,16.0,16.0,16.0,,,,,,,,,,,,,,,,,,,,,,,,,,,,,1.0,2.8362655950186313,,,,,,,,,,,,,,,,,,,,,,,,,,,,030819_p1,1.0,2019_Mar_08_1213,body_behavioural,3.0.4,59.84914662825267,
57,1.0,The Harvard campus is also beautiful.” ,3.0,3.0,,,,0.0,1.0,1.0,1.0,,,,,0.0,20.0,20.0,20.0,,,,,,,,,,,,,,,,,,,,,,,,,,,,,1.0,2.086280892006471,,,,,,,,,,,,,,,,,,,,,,,,,,,,030519_p3,1,2019_Mar_05_1619,body_behavioural,3.0.4,60.05180681032672,,1.0,"The professor was going on: “The senate had conferred upon him the title of Augustus the sacred and revered one, the restorer of traditional values, the city’s new religious leader, the restorer of temples. ",3.0,2.0,,,,0.0,1.0,1.0,1.0,,,,,0.0,17.0,17.0,17.0,,,,,,,,,,,,,,,,,,,,,,,,,,,,,9.0,7.819991769996704,,,,,,,,,,,,,,,,,,,,,,,,,,,,030819_p1,1.0,2019_Mar_08_1213,body_behavioural,3.0.4,59.84914662825267,
58,1.0,"Carina smiled, “I’d love to: that sounds great!”",3.0,3.0,,,,0.0,1.0,1.0,1.0,,,,,0.0,21.0,21.0,21.0,,,,,,,,,,,,,,,,,,,,,,,,,,,,,1.0,1.3362531949969707,,,,,,,,,,,,,,,,,,,,,,,,,,,,030519_p3,1,2019_Mar_05_1619,body_behavioural,3.0.4,60.05180681032672,,1.0,"Augustus also sought to beautify Rome, make it into a new Athens, and dispel the criticisms of Rome as disorganized and ugly.”",3.0,2.0,,,,0.0,1.0,1.0,1.0,,,,,0.0,18.0,18.0,18.0,,,,,,,,,,,,,,,,,,,,,,,,,,,,,1.0,6.186180051008705,,,,,,,,,,,,,,,,,,,,,,,,,,,,030819_p1,1.0,2019_Mar_08_1213,body_behavioural,3.0.4,59.84914662825267,
59,1.0,"She quickly entered her number in his phone, since they only had to wait a couple minutes in line.",3.0,3.0,,,,0.0,1.0,1.0,1.0,,,,,0.0,22.0,22.0,22.0,,,,,,,,,,,,,,,,,,,,,,,,,,,,,1.0,3.2695946280000494,,,,,,,,,,,,,,,,,,,,,,,,,,,,030519_p3,1,2019_Mar_05_1619,body_behavioural,3.0.4,60.05180681032672,,1.0,"Alma turned back to Charlie and offered her rebuttal, “I don’t know about that: it’s not going to be possible to implement our ideas effectively unless the project is fully funded. ",3.0,3.0,,,,0.0,1.0,1.0,1.0,,,,,0.0,19.0,19.0,19.0,,,,,,,,,,,,,,,,,,,,,,,,,,,,,9.0,9.937707081990084,,,,,,,,,,,,,,,,,,,,,,,,,,,,030819_p1,1.0,2019_Mar_08_1213,body_behavioural,3.0.4,59.84914662825267,
60,1.0,Then it was her turn to check out with the cashier. ,4.0,3.0,,,,0.0,1.0,1.0,1.0,,,,,0.0,23.0,23.0,23.0,,,,,,,,,,,,,,,,,,,,,,,,,,,,,1.0,1.6528875180083562,,,,,,,,,,,,,,,,,,,,,,,,,,,,030519_p3,1,2019_Mar_05_1619,body_behavioural,3.0.4,60.05180681032672,,1.0,We would have to find other investors and that would set us back in our timeline. ,3.0,3.0,,,,0.0,1.0,1.0,1.0,,,,,0.0,20.0,20.0,20.0,,,,,,,,,,,,,,,,,,,,,,,,,,,,,1.0,5.736841425008607,,,,,,,,,,,,,,,,,,,,,,,,,,,,030819_p1,1.0,2019_Mar_08_1213,body_behavioural,3.0.4,59.84914662825267,
61,1.0,"Simon, wanting to make a gesture of his affection, lifted up the divider on the conveyor belt and said to the cashier, “Actually these are together.",4.0,3.0,,,,0.0,1.0,1.0,1.0,,,,,0.0,24.0,24.0,24.0,,,,,,,,,,,,,,,,,,,,,,,,,,,,,1.0,6.084460452999338,,,,,,,,,,,,,,,,,,,,,,,,,,,,030519_p3,1,2019_Mar_05_1619,body_behavioural,3.0.4,60.05180681032672,,1.0,"Our profit projections assumed we'd be starting relatively soon, not months down the line.” ",3.0,3.0,,,,0.0,1.0,1.0,1.0,,,,,0.0,21.0,21.0,21.0,,,,,,,,,,,,,,,,,,,,,,,,,,,,,1.0,5.452267329994356,,,,,,,,,,,,,,,,,,,,,,,,,,,,030819_p1,1.0,2019_Mar_08_1213,body_behavioural,3.0.4,59.84914662825267,
62,1.0,"Carina, I’ve got it.",4.0,3.0,,,,0.0,1.0,1.0,1.0,,,,,0.0,25.0,25.0,25.0,,,,,,,,,,,,,,,,,,,,,,,,,,,,,1.0,1.4364057049970145,,,,,,,,,,,,,,,,,,,,,,,,,,,,030519_p3,1,2019_Mar_05_1619,body_behavioural,3.0.4,60.05180681032672,,1.0,They whispered back and forth during the whole class in order to work out a compromise. ,3.0,3.0,,,,0.0,1.0,1.0,1.0,,,,,0.0,22.0,22.0,22.0,,,,,,,,,,,,,,,,,,,,,,,,,,,,,1.0,7.720561486989027,,,,,,,,,,,,,,,,,,,,,,,,,,,,030819_p1,1.0,2019_Mar_08_1213,body_behavioural,3.0.4,59.84914662825267,
63,1.0,This was kind-of a date today.”,4.0,3.0,,,,0.0,1.0,1.0,1.0,,,,,0.0,26.0,26.0,26.0,,,,,,,,,,,,,,,,,,,,,,,,,,,,,1.0,2.603349790006177,,,,,,,,,,,,,,,,,,,,,,,,,,,,030519_p3,1,2019_Mar_05_1619,body_behavioural,3.0.4,60.05180681032672,,1.0,"Finally, the class ended, and the professor dismissed the students with a reminder that the midterm paper was due on Thursday and that they should email their papers to the TA.",4.0,3.0,,,,0.0,1.0,1.0,1.0,,,,,0.0,23.0,23.0,23.0,,,,,,,,,,,,,,,,,,,,,,,,,,,,,9.0,6.403301384998485,,,,,,,,,,,,,,,,,,,,,,,,,,,,030819_p1,1.0,2019_Mar_08_1213,body_behavioural,3.0.4,59.84914662825267,
64,1.0,Carina blushed and laughed; she thought this was ridiculous but also very sweet. ,4.0,3.0,,,,0.0,1.0,1.0,1.0,,,,,0.0,27.0,27.0,27.0,,,,,,,,,,,,,,,,,,,,,,,,,,,,,1.0,2.203295672996319,,,,,,,,,,,,,,,,,,,,,,,,,,,,030519_p3,1,2019_Mar_05_1619,body_behavioural,3.0.4,60.05180681032672,,1.0,"Everyone, except Charlie and Alma, packed up their things and headed out of the lecture hall to get to their next class. ",4.0,3.0,,,,0.0,1.0,1.0,1.0,,,,,0.0,24.0,24.0,24.0,,,,,,,,,,,,,,,,,,,,,,,,,,,,,9.0,7.770366835000459,,,,,,,,,,,,,,,,,,,,,,,,,,,,030819_p1,1.0,2019_Mar_08_1213,body_behavioural,3.0.4,59.84914662825267,
65,1.0,"The cashier rolled her eyes when they weren’t looking, and she scanned the rest of his items. ",4.0,3.0,,,,0.0,1.0,1.0,1.0,,,,,0.0,28.0,28.0,28.0,,,,,,,,,,,,,,,,,,,,,,,,,,,,,1.0,2.3693222549918573,,,,,,,,,,,,,,,,,,,,,,,,,,,,030519_p3,1,2019_Mar_05_1619,body_behavioural,3.0.4,60.05180681032672,,1.0,"“Alright, so we’ll have the $30,000 wired to you by tomorrow,” Charlie said. ",4.0,4.0,,,,0.0,1.0,1.0,1.0,,,,,0.0,25.0,25.0,25.0,,,,,,,,,,,,,,,,,,,,,,,,,,,,,1.0,6.1695351649832455,,,,,,,,,,,,,,,,,,,,,,,,,,,,030819_p1,1.0,2019_Mar_08_1213,body_behavioural,3.0.4,59.84914662825267,
66,1.0,"The total came to $120, and he paid with his credit card.",4.0,3.0,,,,0.0,1.0,1.0,1.0,,,,,0.0,29.0,29.0,29.0,,,,,,,,,,,,,,,,,,,,,,,,,,,,,1.0,1.7676206780015489,,,,,,,,,,,,,,,,,,,,,,,,,,,,030519_p3,1,2019_Mar_05_1619,body_behavioural,3.0.4,60.05180681032672,,1.0,"This wasn't ideal for Charlie, but Alma had refused to budge, and his investment group had told him they were willing to pay the full amount if necessary. ",4.0,4.0,,,,0.0,1.0,1.0,1.0,,,,,0.0,26.0,26.0,26.0,,,,,,,,,,,,,,,,,,,,,,,,,,,,,1.0,8.00069446201087,,,,,,,,,,,,,,,,,,,,,,,,,,,,030819_p1,1.0,2019_Mar_08_1213,body_behavioural,3.0.4,59.84914662825267,
67,1.0,"Carina thanked him, and they took the groceries and walked out.",4.0,3.0,,,,0.0,1.0,1.0,1.0,,,,,0.0,30.0,30.0,30.0,,,,,,,,,,,,,,,,,,,,,,,,,,,,,1.0,1.5021881040011067,,,,,,,,,,,,,,,,,,,,,,,,,,,,030519_p3,1,2019_Mar_05_1619,body_behavioural,3.0.4,60.05180681032672,,1.0,"They shook hands, walked out of the now-empty lecture hall, and made plans to sign the official paperwork the next day.",4.0,4.0,,,,0.0,1.0,1.0,1.0,,,,,0.0,27.0,27.0,27.0,,,,,,,,,,,,,,,,,,,,,,,,,,,,,1.0,3.1356849169824272,,,,,,,,,,,,,,,,,,,,,,,,,,,,030819_p1,1.0,2019_Mar_08_1213,body_behavioural,3.0.4,59.84914662825267,
68,1.0,"As they were walking towards the exit, Carina reluctantly said goodbye since she was running late for the barbeque she was hosting that afternoon.",4.0,4.0,,,,0.0,1.0,1.0,1.0,,,,,0.0,31.0,31.0,31.0,,,,,,,,,,,,,,,,,,,,,,,,,,,,,1.0,4.3203758879972165,,,,,,,,,,,,,,,,,,,,,,,,,,,,030519_p3,1,2019_Mar_05_1619,body_behavioural,3.0.4,60.05180681032672,,1.0,,,,,,,0.0,1.0,1.0,1.0,,,,,,,,,,,,,,,,,,,,,,,,,,,,,,,,,,,,,,,,,,,,,,,,,,,,,,,,,,,,,,,,,,030819_p1,1.0,2019_Mar_08_1213,body_behavioural,3.0.4,59.84914662825267,
69,1.0,"They hugged and parted ways, stealing glances at each other as they both walked back to their cars.",4.0,4.0,,,,0.0,1.0,1.0,1.0,,,,,0.0,32.0,32.0,32.0,,,,,,,,,,,,,,,,,,,,,,,,,,,,,1.0,3.024379417998716,,,,,,,,,,,,,,,,,,,,,,,,,,,,030519_p3,1,2019_Mar_05_1619,body_behavioural,3.0.4,60.05180681032672,,2.0,,,,,,,0.0,2.0,2.0,2.0,0.0,0.0,0.0,0.0,,,,,,,,,,,,,,,,,,,,,,,,,,,space,2.4871638340118807,space,1.2028771819896065,space,2.502994075010065,,,,,,,,,,,,,,,,,,,,,,,,,,,,,,030819_p1,1.0,2019_Mar_08_1213,body_behavioural,3.0.4,59.84914662825267,
70,1.0,,,,,,,0.0,1.0,1.0,1.0,,,,,,,,,,,,,,,,,,,,,,,,,,,,,,,,,,,,,,,,,,,,,,,,,,,,,,,,,,,,,,,,,,030519_p3,1,2019_Mar_05_1619,body_behavioural,3.0.4,60.05180681032672,,2.0,"It didn’t help the situation that Calvin and Jessie were running late to the airport, since Jessie had already been fuming at Calvin and preparing to end things with him.",1.0,1.0,,,,0.0,2.0,2.0,2.0,,,,,0.0,0.0,0.0,0.0,,,,,,,,,,,,,,,,,,,,,,,,,,,,,9.0,9.954007922002347,,,,,,,,,,,,,,,,,,,,,,,,,,,,030819_p1,1.0,2019_Mar_08_1213,body_behavioural,3.0.4,59.84914662825267,
71,2.0,,,,,,,0.0,2.0,2.0,2.0,0.0,0.0,0.0,0.0,,,,,,,,,,,,,,,,,,,,,,,,,,,space,2.5036186200013617,space,0.6357331699982751,space,3.01984137200634,,,,,,,,,,,,,,,,,,,,,,,,,,,,,,030519_p3,1,2019_Mar_05_1619,body_behavioural,3.0.4,60.05180681032672,,2.0,"Upon arriving, they had only 45 minutes until their international flight would depart from Jamaica for the US.",1.0,1.0,,,,0.0,2.0,2.0,2.0,,,,,0.0,1.0,1.0,1.0,,,,,,,,,,,,,,,,,,,,,,,,,,,,,1.0,7.434379284997703,,,,,,,,,,,,,,,,,,,,,,,,,,,,030819_p1,1.0,2019_Mar_08_1213,body_behavioural,3.0.4,59.84914662825267,
72,2.0,"Thomas, dreading the conversation he was about to have, got to Annika’s Finer Diner early.",1.0,1.0,None,None,,0.0,2.0,2.0,2.0,,,,,0.0,0.0,0.0,0.0,,,,,,,,,,,,,,,,,,,,,,,,,,,,,9.0,11.453975480006195,,,,,,,,,,,,,,,,,,,,,,,,,,,,030519_p3,1,2019_Mar_05_1619,body_behavioural,3.0.4,60.05180681032672,,2.0,It had been a tough vacation for them.,1.0,1.0,,,,0.0,2.0,2.0,2.0,,,,,0.0,2.0,2.0,2.0,,,,,,,,,,,,,,,,,,,,,,,,,,,,,1.0,4.26955015497515,,,,,,,,,,,,,,,,,,,,,,,,,,,,030819_p1,1.0,2019_Mar_08_1213,body_behavioural,3.0.4,59.84914662825267,
73,2.0,The restaurant had a kitschy charm and was reminiscent of a diner from the 70’s. ,1.0,1.0,None,None,,0.0,2.0,2.0,2.0,,,,,0.0,1.0,1.0,1.0,,,,,,,,,,,,,,,,,,,,,,,,,,,,,1.0,2.3060437700041803,,,,,,,,,,,,,,,,,,,,,,,,,,,,030519_p3,1,2019_Mar_05_1619,body_behavioural,3.0.4,60.05180681032672,,2.0,"Jessie had really had it with Calvin’s constant ramblings about the same excruciatingly boring golfing and work stories, which he insisted on repeating to her regardless of how little interest she showed.",1.0,1.0,,,,0.0,2.0,2.0,2.0,,,,,0.0,3.0,3.0,3.0,,,,,,,,,,,,,,,,,,,,,,,,,,,,,1.0,9.954101769981207,,,,,,,,,,,,,,,,,,,,,,,,,,,,030819_p1,1.0,2019_Mar_08_1213,body_behavioural,3.0.4,59.84914662825267,
74,2.0,A bell chimed as the door swung open and Sadie entered to find Thomas deep in thought on a bench by the door.,1.0,1.0,None,None,,0.0,2.0,2.0,2.0,,,,,0.0,2.0,2.0,2.0,,,,,,,,,,,,,,,,,,,,,,,,,,,,,1.0,9.22009694400185,,,,,,,,,,,,,,,,,,,,,,,,,,,,030519_p3,1,2019_Mar_05_1619,body_behavioural,3.0.4,60.05180681032672,,2.0,"Calvin knew that Jessie was upset, but wasn't sure what to do besides attempting to carry on as normal and tell stories that took up the silence. ",1.0,1.0,,,,0.0,2.0,2.0,2.0,,,,,0.0,4.0,4.0,4.0,,,,,,,,,,,,,,,,,,,,,,,,,,,,,1.0,9.434596659993986,,,,,,,,,,,,,,,,,,,,,,,,,,,,030819_p1,1.0,2019_Mar_08_1213,body_behavioural,3.0.4,59.84914662825267,
75,2.0,He jumped up and gave her a side hug. ,1.0,1.0,None,None,,0.0,2.0,2.0,2.0,,,,,0.0,3.0,3.0,3.0,,,,,,,,,,,,,,,,,,,,,,,,,,,,,1.0,1.1028677499998594,,,,,,,,,,,,,,,,,,,,,,,,,,,,030519_p3,1,2019_Mar_05_1619,body_behavioural,3.0.4,60.05180681032672,,2.0,"The security line was luckily very short, and once the online boarding passes were scanned they were ushered quickly through the metal detector, not having to take off their shoes or remove the liquids from their bags.",2.0,1.0,,,,0.0,2.0,2.0,2.0,,,,,0.0,5.0,5.0,5.0,,,,,,,,,,,,,,,,,,,,,,,,,,,,,9.0,8.287115229992196,,,,,,,,,,,,,,,,,,,,,,,,,,,,030819_p1,1.0,2019_Mar_08_1213,body_behavioural,3.0.4,59.84914662825267,
76,2.0,"“How was your day?”, he asked.",1.0,1.0,None,None,,0.0,2.0,2.0,2.0,,,,,0.0,4.0,4.0,4.0,,,,,,,,,,,,,,,,,,,,,,,,,,,,,1.0,0.8577675580017967,,,,,,,,,,,,,,,,,,,,,,,,,,,,030519_p3,1,2019_Mar_05_1619,body_behavioural,3.0.4,60.05180681032672,,2.0,"“The infrastructure of this airport is really quite poor, said Calvin as they waited for their bags to emerge from the x-ray machine.""",2.0,1.0,,,,0.0,2.0,2.0,2.0,,,,,0.0,6.0,6.0,6.0,,,,,,,,,,,,,,,,,,,,,,,,,,,,,1.0,3.7001353270024993,,,,,,,,,,,,,,,,,,,,,,,,,,,,030819_p1,1.0,2019_Mar_08_1213,body_behavioural,3.0.4,59.84914662825267,
77,2.0,"She clung onto him, “It was okay.",1.0,1.0,None,None,,0.0,2.0,2.0,2.0,,,,,0.0,5.0,5.0,5.0,,,,,,,,,,,,,,,,,,,,,,,,,,,,,1.0,2.1866134430019883,,,,,,,,,,,,,,,,,,,,,,,,,,,,030519_p3,1,2019_Mar_05_1619,body_behavioural,3.0.4,60.05180681032672,,2.0,“I really could've hidden something in my shoes quite easily.” ,2.0,1.0,,,,0.0,2.0,2.0,2.0,,,,,0.0,7.0,7.0,7.0,,,,,,,,,,,,,,,,,,,,,,,,,,,,,1.0,1.1534503659931945,,,,,,,,,,,,,,,,,,,,,,,,,,,,030819_p1,1.0,2019_Mar_08_1213,body_behavioural,3.0.4,59.84914662825267,
78,2.0,I missed you today.”,1.0,1.0,None,None,,0.0,2.0,2.0,2.0,,,,,0.0,6.0,6.0,6.0,,,,,,,,,,,,,,,,,,,,,,,,,,,,,1.0,0.7694431729905773,,,,,,,,,,,,,,,,,,,,,,,,,,,,030519_p3,1,2019_Mar_05_1619,body_behavioural,3.0.4,60.05180681032672,,2.0,"Jessie, exasperated at his need to broadcast his every inner thought, scowled at the conveyor belt.",2.0,1.0,,,,0.0,2.0,2.0,2.0,,,,,0.0,8.0,8.0,8.0,,,,,,,,,,,,,,,,,,,,,,,,,,,,,1.0,7.553880864987151,,,,,,,,,,,,,,,,,,,,,,,,,,,,030819_p1,1.0,2019_Mar_08_1213,body_behavioural,3.0.4,59.84914662825267,
79,2.0,He looked at the hostess coming towards them.,1.0,1.0,None,None,,0.0,2.0,2.0,2.0,,,,,0.0,7.0,7.0,7.0,,,,,,,,,,,,,,,,,,,,,,,,,,,,,1.0,1.8166559720120856,,,,,,,,,,,,,,,,,,,,,,,,,,,,030519_p3,1,2019_Mar_05_1619,body_behavioural,3.0.4,60.05180681032672,,2.0,"“What?”, he asked.",2.0,1.0,,,,0.0,2.0,2.0,2.0,,,,,0.0,9.0,9.0,9.0,,,,,,,,,,,,,,,,,,,,,,,,,,,,,1.0,2.386605037987465,,,,,,,,,,,,,,,,,,,,,,,,,,,,030819_p1,1.0,2019_Mar_08_1213,body_behavioural,3.0.4,59.84914662825267,
80,2.0,"“Can we have a table in the back?”, Thomas asked.",1.0,1.0,None,None,,0.0,2.0,2.0,2.0,,,,,0.0,8.0,8.0,8.0,,,,,,,,,,,,,,,,,,,,,,,,,,,,,1.0,1.386794430000009,,,,,,,,,,,,,,,,,,,,,,,,,,,,030519_p3,1,2019_Mar_05_1619,body_behavioural,3.0.4,60.05180681032672,,2.0,She balled up her fists and turned to face him.,2.0,1.0,,,,0.0,2.0,2.0,2.0,,,,,0.0,10.0,10.0,10.0,,,,,,,,,,,,,,,,,,,,,,,,,,,,,1.0,3.8869369899912267,,,,,,,,,,,,,,,,,,,,,,,,,,,,030819_p1,1.0,2019_Mar_08_1213,body_behavioural,3.0.4,59.84914662825267,
81,2.0,"She shrugged and, as she loudly popped her bubblegum, replied, “Sure, honey, this way.”",1.0,1.0,9.0,None,,0.0,2.0,2.0,2.0,,,,,0.0,9.0,9.0,9.0,,,,,,,,,,,,,,,,,,,,,,,,,,,,,1.0,2.5030545129993698,,,,,,,,,,,,,,,,,,,,,,,,,,,,030519_p3,1,2019_Mar_05_1619,body_behavioural,3.0.4,60.05180681032672,,2.0,"“Calvin, I really don’t think I can do this anymore.",2.0,2.0,,,,0.0,2.0,2.0,2.0,,,,,0.0,11.0,11.0,11.0,,,,,,,,,,,,,,,,,,,,,,,,,,,,,1.0,2.3364852349914145,,,,,,,,,,,,,,,,,,,,,,,,,,,,030819_p1,1.0,2019_Mar_08_1213,body_behavioural,3.0.4,59.84914662825267,
82,2.0,She led them to the back of the restaurant where there were dimly lit tables. ,2.0,1.0,None,None,,0.0,2.0,2.0,2.0,,,,,0.0,10.0,10.0,10.0,,,,,,,,,,,,,,,,,,,,,,,,,,,,,1.0,2.4028244259970957,,,,,,,,,,,,,,,,,,,,,,,,,,,,030519_p3,1,2019_Mar_05_1619,body_behavioural,3.0.4,60.05180681032672,,2.0,I think it’s best that once we get to the States we part ways for good.” ,2.0,2.0,,,,0.0,2.0,2.0,2.0,,,,,0.0,12.0,12.0,12.0,,,,,,,,,,,,,,,,,,,,,,,,,,,,,1.0,3.586357385007432,,,,,,,,,,,,,,,,,,,,,,,,,,,,030819_p1,1.0,2019_Mar_08_1213,body_behavioural,3.0.4,59.84914662825267,
83,2.0,"“Is this alright?”, the hostess asked.",2.0,1.0,None,None,,0.0,2.0,2.0,2.0,,,,,0.0,11.0,11.0,11.0,,,,,,,,,,,,,,,,,,,,,,,,,,,,,1.0,0.7669611500023166,,,,,,,,,,,,,,,,,,,,,,,,,,,,030519_p3,1,2019_Mar_05_1619,body_behavioural,3.0.4,60.05180681032672,,2.0,Calvin said nothing as he grabbed his bag and quickly walked away.,2.0,2.0,,,,0.0,2.0,2.0,2.0,,,,,0.0,13.0,13.0,13.0,,,,,,,,,,,,,,,,,,,,,,,,,,,,,1.0,3.4031829099985766,,,,,,,,,,,,,,,,,,,,,,,,,,,,030819_p1,1.0,2019_Mar_08_1213,body_behavioural,3.0.4,59.84914662825267,
84,2.0,Thomas cleared his throat and tried not to grimace at the stained fabric that lined the booth.,2.0,1.0,None,None,,0.0,2.0,2.0,2.0,,,,,0.0,12.0,12.0,12.0,,,,,,,,,,,,,,,,,,,,,,,,,,,,,1.0,2.784120822994737,,,,,,,,,,,,,,,,,,,,,,,,,,,,030519_p3,1,2019_Mar_05_1619,body_behavioural,3.0.4,60.05180681032672,,2.0,"Jessie trailed behind him as they made their way quickly toward their gate, shouting at his back in hopes of getting a response.",3.0,2.0,,,,0.0,2.0,2.0,2.0,,,,,0.0,14.0,14.0,14.0,,,,,,,,,,,,,,,,,,,,,,,,,,,,,1.0,4.086474517011084,,,,,,,,,,,,,,,,,,,,,,,,,,,,030819_p1,1.0,2019_Mar_08_1213,body_behavioural,3.0.4,59.84914662825267,
85,2.0,“This is great.,2.0,1.0,None,None,,0.0,2.0,2.0,2.0,,,,,0.0,13.0,13.0,13.0,,,,,,,,,,,,,,,,,,,,,,,,,,,,,1.0,0.5507263229956152,,,,,,,,,,,,,,,,,,,,,,,,,,,,030519_p3,1,2019_Mar_05_1619,body_behavioural,3.0.4,60.05180681032672,,2.0,“So now you have nothing to say?,3.0,2.0,,,,0.0,2.0,2.0,2.0,,,,,0.0,15.0,15.0,15.0,,,,,,,,,,,,,,,,,,,,,,,,,,,,,1.0,3.103334057988832,,,,,,,,,,,,,,,,,,,,,,,,,,,,030819_p1,1.0,2019_Mar_08_1213,body_behavioural,3.0.4,59.84914662825267,
86,2.0,"Thank you,” Thomas said.",2.0,1.0,None,None,,0.0,2.0,2.0,2.0,,,,,0.0,14.0,14.0,14.0,,,,,,,,,,,,,,,,,,,,,,,,,,,,,1.0,0.5865329699881839,,,,,,,,,,,,,,,,,,,,,,,,,,,,030519_p3,1,2019_Mar_05_1619,body_behavioural,3.0.4,60.05180681032672,,2.0,"Every time we talk, you are just looking for a way to steer the conversation back into your stories.”",3.0,2.0,,,,0.0,2.0,2.0,2.0,,,,,0.0,16.0,16.0,16.0,,,,,,,,,,,,,,,,,,,,,,,,,,,,,1.0,3.586480325000593,,,,,,,,,,,,,,,,,,,,,,,,,,,,030819_p1,1.0,2019_Mar_08_1213,body_behavioural,3.0.4,59.84914662825267,
87,2.0,Sadie slipped into the cushioned seat and grabbed Thomas’ hand.,2.0,1.0,None,None,,0.0,2.0,2.0,2.0,,,,,0.0,15.0,15.0,15.0,,,,,,,,,,,,,,,,,,,,,,,,,,,,,1.0,2.0205033180100145,,,,,,,,,,,,,,,,,,,,,,,,,,,,030519_p3,1,2019_Mar_05_1619,body_behavioural,3.0.4,60.05180681032672,,2.0,"Calvin didn't slow his pace, gritting his teeth and staring straight ahead. ",3.0,2.0,,,,0.0,2.0,2.0,2.0,,,,,0.0,17.0,17.0,17.0,,,,,,,,,,,,,,,,,,,,,,,,,,,,,1.0,3.6036274350190065,,,,,,,,,,,,,,,,,,,,,,,,,,,,030819_p1,1.0,2019_Mar_08_1213,body_behavioural,3.0.4,59.84914662825267,
88,2.0,"“Tell me about your day!”, Sadie sang as Thomas sat down.",2.0,1.0,None,None,,0.0,2.0,2.0,2.0,,,,,0.0,16.0,16.0,16.0,,,,,,,,,,,,,,,,,,,,,,,,,,,,,1.0,2.4175062600115784,,,,,,,,,,,,,,,,,,,,,,,,,,,,030519_p3,1,2019_Mar_05_1619,body_behavioural,3.0.4,60.05180681032672,,2.0,He was very frustrated that he had been trying to appease Jessie this whole time and this was how she responded. ,3.0,2.0,,,,0.0,2.0,2.0,2.0,,,,,0.0,18.0,18.0,18.0,,,,,,,,,,,,,,,,,,,,,,,,,,,,,1.0,4.0530518800078426,,,,,,,,,,,,,,,,,,,,,,,,,,,,030819_p1,1.0,2019_Mar_08_1213,body_behavioural,3.0.4,59.84914662825267,
89,2.0,He looked at her silently and pulled his hand slowly from hers.,2.0,1.0,None,None,,0.0,2.0,2.0,2.0,,,,,0.0,17.0,17.0,17.0,,,,,,,,,,,,,,,,,,,,,,,,,,,,,1.0,2.086022610004875,,,,,,,,,,,,,,,,,,,,,,,,,,,,030519_p3,1,2019_Mar_05_1619,body_behavioural,3.0.4,60.05180681032672,,2.0,The silence was punctuated only by the rapid rhythmic clacking of their suitcase wheels over the tile floor as they continued power-walking through the terminal. ,3.0,2.0,,,,0.0,2.0,2.0,2.0,,,,,0.0,19.0,19.0,19.0,,,,,,,,,,,,,,,,,,,,,,,,,,,,,9.0,4.603326990007191,,,,,,,,,,,,,,,,,,,,,,,,,,,,030819_p1,1.0,2019_Mar_08_1213,body_behavioural,3.0.4,59.84914662825267,
90,2.0,Sadie gave him a puzzled look.,2.0,1.0,None,None,,0.0,2.0,2.0,2.0,,,,,0.0,18.0,18.0,18.0,,,,,,,,,,,,,,,,,,,,,,,,,,,,,1.0,0.9034762800001772,,,,,,,,,,,,,,,,,,,,,,,,,,,,030519_p3,1,2019_Mar_05_1619,body_behavioural,3.0.4,60.05180681032672,,2.0,"“Well?” Jessie said, and Calvin finally turned to her.",3.0,2.0,,,,0.0,2.0,2.0,2.0,,,,,0.0,20.0,20.0,20.0,,,,,,,,,,,,,,,,,,,,,,,,,,,,,1.0,2.569720175000839,,,,,,,,,,,,,,,,,,,,,,,,,,,,030819_p1,1.0,2019_Mar_08_1213,body_behavioural,3.0.4,59.84914662825267,
91,2.0,Thomas looked away and took a deep breath. ,2.0,1.0,None,None,,0.0,2.0,2.0,2.0,,,,,0.0,19.0,19.0,19.0,,,,,,,,,,,,,,,,,,,,,,,,,,,,,1.0,0.8693902180093573,,,,,,,,,,,,,,,,,,,,,,,,,,,,030519_p3,1,2019_Mar_05_1619,body_behavioural,3.0.4,60.05180681032672,,2.0,"“Well, Jessie, this makes perfect sense. ",3.0,3.0,,,,0.0,2.0,2.0,2.0,,,,,0.0,21.0,21.0,21.0,,,,,,,,,,,,,,,,,,,,,,,,,,,,,1.0,4.070076127012726,,,,,,,,,,,,,,,,,,,,,,,,,,,,030819_p1,1.0,2019_Mar_08_1213,body_behavioural,3.0.4,59.84914662825267,
92,2.0,"Sadie asked, “What’s wrong?” ",2.0,1.0,None,None,,0.0,2.0,2.0,2.0,,,,,0.0,20.0,20.0,20.0,,,,,,,,,,,,,,,,,,,,,,,,,,,,,1.0,0.6865114679967519,,,,,,,,,,,,,,,,,,,,,,,,,,,,030519_p3,1,2019_Mar_05_1619,body_behavioural,3.0.4,60.05180681032672,,2.0,"If you feel this way, then I don’t want to keep boring you, and I agree, let’s part ways once we make it back.",3.0,3.0,,,,0.0,2.0,2.0,2.0,,,,,0.0,22.0,22.0,22.0,,,,,,,,,,,,,,,,,,,,,,,,,,,,,1.0,7.053655488009099,,,,,,,,,,,,,,,,,,,,,,,,,,,,030819_p1,1.0,2019_Mar_08_1213,body_behavioural,3.0.4,59.84914662825267,
93,2.0,Thomas picked at his fingernails.,2.0,1.0,None,22.0,,0.0,2.0,2.0,2.0,,,,,0.0,21.0,21.0,21.0,,,,,,,,,,,,,,,,,,,,,,,,,,,,,1.0,1.2529877699998906,,,,,,,,,,,,,,,,,,,,,,,,,,,,030519_p3,1,2019_Mar_05_1619,body_behavioural,3.0.4,60.05180681032672,,2.0,You should’ve spoken up about my apparent intolerability before you decided to plan this vacation.”,3.0,3.0,,,,0.0,2.0,2.0,2.0,,,,,0.0,23.0,23.0,23.0,,,,,,,,,,,,,,,,,,,,,,,,,,,,,1.0,4.870374399994034,,,,,,,,,,,,,,,,,,,,,,,,,,,,030819_p1,1.0,2019_Mar_08_1213,body_behavioural,3.0.4,59.84914662825267,
94,2.0,"“Sadie, I’ve been thinking, and I need to figure out some stuff… on my own.”",2.0,2.0,None,None,,0.0,2.0,2.0,2.0,,,,,0.0,22.0,22.0,22.0,,,,,,,,,,,,,,,,,,,,,,,,,,,,,1.0,5.670092599990313,,,,,,,,,,,,,,,,,,,,,,,,,,,,030519_p3,1,2019_Mar_05_1619,body_behavioural,3.0.4,60.05180681032672,,2.0,"He was clearly hurt, but thought it was pointless to argue. ",3.0,3.0,,,,0.0,2.0,2.0,2.0,,,,,0.0,24.0,24.0,24.0,,,,,,,,,,,,,,,,,,,,,,,,,,,,,1.0,2.38648921798449,,,,,,,,,,,,,,,,,,,,,,,,,,,,030819_p1,1.0,2019_Mar_08_1213,body_behavioural,3.0.4,59.84914662825267,
95,2.0,Sadie’s mouth popped open for a moment.,2.0,2.0,None,None,,0.0,2.0,2.0,2.0,,,,,0.0,23.0,23.0,23.0,,,,,,,,,,,,,,,,,,,,,,,,,,,,,1.0,1.5527803730074083,,,,,,,,,,,,,,,,,,,,,,,,,,,,030519_p3,1,2019_Mar_05_1619,body_behavioural,3.0.4,60.05180681032672,,2.0,"They finally made it to the gate, just as they heard the final call for passengers boarding their flight.",3.0,3.0,,,,0.0,2.0,2.0,2.0,,,,,0.0,25.0,25.0,25.0,,,,,,,,,,,,,,,,,,,,,,,,,,,,,9.0,4.486093346000416,,,,,,,,,,,,,,,,,,,,,,,,,,,,030819_p1,1.0,2019_Mar_08_1213,body_behavioural,3.0.4,59.84914662825267,
96,2.0,Then she swallowed and shifted back in her seat.,2.0,2.0,None,None,,0.0,2.0,2.0,2.0,,,,,0.0,24.0,24.0,24.0,,,,,,,,,,,,,,,,,,,,,,,,,,,,,1.0,1.2173350600060076,,,,,,,,,,,,,,,,,,,,,,,,,,,,030519_p3,1,2019_Mar_05_1619,body_behavioural,3.0.4,60.05180681032672,,2.0,"They scanned their tickets, and the annoyed flight attendant shooed them onto the jet bridge and then closed the door behind them.",4.0,3.0,,,,0.0,2.0,2.0,2.0,,,,,0.0,26.0,26.0,26.0,,,,,,,,,,,,,,,,,,,,,,,,,,,,,1.0,5.769739334995393,,,,,,,,,,,,,,,,,,,,,,,,,,,,030819_p1,1.0,2019_Mar_08_1213,body_behavioural,3.0.4,59.84914662825267,
97,2.0,“Things have been really picking up at work.,2.0,2.0,None,None,,0.0,2.0,2.0,2.0,,,,,0.0,25.0,25.0,25.0,,,,,,,,,,,,,,,,,,,,,,,,,,,,,1.0,1.6525987399945734,,,,,,,,,,,,,,,,,,,,,,,,,,,,030519_p3,1,2019_Mar_05_1619,body_behavioural,3.0.4,60.05180681032672,,2.0,"Luckily, they had forgotten to arrange seats next to each other on the flight back.",4.0,3.0,,,,0.0,2.0,2.0,2.0,,,,,0.0,27.0,27.0,27.0,,,,,,,,,,,,,,,,,,,,,,,,,,,,,1.0,3.1533805000071875,,,,,,,,,,,,,,,,,,,,,,,,,,,,030819_p1,1.0,2019_Mar_08_1213,body_behavioural,3.0.4,59.84914662825267,
98,2.0,And I’m not sure that this is the job I want to do anymore.,2.0,2.0,None,None,,0.0,2.0,2.0,2.0,,,,,0.0,26.0,26.0,26.0,,,,,,,,,,,,,,,,,,,,,,,,,,,,,1.0,3.8865686770004686,,,,,,,,,,,,,,,,,,,,,,,,,,,,030519_p3,1,2019_Mar_05_1619,body_behavioural,3.0.4,60.05180681032672,,2.0,"They both had first-class tickets, but Jessie was headed for seat 1B while Calvin's seat was 4F. ",4.0,3.0,,,,0.0,2.0,2.0,2.0,,,,,0.0,28.0,28.0,28.0,,,,,,,,,,,,,,,,,,,,,,,,,,,,,1.0,4.567692949989578,,,,,,,,,,,,,,,,,,,,,,,,,,,,030819_p1,1.0,2019_Mar_08_1213,body_behavioural,3.0.4,59.84914662825267,
99,2.0,It’s been really overwhelming between working and figuring out if I should change careers.” ,2.0,2.0,17.0,None,,0.0,2.0,2.0,2.0,,,,,0.0,27.0,27.0,27.0,,,,,,,,,,,,,,,,,,,,,,,,,,,,,1.0,3.45317544300633,,,,,,,,,,,,,,,,,,,,,,,,,,,,030519_p3,1,2019_Mar_05_1619,body_behavioural,3.0.4,60.05180681032672,,2.0,"Before Jessie sat down, she took a deep breath and then awkwardly shook Calvin’s hand, mumbling, “Well, have a nice flight.” ",4.0,4.0,,,,0.0,2.0,2.0,2.0,,,,,0.0,29.0,29.0,29.0,,,,,,,,,,,,,,,,,,,,,,,,,,,,,1.0,3.852791887999047,,,,,,,,,,,,,,,,,,,,,,,,,,,,030819_p1,1.0,2019_Mar_08_1213,body_behavioural,3.0.4,59.84914662825267,
100,2.0,The waiter appeared and interrupted the speech Thomas had been practicing.,3.0,2.0,None,None,,0.0,2.0,2.0,2.0,,,,,0.0,28.0,28.0,28.0,,,,,,,,,,,,,,,,,,,,,,,,,,,,,1.0,3.51757115800865,,,,,,,,,,,,,,,,,,,,,,,,,,,,030519_p3,1,2019_Mar_05_1619,body_behavioural,3.0.4,60.05180681032672,,2.0,He laughed in disbelief and walked to his window seat three rows back to get ready for takeoff.,4.0,4.0,,,,0.0,2.0,2.0,2.0,,,,,0.0,30.0,30.0,30.0,,,,,,,,,,,,,,,,,,,,,,,,,,,,,1.0,3.4534654619928915,,,,,,,,,,,,,,,,,,,,,,,,,,,,030819_p1,1.0,2019_Mar_08_1213,body_behavioural,3.0.4,59.84914662825267,
101,2.0,"“Hello you two!”, the waiter said.",3.0,2.0,None,None,,0.0,2.0,2.0,2.0,,,,,0.0,29.0,29.0,29.0,,,,,,,,,,,,,,,,,,,,,,,,,,,,,9.0,3.300869204991613,,,,,,,,,,,,,,,,,,,,,,,,,,,,030519_p3,1,2019_Mar_05_1619,body_behavioural,3.0.4,60.05180681032672,,2.0,Both were upset but glad that they would have this flight to mull things over and recenter. ,4.0,4.0,,,,0.0,2.0,2.0,2.0,,,,,0.0,31.0,31.0,31.0,,,,,,,,,,,,,,,,,,,,,,,,,,,,,1.0,4.752541374997236,,,,,,,,,,,,,,,,,,,,,,,,,,,,030819_p1,1.0,2019_Mar_08_1213,body_behavioural,3.0.4,59.84914662825267,
102,2.0,“Have you decided what you would like?”,3.0,2.0,None,None,,0.0,2.0,2.0,2.0,,,,,0.0,30.0,30.0,30.0,,,,,,,,,,,,,,,,,,,,,,,,,,,,,1.0,1.4361875780014088,,,,,,,,,,,,,,,,,,,,,,,,,,,,030519_p3,1,2019_Mar_05_1619,body_behavioural,3.0.4,60.05180681032672,,2.0,,,,,,,0.0,2.0,2.0,2.0,,,,,,,,,,,,,,,,,,,,,,,,,,,,,,,,,,,,,,,,,,,,,,,,,,,,,,,,,,,,,,,,,,030819_p1,1.0,2019_Mar_08_1213,body_behavioural,3.0.4,59.84914662825267,
103,2.0,"Thomas and Sadie realized there were menus on the table, and they glanced at the lengthy list quickly.",3.0,2.0,None,None,,0.0,2.0,2.0,2.0,,,,,0.0,31.0,31.0,31.0,,,,,,,,,,,,,,,,,,,,,,,,,,,,,1.0,3.5031531529966737,,,,,,,,,,,,,,,,,,,,,,,,,,,,030519_p3,1,2019_Mar_05_1619,body_behavioural,3.0.4,60.05180681032672,,3.0,,,,,,,0.0,3.0,3.0,3.0,0.0,0.0,0.0,0.0,,,,,,,,,,,,,,,,,,,,,,,,,,,space,1.6197848900046663,space,1.1349812170083171,space,5.120494678005342,,,,,,,,,,,,,,,,,,,,,,,,,,,,,,030819_p1,1.0,2019_Mar_08_1213,body_behavioural,3.0.4,59.84914662825267,
104,2.0,"There were so many strange dishes they had never heard of before, so they settled on familiar orders.",3.0,2.0,None,None,,0.0,2.0,2.0,2.0,,,,,0.0,32.0,32.0,32.0,,,,,,,,,,,,,,,,,,,,,,,,,,,,,1.0,2.2696674379985784,,,,,,,,,,,,,,,,,,,,,,,,,,,,030519_p3,1,2019_Mar_05_1619,body_behavioural,3.0.4,60.05180681032672,,3.0,"Leon and  Ariana hurried into the classroom at the same time, and Leon did a double-take when he saw her. ",1.0,1.0,,,,0.0,3.0,3.0,3.0,,,,,0.0,0.0,0.0,0.0,,,,,,,,,,,,,,,,,,,,,,,,,,,,,9.0,4.5541706400108515,,,,,,,,,,,,,,,,,,,,,,,,,,,,030819_p1,1.0,2019_Mar_08_1213,body_behavioural,3.0.4,59.84914662825267,
105,2.0,"“I’ll have a burger, no tomatoes,” Thomas said.",3.0,2.0,None,None,,0.0,2.0,2.0,2.0,,,,,0.0,33.0,33.0,33.0,,,,,,,,,,,,,,,,,,,,,,,,,,,,,1.0,1.5197231229976749,,,,,,,,,,,,,,,,,,,,,,,,,,,,030519_p3,1,2019_Mar_05_1619,body_behavioural,3.0.4,60.05180681032672,,3.0,"This was his first day after transferring to this university, and he had assumed that he wouldn’t know anyone on campus, but he couldn't shake the nagging feeling  that he had seen her somewhere before. ",1.0,1.0,,,,0.0,3.0,3.0,3.0,,,,,0.0,1.0,1.0,1.0,,,,,,,,,,,,,,,,,,,,,,,,,,,,,1.0,10.253794552991168,,,,,,,,,,,,,,,,,,,,,,,,,,,,030819_p1,1.0,2019_Mar_08_1213,body_behavioural,3.0.4,59.84914662825267,
106,2.0,"Sadie asked about the reuben, and the waiter told her it was excellent.",3.0,2.0,None,None,,0.0,2.0,2.0,2.0,,,,,0.0,34.0,34.0,34.0,,,,,,,,,,,,,,,,,,,,,,,,,,,,,1.0,2.003273829992395,,,,,,,,,,,,,,,,,,,,,,,,,,,,030519_p3,1,2019_Mar_05_1619,body_behavioural,3.0.4,60.05180681032672,,3.0,"They were both a bit late, so they quickly slid into seats next to each other in the back of the small classroom.",1.0,1.0,,,,0.0,3.0,3.0,3.0,,,,,0.0,2.0,2.0,2.0,,,,,,,,,,,,,,,,,,,,,,,,,,,,,1.0,7.268146479997085,,,,,,,,,,,,,,,,,,,,,,,,,,,,030819_p1,1.0,2019_Mar_08_1213,body_behavioural,3.0.4,59.84914662825267,
107,2.0,"Once she agreed to get that, he walked away. ",3.0,2.0,None,None,,0.0,2.0,2.0,2.0,,,,,0.0,35.0,35.0,35.0,,,,,,,,,,,,,,,,,,,,,,,,,,,,,1.0,1.8341385030071249,,,,,,,,,,,,,,,,,,,,,,,,,,,,030519_p3,1,2019_Mar_05_1619,body_behavioural,3.0.4,60.05180681032672,,3.0,"This room was usually used for small meetings, but had been rearranged with the table pushed to the side and chairs set up in rows to face the projector screen. ",1.0,1.0,,,,0.0,3.0,3.0,3.0,,,,,0.0,3.0,3.0,3.0,,,,,,,,,,,,,,,,,,,,,,,,,,,,,1.0,6.884531836985843,,,,,,,,,,,,,,,,,,,,,,,,,,,,030819_p1,1.0,2019_Mar_08_1213,body_behavioural,3.0.4,59.84914662825267,
108,2.0,Sadie and Thomas looked at each other. ,3.0,2.0,None,None,,0.0,2.0,2.0,2.0,,,,,0.0,36.0,36.0,36.0,,,,,,,,,,,,,,,,,,,,,,,,,,,,,9.0,1.3696573100023668,,,,,,,,,,,,,,,,,,,,,,,,,,,,030519_p3,1,2019_Mar_05_1619,body_behavioural,3.0.4,60.05180681032672,,3.0,"There were no windows in the room, since they were down in the sub-basement of the history department.",1.0,1.0,,,,0.0,3.0,3.0,3.0,,,,,0.0,4.0,4.0,4.0,,,,,,,,,,,,,,,,,,,,,,,,,,,,,1.0,4.569972350000171,,,,,,,,,,,,,,,,,,,,,,,,,,,,030819_p1,1.0,2019_Mar_08_1213,body_behavioural,3.0.4,59.84914662825267,
109,2.0,"“So what are you saying?”, Sadie asked. ",3.0,2.0,None,None,,0.0,2.0,2.0,2.0,,,,,0.0,37.0,37.0,37.0,,,,,,,,,,,,,,,,,,,,,,,,,,,,,1.0,1.1359045080025678,,,,,,,,,,,,,,,,,,,,,,,,,,,,030519_p3,1,2019_Mar_05_1619,body_behavioural,3.0.4,60.05180681032672,,3.0,"Leon, trying to figure out where he had seen her before, could not stop looking over at Ariana.",1.0,1.0,,,,0.0,3.0,3.0,3.0,,,,,0.0,5.0,5.0,5.0,,,,,,,,,,,,,,,,,,,,,,,,,,,,,1.0,3.869478999986313,,,,,,,,,,,,,,,,,,,,,,,,,,,,030819_p1,1.0,2019_Mar_08_1213,body_behavioural,3.0.4,59.84914662825267,
110,2.0,"Thomas replied, “I want to take a break for awhile.",3.0,2.0,None,None,,0.0,2.0,2.0,2.0,,,,,0.0,38.0,38.0,38.0,,,,,,,,,,,,,,,,,,,,,,,,,,,,,1.0,1.3175259850104342,,,,,,,,,,,,,,,,,,,,,,,,,,,,030519_p3,1,2019_Mar_05_1619,body_behavioural,3.0.4,60.05180681032672,,3.0,Ariana was oblivious to Leon’s gaze and was only focused on getting ready for class. ,1.0,1.0,,,,0.0,3.0,3.0,3.0,,,,,0.0,6.0,6.0,6.0,,,,,,,,,,,,,,,,,,,,,,,,,,,,,1.0,3.8868041099922266,,,,,,,,,,,,,,,,,,,,,,,,,,,,030819_p1,1.0,2019_Mar_08_1213,body_behavioural,3.0.4,59.84914662825267,
111,2.0,"You know, have space to figure out what I’m supposed to be doing.”",3.0,2.0,None,17.0,,0.0,2.0,2.0,2.0,,,,,0.0,39.0,39.0,39.0,,,,,,,,,,,,,,,,,,,,,,,,,,,,,1.0,1.7531338620028691,,,,,,,,,,,,,,,,,,,,,,,,,,,,030519_p3,1,2019_Mar_05_1619,body_behavioural,3.0.4,60.05180681032672,,3.0,"“Good afternoon class,” the professor began.",2.0,1.0,,,,0.0,3.0,3.0,3.0,,,,,0.0,7.0,7.0,7.0,,,,,,,,,,,,,,,,,,,,,,,,,,,,,1.0,4.936647397000343,,,,,,,,,,,,,,,,,,,,,,,,,,,,030819_p1,1.0,2019_Mar_08_1213,body_behavioural,3.0.4,59.84914662825267,
112,2.0,Sadie quietly burst into tears. ,3.0,3.0,None,None,,0.0,2.0,2.0,2.0,,,,,0.0,40.0,40.0,40.0,,,,,,,,,,,,,,,,,,,,,,,,,,,,,1.0,1.0196026030025678,,,,,,,,,,,,,,,,,,,,,,,,,,,,030519_p3,1,2019_Mar_05_1619,body_behavioural,3.0.4,60.05180681032672,,3.0,“Welcome to Egyptian Cultural Studies. ,2.0,1.0,,,,0.0,3.0,3.0,3.0,,,,,0.0,8.0,8.0,8.0,,,,,,,,,,,,,,,,,,,,,,,,,,,,,1.0,2.6866514769790233,,,,,,,,,,,,,,,,,,,,,,,,,,,,030819_p1,1.0,2019_Mar_08_1213,body_behavioural,3.0.4,59.84914662825267,
113,2.0,"Nevertheless, people sitting at the adjacent table looked over and quickly averted their gaze as they realized what was happening. ",3.0,3.0,None,None,,0.0,2.0,2.0,2.0,,,,,0.0,41.0,41.0,41.0,,,,,,,,,,,,,,,,,,,,,,,,,,,,,1.0,3.919736043011653,,,,,,,,,,,,,,,,,,,,,,,,,,,,030519_p3,1,2019_Mar_05_1619,body_behavioural,3.0.4,60.05180681032672,,3.0,"Today we will be talking about mummification, one of the most famous and often misunderstood customs in ancient Egyptian society.”",2.0,1.0,,,,0.0,3.0,3.0,3.0,,,,,0.0,9.0,9.0,9.0,,,,,,,,,,,,,,,,,,,,,,,,,,,,,1.0,3.769909642025596,,,,,,,,,,,,,,,,,,,,,,,,,,,,030819_p1,1.0,2019_Mar_08_1213,body_behavioural,3.0.4,59.84914662825267,
114,2.0,“Is this really what you want?,3.0,3.0,None,None,,0.0,2.0,2.0,2.0,,,,,0.0,42.0,42.0,42.0,,,,,,,,,,,,,,,,,,,,,,,,,,,,,1.0,0.7197651780006709,,,,,,,,,,,,,,,,,,,,,,,,,,,,030519_p3,1,2019_Mar_05_1619,body_behavioural,3.0.4,60.05180681032672,,3.0,Leon pulled out his notebook and tried to concentrate on the class.,2.0,1.0,,,,0.0,3.0,3.0,3.0,,,,,0.0,10.0,10.0,10.0,,,,,,,,,,,,,,,,,,,,,,,,,,,,,1.0,2.9532231720222626,,,,,,,,,,,,,,,,,,,,,,,,,,,,030819_p1,1.0,2019_Mar_08_1213,body_behavioural,3.0.4,59.84914662825267,
115,2.0,I don’t understand.,3.0,3.0,None,None,,0.0,2.0,2.0,2.0,,,,,0.0,43.0,43.0,43.0,,,,,,,,,,,,,,,,,,,,,,,,,,,,,1.0,0.652944954999839,,,,,,,,,,,,,,,,,,,,,,,,,,,,030519_p3,1,2019_Mar_05_1619,body_behavioural,3.0.4,60.05180681032672,,3.0,Within a few minutes though he found his attention wandering back to Ariana.,2.0,1.0,,,,0.0,3.0,3.0,3.0,,,,,0.0,11.0,11.0,11.0,,,,,,,,,,,,,,,,,,,,,,,,,,,,,1.0,3.6001040090050083,,,,,,,,,,,,,,,,,,,,,,,,,,,,030819_p1,1.0,2019_Mar_08_1213,body_behavioural,3.0.4,59.84914662825267,
116,2.0,I don’t understand.,3.0,3.0,None,None,,0.0,2.0,2.0,2.0,,,,,0.0,44.0,44.0,44.0,,,,,,,,,,,,,,,,,,,,,,,,,,,,,1.0,1.6365150130004622,,,,,,,,,,,,,,,,,,,,,,,,,,,,030519_p3,1,2019_Mar_05_1619,body_behavioural,3.0.4,60.05180681032672,,3.0,"He decided to do something about his hunch so he ripped off a corner of a page in his notebook, wrote a note, and set it on her desk.",2.0,1.0,,,,0.0,3.0,3.0,3.0,,,,,0.0,12.0,12.0,12.0,,,,,,,,,,,,,,,,,,,,,,,,,,,,,9.0,6.303429644991411,,,,,,,,,,,,,,,,,,,,,,,,,,,,030819_p1,1.0,2019_Mar_08_1213,body_behavioural,3.0.4,59.84914662825267,
117,2.0,Things were fine. ,3.0,3.0,None,None,,0.0,2.0,2.0,2.0,,,,,0.0,45.0,45.0,45.0,,,,,,,,,,,,,,,,,,,,,,,,,,,,,1.0,0.6530430679995334,,,,,,,,,,,,,,,,,,,,,,,,,,,,030519_p3,1,2019_Mar_05_1619,body_behavioural,3.0.4,60.05180681032672,,3.0,"“Hi, sorry to distract you from mummies, but you look really familiar, it read.""",2.0,2.0,,,,0.0,3.0,3.0,3.0,,,,,0.0,13.0,13.0,13.0,,,,,,,,,,,,,,,,,,,,,,,,,,,,,1.0,4.918686457007425,,,,,,,,,,,,,,,,,,,,,,,,,,,,030819_p1,1.0,2019_Mar_08_1213,body_behavioural,3.0.4,59.84914662825267,
118,2.0,"We don’t have to hang out all the time, or as much as we do now.”",3.0,3.0,None,None,,0.0,2.0,2.0,2.0,,,,,0.0,46.0,46.0,46.0,,,,,,,,,,,,,,,,,,,,,,,,,,,,,1.0,2.2866072199976766,,,,,,,,,,,,,,,,,,,,,,,,,,,,030519_p3,1,2019_Mar_05_1619,body_behavioural,3.0.4,60.05180681032672,,3.0,It continued: “Do I know you from somewhere?”,2.0,2.0,,,,0.0,3.0,3.0,3.0,,,,,0.0,14.0,14.0,14.0,,,,,,,,,,,,,,,,,,,,,,,,,,,,,1.0,2.73709350801073,,,,,,,,,,,,,,,,,,,,,,,,,,,,030819_p1,1.0,2019_Mar_08_1213,body_behavioural,3.0.4,59.84914662825267,
119,2.0,Thomas chewed on his bottom lip and picked at his now bleeding hangnail. ,3.0,3.0,20.0,None,,0.0,2.0,2.0,2.0,,,,,0.0,47.0,47.0,47.0,,,,,,,,,,,,,,,,,,,,,,,,,,,,,1.0,4.450966979988152,,,,,,,,,,,,,,,,,,,,,,,,,,,,030519_p3,1,2019_Mar_05_1619,body_behavioural,3.0.4,60.05180681032672,,3.0,"She looked at the note with surprise, and then turned to notice Leon for the first time. ",2.0,2.0,,,,0.0,3.0,3.0,3.0,,,,,0.0,15.0,15.0,15.0,,,,,,,,,,,,,,,,,,,,,,,,,,,,,1.0,7.168696887005353,,,,,,,,,,,,,,,,,,,,,,,,,,,,030819_p1,1.0,2019_Mar_08_1213,body_behavioural,3.0.4,59.84914662825267,
120,2.0,"At that moment, the waiter arrived with the burger and reuben and set them on the table.",4.0,3.0,None,None,,0.0,2.0,2.0,2.0,,,,,0.0,48.0,48.0,48.0,,,,,,,,,,,,,,,,,,,,,,,,,,,,,9.0,2.2199650099937567,,,,,,,,,,,,,,,,,,,,,,,,,,,,030519_p3,1,2019_Mar_05_1619,body_behavioural,3.0.4,60.05180681032672,,3.0,"She instantly liked him when she saw him; he had very soft eyes and sharp features, a combination that made him seem  trustworthy and genuine.",2.0,2.0,,,,0.0,3.0,3.0,3.0,,,,,0.0,16.0,16.0,16.0,,,,,,,,,,,,,,,,,,,,,,,,,,,,,1.0,6.120487573003629,,,,,,,,,,,,,,,,,,,,,,,,,,,,030819_p1,1.0,2019_Mar_08_1213,body_behavioural,3.0.4,59.84914662825267,
121,2.0,“Is there anything else I can get for you two?,4.0,3.0,None,None,,0.0,2.0,2.0,2.0,,,,,0.0,49.0,49.0,49.0,,,,,,,,,,,,,,,,,,,,,,,,,,,,,1.0,1.1194544400059383,,,,,,,,,,,,,,,,,,,,,,,,,,,,030519_p3,1,2019_Mar_05_1619,body_behavioural,3.0.4,60.05180681032672,,3.0,He smiled at her and she flashed him a smile back.,2.0,2.0,,,,0.0,3.0,3.0,3.0,,,,,0.0,17.0,17.0,17.0,,,,,,,,,,,,,,,,,,,,,,,,,,,,,1.0,3.436432824993972,,,,,,,,,,,,,,,,,,,,,,,,,,,,030819_p1,1.0,2019_Mar_08_1213,body_behavioural,3.0.4,59.84914662825267,
122,2.0,"Will you be getting dessert tonight?”, he asked.",4.0,3.0,None,None,,0.0,2.0,2.0,2.0,,,,,0.0,50.0,50.0,50.0,,,,,,,,,,,,,,,,,,,,,,,,,,,,,1.0,0.9699222550116248,,,,,,,,,,,,,,,,,,,,,,,,,,,,030519_p3,1,2019_Mar_05_1619,body_behavioural,3.0.4,60.05180681032672,,3.0,Then she turned the note over to the back and started to write a reply.,2.0,2.0,,,,0.0,3.0,3.0,3.0,,,,,0.0,18.0,18.0,18.0,,,,,,,,,,,,,,,,,,,,,,,,,,,,,1.0,4.518132383003831,,,,,,,,,,,,,,,,,,,,,,,,,,,,030819_p1,1.0,2019_Mar_08_1213,body_behavioural,3.0.4,59.84914662825267,
123,2.0,"“Oh no, we’re good, thanks,” Thomas said.",4.0,3.0,None,None,,0.0,2.0,2.0,2.0,,,,,0.0,51.0,51.0,51.0,,,,,,,,,,,,,,,,,,,,,,,,,,,,,1.0,0.8030452200036962,,,,,,,,,,,,,,,,,,,,,,,,,,,,030519_p3,1,2019_Mar_05_1619,body_behavioural,3.0.4,60.05180681032672,,3.0,"Meanwhile the professor continued, “One may well question why the ancient Egyptians spent so much time and effort on their funerary practices.",3.0,2.0,,,,0.0,3.0,3.0,3.0,,,,,0.0,19.0,19.0,19.0,,,,,,,,,,,,,,,,,,,,,,,,,,,,,1.0,6.834939638007199,,,,,,,,,,,,,,,,,,,,,,,,,,,,030819_p1,1.0,2019_Mar_08_1213,body_behavioural,3.0.4,59.84914662825267,
124,2.0,"Once the waiter had walked away still oblivious to the situation, Thomas sighed and said, “Sadie, I’m sorry.",4.0,3.0,None,None,,0.0,2.0,2.0,2.0,,,,,0.0,52.0,52.0,52.0,,,,,,,,,,,,,,,,,,,,,,,,,,,,,1.0,2.486397953005508,,,,,,,,,,,,,,,,,,,,,,,,,,,,030519_p3,1,2019_Mar_05_1619,body_behavioural,3.0.4,60.05180681032672,,3.0,"Not only was the mummification process itself a complicated affair, but there were also elaborate rituals before, during, and after death.",3.0,2.0,,,,0.0,3.0,3.0,3.0,,,,,0.0,20.0,20.0,20.0,,,,,,,,,,,,,,,,,,,,,,,,,,,,,1.0,4.520390602992848,,,,,,,,,,,,,,,,,,,,,,,,,,,,030819_p1,1.0,2019_Mar_08_1213,body_behavioural,3.0.4,59.84914662825267,
125,2.0,"You are so great, and I love hanging out with you.",4.0,3.0,None,None,,0.0,2.0,2.0,2.0,,,,,0.0,53.0,53.0,53.0,,,,,,,,,,,,,,,,,,,,,,,,,,,,,1.0,2.7196025529992767,,,,,,,,,,,,,,,,,,,,,,,,,,,,030519_p3,1,2019_Mar_05_1619,body_behavioural,3.0.4,60.05180681032672,,3.0,The practice required teams of experts with years of training and took a total of 70 days to complete.” ,3.0,2.0,,,,0.0,3.0,3.0,3.0,,,,,0.0,21.0,21.0,21.0,,,,,,,,,,,,,,,,,,,,,,,,,,,,,1.0,10.720441479992587,,,,,,,,,,,,,,,,,,,,,,,,,,,,030819_p1,1.0,2019_Mar_08_1213,body_behavioural,3.0.4,59.84914662825267,
126,2.0,But I need some time.,4.0,3.0,None,None,,0.0,2.0,2.0,2.0,,,,,0.0,54.0,54.0,54.0,,,,,,,,,,,,,,,,,,,,,,,,,,,,,1.0,0.6533783089980716,,,,,,,,,,,,,,,,,,,,,,,,,,,,030519_p3,1,2019_Mar_05_1619,body_behavioural,3.0.4,60.05180681032672,,3.0,"Ariana passed the note back to Leon, and she had replied, “No, but maybe my twin and I were separated at birth.”",3.0,2.0,,,,0.0,3.0,3.0,3.0,,,,,0.0,22.0,22.0,22.0,,,,,,,,,,,,,,,,,,,,,,,,,,,,,1.0,5.119603285013,,,,,,,,,,,,,,,,,,,,,,,,,,,,030819_p1,1.0,2019_Mar_08_1213,body_behavioural,3.0.4,59.84914662825267,
127,2.0,I’m so sorry.”,4.0,3.0,None,None,,0.0,2.0,2.0,2.0,,,,,0.0,55.0,55.0,55.0,,,,,,,,,,,,,,,,,,,,,,,,,,,,,1.0,0.4864200300071389,,,,,,,,,,,,,,,,,,,,,,,,,,,,030519_p3,1,2019_Mar_05_1619,body_behavioural,3.0.4,60.05180681032672,,3.0,They passed notes back and forth the whole class like they were back in high school.,3.0,2.0,,,,0.0,3.0,3.0,3.0,,,,,0.0,23.0,23.0,23.0,,,,,,,,,,,,,,,,,,,,,,,,,,,,,1.0,3.719809789996362,,,,,,,,,,,,,,,,,,,,,,,,,,,,030819_p1,1.0,2019_Mar_08_1213,body_behavioural,3.0.4,59.84914662825267,
128,2.0,"He grabbed her hand, and she pulled it out of his.",4.0,3.0,None,None,,0.0,2.0,2.0,2.0,,,,,0.0,56.0,56.0,56.0,,,,,,,,,,,,,,,,,,,,,,,,,,,,,1.0,2.3721844400133705,,,,,,,,,,,,,,,,,,,,,,,,,,,,030519_p3,1,2019_Mar_05_1619,body_behavioural,3.0.4,60.05180681032672,,3.0,"Near the end of the lecture, Leon wrote, “Would you like to go to dinner tonight?” ",3.0,3.0,,,,0.0,3.0,3.0,3.0,,,,,0.0,24.0,24.0,24.0,,,,,,,,,,,,,,,,,,,,,,,,,,,,,9.0,4.720275160012534,,,,,,,,,,,,,,,,,,,,,,,,,,,,030819_p1,1.0,2019_Mar_08_1213,body_behavioural,3.0.4,59.84914662825267,
129,2.0,"“Sadie,” he said.",4.0,3.0,None,17.0,,0.0,2.0,2.0,2.0,,,,,0.0,57.0,57.0,57.0,,,,,,,,,,,,,,,,,,,,,,,,,,,,,1.0,0.8197346119995927,,,,,,,,,,,,,,,,,,,,,,,,,,,,030519_p3,1,2019_Mar_05_1619,body_behavioural,3.0.4,60.05180681032672,,3.0,"Ariana read the note, and looked at him and nodded her head",3.0,3.0,,,,0.0,3.0,3.0,3.0,,,,,0.0,25.0,25.0,25.0,,,,,,,,,,,,,,,,,,,,,,,,,,,,,1.0,2.5031702070264146,,,,,,,,,,,,,,,,,,,,,,,,,,,,030819_p1,1.0,2019_Mar_08_1213,body_behavioural,3.0.4,59.84914662825267,
130,2.0," She stood up, grabbed half of the reuben and shook it at him as she growled, “Don’t follow me, and don’t talk to me anymore!”",4.0,4.0,None,None,,0.0,2.0,2.0,2.0,,,,,0.0,58.0,58.0,58.0,,,,,,,,,,,,,,,,,,,,,,,,,,,,,1.0,2.50317584000004,,,,,,,,,,,,,,,,,,,,,,,,,,,,030519_p3,1,2019_Mar_05_1619,body_behavioural,3.0.4,60.05180681032672,,3.0,"She wrote back on the slip of paper, “Pick me up at 6 in front of Patton Hall.”",3.0,3.0,,,,0.0,3.0,3.0,3.0,,,,,0.0,26.0,26.0,26.0,,,,,,,,,,,,,,,,,,,,,,,,,,,,,1.0,3.636594862007769,,,,,,,,,,,,,,,,,,,,,,,,,,,,030819_p1,1.0,2019_Mar_08_1213,body_behavioural,3.0.4,59.84914662825267,
131,2.0,"Sadie's heels clacked loudly against the black and white linoleum, and the bell above the door jingled cheerfully as the door closed behind her.",4.0,4.0,None,None,,0.0,2.0,2.0,2.0,,,,,0.0,59.0,59.0,59.0,,,,,,,,,,,,,,,,,,,,,,,,,,,,,1.0,3.619625464998535,,,,,,,,,,,,,,,,,,,,,,,,,,,,030519_p3,1,2019_Mar_05_1619,body_behavioural,3.0.4,60.05180681032672,,3.0,Then the professor ended the lecture and announced to the class that they would have their first quiz next class on Friday on mummification. ,4.0,3.0,,,,0.0,3.0,3.0,3.0,,,,,0.0,27.0,27.0,27.0,,,,,,,,,,,,,,,,,,,,,,,,,,,,,1.0,4.952692850987661,,,,,,,,,,,,,,,,,,,,,,,,,,,,030819_p1,1.0,2019_Mar_08_1213,body_behavioural,3.0.4,59.84914662825267,
132,2.0,Thomas sat there for awhile in shock at how quickly everything transpired. ,4.0,4.0,None,None,,0.0,2.0,2.0,2.0,,,,,0.0,60.0,60.0,60.0,,,,,,,,,,,,,,,,,,,,,,,,,,,,,1.0,2.720491976986523,,,,,,,,,,,,,,,,,,,,,,,,,,,,030519_p3,1,2019_Mar_05_1619,body_behavioural,3.0.4,60.05180681032672,,3.0,"Everyone packed up and started heading out, as well as Sophie and Leon.",4.0,3.0,,,,0.0,3.0,3.0,3.0,,,,,0.0,28.0,28.0,28.0,,,,,,,,,,,,,,,,,,,,,,,,,,,,,1.0,3.2037181380146653,,,,,,,,,,,,,,,,,,,,,,,,,,,,030819_p1,1.0,2019_Mar_08_1213,body_behavioural,3.0.4,59.84914662825267,
133,2.0,"He grabbed his burger and took a bite of it, creating a dry and fishy taste in his mouth.",4.0,4.0,None,None,,0.0,2.0,2.0,2.0,,,,,0.0,61.0,61.0,61.0,,,,,,,,,,,,,,,,,,,,,,,,,,,,,1.0,2.9710985099955,,,,,,,,,,,,,,,,,,,,,,,,,,,,030519_p3,1,2019_Mar_05_1619,body_behavioural,3.0.4,60.05180681032672,,3.0,"They approached each other smiling, and Leon said, “Well it was great to meet you, again, or maybe not again, but regardless it was great to meet you.” ",4.0,3.0,,,,0.0,3.0,3.0,3.0,,,,,0.0,29.0,29.0,29.0,,,,,,,,,,,,,,,,,,,,,,,,,,,,,9.0,7.137054199993144,,,,,,,,,,,,,,,,,,,,,,,,,,,,030819_p1,1.0,2019_Mar_08_1213,body_behavioural,3.0.4,59.84914662825267,
134,2.0,He dropped it back on his plate and wondered if the restaurant was responsible for the foul taste. ,4.0,4.0,13.0,5.0,,0.0,2.0,2.0,2.0,,,,,0.0,62.0,62.0,62.0,,,,,,,,,,,,,,,,,,,,,,,,,,,,,1.0,2.8031945249967976,,,,,,,,,,,,,,,,,,,,,,,,,,,,030519_p3,1,2019_Mar_05_1619,body_behavioural,3.0.4,60.05180681032672,,3.0,"She replied, “Yes, it was.",4.0,4.0,,,,0.0,3.0,3.0,3.0,,,,,0.0,30.0,30.0,30.0,,,,,,,,,,,,,,,,,,,,,,,,,,,,,1.0,1.9532104549871288,,,,,,,,,,,,,,,,,,,,,,,,,,,,030819_p1,1.0,2019_Mar_08_1213,body_behavioural,3.0.4,59.84914662825267,
135,2.0,,,,,,,0.0,2.0,2.0,2.0,,,,,,,,,,,,,,,,,,,,,,,,,,,,,,,,,,,,,,,,,,,,,,,,,,,,,,,,,,,,,,,,,,030519_p3,1,2019_Mar_05_1619,body_behavioural,3.0.4,60.05180681032672,,3.0,"I have to run to my next class, but I’ll see you later tonight.” ",4.0,4.0,,,,0.0,3.0,3.0,3.0,,,,,0.0,31.0,31.0,31.0,,,,,,,,,,,,,,,,,,,,,,,,,,,,,1.0,2.6361887149978434,,,,,,,,,,,,,,,,,,,,,,,,,,,,030819_p1,1.0,2019_Mar_08_1213,body_behavioural,3.0.4,59.84914662825267,
136,3.0,,,,,,,0.0,3.0,3.0,3.0,0.0,0.0,0.0,0.0,,,,,,,,,,,,,,,,,,,,,,,,,,,space,1.6696481649996713,space,0.469683420000365,space,0.7367161750007654,,,,,,,,,,,,,,,,,,,,,,,,,,,,,,030519_p3,1,2019_Mar_05_1619,body_behavioural,3.0.4,60.05180681032672,,3.0,"She waved as they parted ways outside of the door of the classroom, and Leon was still trying to figure out where he had seen her before as he watched her go. ",4.0,4.0,,,,0.0,3.0,3.0,3.0,,,,,0.0,32.0,32.0,32.0,,,,,,,,,,,,,,,,,,,,,,,,,,,,,1.0,4.968891428987263,,,,,,,,,,,,,,,,,,,,,,,,,,,,030819_p1,1.0,2019_Mar_08_1213,body_behavioural,3.0.4,59.84914662825267,
137,3.0,"Jeff, hoping that today would be a pivotal day for his new business, had only been waiting inside the doors of the airport for a few minutes when he saw William and eagerly waved him over. ",1.0,1.0,,,,0.0,3.0,3.0,3.0,,,,,0.0,0.0,0.0,0.0,,,,,,,,,,,,,,,,,,,,,,,,,,,,,9.0,5.467732295001042,,,,,,,,,,,,,,,,,,,,,,,,,,,,030519_p3,1,2019_Mar_05_1619,body_behavioural,3.0.4,60.05180681032672,,3.0,,,,,,,0.0,3.0,3.0,3.0,,,,,,,,,,,,,,,,,,,,,,,,,,,,,,,,,,,,,,,,,,,,,,,,,,,,,,,,,,,,,,,,,,030819_p1,1.0,2019_Mar_08_1213,body_behavioural,3.0.4,59.84914662825267,
138,3.0,"Jeff, checking his watch, was pleased to see that the two of them had two hours to discuss business before their flights left Boston.",1.0,1.0,,,,0.0,3.0,3.0,3.0,,,,,0.0,1.0,1.0,1.0,,,,,,,,,,,,,,,,,,,,,,,,,,,,,1.0,12.203956183002449,,,,,,,,,,,,,,,,,,,,,,,,,,,,030519_p3,1,2019_Mar_05_1619,body_behavioural,3.0.4,60.05180681032672,,4.0,,,,,,,0.0,4.0,4.0,4.0,0.0,0.0,0.0,0.0,,,,,,,,,,,,,,,,,,,,,,,,,,,space,1.503500199993141,space,1.45265596700483,space,1.2194689650204964,,,,,,,,,,,,,,,,,,,,,,,,,,,,,,030819_p1,1.0,2019_Mar_08_1213,body_behavioural,3.0.4,59.84914662825267,
139,3.0,The two had met the night before in line for the bathroom at a local bar. ,1.0,1.0,,,,0.0,3.0,3.0,3.0,,,,,0.0,2.0,2.0,2.0,,,,,,,,,,,,,,,,,,,,,,,,,,,,,9.0,2.886515227000928,,,,,,,,,,,,,,,,,,,,,,,,,,,,030519_p3,1,2019_Mar_05_1619,body_behavioural,3.0.4,60.05180681032672,,4.0,"Simon and Carina noticed each other as they walked into the grocery store at the same time, their carts nearly colliding as they squeezed into the entrance.",1.0,1.0,,,,0.0,4.0,4.0,4.0,,,,,0.0,0.0,0.0,0.0,,,,,,,,,,,,,,,,,,,,,,,,,,,,,9.0,6.270395034982357,,,,,,,,,,,,,,,,,,,,,,,,,,,,030819_p1,1.0,2019_Mar_08_1213,body_behavioural,3.0.4,59.84914662825267,
140,3.0,Jeff had delivered some surprisingly-detailed complaints to William about the wine selection.,1.0,1.0,,,,0.0,3.0,3.0,3.0,,,,,0.0,3.0,3.0,3.0,,,,,,,,,,,,,,,,,,,,,,,,,,,,,1.0,2.9368863100098683,,,,,,,,,,,,,,,,,,,,,,,,,,,,030519_p3,1,2019_Mar_05_1619,body_behavioural,3.0.4,60.05180681032672,,4.0,"They were both new to the Boston area, and this was their first time in this store. ",1.0,1.0,,,,0.0,4.0,4.0,4.0,,,,,0.0,1.0,1.0,1.0,,,,,,,,,,,,,,,,,,,,,,,,,,,,,1.0,3.219920311996248,,,,,,,,,,,,,,,,,,,,,,,,,,,,030819_p1,1.0,2019_Mar_08_1213,body_behavioural,3.0.4,59.84914662825267,
141,3.0,They quickly learned about each other that Jeff was a representative for wine vineyards in the Northeast and William was a wine buyer for corporate events.,1.0,1.0,,,,0.0,3.0,3.0,3.0,,,,,0.0,4.0,4.0,4.0,,,,,,,,,,,,,,,,,,,,,,,,,,,,,1.0,5.7376484779961165,,,,,,,,,,,,,,,,,,,,,,,,,,,,030519_p3,1,2019_Mar_05_1619,body_behavioural,3.0.4,60.05180681032672,,4.0,"It kind of looked like a large warehouse, with high unfurnished ceilings, industrial lights, and large packages of food. ",1.0,1.0,,,,0.0,4.0,4.0,4.0,,,,,0.0,2.0,2.0,2.0,,,,,,,,,,,,,,,,,,,,,,,,,,,,,1.0,6.0869015869975565,,,,,,,,,,,,,,,,,,,,,,,,,,,,030819_p1,1.0,2019_Mar_08_1213,body_behavioural,3.0.4,59.84914662825267,
142,3.0,"Since they both had flights out of Boston at the same time, they had agreed to meet at the airport and talk about potentially doing business. ",1.0,1.0,,,,0.0,3.0,3.0,3.0,,,,,0.0,5.0,5.0,5.0,,,,,,,,,,,,,,,,,,,,,,,,,,,,,1.0,4.786917413002811,,,,,,,,,,,,,,,,,,,,,,,,,,,,030519_p3,1,2019_Mar_05_1619,body_behavioural,3.0.4,60.05180681032672,,4.0,"They went off along separate routes, but soon ended up back together in the meat section. ",2.0,1.0,,,,0.0,4.0,4.0,4.0,,,,,0.0,3.0,3.0,3.0,,,,,,,,,,,,,,,,,,,,,,,,,,,,,9.0,5.936195735994262,,,,,,,,,,,,,,,,,,,,,,,,,,,,030819_p1,1.0,2019_Mar_08_1213,body_behavioural,3.0.4,59.84914662825267,
143,3.0,"They headed to security together, pleased to find that the line was not so long, and they chatted a little as they were waiting. ",2.0,1.0,,,,0.0,3.0,3.0,3.0,,,,,0.0,6.0,6.0,6.0,,,,,,,,,,,,,,,,,,,,,,,,,,,,,9.0,3.303209539997624,,,,,,,,,,,,,,,,,,,,,,,,,,,,030519_p3,1,2019_Mar_05_1619,body_behavioural,3.0.4,60.05180681032672,,4.0,"They were both preparing for barbecues, so they were looking over the same cuts of meat. ",2.0,1.0,,,,0.0,4.0,4.0,4.0,,,,,0.0,4.0,4.0,4.0,,,,,,,,,,,,,,,,,,,,,,,,,,,,,1.0,2.370717245008564,,,,,,,,,,,,,,,,,,,,,,,,,,,,030819_p1,1.0,2019_Mar_08_1213,body_behavioural,3.0.4,59.84914662825267,
144,3.0,"“It’s crazy that we met last night,” William said, “I am flying out right now to meet my boss, and was worried that I was going to show up empty handed without any local retailer prepared.” ",2.0,1.0,,,,0.0,3.0,3.0,3.0,,,,,0.0,7.0,7.0,7.0,,,,,,,,,,,,,,,,,,,,,,,,,,,,,1.0,10.453127743006917,,,,,,,,,,,,,,,,,,,,,,,,,,,,030519_p3,1,2019_Mar_05_1619,body_behavioural,3.0.4,60.05180681032672,,4.0,"Simon really wanted to talk to Carina, and Carina really wanted to say something to Simon, but they felt embarrassed striking up a conversation with a stranger.",2.0,1.0,,,,0.0,4.0,4.0,4.0,,,,,0.0,5.0,5.0,5.0,,,,,,,,,,,,,,,,,,,,,,,,,,,,,1.0,10.853840834985023,,,,,,,,,,,,,,,,,,,,,,,,,,,,030819_p1,1.0,2019_Mar_08_1213,body_behavioural,3.0.4,59.84914662825267,
145,3.0,"“I know, what are the chances, right?” Jeff said.",2.0,1.0,,,,0.0,3.0,3.0,3.0,,,,,0.0,8.0,8.0,8.0,,,,,,,,,,,,,,,,,,,,,,,,,,,,,1.0,1.9695054829935543,,,,,,,,,,,,,,,,,,,,,,,,,,,,030519_p3,1,2019_Mar_05_1619,body_behavioural,3.0.4,60.05180681032672,,4.0,"Carina suddenly turned to Simon and, pointing at a Cornish hen, asked, “Isn’t this meat cute?”",2.0,2.0,,,,0.0,4.0,4.0,4.0,,,,,0.0,6.0,6.0,6.0,,,,,,,,,,,,,,,,,,,,,,,,,,,,,1.0,6.669790791987906,,,,,,,,,,,,,,,,,,,,,,,,,,,,030819_p1,1.0,2019_Mar_08_1213,body_behavioural,3.0.4,59.84914662825267,
146,3.0,"William laughed and said, “I’m glad our shared complaining can come in handy.",2.0,1.0,,,,0.0,3.0,3.0,3.0,,,,,0.0,9.0,9.0,9.0,,,,,,,,,,,,,,,,,,,,,,,,,,,,,1.0,2.320193740000832,,,,,,,,,,,,,,,,,,,,,,,,,,,,030519_p3,1,2019_Mar_05_1619,body_behavioural,3.0.4,60.05180681032672,,4.0,"He laughed, and said, “It is very cute.",2.0,2.0,,,,0.0,4.0,4.0,4.0,,,,,0.0,7.0,7.0,7.0,,,,,,,,,,,,,,,,,,,,,,,,,,,,,1.0,4.653539602004457,,,,,,,,,,,,,,,,,,,,,,,,,,,,030819_p1,1.0,2019_Mar_08_1213,body_behavioural,3.0.4,59.84914662825267,
147,3.0,"I know this is fast, but I'd like to get right down to specifics.",2.0,2.0,,,,0.0,3.0,3.0,3.0,,,,,0.0,10.0,10.0,10.0,,,,,,,,,,,,,,,,,,,,,,,,,,,,,1.0,1.2527472770016177,,,,,,,,,,,,,,,,,,,,,,,,,,,,030519_p3,1,2019_Mar_05_1619,body_behavioural,3.0.4,60.05180681032672,,4.0,"Probably the younger brother of this guy,” and he picked up a regular-sized chicken.",2.0,2.0,,,,0.0,4.0,4.0,4.0,,,,,0.0,8.0,8.0,8.0,,,,,,,,,,,,,,,,,,,,,,,,,,,,,1.0,3.5198193669784814,,,,,,,,,,,,,,,,,,,,,,,,,,,,030819_p1,1.0,2019_Mar_08_1213,body_behavioural,3.0.4,59.84914662825267,
148,3.0,I'd like to order a couple of sample shipments from you and present them to our corporate buyers.,2.0,2.0,,,,0.0,3.0,3.0,3.0,,,,,0.0,11.0,11.0,11.0,,,,,,,,,,,,,,,,,,,,,,,,,,,,,1.0,2.1365308779932093,,,,,,,,,,,,,,,,,,,,,,,,,,,,030519_p3,1,2019_Mar_05_1619,body_behavioural,3.0.4,60.05180681032672,,4.0,"“Unlucky family,” she responded. ",2.0,2.0,,,,0.0,4.0,4.0,4.0,,,,,0.0,9.0,9.0,9.0,,,,,,,,,,,,,,,,,,,,,,,,,,,,,1.0,2.069700071995612,,,,,,,,,,,,,,,,,,,,,,,,,,,,030819_p1,1.0,2019_Mar_08_1213,body_behavioural,3.0.4,59.84914662825267,
149,3.0,"Typically we expect to get these kinds of samples at a deep discount, at least half-off the label price.",2.0,2.0,,,,0.0,3.0,3.0,3.0,,,,,0.0,12.0,12.0,12.0,,,,,,,,,,,,,,,,,,,,,,,,,,,,,1.0,2.036233639999409,,,,,,,,,,,,,,,,,,,,,,,,,,,,030519_p3,1,2019_Mar_05_1619,body_behavioural,3.0.4,60.05180681032672,,4.0,They continued to chat as they picked out their groceries.,2.0,2.0,,,,0.0,4.0,4.0,4.0,,,,,0.0,10.0,10.0,10.0,,,,,,,,,,,,,,,,,,,,,,,,,,,,,1.0,2.7704080650000837,,,,,,,,,,,,,,,,,,,,,,,,,,,,030819_p1,1.0,2019_Mar_08_1213,body_behavioural,3.0.4,59.84914662825267,
150,3.0,"This is nothing, okay, compared to what you will be making if one of these buyers makes a contract.",2.0,2.0,,,,0.0,3.0,3.0,3.0,,,,,0.0,13.0,13.0,13.0,,,,,,,,,,,,,,,,,,,,,,,,,,,,,1.0,2.6205121279926966,,,,,,,,,,,,,,,,,,,,,,,,,,,,030519_p3,1,2019_Mar_05_1619,body_behavioural,3.0.4,60.05180681032672,,4.0,"Simon helped Carina pick out the best ribs and his personal favorite barbeque sauce, and she helped him gather the  peppers, onions, and spices for a vegetable kabob she recommended.",2.0,2.0,,,,0.0,4.0,4.0,4.0,,,,,0.0,11.0,11.0,11.0,,,,,,,,,,,,,,,,,,,,,,,,,,,,,1.0,3.3526018539851066,,,,,,,,,,,,,,,,,,,,,,,,,,,,030819_p1,1.0,2019_Mar_08_1213,body_behavioural,3.0.4,59.84914662825267,
151,3.0,So I propose that you send us $600 worth of wine shipments for a price of $300.”,2.0,2.0,,,,0.0,3.0,3.0,3.0,,,,,0.0,14.0,14.0,14.0,,,,,,,,,,,,,,,,,,,,,,,,,,,,,1.0,15.037470253009815,,,,,,,,,,,,,,,,,,,,,,,,,,,,030519_p3,1,2019_Mar_05_1619,body_behavioural,3.0.4,60.05180681032672,,4.0,"When they were both finished shopping, they went to the checkout area.",3.0,2.0,,,,0.0,4.0,4.0,4.0,,,,,0.0,12.0,12.0,12.0,,,,,,,,,,,,,,,,,,,,,,,,,,,,,9.0,2.170587278000312,,,,,,,,,,,,,,,,,,,,,,,,,,,,030819_p1,1.0,2019_Mar_08_1213,body_behavioural,3.0.4,59.84914662825267,
152,3.0,"When it was their turn to go through the metal detector, they took off their shoes and pulled out their laptops.",2.0,2.0,,,,0.0,3.0,3.0,3.0,,,,,0.0,15.0,15.0,15.0,,,,,,,,,,,,,,,,,,,,,,,,,,,,,9.0,3.137011610000627,,,,,,,,,,,,,,,,,,,,,,,,,,,,030519_p3,1,2019_Mar_05_1619,body_behavioural,3.0.4,60.05180681032672,,4.0,"Simon was disappointed to see that the lines were short, since he had been hoping for an excuse to spend more time with Carina.",3.0,2.0,,,,0.0,4.0,4.0,4.0,,,,,0.0,13.0,13.0,13.0,,,,,,,,,,,,,,,,,,,,,,,,,,,,,1.0,4.817695553007071,,,,,,,,,,,,,,,,,,,,,,,,,,,,030819_p1,1.0,2019_Mar_08_1213,body_behavioural,3.0.4,59.84914662825267,
153,3.0,"Jeff mulled over the offer, nodding noncommittally to William's pitch as they proceeded through the metal detector and retrieved their belongings.",2.0,2.0,,,,0.0,3.0,3.0,3.0,,,,,0.0,16.0,16.0,16.0,,,,,,,,,,,,,,,,,,,,,,,,,,,,,9.0,2.5696559149946547,,,,,,,,,,,,,,,,,,,,,,,,,,,,030519_p3,1,2019_Mar_05_1619,body_behavioural,3.0.4,60.05180681032672,,4.0,"They had real chemistry, and both of them could definitely see a future together despite having just met.",3.0,2.0,,,,0.0,4.0,4.0,4.0,,,,,0.0,14.0,14.0,14.0,,,,,,,,,,,,,,,,,,,,,,,,,,,,,1.0,5.386755332001486,,,,,,,,,,,,,,,,,,,,,,,,,,,,030819_p1,1.0,2019_Mar_08_1213,body_behavioural,3.0.4,59.84914662825267,
154,3.0,"They began to walk through the concourse, and William handed some printed spreadsheets to Jeff as they navigated toward their gates at the end of the terminal.",3.0,2.0,,,,0.0,3.0,3.0,3.0,,,,,0.0,17.0,17.0,17.0,,,,,,,,,,,,,,,,,,,,,,,,,,,,,1.0,4.853320748006809,,,,,,,,,,,,,,,,,,,,,,,,,,,,030519_p3,1,2019_Mar_05_1619,body_behavioural,3.0.4,60.05180681032672,,4.0,"“So you haven’t been around the city much?”, Simon asked. ",3.0,2.0,,,,0.0,4.0,4.0,4.0,,,,,0.0,15.0,15.0,15.0,,,,,,,,,,,,,,,,,,,,,,,,,,,,,1.0,2.936788594990503,,,,,,,,,,,,,,,,,,,,,,,,,,,,030819_p1,1.0,2019_Mar_08_1213,body_behavioural,3.0.4,59.84914662825267,
155,3.0,"Jeff, weaving through the crowds of travelers, squinted at William's rosy projections of the number of bottles he could be able to purchase in the future.",3.0,2.0,,,,0.0,3.0,3.0,3.0,,,,,0.0,18.0,18.0,18.0,,,,,,,,,,,,,,,,,,,,,,,,,,,,,1.0,3.9366163149970816,,,,,,,,,,,,,,,,,,,,,,,,,,,,030519_p3,1,2019_Mar_05_1619,body_behavioural,3.0.4,60.05180681032672,,4.0,"“No, not really.",3.0,2.0,,,,0.0,4.0,4.0,4.0,,,,,0.0,16.0,16.0,16.0,,,,,,,,,,,,,,,,,,,,,,,,,,,,,1.0,1.4176533999852836,,,,,,,,,,,,,,,,,,,,,,,,,,,,030819_p1,1.0,2019_Mar_08_1213,body_behavioural,3.0.4,59.84914662825267,
156,3.0,"Finally Jeff said, “I don’t know, we’re not coming from corporate vineyards, so gambling with sample shipments is the kind of risk we can’t necessarily make. ",3.0,3.0,,,,0.0,3.0,3.0,3.0,,,,,0.0,19.0,19.0,19.0,,,,,,,,,,,,,,,,,,,,,,,,,,,,,1.0,3.986627299993416,,,,,,,,,,,,,,,,,,,,,,,,,,,,030519_p3,1,2019_Mar_05_1619,body_behavioural,3.0.4,60.05180681032672,,4.0,I’ve mainly been working and setting up my apartment.”,3.0,2.0,,,,0.0,4.0,4.0,4.0,,,,,0.0,17.0,17.0,17.0,,,,,,,,,,,,,,,,,,,,,,,,,,,,,1.0,2.602908828004729,,,,,,,,,,,,,,,,,,,,,,,,,,,,030819_p1,1.0,2019_Mar_08_1213,body_behavioural,3.0.4,59.84914662825267,
157,3.0,"These corporate purchases would have to be huge and practically guaranteed, to offset the loss from selling sample shipments at this price.”",3.0,3.0,,,,0.0,3.0,3.0,3.0,,,,,0.0,20.0,20.0,20.0,,,,,,,,,,,,,,,,,,,,,,,,,,,,,1.0,4.186466252998798,,,,,,,,,,,,,,,,,,,,,,,,,,,,030519_p3,1,2019_Mar_05_1619,body_behavioural,3.0.4,60.05180681032672,,4.0,"Simon asked her, “Ok well, if you’d like I could pick you up next weekend, and we could go around Harvard Square and get dinner.",3.0,3.0,,,,0.0,4.0,4.0,4.0,,,,,0.0,18.0,18.0,18.0,,,,,,,,,,,,,,,,,,,,,,,,,,,,,1.0,3.401723143004346,,,,,,,,,,,,,,,,,,,,,,,,,,,,030819_p1,1.0,2019_Mar_08_1213,body_behavioural,3.0.4,59.84914662825267,
158,3.0,"They walked to the gates very slowly, barely registering the hubbub of the airport since they were so caught up in figuring out this deal before their flights left.",3.0,3.0,,,,0.0,3.0,3.0,3.0,,,,,0.0,21.0,21.0,21.0,,,,,,,,,,,,,,,,,,,,,,,,,,,,,1.0,7.520400715002324,,,,,,,,,,,,,,,,,,,,,,,,,,,,030519_p3,1,2019_Mar_05_1619,body_behavioural,3.0.4,60.05180681032672,,4.0,"There are a lot of great places around there, and it’s really nice during the summer.",3.0,3.0,,,,0.0,4.0,4.0,4.0,,,,,0.0,19.0,19.0,19.0,,,,,,,,,,,,,,,,,,,,,,,,,,,,,1.0,2.0029506550054066,,,,,,,,,,,,,,,,,,,,,,,,,,,,030819_p1,1.0,2019_Mar_08_1213,body_behavioural,3.0.4,59.84914662825267,
159,3.0,"At the end of their long walk, they got to Jeff’s gate first, which had begun boarding passengers.",3.0,3.0,,,,0.0,3.0,3.0,3.0,,,,,0.0,22.0,22.0,22.0,,,,,,,,,,,,,,,,,,,,,,,,,,,,,1.0,2.553105813000002,,,,,,,,,,,,,,,,,,,,,,,,,,,,030519_p3,1,2019_Mar_05_1619,body_behavioural,3.0.4,60.05180681032672,,4.0,The Harvard campus is also beautiful.” ,3.0,3.0,,,,0.0,4.0,4.0,4.0,,,,,0.0,20.0,20.0,20.0,,,,,,,,,,,,,,,,,,,,,,,,,,,,,1.0,1.9365644429926758,,,,,,,,,,,,,,,,,,,,,,,,,,,,030819_p1,1.0,2019_Mar_08_1213,body_behavioural,3.0.4,59.84914662825267,
160,3.0,"In these last minutes, William and Jeff agreed on a compromise rate on the sample shipment, paying $400 for a $600 shipment, and they finalized the deal with a handshake. ",3.0,4.0,,,,0.0,3.0,3.0,3.0,,,,,0.0,23.0,23.0,23.0,,,,,,,,,,,,,,,,,,,,,,,,,,,,,1.0,3.820391315006418,,,,,,,,,,,,,,,,,,,,,,,,,,,,030519_p3,1,2019_Mar_05_1619,body_behavioural,3.0.4,60.05180681032672,,4.0,"Carina smiled, “I’d love to: that sounds great!”",3.0,3.0,,,,0.0,4.0,4.0,4.0,,,,,0.0,21.0,21.0,21.0,,,,,,,,,,,,,,,,,,,,,,,,,,,,,1.0,1.851426631998038,,,,,,,,,,,,,,,,,,,,,,,,,,,,030819_p1,1.0,2019_Mar_08_1213,body_behavioural,3.0.4,59.84914662825267,
161,3.0,"“Well, what a tremendous pleasure to do business with you and to have all this work out,” William said.",3.0,4.0,,,,0.0,3.0,3.0,3.0,,,,,0.0,24.0,24.0,24.0,,,,,,,,,,,,,,,,,,,,,,,,,,,,,1.0,7.4035015650006235,,,,,,,,,,,,,,,,,,,,,,,,,,,,030519_p3,1,2019_Mar_05_1619,body_behavioural,3.0.4,60.05180681032672,,4.0,"She quickly entered her number in his phone, since they only had to wait a couple minutes in line.",3.0,3.0,,,,0.0,4.0,4.0,4.0,,,,,0.0,22.0,22.0,22.0,,,,,,,,,,,,,,,,,,,,,,,,,,,,,1.0,3.0698956569831357,,,,,,,,,,,,,,,,,,,,,,,,,,,,030819_p1,1.0,2019_Mar_08_1213,body_behavioural,3.0.4,59.84914662825267,
162,3.0,"Jeff nodded enthusiastically, and responded, “Likewise, this has been great.  ",3.0,4.0,,,,0.0,3.0,3.0,3.0,,,,,0.0,25.0,25.0,25.0,,,,,,,,,,,,,,,,,,,,,,,,,,,,,1.0,1.436075890000211,,,,,,,,,,,,,,,,,,,,,,,,,,,,030519_p3,1,2019_Mar_05_1619,body_behavioural,3.0.4,60.05180681032672,,4.0,Then it was her turn to check out with the cashier. ,4.0,3.0,,,,0.0,4.0,4.0,4.0,,,,,0.0,23.0,23.0,23.0,,,,,,,,,,,,,,,,,,,,,,,,,,,,,9.0,1.786037017009221,,,,,,,,,,,,,,,,,,,,,,,,,,,,030819_p1,1.0,2019_Mar_08_1213,body_behavioural,3.0.4,59.84914662825267,
163,3.0,I'll let you get to your gate.,3.0,4.0,,,,0.0,3.0,3.0,3.0,,,,,0.0,26.0,26.0,26.0,,,,,,,,,,,,,,,,,,,,,,,,,,,,,9.0,2.586605228003464,,,,,,,,,,,,,,,,,,,,,,,,,,,,030519_p3,1,2019_Mar_05_1619,body_behavioural,3.0.4,60.05180681032672,,4.0,"Simon, wanting to make a gesture of his affection, lifted up the divider on the conveyor belt and said to the cashier, “Actually these are together.",4.0,3.0,,,,0.0,4.0,4.0,4.0,,,,,0.0,24.0,24.0,24.0,,,,,,,,,,,,,,,,,,,,,,,,,,,,,1.0,3.636179081979208,,,,,,,,,,,,,,,,,,,,,,,,,,,,030819_p1,1.0,2019_Mar_08_1213,body_behavioural,3.0.4,59.84914662825267,
164,3.0,"Once we’re both back on the ground, we can get all the shipments in the books.”",3.0,4.0,,,,0.0,3.0,3.0,3.0,,,,,0.0,27.0,27.0,27.0,,,,,,,,,,,,,,,,,,,,,,,,,,,,,9.0,2.569925670002704,,,,,,,,,,,,,,,,,,,,,,,,,,,,030519_p3,1,2019_Mar_05_1619,body_behavioural,3.0.4,60.05180681032672,,4.0,"Carina, I’ve got it.",4.0,3.0,,,,0.0,4.0,4.0,4.0,,,,,0.0,25.0,25.0,25.0,,,,,,,,,,,,,,,,,,,,,,,,,,,,,1.0,1.7007951400009915,,,,,,,,,,,,,,,,,,,,,,,,,,,,030819_p1,1.0,2019_Mar_08_1213,body_behavioural,3.0.4,59.84914662825267,
