count,storyText,locationEvent,socialEvent,instructText,trials.thisRepN,trials.thisTrialN,trials.thisN,trials.thisIndex,trials_2.thisRepN,trials_2.thisTrialN,trials_2.thisN,trials_2.thisIndex,trials_3.thisRepN,trials_3.thisTrialN,trials_3.thisN,trials_3.thisIndex,trials_4.thisRepN,trials_4.thisTrialN,trials_4.thisN,trials_4.thisIndex,trials_5.thisRepN,trials_5.thisTrialN,trials_5.thisN,trials_5.thisIndex,trials_6.thisRepN,trials_6.thisTrialN,trials_6.thisN,trials_6.thisIndex,order of stories,order of perspectives,key_resp_5.keys,key_resp_5.rt,story_presses.keys,story_presses.rt,key_resp_2.keys,key_resp_2.rt,recall,key_resp_3.keys,key_resp_3.rt,key_resp_4.keys,key_resp_4.rt,question1_answer,order of question,question2_answer,question3_answer,question4_answer,question5_answer,question6_answer,question7_answer,question8_answer,participant,session,date,expName,frameRate,
0,"Sven and Isabel walked hurriedly from the cab into the Barcelona Airport after an incredible weekend with Isabel’s family, which had wiped away any doubts Sven had had about his decision to propose. ",1,1,,0,0,0,0,0,0,0,0,,,,,,,,,,,,,,,,,[22 32 41 24 13 11 43 34 42 14 33 31 21 23 44 12],"['Location' 'Social' 'Location' 'Social' 'Location' 'Social' 'Social'
 'Location' 'Location' 'Location' 'Location' 'Social' 'Location' 'Social'
 'Social' 'Social']",space,36.931074787979014,1,6.818015952943824,,,,,,,,,,,,,,,,,',001,2019_Jan_23_1256,body_behavioural,60.02940287699386,
0,"They were a little pressed for time, with only a little over an hour until their flight would take off to go back to the US, but they already had their online boarding passes and no checked luggage. ",1,1,,0,0,0,0,0,1,1,1,,,,,,,,,,,,,,,,,,,,,1,0.16931573301553726,,,,,,,,,,,,,,,,,',001,2019_Jan_23_1256,body_behavioural,60.02940287699386,
0,"When Isabel stopped to rummage through her purse looking for her phone, Sven turned his back to her and took the velvet box out of his backpack, opening it to look at the ring he bought her.",1,2,,0,0,0,0,0,2,2,2,,,,,,,,,,,,,,,,,,,,,1,0.502334579010494,,,,,,,,,,,,,,,,,',001,2019_Jan_23_1256,body_behavioural,60.02940287699386,
0,"He had received her parents’ blessing during the trip, and he was almost giddy with excitement. ",1,2,,0,0,0,0,0,3,3,3,,,,,,,,,,,,,,,,,,,,,1,0.3349699340760708,,,,,,,,,,,,,,,,,',001,2019_Jan_23_1256,body_behavioural,60.02940287699386,
0,"He tilted the ring backward and forward, despite having already studied it daily since he had purchased it a few weeks ago. ",1,2,,0,0,0,0,0,4,4,4,,,,,,,,,,,,,,,,,,,,,1,0.28519356006290764,,,,,,,,,,,,,,,,,',001,2019_Jan_23_1256,body_behavioural,60.02940287699386,
0,"It was a simple design, with a clear, white diamond on a thin silver band.",1,2,,0,0,0,0,0,5,5,5,,,,,,,,,,,,,,,,,,,,,1,0.20029131893534213,,,,,,,,,,,,,,,,,',001,2019_Jan_23_1256,body_behavioural,60.02940287699386,
0,"“Sven, let’s go! ” Isabel said. ",1,2,,0,0,0,0,0,6,6,6,,,,,,,,,,,,,,,,,,,,,1,0.11738858709577471,,,,,,,,,,,,,,,,,',001,2019_Jan_23_1256,body_behavioural,60.02940287699386,
0,Sven discretely closed the box and put it in his pocket.,1,2,,0,0,0,0,0,7,7,7,,,,,,,,,,,,,,,,,,,,,1,0.1675900489790365,,,,,,,,,,,,,,,,,',001,2019_Jan_23_1256,body_behavioural,60.02940287699386,
0," They entered the security line, weaving through the roped walkways to the front. ",2,2,,0,0,0,0,0,8,8,8,,,,,,,,,,,,,,,,,,,,,1,0.15149484004359692,,,,,,,,,,,,,,,,,',001,2019_Jan_23_1256,body_behavioural,60.02940287699386,
0,"When they were up, Isabel realized her laptop was buried somewhere in her bag. ",2,2,,0,0,0,0,0,9,9,9,,,,,,,,,,,,,,,,,,,,,1,0.12329481798224151,,,,,,,,,,,,,,,,,',001,2019_Jan_23_1256,body_behavioural,60.02940287699386,
0,Sven had to hold the growing mound of objects she pulled from her bag until she unearthed the laptop.,2,2,,0,0,0,0,0,10,10,10,,,,,,,,,,,,,,,,,,,,,1,0.1357279799412936,,,,,,,,,,,,,,,,,',001,2019_Jan_23_1256,body_behavioural,60.02940287699386,
0,She set it into a bin and then had to unstrap her heels and put everything else into the bins.,2,2,,0,0,0,0,0,11,11,11,,,,,,,,,,,,,,,,,,,,,1,0.1360374219948426,,,,,,,,,,,,,,,,,',001,2019_Jan_23_1256,body_behavioural,60.02940287699386,
0,"Finally, she relieved Sven of his holding duties, and he hurriedly deposited his own backpack on the belt as the people behind them glared. ",2,2,,0,0,0,0,0,12,12,12,,,,,,,,,,,,,,,,,,,,,1,2.4184782480588183,,,,,,,,,,,,,,,,,',001,2019_Jan_23_1256,body_behavioural,60.02940287699386,
0,"Sven went into the millimeter wave scanner after Isabel, put his hands up, and the metal bars whirled around him.",2,2,,0,0,0,0,0,13,13,13,,,,,,,,,,,,,,,,,,,,,1,0.9856506249634549,,,,,,,,,,,,,,,,,',001,2019_Jan_23_1256,body_behavioural,60.02940287699386,
0," “Sir, please step to the side.",2,2,,0,0,0,0,0,14,14,14,,,,,,,,,,,,,,,,,,,,,1,0.31878064409829676,,,,,,,,,,,,,,,,,',001,2019_Jan_23_1256,body_behavioural,60.02940287699386,
0,"You need to empty your pockets,” the security guard said.",2,2,,0,0,0,0,0,15,15,15,,,,,,,,,,,,,,,,,,,,,1,0.2181792699266225,,,,,,,,,,,,,,,,,',001,2019_Jan_23_1256,body_behavioural,60.02940287699386,
0,"With a sinking feeling Sven realized the mistake he had made, as Isabel and the guard both looked at him expectantly.",2,2,,0,0,0,0,0,16,16,16,,,,,,,,,,,,,,,,,,,,,1,0.2182932780124247,,,,,,,,,,,,,,,,,',001,2019_Jan_23_1256,body_behavioural,60.02940287699386,
0,"Sven,  deciding he would make the best of the situation, grabbed Isabel's hand as he reached into his pocket.",2,2,,0,0,0,0,0,17,17,17,,,,,,,,,,,,,,,,,,,,,1,0.8515621410915628,,,,,,,,,,,,,,,,,',001,2019_Jan_23_1256,body_behavioural,60.02940287699386,
0,"He got down on one knee and, giggling slightly at her confused look, said, "Isabel, this isn't quite how I'd planned this, but - will you marry me?"",2,3,,0,0,0,0,0,18,18,18,,,,,,,,,,,,,,,,,,,,,1,0.1684515270171687,,,,,,,,,,,,,,,,,',001,2019_Jan_23_1256,body_behavioural,60.02940287699386,
0,The security guard gasped.,2,3,,0,0,0,0,0,19,19,19,,,,,,,,,,,,,,,,,,,,,1,0.18399188295006752,,,,,,,,,,,,,,,,,',001,2019_Jan_23_1256,body_behavioural,60.02940287699386,
0, All the people who were putting their shoes back on and gathering their belongings stopped what they were doing and walked closer to the couple.,2,3,,0,0,0,0,0,20,20,20,,,,,,,,,,,,,,,,,,,,,1,0.1362548389006406,,,,,,,,,,,,,,,,,',001,2019_Jan_23_1256,body_behavioural,60.02940287699386,
0," Isabel was astonished, and far too shy to respond in front of the backup of passengers waiting behind them.",2,3,,0,0,0,0,0,21,21,21,,,,,,,,,,,,,,,,,,,,,1,0.2023448320105672,,,,,,,,,,,,,,,,,',001,2019_Jan_23_1256,body_behavioural,60.02940287699386,
0,"She attempted to stammer a response as she frantically grabbed her and Sven’s shoes, leaving Sven to retrieve their bags.",2,3,,0,0,0,0,0,22,22,22,,,,,,,,,,,,,,,,,,,,,1,0.6680394239956513,,,,,,,,,,,,,,,,,',001,2019_Jan_23_1256,body_behavioural,60.02940287699386,
0,"Both of them slipping in their socked feet, she fled onto the concourse with Sven trying to catch up behind her.",3,3,,0,0,0,0,0,23,23,23,,,,,,,,,,,,,,,,,,,,,9,0.3343059601029381,,,,,,,,,,,,,,,,,',001,2019_Jan_23_1256,body_behavioural,60.02940287699386,
0,"Everyone in the terminal was looking at them with confusion as Sven, holding the bags in one hand and the open ring box in the other, finally caught up to her.",3,3,,0,0,0,0,0,24,24,24,,,,,,,,,,,,,,,,,,,,,1,0.06814489501994103,,,,,,,,,,,,,,,,,',001,2019_Jan_23_1256,body_behavioural,60.02940287699386,
0,"“Well, Isabel?”",3,3,,0,0,0,0,0,25,25,25,,,,,,,,,,,,,,,,,,,,,9,0.10204661695752293,,,,,,,,,,,,,,,,,',001,2019_Jan_23_1256,body_behavioural,60.02940287699386,
0,"He watched her face as she turned, trying to read her expression.",3,3,,0,0,0,0,0,26,26,26,,,,,,,,,,,,,,,,,,,,,1,0.051159282913431525,,,,,,,,,,,,,,,,,',001,2019_Jan_23_1256,body_behavioural,60.02940287699386,
0,"Her eyes were wide, but she was smiling as she hyperventilated. ",3,3,,0,0,0,0,0,27,27,27,,,,,,,,,,,,,,,,,,,,,9,0.06912759598344564,,,,,,,,,,,,,,,,,',001,2019_Jan_23_1256,body_behavioural,60.02940287699386,
0,"“Of course yes, Sven, yes!” ",3,4,,0,0,0,0,0,28,28,28,,,,,,,,,,,,,,,,,,,,,1,55.28606968396343,,,,,,,,,,,,,,,,,',001,2019_Jan_23_1256,body_behavioural,60.02940287699386,
0,"They dropped their belongings and hugged, and Sven slipped the ring onto Isabel’s finger. ",3,4,,0,0,0,0,0,29,29,29,,,,,,,,,,,,,,,,,,,,,1,5.470805985969491,,,,,,,,,,,,,,,,,',001,2019_Jan_23_1256,body_behavioural,60.02940287699386,
0,"After getting their shoes back on, they practically skipped to the gate, filled with joy.",3,4,,0,0,0,0,0,30,30,30,,,,,,,,,,,,,,,,,,,,,1,1.9552762159146369,,,,,,,,,,,,,,,,,',001,2019_Jan_23_1256,body_behavioural,60.02940287699386,
0,Sven high-fived a confused shoe-shine attendant as they passed.,3,4,,0,0,0,0,0,31,31,31,,,,,,,,,,,,,,,,,,,,,9,0.7018036360386759,,,,,,,,,,,,,,,,,',001,2019_Jan_23_1256,body_behavioural,60.02940287699386,
0,"They sat down outside their gate, having actually made good time, until the attendant called for passengers.",3,4,,0,0,0,0,0,32,32,32,,,,,,,,,,,,,,,,,,,,,9,0.08521974796894938,,,,,,,,,,,,,,,,,',001,2019_Jan_23_1256,body_behavioural,60.02940287699386,
0,"They boarded, sitting together in first class, and had a glass of champagne to celebrate the departure into their new life together.",4,4,,0,0,0,0,0,33,33,33,,,,,,,,,,,,,,,,,,,,,9,0.05178519990295172,,,,,,,,,,,,,,,,,',001,2019_Jan_23_1256,body_behavioural,60.02940287699386,
0,"Some of their neighboring passengers who had witnessed the proposal congratulated them, and a woman next to them showed them that she had been live-tweeting the whole event and that it was already going viral online.",4,4,,0,0,0,0,0,34,34,34,,,,,,,,,,,,,,,,,,,,,9,0.08439379394985735,,,,,,,,,,,,,,,,,',001,2019_Jan_23_1256,body_behavioural,60.02940287699386,
0,"Isabel slid down in her seat with her hands over her face, both embarrassed and overjoyed at the same time.
",4,4,,0,0,0,0,0,35,35,35,,,,,,,,,,,,,,,,,,,,,1,0.002070146962068975,,,,,,,,,,,,,,,,,',001,2019_Jan_23_1256,body_behavioural,60.02940287699386,
0,,,,,0,0,0,0,,,,,,,,,,,,,,,,,,,,,,,,,,,,,,,,,,,,,,,,,,,',001,2019_Jan_23_1256,body_behavioural,60.02940287699386,
1,"Jeff, hoping that today would be a pivotal day for his new business, had only been waiting inside the doors of the airport for a few minutes when he saw William and eagerly waved him over. ",1,1,,0,1,1,1,0,0,0,0,,,,,,,,,,,,,,,,,,,space,1.0188613430364057,1,0.30200909601990134,,,,,,,,,,,,,,,,,',001,2019_Jan_23_1256,body_behavioural,60.02940287699386,
1,"Jeff checked his watch, pleased to see that the two of them had two hours to discuss business before their flights left Boston.",1,1,,0,1,1,1,0,1,1,1,,,,,,,,,,,,,,,,,,,,,9,0.03491117001976818,,,,,,,,,,,,,,,,,',001,2019_Jan_23_1256,body_behavioural,60.02940287699386,
1,The two had met the night before in line for the bathroom at a local bar. ,1,1,,0,1,1,1,0,2,2,2,,,,,,,,,,,,,,,,,,,,,1,0.09122198505792767,,,,,,,,,,,,,,,,,',001,2019_Jan_23_1256,body_behavioural,60.02940287699386,
1,"Jeff had delivered some surprisingly-detailed complaints to William about the wine selection, and they quickly learned that Jeff was a representative for wine vineyards in the Northeast and William was a wine buyer for corporate events.",1,1,,0,1,1,1,0,3,3,3,,,,,,,,,,,,,,,,,,,,,1,0.18559718201868236,,,,,,,,,,,,,,,,,',001,2019_Jan_23_1256,body_behavioural,60.02940287699386,
1,"Since they both had flights out of Boston at the same time, they had agreed to meet at the airport and talk business then and there. ",1,1,,0,1,1,1,0,4,4,4,,,,,,,,,,,,,,,,,,,,,None,,,,,,,,,,,,,,,,,,',001,2019_Jan_23_1256,body_behavioural,60.02940287699386,
1,,,,,0,1,1,1,,,,,,,,,,,,,,,,,,,,,,,,,,,,,,,,,,,,,,,,,,,',001,2019_Jan_23_1256,body_behavioural,60.02940287699386,
2,"James noticed Teresa immediately as she walked into the restaurant - or, more accurately as she attempted to walk into the restaurant. ",1,1,,0,2,2,2,0,0,0,0,,,,,,,,,,,,,,,,,,,None,,None,,,,,,,,,,,,,,,,,,',001,2019_Jan_23_1256,body_behavioural,60.02940287699386,
2,,,,,0,2,2,2,,,,,,,,,,,,,,,,,,,,,,,,,,,,,,,,,,,,,,,,,,,',001,2019_Jan_23_1256,body_behavioural,60.02940287699386,
,,,,The next task in the experiment is to recall each story to the best of your ability.,,,,,,,,,0,0,0,0,,,,,,,,,,,,,,,,,,,space,9.80505143897608,,,,,,,,,,,,,,,',001,2019_Jan_23_1256,body_behavioural,60.02940287699386,
,,,,"You will be presented with the story title, names, the images, and a blank text box for each story.",,,,,,,,,0,1,1,1,,,,,,,,,,,,,,,,,,,space,4.7364707929082215,,,,,,,,,,,,,,,',001,2019_Jan_23_1256,body_behavioural,60.02940287699386,
,,,,Describe the story with as many details as you can remember in the space provided. ,,,,,,,,,0,2,2,2,,,,,,,,,,,,,,,,,,,space,4.31897407991346,,,,,,,,,,,,,,,',001,2019_Jan_23_1256,body_behavioural,60.02940287699386,
,,,,"When you are finished recalling one story, to move onto the next one hit ‘return’. ",,,,,,,,,0,3,3,3,,,,,,,,,,,,,,,,,,,space,2.7687980700284243,,,,,,,,,,,,,,,',001,2019_Jan_23_1256,body_behavioural,60.02940287699386,
,,,,There is no time limit for your responses. ,,,,,,,,,0,4,4,4,,,,,,,,,,,,,,,,,,,space,0.9008095850003883,,,,,,,,,,,,,,,',001,2019_Jan_23_1256,body_behavioural,60.02940287699386,
0,,,,,,,,,,,,,,,,,0,0,0,0,,,,,,,,,,,,,,,,,Jdkjfkaj kjfksjf. kjki ii kdjkj kjkj itilk. questionquestionquestionquestionquestionquestionquestionkskj kj//////skjfkls jkjs .kj kj,,,,,,,,,,,,,,',001,2019_Jan_23_1256,body_behavioural,60.02940287699386,
1,,,,,,,,,,,,,,,,,0,1,1,1,,,,,,,,,,,,,,,,,Jdhvkjchjkjcklz kjcl ,,,,,,,,,,,,,,',001,2019_Jan_23_1256,body_behavioural,60.02940287699386,
2,,,,,,,,,,,,,,,,,0,2,2,2,,,,,,,,,,,,,,,,,Jzljkdjslfkjsdfksdlf,,,,,,,,,,,,,,',001,2019_Jan_23_1256,body_behavioural,60.02940287699386,
3,,,,,,,,,,,,,,,,,0,3,3,3,,,,,,,,,,,,,,,,,Kdjflsjkdkfl,,,,,,,,,,,,,,',001,2019_Jan_23_1256,body_behavioural,60.02940287699386,
4,,,,,,,,,,,,,,,,,0,4,4,4,,,,,,,,,,,,,,,,,Fjslkfj,,,,,,,,,,,,,,',001,2019_Jan_23_1256,body_behavioural,60.02940287699386,
5,,,,,,,,,,,,,,,,,0,5,5,5,,,,,,,,,,,,,,,,,,,,,,,,,,,,,,,',001,2019_Jan_23_1256,body_behavioural,60.02940287699386,
,,,,The next part of the task is to answer 8 questions about each story.,,,,,,,,,,,,,,,,,0,0,0,0,,,,,,,,,,,,,,space,26.492067139944993,,,,,,,,,,,,',001,2019_Jan_23_1256,body_behavioural,60.02940287699386,
,,,,The next part of the task is to answer 8 questions about each story.,,,,,,,,,,,,,,,,,0,0,0,0,,,,,,,,,,,,,,,,,,,,,,,,,,,',001,2019_Jan_23_1256,body_behavioural,60.02940287699386,
,,,,Some of the questions are not related to the perspective you were asked to assume.,,,,,,,,,,,,,,,,,0,1,1,1,,,,,,,,,,,,,,space,0.6515318530146033,,,,,,,,,,,,',001,2019_Jan_23_1256,body_behavioural,60.02940287699386,
,,,,Some of the questions are not related to the perspective you were asked to assume.,,,,,,,,,,,,,,,,,0,1,1,1,,,,,,,,,,,,,,,,,,,,,,,,,,,',001,2019_Jan_23_1256,body_behavioural,60.02940287699386,
,,,,"We realize that we did not tell you to think of these questions during the story, but do your best to answer them.",,,,,,,,,,,,,,,,,0,2,2,2,,,,,,,,,,,,,,space,0.5188370429677889,,,,,,,,,,,,',001,2019_Jan_23_1256,body_behavioural,60.02940287699386,
,,,,"We realize that we did not tell you to think of these questions during the story, but do your best to answer them.",,,,,,,,,,,,,,,,,0,2,2,2,,,,,,,,,,,,,,,,,,,,,,,,,,,',001,2019_Jan_23_1256,body_behavioural,60.02940287699386,
,,,,"When you have finished typing your answer, hit ‘return’ to submit your answer and move onto the next question. ",,,,,,,,,,,,,,,,,0,3,3,3,,,,,,,,,,,,,,space,15.024021869990975,,,,,,,,,,,,',001,2019_Jan_23_1256,body_behavioural,60.02940287699386,
,,,,"When you have finished typing your answer, hit ‘return’ to submit your answer and move onto the next question. ",,,,,,,,,,,,,,,,,0,3,3,3,,,,,,,,,,,,,,,,,,,,,,,,,,,',001,2019_Jan_23_1256,body_behavioural,60.02940287699386,
0,,,,,,,,,,,,,,,,,,,,,,,,,0,0,0,0,,,,,,,,,,,,space,1.8349387360503897,Nervous,non-primed first,,,,,,,,',001,2019_Jan_23_1256,body_behavioural,60.02940287699386,
,,,,,,,,,,,,,,,,,,,,,,,,,,,,,,,,,,,,,,,,space,0.6689575349446386,,,,,,,,,,,,,,,
