count,storyText,locationEvent,socialEvent,locationEventSize,socialEventSize,trials.thisRepN,trials.thisTrialN,trials.thisN,trials.thisIndex,trials_7.thisRepN,trials_7.thisTrialN,trials_7.thisN,trials_7.thisIndex,trials_2.thisRepN,trials_2.thisTrialN,trials_2.thisN,trials_2.thisIndex,order of stories,order of perspectives,participant 2 order - stories,participant 2 order  - schemas types,key_resp_8.keys,key_resp_8.rt,key_resp_5.keys,key_resp_5.rt,key_resp_7.keys,key_resp_7.rt,story_presses.keys,story_presses.rt,participant,session,date,expName,psychopyVersion,frameRate,
0,,,,,,0,0,0,0,0,0,0,0,,,,,[33 21 44 24 13 41 32 12 11 42 43 14 31 23 22 34],"['Social' 'Location' 'Location' 'Social' 'Location' 'Social' 'Location'
 'Social' 'Social' 'Social' 'Location' 'Location' 'Location' 'Social'
 'Location' 'Social']",[11 42 43 14 31 23 22 34],"['Social' 'Social' 'Location' 'Location' 'Location' 'Social' 'Location'
 'Social']",space,0.3039712050001526,space,0.3189385119999315,space,0.47025123799994617,,,',001,2019_Feb_25_1639,body_behavioural,3.0.4,59.98575878101054,
0,"Ms. Bianchi and Ms. Morrison walked into the grocery store at the same time, and, after a moment of mutual recognition, greeted each other and shook hands.",1,1,,,0,0,0,0,,,,,0,0,0,0,,,,,,,,,,,1,0.9694780800000444,',001,2019_Feb_25_1639,body_behavioural,3.0.4,59.98575878101054,
0,"“Thank you again for inviting me here to discuss my business proposal,” said Ms. Bianchi, “And it’s a pleasure to be out of the office.” ",1,1,,,0,0,0,0,,,,,0,1,1,1,,,,,,,,,,,1,0.2856835580000734,',001,2019_Feb_25_1639,body_behavioural,3.0.4,59.98575878101054,
0,"As a salesperson for an Italian cheese company that was trying to expand its outreach to more mainstream grocery stores, this meeting could be a big break for her.",1,1,,,0,0,0,0,,,,,0,2,2,2,,,,,,,,,,,1,0.052762799999982235,',001,2019_Feb_25_1639,body_behavioural,3.0.4,59.98575878101054,
0,"Her sales target, Ms. Morrison,  who had a reputation for being a bit quirky, was a corporate buyer for a large chain grocery store. ",1,1,,,0,0,0,0,,,,,0,3,3,3,,,,,,,,,,,1,0.1019698850000168,',001,2019_Feb_25_1639,body_behavioural,3.0.4,59.98575878101054,
0,"She was known for doing things unconventionally: for example, she said that she liked to make deals with suppliers in the place where the products were sold- “to keep their minds focused on what’s important.” ",1,1,,,0,0,0,0,,,,,0,4,4,4,,,,,,,,,,,1,0.10210513499987428,',001,2019_Feb_25_1639,body_behavioural,3.0.4,59.98575878101054,
0,"They chatted a little in the front of the grocery store, which was surrounded by pumpkins and halloween decorations set up in special displays for the holiday season.",1,1,,,0,0,0,0,,,,,0,5,5,5,,,,,,,,,,,1,0.06913663800014547,',001,2019_Feb_25_1639,body_behavioural,3.0.4,59.98575878101054,
0,"Ms. Bianchi and Ms. Morrison walked to the cheese section, and Ms. Morrison picked up a block of parmesan.",2,1,,,0,0,0,0,,,,,0,6,6,6,,,,,,,,,,,1,0.10299875000009706,',001,2019_Feb_25_1639,body_behavioural,3.0.4,59.98575878101054,
0,“We have quite a selection here.,2,1,,,0,0,0,0,,,,,0,7,7,7,,,,,,,,,,,1,0.10269933500012485,',001,2019_Feb_25_1639,body_behavioural,3.0.4,59.98575878101054,
0,I don’t know that it needs an additional section for more gourmet cheeses.” ,2,1,,,0,0,0,0,,,,,0,8,8,8,,,,,,,,,,,1,0.25265515800015237,',001,2019_Feb_25_1639,body_behavioural,3.0.4,59.98575878101054,
0,"Ms. Bianchi's confidence faltered for a minute at this remark, but then she launched into her prepared pitch.",2,1,,,0,0,0,0,,,,,0,9,9,9,,,,,,,,,,,1,0.0855582219999178,',001,2019_Feb_25_1639,body_behavioural,3.0.4,59.98575878101054,
0," “Ms. Morrison, I think you would agree that selling food is more than just providing variety, but also about providing the highest quality.",2,2,,,0,0,0,0,,,,,0,10,10,10,,,,,,,,,,,1,0.10254455500012227,',001,2019_Feb_25_1639,body_behavioural,3.0.4,59.98575878101054,
0,"You don’t have cheeses made in America that are like ours, it is true.",2,2,,,0,0,0,0,,,,,0,11,11,11,,,,,,,,,,,1,0.1026676920000682,',001,2019_Feb_25_1639,body_behavioural,3.0.4,59.98575878101054,
0,Your store could be providing American consumers with a dimension in taste that they've never known before with our product.,2,2,,,0,0,0,0,,,,,0,12,12,12,,,,,,,,,,,1,0.1030184129999725,',001,2019_Feb_25_1639,body_behavioural,3.0.4,59.98575878101054,
0,"I propose that you give it a shot, buy $1000 worth of cheese products for a few stores, and see how the sales increase not only in our cheeses but also in products related to cheeses: crackers, jams, olives. ",2,2,,,0,0,0,0,,,,,0,13,13,13,,,,,,,,,,,1,0.10298059199999443,',001,2019_Feb_25_1639,body_behavioural,3.0.4,59.98575878101054,
0,"The availability of a finer product leads to the appreciation of the product, and your consumers will start to consume in a new, more profitable way.”",2,2,,,0,0,0,0,,,,,0,14,14,14,,,,,,,,,,,1,0.10242375999996511,',001,2019_Feb_25_1639,body_behavioural,3.0.4,59.98575878101054,
0,"Ms. Bianchi picked up a box of crackers by the cheese section, and said, “Here, I will buy these, and we can try some of our cheeses that I've brought with me.”",2,2,,,0,0,0,0,,,,,0,15,15,15,,,,,,,,,,,1,0.10238473999993403,',001,2019_Feb_25_1639,body_behavioural,3.0.4,59.98575878101054,
0,"Ms. Morrison, who was thinking, nodded in agreement and said, “That sounds like a great idea.",2,2,,,0,0,0,0,,,,,0,16,16,16,,,,,,,,,,,1,0.11685187299985955,',001,2019_Feb_25_1639,body_behavioural,3.0.4,59.98575878101054,
0,"Let’s head to check out, and those crackers are on me.” ",2,2,,,0,0,0,0,,,,,0,17,17,17,,,,,,,,,,,1,0.08590417000004891,',001,2019_Feb_25_1639,body_behavioural,3.0.4,59.98575878101054,
0,They walked over to the checkout area.,3,2,,,0,0,0,0,,,,,0,18,18,18,,,,,,,,,,,1,0.13375895999979548,',001,2019_Feb_25_1639,body_behavioural,3.0.4,59.98575878101054,
0,"There was a very long line, and it was very busy in the checkout area as people were stocking up for Halloween parties and trick-or-treating. ",3,2,,,0,0,0,0,,,,,0,19,19,19,,,,,,,,,,,1,0.1163470280000638,',001,2019_Feb_25_1639,body_behavioural,3.0.4,59.98575878101054,
0,"Since they had almost a 10 minute wait in line, Ms. Bianchi handed a sheet with printed graphs to Ms. Morrison the increase in profits that several other stores had seen after starting to carry their products.",3,2,,,0,0,0,0,,,,,0,20,20,20,,,,,,,,,,,1,0.08572608500003298,',001,2019_Feb_25_1639,body_behavioural,3.0.4,59.98575878101054,
0,"Eventually, Ms. Morrison replied, “You know what, I think you've convinced me that this could work. ",3,3,,,0,0,0,0,,,,,0,21,21,21,,,,,,,,,,,1,0.285898540000062,',001,2019_Feb_25_1639,body_behavioural,3.0.4,59.98575878101054,
0,We've been trying to find a way to add a little European cachet to our stores.,3,3,,,0,0,0,0,,,,,0,22,22,22,,,,,,,,,,,1,0.11986001700006454,',001,2019_Feb_25_1639,body_behavioural,3.0.4,59.98575878101054,
0,There's still a problem though - I'm worried we'll be paying out the nose for the import taxes.,3,3,,,0,0,0,0,,,,,0,23,23,23,,,,,,,,,,,1,0.13605020500017417,',001,2019_Feb_25_1639,body_behavioural,3.0.4,59.98575878101054,
0,Is that the case?",3,3,,,0,0,0,0,,,,,0,24,24,24,,,,,,,,,,,1,0.11699429200007216,',001,2019_Feb_25_1639,body_behavioural,3.0.4,59.98575878101054,
0,"It was Ms. Morrison’s turn to checkout, and the two businesswomen continued to talk back and forth as she did so. ",4,3,,,0,0,0,0,,,,,0,25,25,25,,,,,,,,,,,1,0.11942698200004997,',001,2019_Feb_25_1639,body_behavioural,3.0.4,59.98575878101054,
0,"The cashier scanned the crackers, and Ms. Bianchi watched in amusement as Ms. Morrison paid the $6 price entirely in quarters from a wallet bulging with change.",4,3,,,0,0,0,0,,,,,0,26,26,26,,,,,,,,,,,1,0.10283208199984983,',001,2019_Feb_25_1639,body_behavioural,3.0.4,59.98575878101054,
0,"They shortly came to an agreement and would have enough cheese shipments, $5000 worth, to different stores to qualify for a subsidized import tax. ",4,4,,,0,0,0,0,,,,,0,27,27,27,,,,,,,,,,,1,0.11948719999986679,',001,2019_Feb_25_1639,body_behavioural,3.0.4,59.98575878101054,
0,"Ms. Bianchi retrieved some of her samples from her car, and they toasted their new deal with crackers topped with fresh mozzarella. ",4,4,,,0,0,0,0,,,,,0,28,28,28,,,,,,,,,,,1,0.11940872299987859,',001,2019_Feb_25_1639,body_behavioural,3.0.4,59.98575878101054,
0,,,,,,0,0,0,0,,,,,,,,,,,,,,,,,,,,,',001,2019_Feb_25_1639,body_behavioural,3.0.4,59.98575878101054,
1,,,,,,0,1,1,1,0,0,0,0,,,,,,,,,space,1.0355200280000645,space,0.3365859289999662,space,0.41729480499998317,,,',001,2019_Feb_25_1639,body_behavioural,3.0.4,59.98575878101054,
1,,,,,,0,1,1,1,1,0,1,0,,,,,,,,,,,,,space,0.21979683299991848,,,',001,2019_Feb_25_1639,body_behavioural,3.0.4,59.98575878101054,
1,"Alvira and Senna walked into the restaurant hand in sweaty hand with quite different expectations: Senna was going to propose tonight, and Alvira had no idea.",1,1,None,None,0,1,1,1,,,,,0,0,0,0,,,,,,,,,,,1,0.8872863930000676,',001,2019_Feb_25_1639,body_behavioural,3.0.4,59.98575878101054,
1,"He took a deep breath, trying to calm his nerves as worst case scenarios ran through his mind. ",1,1,None,None,0,1,1,1,,,,,0,1,1,1,,,,,,,,,,,1,0.10309384800007138,',001,2019_Feb_25_1639,body_behavioural,3.0.4,59.98575878101054,
1,The entrance of the restaurant was dazzling; chandeliers spread their warm light onto the delicate place settings of all the tables filled with guests dressed to the nines. ,1,1,None,None,0,1,1,1,,,,,0,2,2,2,,,,,,,,,,,1,0.18505869999989955,',001,2019_Feb_25_1639,body_behavioural,3.0.4,59.98575878101054,
1,"Through the floor-to-ceiling arched windows of the back wall, they saw the sun setting onto the Pacific ocean.",1,1,None,None,0,1,1,1,,,,,0,3,3,3,,,,,,,,,,,1,0.12007930999993732,',001,2019_Feb_25_1639,body_behavioural,3.0.4,59.98575878101054,
1,"This was surely one of the best restaurants on the west coast, situated right on the beach.",1,1,None,None,0,1,1,1,,,,,0,4,4,4,,,,,,,,,,,9,0.10203064000006634,',001,2019_Feb_25_1639,body_behavioural,3.0.4,59.98575878101054,
1,"Senna gave his name to the host, who quickly located their reservation with an almost comically wide customer-service smile.",1,1,7.0,None,0,1,1,1,,,,,0,5,5,5,,,,,,,,,,,9,0.2021800479999456,',001,2019_Feb_25_1639,body_behavioural,3.0.4,59.98575878101054,
1,He led them to a table right by the window.,2,1,None,None,0,1,1,1,,,,,0,6,6,6,,,,,,,,,,,1,0.05325017499990281,',001,2019_Feb_25_1639,body_behavioural,3.0.4,59.98575878101054,
1,"He brought out some very small menus, with a short list of the celebrity chef's carefully selected daily dishes written in a loopy, cursive font unadorned by any mention of prices.",2,1,None,9.0,0,1,1,1,,,,,0,7,7,7,,,,,,,,,,,9,0.03584079000006568,',001,2019_Feb_25_1639,body_behavioural,3.0.4,59.98575878101054,
1,Senna slipped off to the bathroom to check to make sure the ring was in order.,2,2,None,None,0,1,1,1,,,,,0,8,8,8,,,,,,,,,,,9,0.0870374000000993,',001,2019_Feb_25_1639,body_behavioural,3.0.4,59.98575878101054,
1,"The ring contained a canary diamond that had been in his grandmother’s wedding ring, and it was a brilliant stone that was accentuated by the small white diamonds encircling it.",2,2,None,None,0,1,1,1,,,,,0,9,9,9,,,,,,,,,,,1,0.03763935999995738,',001,2019_Feb_25_1639,body_behavioural,3.0.4,59.98575878101054,
1,"He walked back to the table after handing the small, velvet box to a waiter at the front podium.",2,2,6.0,None,0,1,1,1,,,,,0,10,10,10,,,,,,,,,,,9,0.020772961999909967,',001,2019_Feb_25_1639,body_behavioural,3.0.4,59.98575878101054,
1,He came back just as their waiter was approaching the table to get their order.,3,2,None,None,0,1,1,1,,,,,0,11,11,11,,,,,,,,,,,1,0.052844367000034254,',001,2019_Feb_25_1639,body_behavioural,3.0.4,59.98575878101054,
1,"Senna ordered the oysters with garlic-parmesan sauce, and Alvira ordered the sauteed sea scallops with caramelized apples. ",3,2,None,None,0,1,1,1,,,,,0,12,12,12,,,,,,,,,,,9,0.11978512500013494,',001,2019_Feb_25_1639,body_behavioural,3.0.4,59.98575878101054,
1,"“Excellent choices,” the waiter said with a subsequent brisk spin away from the table.",3,2,None,None,0,1,1,1,,,,,0,13,13,13,,,,,,,,,,,1,0.052377839999962816,',001,2019_Feb_25_1639,body_behavioural,3.0.4,59.98575878101054,
1,"“What a beautiful place, Senna. ",3,2,None,None,0,1,1,1,,,,,0,14,14,14,,,,,,,,,,,9,0.11977272499984792,',001,2019_Feb_25_1639,body_behavioural,3.0.4,59.98575878101054,
1,"Really this is too much just to celebrate the first tomatoes I grew in the garden, like, this is absurd,” Alvira said.",3,2,None,None,0,1,1,1,,,,,0,15,15,15,,,,,,,,,,,9,0.16656136000005972,',001,2019_Feb_25_1639,body_behavioural,3.0.4,59.98575878101054,
1,"Senna laughed and said, “No, those were really the best tomatoes I’ve ever had. ",3,2,None,None,0,1,1,1,,,,,0,16,16,16,,,,,,,,,,,1,0.03585089199987124,',001,2019_Feb_25_1639,body_behavioural,3.0.4,59.98575878101054,
1,We had to celebrate.” ,3,2,None,None,0,1,1,1,,,,,0,17,17,17,,,,,,,,,,,1,0.13406001199996354,',001,2019_Feb_25_1639,body_behavioural,3.0.4,59.98575878101054,
1,"They talked and laughed as the sun sank below the horizon, and the glow from the ocean was replaced by the glow from the chandeliers.",3,2,8.0,None,0,1,1,1,,,,,0,18,18,18,,,,,,,,,,,9,0.11891075000016826,',001,2019_Feb_25_1639,body_behavioural,3.0.4,59.98575878101054,
1,"The waiter eventually returned with their meals, and everything was even more delicious than they had expected, especially the oysters, which Senna said tasted like the ocean. ",4,2,None,None,0,1,1,1,,,,,0,19,19,19,,,,,,,,,,,1,0.06878189000008206,',001,2019_Feb_25_1639,body_behavioural,3.0.4,59.98575878101054,
1,Then he paused and looked at Alvira meaningfully. ,4,2,None,None,0,1,1,1,,,,,0,20,20,20,,,,,,,,,,,9,0.10360834199991587,',001,2019_Feb_25_1639,body_behavioural,3.0.4,59.98575878101054,
1, “It’s really been the best three years of my life with you.,4,2,None,None,0,1,1,1,,,,,0,21,21,21,,,,,,,,,,,1,0.0864581780001572,',001,2019_Feb_25_1639,body_behavioural,3.0.4,59.98575878101054,
1,"I couldn’t imagine it any other way, and I don’t want to.",4,2,None,None,0,1,1,1,,,,,0,22,22,22,,,,,,,,,,,1,0.08710459999997511,',001,2019_Feb_25_1639,body_behavioural,3.0.4,59.98575878101054,
1,"I really want to spend the rest of my years eating garden tomatoes, whatever it is, with you.” ",4,2,None,None,0,1,1,1,,,,,0,23,23,23,,,,,,,,,,,1,0.10303636499997992,',001,2019_Feb_25_1639,body_behavioural,3.0.4,59.98575878101054,
1,"Alvira smiled, “I want the same with you too, Senna.” ",4,2,None,17.0,0,1,1,1,,,,,0,24,24,24,,,,,,,,,,,1,0.08574291500008258,',001,2019_Feb_25_1639,body_behavioural,3.0.4,59.98575878101054,
1,"Senna nodded at the waiter who had been watching attentively, and he quickly strode over to place a small, elegant cake topped with the ring in front of Alvira. ",4,3,None,None,0,1,1,1,,,,,0,25,25,25,,,,,,,,,,,9,0.12036948299987671,',001,2019_Feb_25_1639,body_behavioural,3.0.4,59.98575878101054,
1,Her eyes widened in shock when she realized what she was looking at.,4,3,None,None,0,1,1,1,,,,,0,26,26,26,,,,,,,,,,,1,0.1031818999999814,',001,2019_Feb_25_1639,body_behavioural,3.0.4,59.98575878101054,
1,"“Alvira, will you marry me? ",4,3,None,None,0,1,1,1,,,,,0,27,27,27,,,,,,,,,,,1,0.1195995400000811,',001,2019_Feb_25_1639,body_behavioural,3.0.4,59.98575878101054,
1,"I love you, and I will never stop loving you.” ",4,3,None,None,0,1,1,1,,,,,0,28,28,28,,,,,,,,,,,1,0.11987459199986006,',001,2019_Feb_25_1639,body_behavioural,3.0.4,59.98575878101054,
1,Alvira started to cry.,4,3,None,None,0,1,1,1,,,,,0,29,29,29,,,,,,,,,,,1,0.11926587299990388,',001,2019_Feb_25_1639,body_behavioural,3.0.4,59.98575878101054,
1,"The room became silent, and everyone turned to their table. ",4,3,None,5.0,0,1,1,1,,,,,0,30,30,30,,,,,,,,,,,1,0.11840065000001232,',001,2019_Feb_25_1639,body_behavioural,3.0.4,59.98575878101054,
1,"“Yes, of course, yes!” she shouted as she wiped away tears.",4,4,None,None,0,1,1,1,,,,,0,31,31,31,,,,,,,,,,,1,0.11912161500004004,',001,2019_Feb_25_1639,body_behavioural,3.0.4,59.98575878101054,
1,The neighboring tables exploded in applause.,4,4,None,None,0,1,1,1,,,,,0,32,32,32,,,,,,,,,,,9,0.0006620730000577169,',001,2019_Feb_25_1639,body_behavioural,3.0.4,59.98575878101054,
1,The waiter returned with a bottle of champagne and popped it. ,4,4,None,None,0,1,1,1,,,,,0,33,33,33,,,,,,,,,,,1,0.06879434799998307,',001,2019_Feb_25_1639,body_behavioural,3.0.4,59.98575878101054,
1,"All of this went unnoticed by Senna and Alvira as they looked into each others’ eyes, and he slipped the ring onto her finger. ",4,4,None,None,0,1,1,1,,,,,0,34,34,34,,,,,,,,,,,1,0.10232775800000127,',001,2019_Feb_25_1639,body_behavioural,3.0.4,59.98575878101054,
1,"She held up her hand to admire it, and her glittering tears of joy matched the shine from her ring.   
",4,4,17.0,5.0,0,1,1,1,,,,,0,35,35,35,,,,,,,,,,,1,0.1194993379999687,',001,2019_Feb_25_1639,body_behavioural,3.0.4,59.98575878101054,
1,,,,,,0,1,1,1,,,,,,,,,,,,,,,,,,,,,',001,2019_Feb_25_1639,body_behavioural,3.0.4,59.98575878101054,
2,,,,,,0,2,2,2,0,0,0,0,,,,,,,,,space,0.8528425150000203,space,0.3698732729999392,space,0.47058277499991163,,,',001,2019_Feb_25_1639,body_behavioural,3.0.4,59.98575878101054,
2,"Leon and  Ariana hurried into the classroom at the same time, and Leon did a double-take when he saw her. ",1,1,,,0,2,2,2,,,,,0,0,0,0,,,,,,,,,,,1,0.7862358400000176,',001,2019_Feb_25_1639,body_behavioural,3.0.4,59.98575878101054,
2,"This was his first day after transferring to this university, and he had assumed that he wouldn’t know anyone on campus, but he couldn't shake the nagging feeling  that he had seen her somewhere before. ",1,1,,,0,2,2,2,,,,,0,1,1,1,,,,,,,,,,,1,0.06887517699988166,',001,2019_Feb_25_1639,body_behavioural,3.0.4,59.98575878101054,
2,"They were both a bit late, so they quickly slid into seats next to each other in the back of the small classroom.",1,1,,,0,2,2,2,,,,,0,2,2,2,,,,,,,,,,,1,0.10247507200006112,',001,2019_Feb_25_1639,body_behavioural,3.0.4,59.98575878101054,
2,"This room was usually used for small meetings, but had been rearranged with the table pushed to the side and chairs set up in rows to face the projector screen. ",1,1,,,0,2,2,2,,,,,0,3,3,3,,,,,,,,,,,1,0.10221639799988225,',001,2019_Feb_25_1639,body_behavioural,3.0.4,59.98575878101054,
2,"There were no windows in the room, since they were down in the sub-basement of the history department.",1,1,,,0,2,2,2,,,,,0,4,4,4,,,,,,,,,,,1,0.0872594529998878,',001,2019_Feb_25_1639,body_behavioural,3.0.4,59.98575878101054,
2,"Leon, trying to figure out where he had seen her before, could not stop looking over at Ariana.",1,1,,,0,2,2,2,,,,,0,5,5,5,,,,,,,,,,,1,0.08659004699984507,',001,2019_Feb_25_1639,body_behavioural,3.0.4,59.98575878101054,
2,Ariana was oblivious to Leon’s gaze and was only focused on getting ready for class. ,1,1,,,0,2,2,2,,,,,0,6,6,6,,,,,,,,,,,1,0.08679002199983188,',001,2019_Feb_25_1639,body_behavioural,3.0.4,59.98575878101054,
2,"“Good afternoon class,” the professor began.",2,1,,,0,2,2,2,,,,,0,7,7,7,,,,,,,,,,,9,0.11937444699992739,',001,2019_Feb_25_1639,body_behavioural,3.0.4,59.98575878101054,
2,“Welcome to Egyptian Cultural Studies. ,2,1,,,0,2,2,2,,,,,0,8,8,8,,,,,,,,,,,1,0.11961362500005635,',001,2019_Feb_25_1639,body_behavioural,3.0.4,59.98575878101054,
2,"Today we will be talking about mummification, one of the most famous and often misunderstood customs in ancient Egyptian society.”",2,1,,,0,2,2,2,,,,,0,9,9,9,,,,,,,,,,,9,0.06705797700010407,',001,2019_Feb_25_1639,body_behavioural,3.0.4,59.98575878101054,
2,Leon pulled out his notebook and tried to concentrate on the class.,2,1,,,0,2,2,2,,,,,0,10,10,10,,,,,,,,,,,9,0.26951580299987654,',001,2019_Feb_25_1639,body_behavioural,3.0.4,59.98575878101054,
2,Within a few minutes though he found his attention wandering back to Ariana.,2,1,,,0,2,2,2,,,,,0,11,11,11,,,,,,,,,,,9,0.10179844999993293,',001,2019_Feb_25_1639,body_behavioural,3.0.4,59.98575878101054,
2,"He decided to do something about his hunch so he ripped off a corner of a page in his notebook, wrote a note, and set it on her desk.",2,1,,,0,2,2,2,,,,,0,12,12,12,,,,,,,,,,,9,0.0830422419999195,',001,2019_Feb_25_1639,body_behavioural,3.0.4,59.98575878101054,
2,"“Hi, sorry to distract you from mummies, but you look really familiar," it read.",2,2,,,0,2,2,2,,,,,0,13,13,13,,,,,,,,,,,9,0.11989499500009515,',001,2019_Feb_25_1639,body_behavioural,3.0.4,59.98575878101054,
2,It continued: “Do I know you from somewhere?”,2,2,,,0,2,2,2,,,,,0,14,14,14,,,,,,,,,,,9,0.10338124999998399,',001,2019_Feb_25_1639,body_behavioural,3.0.4,59.98575878101054,
2,"She looked at the note with surprise, and then turned to notice Leon for the first time. ",2,2,,,0,2,2,2,,,,,0,15,15,15,,,,,,,,,,,9,0.08535428499999398,',001,2019_Feb_25_1639,body_behavioural,3.0.4,59.98575878101054,
2,"She instantly liked him when she saw him; he had very soft eyes and sharp features, a combination that made him seem  trustworthy and genuine.",2,2,,,0,2,2,2,,,,,0,16,16,16,,,,,,,,,,,9,0.08598988999983703,',001,2019_Feb_25_1639,body_behavioural,3.0.4,59.98575878101054,
2,He smiled at her and she flashed him a smile back.,2,2,,,0,2,2,2,,,,,0,17,17,17,,,,,,,,,,,9,0.11945815499984747,',001,2019_Feb_25_1639,body_behavioural,3.0.4,59.98575878101054,
2,Then she turned the note over to the back and started to write a reply.,2,2,,,0,2,2,2,,,,,0,18,18,18,,,,,,,,,,,1,0.06944153500012362,',001,2019_Feb_25_1639,body_behavioural,3.0.4,59.98575878101054,
2,"Meanwhile the professor continued, “One may well question why the ancient Egyptians spent so much time and effort on their funerary practices.",3,2,,,0,2,2,2,,,,,0,19,19,19,,,,,,,,,,,1,0.11876275999998143,',001,2019_Feb_25_1639,body_behavioural,3.0.4,59.98575878101054,
2,"Not only was the mummification process itself a complicated affair, but there were also elaborate rituals before, during, and after death.",3,2,,,0,2,2,2,,,,,0,20,20,20,,,,,,,,,,,1,0.11790466999991622,',001,2019_Feb_25_1639,body_behavioural,3.0.4,59.98575878101054,
2,The practice required teams of experts with years of training and took a total of 70 days to complete.” ,3,2,,,0,2,2,2,,,,,0,21,21,21,,,,,,,,,,,1,0.08673444000010022,',001,2019_Feb_25_1639,body_behavioural,3.0.4,59.98575878101054,
2,"Ariana passed the note back to Leon, and she had replied, “No, but maybe my twin and I were separated at birth.”",3,2,,,0,2,2,2,,,,,0,22,22,22,,,,,,,,,,,1,0.08535815000004732,',001,2019_Feb_25_1639,body_behavioural,3.0.4,59.98575878101054,
2,They passed notes back and forth the whole class like they were back in high school.,3,2,,,0,2,2,2,,,,,0,23,23,23,,,,,,,,,,,1,0.18846847000008893,',001,2019_Feb_25_1639,body_behavioural,3.0.4,59.98575878101054,
2,"Near the end of the lecture, Leon wrote, “Would you like to go to dinner tonight?” ",3,3,,,0,2,2,2,,,,,0,24,24,24,,,,,,,,,,,9,0.11911471999997048,',001,2019_Feb_25_1639,body_behavioural,3.0.4,59.98575878101054,
2,"Ariana read the note, and looked at him and nodded her head",3,3,,,0,2,2,2,,,,,0,25,25,25,,,,,,,,,,,1,0.0867305250001209,',001,2019_Feb_25_1639,body_behavioural,3.0.4,59.98575878101054,
2,"She wrote back on the slip of paper, “Pick me up at 6 in front of Patton Hall.”",3,3,,,0,2,2,2,,,,,0,26,26,26,,,,,,,,,,,9,0.11982034199991176,',001,2019_Feb_25_1639,body_behavioural,3.0.4,59.98575878101054,
2,Then the professor ended the lecture and announced to the class that they would have their first quiz next class on Friday on mummification. ,4,3,,,0,2,2,2,,,,,0,27,27,27,,,,,,,,,,,1,0.08613081200019224,',001,2019_Feb_25_1639,body_behavioural,3.0.4,59.98575878101054,
2,"Everyone packed up and started heading out, as well as Sophie and Leon.",4,3,,,0,2,2,2,,,,,0,28,28,28,,,,,,,,,,,9,0.06889352500002133,',001,2019_Feb_25_1639,body_behavioural,3.0.4,59.98575878101054,
2,"They approached each other smiling, and Leon said, “Well it was great to meet you, again, or maybe not again, but regardless it was great to meet you.” ",4,3,,,0,2,2,2,,,,,0,29,29,29,,,,,,,,,,,1,0.08110869500001172,',001,2019_Feb_25_1639,body_behavioural,3.0.4,59.98575878101054,
2,"She replied, “Yes, it was.",4,4,,,0,2,2,2,,,,,0,30,30,30,,,,,,,,,,,1,0.11943614799997704,',001,2019_Feb_25_1639,body_behavioural,3.0.4,59.98575878101054,
2,"I have to run to my next class, but I’ll see you later tonight.” ",4,4,,,0,2,2,2,,,,,0,31,31,31,,,,,,,,,,,1,0.11920933699980196,',001,2019_Feb_25_1639,body_behavioural,3.0.4,59.98575878101054,
2,"She waved as they parted ways outside of the door of the classroom, and Leon was still trying to figure out where he had seen her before as he watched her go. ",4,4,,,0,2,2,2,,,,,0,32,32,32,,,,,,,,,,,1,0.13612178699986544,',001,2019_Feb_25_1639,body_behavioural,3.0.4,59.98575878101054,
2,,,,,,0,2,2,2,,,,,,,,,,,,,,,,,,,,,',001,2019_Feb_25_1639,body_behavioural,3.0.4,59.98575878101054,
