count,storyText,locationEvent,socialEvent,instructText,trials.thisRepN,trials.thisTrialN,trials.thisN,trials.thisIndex,trials_2.thisRepN,trials_2.thisTrialN,trials_2.thisN,trials_2.thisIndex,trials_3.thisRepN,trials_3.thisTrialN,trials_3.thisN,trials_3.thisIndex,trials_4.thisRepN,trials_4.thisTrialN,trials_4.thisN,trials_4.thisIndex,trials_5.thisRepN,trials_5.thisTrialN,trials_5.thisN,trials_5.thisIndex,trials_6.thisRepN,trials_6.thisTrialN,trials_6.thisN,trials_6.thisIndex,order of stories,order of perspectives,story_presses.keys,story_presses.rt,key_resp_2.keys,key_resp_2.rt,key_resp_3.keys,key_resp_3.rt,key_resp_4.keys,key_resp_4.rt,recall,question1_correct_perspective,question2_correct_perspective,question3_correct_perspective,question4_correct_perspective,participant,session,date,expName,frameRate,
0,"Calvin and Jessie were running late to the airport, and Jessie was fuming at Calvin and ready to end things with him.",1,1,,0,0,0,0,0,0,0,0,,,,,,,,,,,,,,,,,[12 22 33 43 21 34 11 44 23 42 32 24 31 41 13 14],"['Social' 'Location' 'Location' 'Social' 'Social' 'Social' 'Location'
 'Location' 'Location' 'Social' 'Location' 'Social' 'Social' 'Location'
 'Social' 'Location']",1,0.41781711496878415,,,,,,,,,,,,',001,2019_Jan_18_1337,body_behavioural,59.718614493873304,
0,When they entered the airport they had only 45 minutes until their international flight would depart from Jamaica for the US.,1,1,,0,0,0,0,0,1,1,1,,,,,,,,,,,,,,,,,,,1,0.1684398000361398,,,,,,,,,,,,',001,2019_Jan_18_1337,body_behavioural,59.718614493873304,
0,"It had been a tough vacation for them, argument-filled and tense from the minute they had landed.",1,1,,0,0,0,0,0,2,2,2,,,,,,,,,,,,,,,,,,,1,0.10246767394710332,,,,,,,,,,,,',001,2019_Jan_18_1337,body_behavioural,59.718614493873304,
0," Jessie had really had it with Calvin’s constant ramblings about the same excruciatingly boring golfing and work stories, which he insisted on repeating to her regardless of how little interest she showed.",1,1,,0,0,0,0,0,3,3,3,,,,,,,,,,,,,,,,,,,1,0.09199429396539927,,,,,,,,,,,,',001,2019_Jan_18_1337,body_behavioural,59.718614493873304,
0,"Calvin knew that Jessie was upset, but wasn't sure what to do besides attempting to keep his mouth shut for the time being. ",1,1,,0,0,0,0,0,4,4,4,,,,,,,,,,,,,,,,,,,1,0.08511824207380414,,,,,,,,,,,,',001,2019_Jan_18_1337,body_behavioural,59.718614493873304,
0," The security line was luckily very short, and once the online boarding passes were scanned, they were ushered quickly through the metal detector, not having to take off their shoes or remove their liquids from their bags.",2,1,,0,0,0,0,0,5,5,5,,,,,,,,,,,,,,,,,,,1,0.07154481601901352,,,,,,,,,,,,',001,2019_Jan_18_1337,body_behavioural,59.718614493873304,
0,"“The infrastructure of this airport is really quite poor," said Calvin as they waited for their bags to emerge from the x-ray machine.",2,1,,0,0,0,0,0,6,6,6,,,,,,,,,,,,,,,,,,,1,0.06729035603348166,,,,,,,,,,,,',001,2019_Jan_18_1337,body_behavioural,59.718614493873304,
0,"I really could've hidden something in my shoes quite easily.” ,2,1,,0,0,0,0,0,7,7,7,,,,,,,,,,,,,,,,,,,1,0.10151963797397912,,,,,,,,,,,,',001,2019_Jan_18_1337,body_behavioural,59.718614493873304,
0,"Jessie scowled at the conveyor belt, exasperated at his need to broadcast his every inner thought to the world.",2,1,,0,0,0,0,0,8,8,8,,,,,,,,,,,,,,,,,,,1,0.10103890602476895,,,,,,,,,,,,',001,2019_Jan_18_1337,body_behavioural,59.718614493873304,
0,“What?” he said.,2,1,,0,0,0,0,0,9,9,9,,,,,,,,,,,,,,,,,,,1,0.13437647302635014,,,,,,,,,,,,',001,2019_Jan_18_1337,body_behavioural,59.718614493873304,
0,She balled up her fists and turned to face him.,2,1,,0,0,0,0,0,10,10,10,,,,,,,,,,,,,,,,,,,1,0.11847568396478891,,,,,,,,,,,,',001,2019_Jan_18_1337,body_behavioural,59.718614493873304,
0,"“Calvin, I really don’t think I can do this anymore.",2,2,,0,0,0,0,0,11,11,11,,,,,,,,,,,,,,,,,,,1,0.13399538700468838,,,,,,,,,,,,',001,2019_Jan_18_1337,body_behavioural,59.718614493873304,
0,I think it’s best that once we get to the States we part ways for good.” ,2,2,,0,0,0,0,0,12,12,12,,,,,,,,,,,,,,,,,,,1,0.11866353009827435,,,,,,,,,,,,',001,2019_Jan_18_1337,body_behavioural,59.718614493873304,
0,Calvin said nothing as he grabbed his bag and stormed away.,2,2,,0,0,0,0,0,13,13,13,,,,,,,,,,,,,,,,,,,1,0.11759992397855967,,,,,,,,,,,,',001,2019_Jan_18_1337,body_behavioural,59.718614493873304,
0,"Jessie trailed behind him as they made their way quickly toward their gate, shouting at his back in hopes of getting a response.",3,2,,0,0,0,0,0,14,14,14,,,,,,,,,,,,,,,,,,,1,0.11895907006692141,,,,,,,,,,,,',001,2019_Jan_18_1337,body_behavioural,59.718614493873304,
0, “So now you have nothing to say?,3,2,,0,0,0,0,0,15,15,15,,,,,,,,,,,,,,,,,,,1,0.10194095503538847,,,,,,,,,,,,',001,2019_Jan_18_1337,body_behavioural,59.718614493873304,
0,"Every time we talk, you are just looking for a way to steer the conversation back into stories that you are the only one interested in.”",3,2,,0,0,0,0,0,16,16,16,,,,,,,,,,,,,,,,,,,1,0.11940113606397063,,,,,,,,,,,,',001,2019_Jan_18_1337,body_behavioural,59.718614493873304,
0,"Calvin didn't slow his pace, gritting his teeth and staring straight ahead. ",3,2,,0,0,0,0,0,17,17,17,,,,,,,,,,,,,,,,,,,1,0.18482452793978155,,,,,,,,,,,,',001,2019_Jan_18_1337,body_behavioural,59.718614493873304,
0,The silence was punctuated only by the rapid rhythmic clacking of their suitcase wheels over the tile floor as they continued power-walking through the terminal. ,3,2,,0,0,0,0,0,18,18,18,,,,,,,,,,,,,,,,,,,1,0.11858762102201581,,,,,,,,,,,,',001,2019_Jan_18_1337,body_behavioural,59.718614493873304,
0," “Well?” Jessie said, and Calvin finally turned to her.",3,2,,0,0,0,0,0,19,19,19,,,,,,,,,,,,,,,,,,,1,0.13520855701062828,,,,,,,,,,,,',001,2019_Jan_18_1337,body_behavioural,59.718614493873304,
0," “Well Jessie, this makes perfect sense. ",3,3,,0,0,0,0,0,20,20,20,,,,,,,,,,,,,,,,,,,1,0.15218158392235637,,,,,,,,,,,,',001,2019_Jan_18_1337,body_behavioural,59.718614493873304,
0,"If you feel this way, then I don’t want to keep boring you, and I agree, let’s part ways once we make it back.",3,3,,0,0,0,0,0,21,21,21,,,,,,,,,,,,,,,,,,,1,0.11811435990966856,,,,,,,,,,,,',001,2019_Jan_18_1337,body_behavioural,59.718614493873304,
0,"I thought we were having a lovely time, but if the feeling was not mutual then so be it.”",3,3,,0,0,0,0,0,22,22,22,,,,,,,,,,,,,,,,,,,1,0.1512339209439233,,,,,,,,,,,,',001,2019_Jan_18_1337,body_behavioural,59.718614493873304,
0,"He was clearly hurt, but thought it was pointless to argue. ",3,3,,0,0,0,0,0,23,23,23,,,,,,,,,,,,,,,,,,,1,0.16910645097959787,,,,,,,,,,,,',001,2019_Jan_18_1337,body_behavioural,59.718614493873304,
0,"They finally made it to the gate, just as they heard the final call for passengers boarding their flight.",3,3,,0,0,0,0,0,24,24,24,,,,,,,,,,,,,,,,,,,1,0.1004392490722239,,,,,,,,,,,,',001,2019_Jan_18_1337,body_behavioural,59.718614493873304,
0,"They scanned their tickets, and the annoyed flight attendant shooed them onto the jet bridge and then closed the door behind them.",4,3,,0,0,0,0,0,25,25,25,,,,,,,,,,,,,,,,,,,1,0.11628224304877222,,,,,,,,,,,,',001,2019_Jan_18_1337,body_behavioural,59.718614493873304,
0,"Luckily, they had forgotten to arrange seats next to each other on the flight back.",4,3,,0,0,0,0,0,26,26,26,,,,,,,,,,,,,,,,,,,1,0.13531588099431247,,,,,,,,,,,,',001,2019_Jan_18_1337,body_behavioural,59.718614493873304,
0,"They both had first-class tickets, but Jessie was headed for seat 1B while Calvin's ticket was for 4F. ",4,3,,0,0,0,0,0,27,27,27,,,,,,,,,,,,,,,,,,,1,0.08525654894765466,,,,,,,,,,,,',001,2019_Jan_18_1337,body_behavioural,59.718614493873304,
0,"Before Jessie sat down, she took a deep breath and then awkwardly shook Calvin’s hand, mumbling, “Well, have a nice flight.” ",4,4,,0,0,0,0,0,28,28,28,,,,,,,,,,,,,,,,,,,1,0.13298327196389437,,,,,,,,,,,,',001,2019_Jan_18_1337,body_behavioural,59.718614493873304,
0,He laughed in disbelief and walked to his window seat three rows back to get ready for takeoff.,4,4,,0,0,0,0,0,29,29,29,,,,,,,,,,,,,,,,,,,1,0.1339884060434997,,,,,,,,,,,,',001,2019_Jan_18_1337,body_behavioural,59.718614493873304,
0,"Both were at least relieved that the vacation and the fights were over, and they were looking forward to never having to struggle through another conversation together again.
",4,4,,0,0,0,0,0,30,30,30,,,,,,,,,,,,,,,,,,,1,0.11917467310559005,,,,,,,,,,,,',001,2019_Jan_18_1337,body_behavioural,59.718614493873304,
0,,,,,0,0,0,0,,,,,,,,,,,,,,,,,,,,,,,,,,,,,,,,,,,,',001,2019_Jan_18_1337,body_behavioural,59.718614493873304,
,,,,The next task in the experiment is to recall each story to the best of your ability.,,,,,,,,,0,0,0,0,,,,,,,,,,,,,,,,,space,0.8353891490260139,,,,,,,,,,',001,2019_Jan_18_1337,body_behavioural,59.718614493873304,
,,,,"You will be presented with the story title, names, the images, and a blank text box for each story.",,,,,,,,,0,1,1,1,,,,,,,,,,,,,,,,,space,0.533278068061918,,,,,,,,,,',001,2019_Jan_18_1337,body_behavioural,59.718614493873304,
,,,,Describe the story with as many details as you can remember in the space provided. ,,,,,,,,,0,2,2,2,,,,,,,,,,,,,,,,,space,0.3844836140051484,,,,,,,,,,',001,2019_Jan_18_1337,body_behavioural,59.718614493873304,
,,,,"When you are finished recalling one story, to move onto the next one hit ‘return’. ",,,,,,,,,0,3,3,3,,,,,,,,,,,,,,,,,space,0.3019290309166536,,,,,,,,,,',001,2019_Jan_18_1337,body_behavioural,59.718614493873304,
,,,,There is no time limit for your responses. ,,,,,,,,,0,4,4,4,,,,,,,,,,,,,,,,,space,0.38557194103486836,,,,,,,,,,',001,2019_Jan_18_1337,body_behavioural,59.718614493873304,
0,,,,,,,,,,,,,,,,,0,0,0,0,,,,,,,,,,,,,,,,,,,,,,,,',001,2019_Jan_18_1337,body_behavioural,59.718614493873304,
,,,,The next part of the task is to answer questions about each story.,,,,,,,,,,,,,,,,,0,0,0,0,,,,,,,,,,,space,0.7869804019574076,,,,,,,,',001,2019_Jan_18_1337,body_behavioural,59.718614493873304,
,,,,The next part of the task is to answer questions about each story.,,,,,,,,,,,,,,,,,0,0,0,0,,,,,,,,,,,,,,,,,,,,',001,2019_Jan_18_1337,body_behavioural,59.718614493873304,
,,,,You will be asked the questions you were asked to remember for the job simulated during each story.,,,,,,,,,,,,,,,,,0,1,1,1,,,,,,,,,,,space,0.4018269960070029,,,,,,,,',001,2019_Jan_18_1337,body_behavioural,59.718614493873304,
,,,,You will be asked the questions you were asked to remember for the job simulated during each story.,,,,,,,,,,,,,,,,,0,1,1,1,,,,,,,,,,,,,,,,,,,,',001,2019_Jan_18_1337,body_behavioural,59.718614493873304,
,,,,You will also be asked questions that we didn’t tell you to think of for that story.,,,,,,,,,,,,,,,,,0,2,2,2,,,,,,,,,,,space,0.38632821303326637,,,,,,,,',001,2019_Jan_18_1337,body_behavioural,59.718614493873304,
,,,,You will also be asked questions that we didn’t tell you to think of for that story.,,,,,,,,,,,,,,,,,0,2,2,2,,,,,,,,,,,,,,,,,,,,',001,2019_Jan_18_1337,body_behavioural,59.718614493873304,
,,,,"We realize that we did not tell you to think of these questions during the story, but do your best to answer all these questions. ",,,,,,,,,,,,,,,,,0,3,3,3,,,,,,,,,,,space,0.43371056800242513,,,,,,,,',001,2019_Jan_18_1337,body_behavioural,59.718614493873304,
,,,,"We realize that we did not tell you to think of these questions during the story, but do your best to answer all these questions. ",,,,,,,,,,,,,,,,,0,3,3,3,,,,,,,,,,,,,,,,,,,,',001,2019_Jan_18_1337,body_behavioural,59.718614493873304,
,,,,Hit enter to submit your answer and move onto the next question. ,,,,,,,,,,,,,,,,,0,4,4,4,,,,,,,,,,,space,0.3521862409543246,,,,,,,,',001,2019_Jan_18_1337,body_behavioural,59.718614493873304,
,,,,Hit enter to submit your answer and move onto the next question. ,,,,,,,,,,,,,,,,,0,4,4,4,,,,,,,,,,,,,,,,,,,,',001,2019_Jan_18_1337,body_behavioural,59.718614493873304,
0,,,,,,,,,,,,,,,,,,,,,,,,,0,0,0,0,,,,,,,,,space,1.1513443619478494,,',,,,',001,2019_Jan_18_1337,body_behavioural,59.718614493873304,
1,,,,,,,,,,,,,,,,,,,,,,,,,0,1,1,1,,,,,,,,,space,0.7347623490495607,,,,,,',001,2019_Jan_18_1337,body_behavioural,59.718614493873304,
2,,,,,,,,,,,,,,,,,,,,,,,,,0,2,2,2,,,,,,,,,space,1.3521727700717747,,,,,,',001,2019_Jan_18_1337,body_behavioural,59.718614493873304,
