count,storyText,locationEvent,socialEvent,locationEventSize,socialEventSize,trials.thisRepN,trials.thisTrialN,trials.thisN,trials.thisIndex,trials_7.thisRepN,trials_7.thisTrialN,trials_7.thisN,trials_7.thisIndex,trials_2.thisRepN,trials_2.thisTrialN,trials_2.thisN,trials_2.thisIndex,order of stories,order of perspectives,participant 2 order - stories,participant 2 order  - schemas types,key_resp_8.keys,key_resp_8.rt,key_resp_5.keys,key_resp_5.rt,key_resp_7.keys,key_resp_7.rt,story_presses.keys,story_presses.rt,participant,session,date,expName,psychopyVersion,frameRate,
0,,,,,,0,0,0,0,0,0,0,0,,,,,[24 13 11 22 42 44 31 33 23 41 14 34 32 21 43 12],"['Social' 'Location' 'Social' 'Location' 'Social' 'Location' 'Location'
 'Social' 'Social' 'Social' 'Location' 'Social' 'Location' 'Location'
 'Location' 'Social']",[23 41 14 34 32 21 43 12],"['Social' 'Social' 'Location' 'Social' 'Location' 'Location' 'Location'
 'Social']",space,0.3497439929997199,space,0.41961803500089445,space,0.5364779599985923,,,',001,2019_Feb_28_1356,body_behavioural,3.0.4,60.1008282755583,
0,"Lana walked into lecture holding hands with her boyfriend, Aaron, who was trying to contain his excitement and anticipation for proposing to Lana in this class. ",1,1,,,0,0,0,0,,,,,0,0,0,0,,,,,,,,,,,1,4.037176814999839,',001,2019_Feb_28_1356,body_behavioural,3.0.4,60.1008282755583,
0,"Lana was lost in thought, still puzzling over a calculus problem on her problem set due that night.",1,1,,,0,0,0,0,,,,,0,1,1,1,,,,,,,,,,,9,0.3857736570025736,',001,2019_Feb_28_1356,body_behavioural,3.0.4,60.1008282755583,
0,"The lecture hall was the fanciest one at Princeton, with chandeliers, high ceilings, wood floors and double-decker chalkboards.",1,1,,,0,0,0,0,,,,,0,2,2,2,,,,,,,,,,,1,0.3512209199980134,',001,2019_Feb_28_1356,body_behavioural,3.0.4,60.1008282755583,
0,"This is where Aaron and Lana had met two years ago during an economics class, and now they were back together in the same lecture hall for their Chemistry class. ",1,1,,,0,0,0,0,,,,,0,3,3,3,,,,,,,,,,,9,0.33636467000178527,',001,2019_Feb_28_1356,body_behavioural,3.0.4,60.1008282755583,
0,The professor caught Aaron's eye as he walked up to the front of the classroom and gave him a wink before the lecture began. ,1,1,,,0,0,0,0,,,,,0,4,4,4,,,,,,,,,,,9,0.2859150750009576,',001,2019_Feb_28_1356,body_behavioural,3.0.4,60.1008282755583,
0,Aaron responded with a huge grin. ,1,1,,,0,0,0,0,,,,,0,5,5,5,,,,,,,,,,,9,0.13633634999860078,',001,2019_Feb_28_1356,body_behavioural,3.0.4,60.1008282755583,
0,"The professor cleared his throat and said,“Alright, good afternoon, everyone!",2,1,,,0,0,0,0,,,,,0,6,6,6,,,,,,,,,,,9,0.11953003999951761,',001,2019_Feb_28_1356,body_behavioural,3.0.4,60.1008282755583,
0,"Last week we talked about the structure of the periodic table, and this week the topic is ions.",2,1,,,0,0,0,0,,,,,0,7,7,7,,,,,,,,,,,9,0.35275621300024795,',001,2019_Feb_28_1356,body_behavioural,3.0.4,60.1008282755583,
0,These are atoms or molecules in which the number of electrons does not equal the number of protons.,2,1,,,0,0,0,0,,,,,0,8,8,8,,,,,,,,,,,9,0.11947824999879231,',001,2019_Feb_28_1356,body_behavioural,3.0.4,60.1008282755583,
0,"Now, let me get my computer set up, one moment, class.”",2,1,,,0,0,0,0,,,,,0,9,9,9,,,,,,,,,,,1,0.4029843720018107,',001,2019_Feb_28_1356,body_behavioural,3.0.4,60.1008282755583,
0,Lana pulled out her Calculus problem set and puzzled over it.,2,1,,,0,0,0,0,,,,,0,10,10,10,,,,,,,,,,,9,0.2530416800000239,',001,2019_Feb_28_1356,body_behavioural,3.0.4,60.1008282755583,
0,"While she was distracted, Aaron unzipped the small pocket in his backpack and pulled out the ring box.",2,2,,,0,0,0,0,,,,,0,11,11,11,,,,,,,,,,,1,0.28649479299929226,',001,2019_Feb_28_1356,body_behavioural,3.0.4,60.1008282755583,
0,He opened it up and looked at the ring.,2,2,,,0,0,0,0,,,,,0,12,12,12,,,,,,,,,,,9,0.2531880699971225,',001,2019_Feb_28_1356,body_behavioural,3.0.4,60.1008282755583,
0,"Instead of one large diamond, there were 5 diamonds embedded in a thick band. ",2,2,,,0,0,0,0,,,,,0,13,13,13,,,,,,,,,,,1,0.2863373729996965,',001,2019_Feb_28_1356,body_behavioural,3.0.4,60.1008282755583,
0,He knew Lana would like this because her style was not flashy but more about simple elegance.,2,2,,,0,0,0,0,,,,,0,14,14,14,,,,,,,,,,,9,0.31937727500189794,',001,2019_Feb_28_1356,body_behavioural,3.0.4,60.1008282755583,
0,Aaron put the ring back into the bag as the professor began the lecture. ,3,2,,,0,0,0,0,,,,,0,15,15,15,,,,,,,,,,,1,0.23589761199764325,',001,2019_Feb_28_1356,body_behavioural,3.0.4,60.1008282755583,
0,“Recall from previous lectures that the number of protons determines the identity of the element. ,3,2,,,0,0,0,0,,,,,0,16,16,16,,,,,,,,,,,9,0.25322070000038366,',001,2019_Feb_28_1356,body_behavioural,3.0.4,60.1008282755583,
0,"So for example, all atoms of sodium have 11 protons in the nucleus. ",3,2,,,0,0,0,0,,,,,0,17,17,17,,,,,,,,,,,1,0.2524240599996119,',001,2019_Feb_28_1356,body_behavioural,3.0.4,60.1008282755583,
0,"And if you look on the periodic table, the atomic number for sodium, the symbol is Na, is eleven.”",3,2,,,0,0,0,0,,,,,0,18,18,18,,,,,,,,,,,9,0.1862821700015047,',001,2019_Feb_28_1356,body_behavioural,3.0.4,60.1008282755583,
0,Lana was taking notes while Aaron was texting all of his friends in the class to get ready for the proposal. ,3,2,,,0,0,0,0,,,,,0,19,19,19,,,,,,,,,,,1,0.13639895000233082,',001,2019_Feb_28_1356,body_behavioural,3.0.4,60.1008282755583,
0,"Right after talking about how two ions bond into one stable molecule by covalent bonds, the professor stopped the lecture and asked Lana to come to the front of the class to do a demonstration. ",3,2,,,0,0,0,0,,,,,0,20,20,20,,,,,,,,,,,9,0.08635757299998659,',001,2019_Feb_28_1356,body_behavioural,3.0.4,60.1008282755583,
0,"She walked to the front of the class confused, and the professor asked her to stand in the middle of the stage.",3,2,,,0,0,0,0,,,,,0,21,21,21,,,,,,,,,,,1,0.13584080700093182,',001,2019_Feb_28_1356,body_behavioural,3.0.4,60.1008282755583,
0,"Then Aaron walked up and, taking Lana’s hand, got down on one knee. ",3,3,,,0,0,0,0,,,,,0,22,22,22,,,,,,,,,,,9,0.1526474970014533,',001,2019_Feb_28_1356,body_behavioural,3.0.4,60.1008282755583,
0,"“It's time for us to make a bond of our own, Lana.",3,3,,,0,0,0,0,,,,,0,23,23,23,,,,,,,,,,,1,0.16973545200016815,',001,2019_Feb_28_1356,body_behavioural,3.0.4,60.1008282755583,
0,Will you marry me?” ,3,3,,,0,0,0,0,,,,,0,24,24,24,,,,,,,,,,,9,0.1506668299989542,',001,2019_Feb_28_1356,body_behavioural,3.0.4,60.1008282755583,
0,Lana gasped and put her other hand to her mouth and started looking around the room as if trying to convince herself that this was really happening.,3,3,,,0,0,0,0,,,,,0,25,25,25,,,,,,,,,,,1,0.15358237500186078,',001,2019_Feb_28_1356,body_behavioural,3.0.4,60.1008282755583,
0,For a few moments everyone was in suspense waiting for the Lana’s shock to wear off and for her to answer. ,3,3,,,0,0,0,0,,,,,0,26,26,26,,,,,,,,,,,9,0.2697350349990302,',001,2019_Feb_28_1356,body_behavioural,3.0.4,60.1008282755583,
0,"Finally, she said, “Yes!”",3,4,,,0,0,0,0,,,,,0,27,27,27,,,,,,,,,,,1,0.11736159000065527,',001,2019_Feb_28_1356,body_behavioural,3.0.4,60.1008282755583,
0,"Aaron put the ring on her finger, and they hugged while the whole class clapped. ",3,4,,,0,0,0,0,,,,,0,28,28,28,,,,,,,,,,,9,0.06974929500211147,',001,2019_Feb_28_1356,body_behavioural,3.0.4,60.1008282755583,
0,"Their friends came up and hugged both of them, and the professor gave Aaron a celebratory handshake.",3,4,,,0,0,0,0,,,,,0,29,29,29,,,,,,,,,,,1,0.15230019000227912,',001,2019_Feb_28_1356,body_behavioural,3.0.4,60.1008282755583,
0,"They made their way back to their seats, Lana and Aaron hand-in-hand and beaming. ",3,4,,,0,0,0,0,,,,,0,30,30,30,,,,,,,,,,,9,0.11979530499957036,',001,2019_Feb_28_1356,body_behavioural,3.0.4,60.1008282755583,
0,"The professor then dismissed the class, saying, “That was enough excitement for today!",4,4,,,0,0,0,0,,,,,0,31,31,31,,,,,,,,,,,1,0.13619552199816098,',001,2019_Feb_28_1356,body_behavioural,3.0.4,60.1008282755583,
0,Don’t forget there’s an exam next week on the first two chapters of the textbook.”,4,4,,,0,0,0,0,,,,,0,32,32,32,,,,,,,,,,,9,0.11732050700084073,',001,2019_Feb_28_1356,body_behavioural,3.0.4,60.1008282755583,
0,"As everyone was packing up their notebooks and leaving, Lana was already on her phone calling her family members to tell them the exciting news.",4,4,,,0,0,0,0,,,,,0,33,33,33,,,,,,,,,,,1,0.1363606949998939,',001,2019_Feb_28_1356,body_behavioural,3.0.4,60.1008282755583,
0,,,,,,0,0,0,0,,,,,,,,,,,,,,,,,,,,,',001,2019_Feb_28_1356,body_behavioural,3.0.4,60.1008282755583,
1,,,,,,0,1,1,1,0,0,0,0,,,,,,,,,space,0.619112270000187,space,0.41936002199872746,space,0.4027303299990308,,,',001,2019_Feb_28_1356,body_behavioural,3.0.4,60.1008282755583,
1,The grocery store was not the place Emmanuella and Liam wanted to be at the moment considering they had been fighting beforehand to the point where Emmanuella was thinking of breaking up with Liam.,1,1,,,0,1,1,1,,,,,0,0,0,0,,,,,,,,,,,1,0.8868598349981767,',001,2019_Feb_28_1356,body_behavioural,3.0.4,60.1008282755583,
1,"However, they had to go grocery shopping because they were hosting a dinner party for friends that evening and had no groceries. ",1,1,,,0,1,1,1,,,,,0,1,1,1,,,,,,,,,,,9,0.21740337700248347,',001,2019_Feb_28_1356,body_behavioural,3.0.4,60.1008282755583,
1,The grocery store was dimly lit and had dark wood paneling for all the shelves.,1,1,,,0,1,1,1,,,,,0,2,2,2,,,,,,,,,,,1,0.1363921299998765,',001,2019_Feb_28_1356,body_behavioural,3.0.4,60.1008282755583,
1,"The store specialized in organic produce and products catering to desires for high-end products, such as imported cheeses and sauces. ",1,1,,,0,1,1,1,,,,,0,3,3,3,,,,,,,,,,,9,0.2528697449997708,',001,2019_Feb_28_1356,body_behavioural,3.0.4,60.1008282755583,
1,"Emmanuella felt angry as she headed immediately for the pasta section, and Liam trailed behind her. ",2,1,,,0,1,1,1,,,,,0,4,4,4,,,,,,,,,,,1,0.11972318699918105,',001,2019_Feb_28_1356,body_behavioural,3.0.4,60.1008282755583,
1,Emmanuella selected a few boxes of linguine.,2,1,,,0,1,1,1,,,,,0,5,5,5,,,,,,,,,,,9,0.15298219499891275,',001,2019_Feb_28_1356,body_behavioural,3.0.4,60.1008282755583,
1,"“I guess we are having pasta tonight,” Liam said.",2,1,,,0,1,1,1,,,,,0,6,6,6,,,,,,,,,,,1,0.10314686499987147,',001,2019_Feb_28_1356,body_behavioural,3.0.4,60.1008282755583,
1,"Emmanuella looked back at him and said, “Well if you were going to actually help cook, I would be fine with something else.”",2,1,,,0,1,1,1,,,,,0,7,7,7,,,,,,,,,,,9,0.05321243000071263,',001,2019_Feb_28_1356,body_behavioural,3.0.4,60.1008282755583,
1,"Liam sighed, and finally said, “You don’t want me to help.",2,1,,,0,1,1,1,,,,,0,8,8,8,,,,,,,,,,,1,0.11964206500124419,',001,2019_Feb_28_1356,body_behavioural,3.0.4,60.1008282755583,
1,"I try to, but it seems like I always get in the way!” ",2,1,,,0,1,1,1,,,,,0,9,9,9,,,,,,,,,,,9,0.06965833299909718,',001,2019_Feb_28_1356,body_behavioural,3.0.4,60.1008282755583,
1,"Emmanuella angrily threw the pasta into the cart, losing her temper.",2,1,,,0,1,1,1,,,,,0,10,10,10,,,,,,,,,,,9,0.26748031999886734,',001,2019_Feb_28_1356,body_behavioural,3.0.4,60.1008282755583,
1," “Liam, you don’t even try!",2,1,,,0,1,1,1,,,,,0,11,11,11,,,,,,,,,,,1,0.1363812349991349,',001,2019_Feb_28_1356,body_behavioural,3.0.4,60.1008282755583,
1,You know what?,2,1,,,0,1,1,1,,,,,0,12,12,12,,,,,,,,,,,9,0.35301651999907335,',001,2019_Feb_28_1356,body_behavioural,3.0.4,60.1008282755583,
1,I don’t think I can do this anymore. ,2,2,,,0,1,1,1,,,,,0,13,13,13,,,,,,,,,,,1,0.3029738969999016,',001,2019_Feb_28_1356,body_behavioural,3.0.4,60.1008282755583,
1,"I was going to wait until after this unfortunately-timed dinner party tonight to talk about this, but I might as well say it now: I don’t want to be in a relationship with you anymore.",2,2,,,0,1,1,1,,,,,0,14,14,14,,,,,,,,,,,9,0.6193120729985822,',001,2019_Feb_28_1356,body_behavioural,3.0.4,60.1008282755583,
1," I’m tired of the constant fighting, and I feel like when we try to do anything fun anymore it ends up unpleasant for the stupidest reasons, and I am just past  trying to work things out.”",2,2,,,0,1,1,1,,,,,0,15,15,15,,,,,,,,,,,1,0.3025196839989803,',001,2019_Feb_28_1356,body_behavioural,3.0.4,60.1008282755583,
1,"Liam refused to look at her as she picked out sauces for the pasta, and then she threw up her hands, saying, “You know what, if this party is still happening we are going to just eat pasta.”",2,2,,,0,1,1,1,,,,,0,16,16,16,,,,,,,,,,,9,0.30316093799774535,',001,2019_Feb_28_1356,body_behavioural,3.0.4,60.1008282755583,
1,They headed to the checkout area where there was only one station open but it was not crowded at all.,3,2,,,0,1,1,1,,,,,0,17,17,17,,,,,,,,,,,1,0.3362666419998277,',001,2019_Feb_28_1356,body_behavioural,3.0.4,60.1008282755583,
1,Emmanuella sighed and got in line while Liam pretended to be interested in the magazine racks as he thought. ,3,2,,,0,1,1,1,,,,,0,18,18,18,,,,,,,,,,,9,0.21929827200074214,',001,2019_Feb_28_1356,body_behavioural,3.0.4,60.1008282755583,
1,"Finally he turned to her and sighed, “Yes, I was thinking the same thing - I think we could definitely be happier with other people.” ",3,3,,,0,1,1,1,,,,,0,19,19,19,,,,,,,,,,,9,0.486416805000772,',001,2019_Feb_28_1356,body_behavioural,3.0.4,60.1008282755583,
1,"As if she hadn't heard him, Emmanuella looked at their cart and said, “I'm not sure this will be enough, could you grab another box of pasta?”",3,3,,,0,1,1,1,,,,,0,20,20,20,,,,,,,,,,,1,0.4030123169977742,',001,2019_Feb_28_1356,body_behavioural,3.0.4,60.1008282755583,
1, Liam scoffed and walked off to quickly get it.,3,3,,,0,1,1,1,,,,,0,21,21,21,,,,,,,,,,,9,0.35297402200012584,',001,2019_Feb_28_1356,body_behavioural,3.0.4,60.1008282755583,
1,"As Emmanuella waited in line, she took a moment to compose herself, deciding that there was no reason to continue making a scene in the store. ",3,3,,,0,1,1,1,,,,,0,22,22,22,,,,,,,,,,,1,0.26999404700109153,',001,2019_Feb_28_1356,body_behavioural,3.0.4,60.1008282755583,
1," Right when Liam came back with the pasta, the cashier started scanning their groceries.",4,3,,,0,1,1,1,,,,,0,23,23,23,,,,,,,,,,,1,0.5025208449987986,',001,2019_Feb_28_1356,body_behavioural,3.0.4,60.1008282755583,
1,"The cost came to $30, and Emmanuella paid with her credit card.",4,3,,,0,1,1,1,,,,,0,24,24,24,,,,,,,,,,,1,0.5029792749992339,',001,2019_Feb_28_1356,body_behavioural,3.0.4,60.1008282755583,
1,"She asked Liam politely to take the bags, and he obliged, following her to toward the exit. ",4,3,,,0,1,1,1,,,,,0,25,25,25,,,,,,,,,,,1,0.35305630700167967,',001,2019_Feb_28_1356,body_behavioural,3.0.4,60.1008282755583,
1,"“Liam, I think we are making the right decision.",4,4,,,0,1,1,1,,,,,0,26,26,26,,,,,,,,,,,1,0.2529120969993528,',001,2019_Feb_28_1356,body_behavioural,3.0.4,60.1008282755583,
1,This is good.” ,4,4,,,0,1,1,1,,,,,0,27,27,27,,,,,,,,,,,9,0.2862492519998341,',001,2019_Feb_28_1356,body_behavioural,3.0.4,60.1008282755583,
1,"“I agree,” he said, visibly relieved at the thought that they had gotten through the last fight they would ever need to have.",4,4,,,0,1,1,1,,,,,0,28,28,28,,,,,,,,,,,9,0.3363005970022641,',001,2019_Feb_28_1356,body_behavioural,3.0.4,60.1008282755583,
1,"“I think we can still host this dinner tonight, as long as you're still on board,” Emmanuella said.",4,4,,,0,1,1,1,,,,,0,29,29,29,,,,,,,,,,,9,0.3196462119994976,',001,2019_Feb_28_1356,body_behavioural,3.0.4,60.1008282755583,
1,"Liam nodded, “Yes, let’s just not tell anyone yet.” ",4,4,,,0,1,1,1,,,,,0,30,30,30,,,,,,,,,,,1,0.2364091669987829,',001,2019_Feb_28_1356,body_behavioural,3.0.4,60.1008282755583,
1,"Emmanuella laughed, “Whoever leaks it loses their rights to the cat.”",4,4,,,0,1,1,1,,,,,0,31,31,31,,,,,,,,,,,9,0.26988151499972446,',001,2019_Feb_28_1356,body_behavioural,3.0.4,60.1008282755583,
1,"Liam rolled his eyes and managed a weak chuckle, knowing the cat would be a whole other issue to sort out later.
",4,4,,,0,1,1,1,,,,,0,32,32,32,,,,,,,,,,,1,0.18620074700083933,',001,2019_Feb_28_1356,body_behavioural,3.0.4,60.1008282755583,
1,,,,,,0,1,1,1,,,,,,,,,,,,,,,,,,,,,',001,2019_Feb_28_1356,body_behavioural,3.0.4,60.1008282755583,
2,,,,,,0,2,2,2,0,0,0,0,,,,,,,,,space,0.586428672002512,space,0.30300587999954587,space,0.5362293750004028,,,',001,2019_Feb_28_1356,body_behavioural,3.0.4,60.1008282755583,
2,"Thomas, dreading the conversation he was about to have, got to Annika’s Finer Diner early.",1,1,None,None,0,2,2,2,,,,,0,0,0,0,,,,,,,,,,,None,,',001,2019_Feb_28_1356,body_behavioural,3.0.4,60.1008282755583,
2,,,,,,0,2,2,2,,,,,,,,,,,,,,,,,,,,,',001,2019_Feb_28_1356,body_behavioural,3.0.4,60.1008282755583,
