count,storyText,locationEvent,socialEvent,locationEventSize,socialEventSize,trials.thisRepN,trials.thisTrialN,trials.thisN,trials.thisIndex,trials_7.thisRepN,trials_7.thisTrialN,trials_7.thisN,trials_7.thisIndex,trials_2.thisRepN,trials_2.thisTrialN,trials_2.thisN,trials_2.thisIndex,trials_3.thisRepN,trials_3.thisTrialN,trials_3.thisN,trials_3.thisIndex,instructText,order of stories,order of perspectives,participant 2 order - stories,participant 2 order  - schemas types,key_resp_8.keys,key_resp_8.rt,key_resp_5.keys,key_resp_5.rt,key_resp_7.keys,key_resp_7.rt,story_presses.keys,story_presses.rt,story time,key_resp_6.keys,key_resp_6.rt,participant,session,date,expName,psychopyVersion,frameRate,
0,,,,,,0,0,0,0,0,0,0,0,,,,,,,,,,[14 32 21 42 33 11 24 43 22 41 13 23 31 34 12 44],"['Social' 'Social' 'Social' 'Location' 'Location' 'Location' 'Location'
 'Social' 'Location' 'Social' 'Location' 'Social' 'Location' 'Social'
 'Social' 'Location']",[22 41 13 23 31 34 12 44],"['Location' 'Social' 'Location' 'Social' 'Location' 'Social' 'Social'
 'Location']",space,0.30331557499812334,space,0.40277012499791454,space,0.36927645500327344,,,,,,',001,2019_Feb_28_1357,body_behavioural,3.0.4,59.96777164080944,
0,"Maria walked into lecture beside Henry, and she was mentally rehearsing what she should say to break up with him.",1,1,,,0,0,0,0,,,,,0,0,0,0,,,,,,,,,,,,,,,,1,1.0699056930025108,,,,',001,2019_Feb_28_1357,body_behavioural,3.0.4,59.96777164080944,
0,"She had been putting it off with a growing sense of dread, and now this lecture was the last chance before she had to leave campus. ",1,1,,,0,0,0,0,,,,,0,1,1,1,,,,,,,,,,,,,,,,9,0.5837991320004221,,,,',001,2019_Feb_28_1357,body_behavioural,3.0.4,59.96777164080944,
0,"The lecture hall was large, with a stage for the lecturer in the front of the room, and tiered seats that stretched up in 15 stacked rows. ",1,1,,,0,0,0,0,,,,,0,2,2,2,,,,,,,,,,,,,,,,1,0.21671569099999033,,,,',001,2019_Feb_28_1357,body_behavioural,3.0.4,59.96777164080944,
0,"The clock struck 3 pm, and Maria and Henry slid into neighboring seats near the back of the room.",1,1,,,0,0,0,0,,,,,0,3,3,3,,,,,,,,,,,,,,,,9,0.11966511300124694,,,,',001,2019_Feb_28_1357,body_behavioural,3.0.4,59.96777164080944,
0,"“Good afternoon, everybody,” said the professor, fiddling to connect his laptop with the projector.",2,1,,,0,0,0,0,,,,,0,4,4,4,,,,,,,,,,,,,,,,1,0.25302685299902805,,,,',001,2019_Feb_28_1357,body_behavioural,3.0.4,59.96777164080944,
0,“Welcome to week 4 of Intro to Ancient Philosophy. ,2,1,,,0,0,0,0,,,,,0,5,5,5,,,,,,,,,,,,,,,,9,0.20268875299734646,,,,',001,2019_Feb_28_1357,body_behavioural,3.0.4,59.96777164080944,
0,Today we are going to continue our lecture on Aristotelian Philosophy.”,2,1,,,0,0,0,0,,,,,0,6,6,6,,,,,,,,,,,,,,,,1,0.2363784469998791,,,,',001,2019_Feb_28_1357,body_behavioural,3.0.4,59.96777164080944,
0,Everyone in class pulled out their notebooks and settled in their seats as the slides appeared on the large front screens.,2,1,,,0,0,0,0,,,,,0,7,7,7,,,,,,,,,,,,,,,,9,0.0837052599999879,,,,',001,2019_Feb_28_1357,body_behavioural,3.0.4,59.96777164080944,
0,"“Henry,” Maria whispered.",2,1,,,0,0,0,0,,,,,0,8,8,8,,,,,,,,,,,,,,,,1,0.3199230729987903,,,,',001,2019_Feb_28_1357,body_behavioural,3.0.4,59.96777164080944,
0,"“Hmm?” he replied, distracted.",2,1,,,0,0,0,0,,,,,0,9,9,9,,,,,,,,,,,,,,,,9,0.0867602469988924,,,,',001,2019_Feb_28_1357,body_behavioural,3.0.4,59.96777164080944,
0,"“Henry, I need to tell you something really important, and I don’t know when else I’ll have a chance to do it,” she said.",2,1,,,0,0,0,0,,,,,0,10,10,10,,,,,,,,,,,,,,,,1,0.2674289630012936,,,,',001,2019_Feb_28_1357,body_behavioural,3.0.4,59.96777164080944,
0,"“Okay, what's up?”, he said, tilting his head close to her. ",2,1,,,0,0,0,0,,,,,0,11,11,11,,,,,,,,,,,,,,,,9,0.08641871500003617,,,,',001,2019_Feb_28_1357,body_behavioural,3.0.4,59.96777164080944,
0," “Henry, I don’t think I can do long distance.",2,2,,,0,0,0,0,,,,,0,12,12,12,,,,,,,,,,,,,,,,1,0.3858898699982092,,,,',001,2019_Feb_28_1357,body_behavioural,3.0.4,59.96777164080944,
0,"I think what we have here is great, but I think it will be really hard when we are so far apart for such an extended period.",2,2,,,0,0,0,0,,,,,0,13,13,13,,,,,,,,,,,,,,,,9,0.07027743500293582,,,,',001,2019_Feb_28_1357,body_behavioural,3.0.4,59.96777164080944,
0,"I’m sorry I’m telling you now in lecture, but I'm out of time, and it’s taken me awhile to come to this decision.",2,2,,,0,0,0,0,,,,,0,14,14,14,,,,,,,,,,,,,,,,1,0.36997122199682053,,,,',001,2019_Feb_28_1357,body_behavioural,3.0.4,59.96777164080944,
0,"I really think this is best, and who knows what will happen when I get back from my study abroad.” ",2,2,,,0,0,0,0,,,,,0,15,15,15,,,,,,,,,,,,,,,,9,0.05289691000143648,,,,',001,2019_Feb_28_1357,body_behavioural,3.0.4,59.96777164080944,
0,"While Henry tried to think of what to say, he and Maria stared unlistening at the professor as he started the lecture, “First we will talk about Aristotle’s work, The Categories, which is about the kinds, or categories, of things that there are.",3,2,,,0,0,0,0,,,,,0,16,16,16,,,,,,,,,,,,,,,,1,0.36958659200172406,,,,',001,2019_Feb_28_1357,body_behavioural,3.0.4,59.96777164080944,
0,"In fact, our term category comes from this Aristotelian context.” ",3,2,,,0,0,0,0,,,,,0,17,17,17,,,,,,,,,,,,,,,,1,20.438313352999103,,,,',001,2019_Feb_28_1357,body_behavioural,3.0.4,59.96777164080944,
0,"Henry felt horrible, like the wind had just been knocked out of him.",3,2,,,0,0,0,0,,,,,0,18,18,18,,,,,,,,,,,,,,,,9,0.2531064830000105,,,,',001,2019_Feb_28_1357,body_behavioural,3.0.4,59.96777164080944,
0,"A few tears started to fall down his cheeks as he whispered back, “Maria, I think we can make it work.",3,3,,,0,0,0,0,,,,,0,19,19,19,,,,,,,,,,,,,,,,1,0.2844783299988194,,,,',001,2019_Feb_28_1357,body_behavioural,3.0.4,59.96777164080944,
0,I’ll come visit you.,3,3,,,0,0,0,0,,,,,0,20,20,20,,,,,,,,,,,,,,,,9,0.2027066400005424,,,,',001,2019_Feb_28_1357,body_behavioural,3.0.4,59.96777164080944,
0,It will be fine.,3,3,,,0,0,0,0,,,,,0,21,21,21,,,,,,,,,,,,,,,,1,0.2031180520025373,,,,',001,2019_Feb_28_1357,body_behavioural,3.0.4,59.96777164080944,
0,I don’t want to break up.”,3,3,,,0,0,0,0,,,,,0,22,22,22,,,,,,,,,,,,,,,,9,0.13602102499862667,,,,',001,2019_Feb_28_1357,body_behavioural,3.0.4,59.96777164080944,
0,"Maria felt so guilty that she nearly gave in, but forced herself to hold her ground, knowing that this would make things much easier for both of them in the future.",3,3,,,0,0,0,0,,,,,0,23,23,23,,,,,,,,,,,,,,,,1,0.15066165200187243,,,,',001,2019_Feb_28_1357,body_behavioural,3.0.4,59.96777164080944,
0,"She gave his hand a squeeze but shook her head sadly, before turning back to her laptop and half-heartedly taking notes on the lecture which they sat through in painful silence.",3,3,,,0,0,0,0,,,,,0,24,24,24,,,,,,,,,,,,,,,,9,0.33635341199988034,,,,',001,2019_Feb_28_1357,body_behavioural,3.0.4,59.96777164080944,
0,"Finally, the professor was wrapping up, “This is what Aristotle means when he says that an animal’s or plant’s form rather than its matter is its nature. ",4,3,,,0,0,0,0,,,,,0,25,25,25,,,,,,,,,,,,,,,,1,0.31932790000064415,,,,',001,2019_Feb_28_1357,body_behavioural,3.0.4,59.96777164080944,
0,"Alright class, that’s all for today. ",4,3,,,0,0,0,0,,,,,0,26,26,26,,,,,,,,,,,,,,,,9,0.20299701999829267,,,,',001,2019_Feb_28_1357,body_behavioural,3.0.4,59.96777164080944,
0,"Remember the final exam is coming up next week on Tuesday on the Pre-Socratics, Plato, and Aristotle, so feel free to come by office hours to discuss if you have the inspiration.",4,3,,,0,0,0,0,,,,,0,27,27,27,,,,,,,,,,,,,,,,1,0.20280515700142132,,,,',001,2019_Feb_28_1357,body_behavioural,3.0.4,59.96777164080944,
0,"And if anyone is doing the 20 page paper in lieu of the final, that’s due next Tuesday as well.",4,3,,,0,0,0,0,,,,,0,28,28,28,,,,,,,,,,,,,,,,9,0.36939657000039006,,,,',001,2019_Feb_28_1357,body_behavioural,3.0.4,59.96777164080944,
0,"Have a good day, folks.” ",4,3,,,0,0,0,0,,,,,0,29,29,29,,,,,,,,,,,,,,,,1,0.28686193999965326,,,,',001,2019_Feb_28_1357,body_behavioural,3.0.4,59.96777164080944,
0,"Maria and Henry packed up hurriedly, and slipped quickly out of the class before the rest of the crowd. ",4,3,,,0,0,0,0,,,,,0,30,30,30,,,,,,,,,,,,,,,,9,0.18686297000022023,,,,',001,2019_Feb_28_1357,body_behavioural,3.0.4,59.96777164080944,
0,"They hugged outside, and both of them were crying. ",4,4,,,0,0,0,0,,,,,0,31,31,31,,,,,,,,,,,,,,,,1,0.28625259999898844,,,,',001,2019_Feb_28_1357,body_behavioural,3.0.4,59.96777164080944,
0,"“Maria, I don’t want you to leave.",4,4,,,0,0,0,0,,,,,0,32,32,32,,,,,,,,,,,,,,,,9,0.16971067000122275,,,,',001,2019_Feb_28_1357,body_behavioural,3.0.4,59.96777164080944,
0,I don’t want this to end. ,4,4,,,0,0,0,0,,,,,0,33,33,33,,,,,,,,,,,,,,,,1,0.30261677199814585,,,,',001,2019_Feb_28_1357,body_behavioural,3.0.4,59.96777164080944,
0,"But if this is what you think is best, I can’t make it otherwise.” ",4,4,,,0,0,0,0,,,,,0,34,34,34,,,,,,,,,,,,,,,,9,0.10059636000005412,,,,',001,2019_Feb_28_1357,body_behavioural,3.0.4,59.96777164080944,
0,"They hugged one last time, and Maria ran off to get her things from her dorm.",4,4,,,0,0,0,0,,,,,0,35,35,35,,,,,,,,,,,,,,,,1,0.33570469500045874,,,,',001,2019_Feb_28_1357,body_behavioural,3.0.4,59.96777164080944,
0,Henry sadly watched her go. ,4,4,,,0,0,0,0,,,,,0,36,36,36,,,,,,,,,,,,,,,,9,0.13633785500132944,,,,',001,2019_Feb_28_1357,body_behavioural,3.0.4,59.96777164080944,
0,,,,,,0,0,0,0,,,,,,,,,,,,,,,,,,,,,,,,,,,,,',001,2019_Feb_28_1357,body_behavioural,3.0.4,59.96777164080944,
1,,,,,,0,1,1,1,0,0,0,0,,,,,,,,,,,,,,space,0.5697867950002546,space,0.3359068949976063,space,0.43620287000157987,,,,,,',001,2019_Feb_28_1357,body_behavioural,3.0.4,59.96777164080944,
1,"Jeff, hoping that today would be a pivotal day for his new business, had only been waiting inside the doors of the airport for a few minutes when he saw William and eagerly waved him over. ",1,1,,,0,1,1,1,,,,,0,0,0,0,,,,,,,,,,,,,,,,9,1.1195832619996509,,,,',001,2019_Feb_28_1357,body_behavioural,3.0.4,59.96777164080944,
1,"Jeff, checking his watch, was pleased to see that the two of them had two hours to discuss business before their flights left Boston.",1,1,,,0,1,1,1,,,,,0,1,1,1,,,,,,,,,,,,,,,,1,0.3029529520026699,,,,',001,2019_Feb_28_1357,body_behavioural,3.0.4,59.96777164080944,
1,The two had met the night before in line for the bathroom at a local bar. ,1,1,,,0,1,1,1,,,,,0,2,2,2,,,,,,,,,,,,,,,,9,0.3341318799975852,,,,',001,2019_Feb_28_1357,body_behavioural,3.0.4,59.96777164080944,
1,Jeff had delivered some surprisingly-detailed complaints to William about the wine selection.,1,1,,,0,1,1,1,,,,,0,3,3,3,,,,,,,,,,,,,,,,1,0.3031472570000915,,,,',001,2019_Feb_28_1357,body_behavioural,3.0.4,59.96777164080944,
1,They quickly learned about each other that Jeff was a representative for wine vineyards in the Northeast and William was a wine buyer for corporate events.,1,1,,,0,1,1,1,,,,,0,4,4,4,,,,,,,,,,,,,,,,9,0.16977238499748637,,,,',001,2019_Feb_28_1357,body_behavioural,3.0.4,59.96777164080944,
1,"Since they both had flights out of Boston at the same time, they had agreed to meet at the airport and talk about potentially doing business. ",1,1,,,0,1,1,1,,,,,0,5,5,5,,,,,,,,,,,,,,,,1,0.3506350819989166,,,,',001,2019_Feb_28_1357,body_behavioural,3.0.4,59.96777164080944,
1,"They headed to security together, pleased to find that the line was not so long, and they chatted a little as they were waiting. ",2,1,,,0,1,1,1,,,,,0,6,6,6,,,,,,,,,,,,,,,,9,0.2197277249979379,,,,',001,2019_Feb_28_1357,body_behavioural,3.0.4,59.96777164080944,
1,"“It’s crazy that we met last night,” William said, “I am flying out right now to meet my boss, and was worried that I was going to show up empty handed without any local retailer prepared.” ",2,1,,,0,1,1,1,,,,,0,7,7,7,,,,,,,,,,,,,,,,1,0.21735904500019387,,,,',001,2019_Feb_28_1357,body_behavioural,3.0.4,59.96777164080944,
1,"“I know, what are the chances, right?” Jeff said.",2,1,,,0,1,1,1,,,,,0,8,8,8,,,,,,,,,,,,,,,,9,0.26924790700286394,,,,',001,2019_Feb_28_1357,body_behavioural,3.0.4,59.96777164080944,
1,"William laughed and said, “I’m glad our shared complaining can come in handy.",2,1,,,0,1,1,1,,,,,0,9,9,9,,,,,,,,,,,,,,,,1,0.25022793500102125,,,,',001,2019_Feb_28_1357,body_behavioural,3.0.4,59.96777164080944,
1,"I know this is fast, but I'd like to get right down to specifics.",2,2,,,0,1,1,1,,,,,0,10,10,10,,,,,,,,,,,,,,,,9,0.20271556000079727,,,,',001,2019_Feb_28_1357,body_behavioural,3.0.4,59.96777164080944,
1,I'd like to order a couple of sample shipments from you and present them to our corporate buyers.,2,2,,,0,1,1,1,,,,,0,11,11,11,,,,,,,,,,,,,,,,1,0.17012519000127213,,,,',001,2019_Feb_28_1357,body_behavioural,3.0.4,59.96777164080944,
1,"Typically we expect to get these kinds of samples at a deep discount, at least half-off the label price.",2,2,,,0,1,1,1,,,,,0,12,12,12,,,,,,,,,,,,,,,,9,0.13402815200242912,,,,',001,2019_Feb_28_1357,body_behavioural,3.0.4,59.96777164080944,
1,"This is nothing, okay, compared to what you will be making if one of these buyers makes a contract.",2,2,,,0,1,1,1,,,,,0,13,13,13,,,,,,,,,,,,,,,,1,0.16965356500077178,,,,',001,2019_Feb_28_1357,body_behavioural,3.0.4,59.96777164080944,
1,So I propose that you send us $600 worth of wine shipments for a price of $300.”,2,2,,,0,1,1,1,,,,,0,14,14,14,,,,,,,,,,,,,,,,9,0.15329168500102242,,,,',001,2019_Feb_28_1357,body_behavioural,3.0.4,59.96777164080944,
1,"When it was their turn to go through the metal detector, they took off their shoes and pulled out their laptops.",2,2,,,0,1,1,1,,,,,0,15,15,15,,,,,,,,,,,,,,,,1,0.13608098999975482,,,,',001,2019_Feb_28_1357,body_behavioural,3.0.4,59.96777164080944,
1,"Jeff mulled over the offer, nodding noncommittally to William's pitch as they proceeded through the metal detector and retrieved their belongings.",2,2,,,0,1,1,1,,,,,0,16,16,16,,,,,,,,,,,,,,,,9,0.16957111500232713,,,,',001,2019_Feb_28_1357,body_behavioural,3.0.4,59.96777164080944,
1,"They began to walk through the concourse, and William handed some printed spreadsheets to Jeff as they navigated toward their gates at the end of the terminal.",3,2,,,0,1,1,1,,,,,0,17,17,17,,,,,,,,,,,,,,,,1,0.13640237499930663,,,,',001,2019_Feb_28_1357,body_behavioural,3.0.4,59.96777164080944,
1,"Jeff, weaving through the crowds of travelers, squinted at William's rosy projections of the number of bottles he could be able to purchase in the future.",3,2,,,0,1,1,1,,,,,0,18,18,18,,,,,,,,,,,,,,,,9,0.15266854199944646,,,,',001,2019_Feb_28_1357,body_behavioural,3.0.4,59.96777164080944,
1,"Finally Jeff said, “I don’t know, we’re not coming from corporate vineyards, so gambling with sample shipments is the kind of risk we can’t necessarily make. ",3,3,,,0,1,1,1,,,,,0,19,19,19,,,,,,,,,,,,,,,,1,0.15291530700051226,,,,',001,2019_Feb_28_1357,body_behavioural,3.0.4,59.96777164080944,
1,"These corporate purchases would have to be huge and practically guaranteed, to offset the loss from selling sample shipments at this price.”",3,3,,,0,1,1,1,,,,,0,20,20,20,,,,,,,,,,,,,,,,9,0.11935616499977186,,,,',001,2019_Feb_28_1357,body_behavioural,3.0.4,59.96777164080944,
1,"They walked to the gates very slowly, barely registering the hubbub of the airport since they were so caught up in figuring out this deal before their flights left.",3,3,,,0,1,1,1,,,,,0,21,21,21,,,,,,,,,,,,,,,,1,0.16795146799995564,,,,',001,2019_Feb_28_1357,body_behavioural,3.0.4,59.96777164080944,
1,"At the end of their long walk, they got to Jeff’s gate first, which had begun boarding passengers.",3,3,,,0,1,1,1,,,,,0,22,22,22,,,,,,,,,,,,,,,,9,0.15290583000023616,,,,',001,2019_Feb_28_1357,body_behavioural,3.0.4,59.96777164080944,
1,"In these last minutes, William and Jeff agreed on a compromise rate on the sample shipment, paying $400 for a $600 shipment, and they finalized the deal with a handshake. ",3,4,,,0,1,1,1,,,,,0,23,23,23,,,,,,,,,,,,,,,,9,0.3191164669988211,,,,',001,2019_Feb_28_1357,body_behavioural,3.0.4,59.96777164080944,
1,"“Well, what a tremendous pleasure to do business with you and to have all this work out,” William said.",3,4,,,0,1,1,1,,,,,0,24,24,24,,,,,,,,,,,,,,,,1,0.20293044200298027,,,,',001,2019_Feb_28_1357,body_behavioural,3.0.4,59.96777164080944,
1,"Jeff nodded enthusiastically, and responded, “Likewise, this has been great.  ",3,4,,,0,1,1,1,,,,,0,25,25,25,,,,,,,,,,,,,,,,9,0.18394442700082436,,,,',001,2019_Feb_28_1357,body_behavioural,3.0.4,59.96777164080944,
1,I'll let you get to your gate.,3,4,,,0,1,1,1,,,,,0,26,26,26,,,,,,,,,,,,,,,,1,0.11964484000054654,,,,',001,2019_Feb_28_1357,body_behavioural,3.0.4,59.96777164080944,
1,"Once we’re both back on the ground, we can get all the shipments in the books.”",3,4,,,0,1,1,1,,,,,0,27,27,27,,,,,,,,,,,,,,,,9,0.17030323300059536,,,,',001,2019_Feb_28_1357,body_behavioural,3.0.4,59.96777164080944,
1,They parted with a wave as Jeff scanned his boarding pass at the gate. ,3,4,,,0,1,1,1,,,,,0,28,28,28,,,,,,,,,,,,,,,,1,0.11940000300091924,,,,',001,2019_Feb_28_1357,body_behavioural,3.0.4,59.96777164080944,
1,He walked onto the plane and sat down in his aisle seat in the business class section.,4,4,,,0,1,1,1,,,,,0,29,29,29,,,,,,,,,,,,,,,,9,0.1362869069998851,,,,',001,2019_Feb_28_1357,body_behavioural,3.0.4,59.96777164080944,
1,He typed out a quick email on his phone letting the rest of his team know the good news. ,4,4,,,0,1,1,1,,,,,0,30,30,30,,,,,,,,,,,,,,,,1,0.11728891500024474,,,,',001,2019_Feb_28_1357,body_behavioural,3.0.4,59.96777164080944,
1,"When the flight attendant came by, he ordered a glass of champagne to celebrate.",4,4,,,0,1,1,1,,,,,0,31,31,31,,,,,,,,,,,,,,,,9,0.13619457999811857,,,,',001,2019_Feb_28_1357,body_behavioural,3.0.4,59.96777164080944,
1,,,,,,0,1,1,1,,,,,,,,,,,,,,,,,,,,,,,,,,,,,',001,2019_Feb_28_1357,body_behavioural,3.0.4,59.96777164080944,
2,,,,,,0,2,2,2,0,0,0,0,,,,,,,,,,,,,,space,0.6028393050000886,space,0.3023668349997024,space,0.31955759999982547,,,,,,',001,2019_Feb_28_1357,body_behavioural,3.0.4,59.96777164080944,
2,"Alvira and Senna walked into the restaurant hand in sweaty hand with quite different expectations: Senna was going to propose tonight, and Alvira had no idea.",1,1,None,None,0,2,2,2,,,,,0,0,0,0,,,,,,,,,,,,,,,,1,1.0027059800013376,,,,',001,2019_Feb_28_1357,body_behavioural,3.0.4,59.96777164080944,
2,"He took a deep breath, trying to calm his nerves as worst case scenarios ran through his mind. ",1,1,None,None,0,2,2,2,,,,,0,1,1,1,,,,,,,,,,,,,,,,9,0.21985824999865144,,,,',001,2019_Feb_28_1357,body_behavioural,3.0.4,59.96777164080944,
2,The entrance of the restaurant was dazzling; chandeliers spread their warm light onto the delicate place settings of all the tables filled with guests dressed to the nines. ,1,1,None,None,0,2,2,2,,,,,0,2,2,2,,,,,,,,,,,,,,,,1,0.21950491499956115,,,,',001,2019_Feb_28_1357,body_behavioural,3.0.4,59.96777164080944,
2,"Through the floor-to-ceiling arched windows of the back wall, they saw the sun setting onto the Pacific ocean.",1,1,None,None,0,2,2,2,,,,,0,3,3,3,,,,,,,,,,,,,,,,9,0.26962050200017984,,,,',001,2019_Feb_28_1357,body_behavioural,3.0.4,59.96777164080944,
2,"This was surely one of the best restaurants on the west coast, situated right on the beach.",1,1,None,None,0,2,2,2,,,,,0,4,4,4,,,,,,,,,,,,,,,,1,0.23428792699996848,,,,',001,2019_Feb_28_1357,body_behavioural,3.0.4,59.96777164080944,
2,"Senna gave his name to the host, who quickly located their reservation with an almost comically wide customer-service smile.",1,1,7.0,None,0,2,2,2,,,,,0,5,5,5,,,,,,,,,,,,,,,,9,0.16972391200033599,,,,',001,2019_Feb_28_1357,body_behavioural,3.0.4,59.96777164080944,
2,He led them to a table right by the window.,2,1,None,None,0,2,2,2,,,,,0,6,6,6,,,,,,,,,,,,,,,,1,0.25045346199840424,,,,',001,2019_Feb_28_1357,body_behavioural,3.0.4,59.96777164080944,
2,"He brought out some very small menus, with a short list of the celebrity chef's carefully selected daily dishes written in a loopy, cursive font unadorned by any mention of prices.",2,1,None,9.0,0,2,2,2,,,,,0,7,7,7,,,,,,,,,,,,,,,,9,0.18619303000014042,,,,',001,2019_Feb_28_1357,body_behavioural,3.0.4,59.96777164080944,
2,Senna slipped off to the bathroom to check to make sure the ring was in order.,2,2,None,None,0,2,2,2,,,,,0,8,8,8,,,,,,,,,,,,,,,,1,0.25060825000036857,,,,',001,2019_Feb_28_1357,body_behavioural,3.0.4,59.96777164080944,
2,"The ring contained a canary diamond that had been in his grandmother’s wedding ring, and it was a brilliant stone that was accentuated by the small white diamonds encircling it.",2,2,None,None,0,2,2,2,,,,,0,9,9,9,,,,,,,,,,,,,,,,9,0.2192758999990474,,,,',001,2019_Feb_28_1357,body_behavioural,3.0.4,59.96777164080944,
2,"He walked back to the table after handing the small, velvet box to a waiter at the front podium.",2,2,6.0,None,0,2,2,2,,,,,0,10,10,10,,,,,,,,,,,,,,,,1,0.33609684000111884,,,,',001,2019_Feb_28_1357,body_behavioural,3.0.4,59.96777164080944,
2,He came back just as their waiter was approaching the table to get their order.,3,2,None,None,0,2,2,2,,,,,0,11,11,11,,,,,,,,,,,,,,,,9,0.2196746349982277,,,,',001,2019_Feb_28_1357,body_behavioural,3.0.4,59.96777164080944,
2,"Senna ordered the oysters with garlic-parmesan sauce, and Alvira ordered the sauteed sea scallops with caramelized apples. ",3,2,None,None,0,2,2,2,,,,,0,12,12,12,,,,,,,,,,,,,,,,1,0.2363199249994068,,,,',001,2019_Feb_28_1357,body_behavioural,3.0.4,59.96777164080944,
2,"“Excellent choices,” the waiter said with a subsequent brisk spin away from the table.",3,2,None,None,0,2,2,2,,,,,0,13,13,13,,,,,,,,,,,,,,,,9,0.2197866049973527,,,,',001,2019_Feb_28_1357,body_behavioural,3.0.4,59.96777164080944,
2,"“What a beautiful place, Senna. ",3,2,None,None,0,2,2,2,,,,,0,14,14,14,,,,,,,,,,,,,,,,1,0.16934184999990975,,,,',001,2019_Feb_28_1357,body_behavioural,3.0.4,59.96777164080944,
2,"Really this is too much just to celebrate the first tomatoes I grew in the garden, like, this is absurd,” Alvira said.",3,2,None,None,0,2,2,2,,,,,0,15,15,15,,,,,,,,,,,,,,,,9,0.21923254499779432,,,,',001,2019_Feb_28_1357,body_behavioural,3.0.4,59.96777164080944,
2,"Senna laughed and said, “No, those were really the best tomatoes I’ve ever had. ",3,2,None,None,0,2,2,2,,,,,0,16,16,16,,,,,,,,,,,,,,,,1,0.18618756700016093,,,,',001,2019_Feb_28_1357,body_behavioural,3.0.4,59.96777164080944,
2,We had to celebrate.” ,3,2,None,None,0,2,2,2,,,,,0,17,17,17,,,,,,,,,,,,,,,,9,0.2196643050010607,,,,',001,2019_Feb_28_1357,body_behavioural,3.0.4,59.96777164080944,
2,"They talked and laughed as the sun sank below the horizon, and the glow from the ocean was replaced by the glow from the chandeliers.",3,2,8.0,None,0,2,2,2,,,,,0,18,18,18,,,,,,,,,,,,,,,,1,0.20296049500029767,,,,',001,2019_Feb_28_1357,body_behavioural,3.0.4,59.96777164080944,
2,"The waiter eventually returned with their meals, and everything was even more delicious than they had expected, especially the oysters, which Senna said tasted like the ocean. ",4,2,None,None,0,2,2,2,,,,,0,19,19,19,,,,,,,,,,,,,,,,9,0.23627685999963433,,,,',001,2019_Feb_28_1357,body_behavioural,3.0.4,59.96777164080944,
2,Then he paused and looked at Alvira meaningfully. ,4,2,None,None,0,2,2,2,,,,,0,20,20,20,,,,,,,,,,,,,,,,1,0.2532417699985672,,,,',001,2019_Feb_28_1357,body_behavioural,3.0.4,59.96777164080944,
2, “It’s really been the best three years of my life with you.,4,2,None,None,0,2,2,2,,,,,0,21,21,21,,,,,,,,,,,,,,,,9,0.21716956200179993,,,,',001,2019_Feb_28_1357,body_behavioural,3.0.4,59.96777164080944,
2,"I couldn’t imagine it any other way, and I don’t want to.",4,2,None,None,0,2,2,2,,,,,0,22,22,22,,,,,,,,,,,,,,,,1,0.16915160700227716,,,,',001,2019_Feb_28_1357,body_behavioural,3.0.4,59.96777164080944,
2,"I really want to spend the rest of my years eating garden tomatoes, whatever it is, with you.” ",4,2,None,None,0,2,2,2,,,,,0,23,23,23,,,,,,,,,,,,,,,,9,0.1862059869999939,,,,',001,2019_Feb_28_1357,body_behavioural,3.0.4,59.96777164080944,
2,"Alvira smiled, “I want the same with you too, Senna.” ",4,2,None,17.0,0,2,2,2,,,,,0,24,24,24,,,,,,,,,,,,,,,,1,0.2029324050017749,,,,',001,2019_Feb_28_1357,body_behavioural,3.0.4,59.96777164080944,
2,"Senna nodded at the waiter who had been watching attentively, and he quickly strode over to place a small, elegant cake topped with the ring in front of Alvira. ",4,3,None,None,0,2,2,2,,,,,0,25,25,25,,,,,,,,,,,,,,,,9,0.15334550700208638,,,,',001,2019_Feb_28_1357,body_behavioural,3.0.4,59.96777164080944,
2,Her eyes widened in shock when she realized what she was looking at.,4,3,None,None,0,2,2,2,,,,,0,26,26,26,,,,,,,,,,,,,,,,1,0.1857820700024604,,,,',001,2019_Feb_28_1357,body_behavioural,3.0.4,59.96777164080944,
2,"“Alvira, will you marry me? ",4,3,None,None,0,2,2,2,,,,,0,27,27,27,,,,,,,,,,,,,,,,9,0.16964670200104592,,,,',001,2019_Feb_28_1357,body_behavioural,3.0.4,59.96777164080944,
2,"I love you, and I will never stop loving you.” ",4,3,None,None,0,2,2,2,,,,,0,28,28,28,,,,,,,,,,,,,,,,1,0.16947151200292865,,,,',001,2019_Feb_28_1357,body_behavioural,3.0.4,59.96777164080944,
2,Alvira started to cry.,4,3,None,None,0,2,2,2,,,,,0,29,29,29,,,,,,,,,,,,,,,,1,0.4033970300006331,,,,',001,2019_Feb_28_1357,body_behavioural,3.0.4,59.96777164080944,
2,"The room became silent, and everyone turned to their table. ",4,3,None,5.0,0,2,2,2,,,,,0,30,30,30,,,,,,,,,,,,,,,,9,0.3193649599998025,,,,',001,2019_Feb_28_1357,body_behavioural,3.0.4,59.96777164080944,
2,"“Yes, of course, yes!” she shouted as she wiped away tears.",4,4,None,None,0,2,2,2,,,,,0,31,31,31,,,,,,,,,,,,,,,,1,0.3197946820000652,,,,',001,2019_Feb_28_1357,body_behavioural,3.0.4,59.96777164080944,
2,The neighboring tables exploded in applause.,4,4,None,None,0,2,2,2,,,,,0,32,32,32,,,,,,,,,,,,,,,,9,0.2528569400019478,,,,',001,2019_Feb_28_1357,body_behavioural,3.0.4,59.96777164080944,
2,The waiter returned with a bottle of champagne and popped it. ,4,4,None,None,0,2,2,2,,,,,0,33,33,33,,,,,,,,,,,,,,,,1,0.25119371700202464,,,,',001,2019_Feb_28_1357,body_behavioural,3.0.4,59.96777164080944,
2,"All of this went unnoticed by Senna and Alvira as they looked into each others’ eyes, and he slipped the ring onto her finger. ",4,4,None,None,0,2,2,2,,,,,0,34,34,34,,,,,,,,,,,,,,,,9,0.16730841000025976,,,,',001,2019_Feb_28_1357,body_behavioural,3.0.4,59.96777164080944,
2,"She held up her hand to admire it, and her glittering tears of joy matched the shine from her ring.   
",4,4,17.0,5.0,0,2,2,2,,,,,0,35,35,35,,,,,,,,,,,,,,,,1,0.2697523149981862,,,,',001,2019_Feb_28_1357,body_behavioural,3.0.4,59.96777164080944,
2,,,,,,0,2,2,2,,,,,,,,,,,,,,,,,,,,,,,,,,,,,',001,2019_Feb_28_1357,body_behavioural,3.0.4,59.96777164080944,
3,,,,,,0,3,3,3,0,0,0,0,,,,,,,,,,,,,,space,0.46954843499770504,space,0.31917970499853254,space,0.3529982199979713,,,,,,',001,2019_Feb_28_1357,body_behavioural,3.0.4,59.96777164080944,
3,David saw Anna for the first time when she burst into the airport with her bag skidding behind her half-zipped. ,1,1,,,0,3,3,3,,,,,0,0,0,0,,,,,,,,,,,,,,,,1,0.7695367449996411,,,,',001,2019_Feb_28_1357,body_behavioural,3.0.4,59.96777164080944,
3,"He had three hours until his flight, but she clearly had less than one.",1,1,,,0,3,3,3,,,,,0,1,1,1,,,,,,,,,,,,,,,,9,0.23688930700154742,,,,',001,2019_Feb_28_1357,body_behavioural,3.0.4,59.96777164080944,
3,"Anna’s yoga class had ran over, and afterwards, she, forgetting the time, had lingered to talk with friends. ",1,1,,,0,3,3,3,,,,,0,2,2,2,,,,,,,,,,,,,,,,1,0.16973087199949077,,,,',001,2019_Feb_28_1357,body_behavioural,3.0.4,59.96777164080944,
3,"Despite Anna's frazzled state, David was instantly intrigued by her.",1,1,,,0,3,3,3,,,,,0,3,3,3,,,,,,,,,,,,,,,,9,0.21730819699951098,,,,',001,2019_Feb_28_1357,body_behavioural,3.0.4,59.96777164080944,
3,"He thought she was beautiful, and she reminded him of one of his favorite paintings.",1,1,,,0,3,3,3,,,,,0,4,4,4,,,,,,,,,,,,,,,,1,0.16964879800070776,,,,',001,2019_Feb_28_1357,body_behavioural,3.0.4,59.96777164080944,
3,"Anna, a few strides into the airport, suddenly realized her shoes were untied, so she hunched over to tie them.",1,1,,,0,3,3,3,,,,,0,5,5,5,,,,,,,,,,,,,,,,9,0.2197992700021132,,,,',001,2019_Feb_28_1357,body_behavioural,3.0.4,59.96777164080944,
3,David observed that someone with a tall cart of luggage was heading straight for where Anna was kneeling. ,1,1,,,0,3,3,3,,,,,0,6,6,6,,,,,,,,,,,,,,,,1,0.2174502220004797,,,,',001,2019_Feb_28_1357,body_behavioural,3.0.4,59.96777164080944,
3,Both Anna and the person driving the cart were oblivious to the impending collision. ,1,1,,,0,3,3,3,,,,,0,7,7,7,,,,,,,,,,,,,,,,9,0.20320568700117292,,,,',001,2019_Feb_28_1357,body_behavioural,3.0.4,59.96777164080944,
3,"David had to intervene, and he ran in front of the cart pushing her out of the way just in the nick of time, and they tumbled on the airport floor. ",1,2,,,0,3,3,3,,,,,0,8,8,8,,,,,,,,,,,,,,,,1,0.13588585999968927,,,,',001,2019_Feb_28_1357,body_behavioural,3.0.4,59.96777164080944,
3,"Anna, bewildered, looked up and saw the cart pass by and then looked over at David. ",1,2,,,0,3,3,3,,,,,0,9,9,9,,,,,,,,,,,,,,,,9,0.28639649000251666,,,,',001,2019_Feb_28_1357,body_behavioural,3.0.4,59.96777164080944,
3,He gave a smile back.,1,2,,,0,3,3,3,,,,,0,10,10,10,,,,,,,,,,,,,,,,1,0.20069904699994368,,,,',001,2019_Feb_28_1357,body_behavioural,3.0.4,59.96777164080944,
3,"“You alright?”, he said.",1,2,,,0,3,3,3,,,,,0,11,11,11,,,,,,,,,,,,,,,,9,0.15291743999841856,,,,',001,2019_Feb_28_1357,body_behavioural,3.0.4,59.96777164080944,
3,"She whispered, “Uh yeah.",1,2,,,0,3,3,3,,,,,0,12,12,12,,,,,,,,,,,,,,,,1,0.30256386299879523,,,,',001,2019_Feb_28_1357,body_behavioural,3.0.4,59.96777164080944,
3,I almost got smooshed by that cart.”,1,2,,,0,3,3,3,,,,,0,13,13,13,,,,,,,,,,,,,,,,9,0.1703069110008073,,,,',001,2019_Feb_28_1357,body_behavioural,3.0.4,59.96777164080944,
3,Her head was still spinning as she stared at the handsome stranger who had saved her. ,1,2,,,0,3,3,3,,,,,0,14,14,14,,,,,,,,,,,,,,,,1,0.3512177500015241,,,,',001,2019_Feb_28_1357,body_behavioural,3.0.4,59.96777164080944,
3,David helped her up and had to keep holding on to her arms to steady her even once they were standing.,1,2,,,0,3,3,3,,,,,0,15,15,15,,,,,,,,,,,,,,,,9,0.08370875000036904,,,,',001,2019_Feb_28_1357,body_behavioural,3.0.4,59.96777164080944,
3,"“I’m really late for my flight,” she said. ",1,2,,,0,3,3,3,,,,,0,16,16,16,,,,,,,,,,,,,,,,1,0.4025935620011296,,,,',001,2019_Feb_28_1357,body_behavioural,3.0.4,59.96777164080944,
3,"“Don't worry,” said David, "let me help you get to your gate." ",1,2,,,0,3,3,3,,,,,0,17,17,17,,,,,,,,,,,,,,,,9,0.08651006000218331,,,,',001,2019_Feb_28_1357,body_behavioural,3.0.4,59.96777164080944,
3,He waved off her half-hearted protests. ,1,2,,,0,3,3,3,,,,,0,18,18,18,,,,,,,,,,,,,,,,1,0.403147409997473,,,,',001,2019_Feb_28_1357,body_behavioural,3.0.4,59.96777164080944,
3,"“Really , I have plenty of time and nothing better to do.”",1,2,,,0,3,3,3,,,,,0,19,19,19,,,,,,,,,,,,,,,,9,0.06972295200102963,,,,',001,2019_Feb_28_1357,body_behavioural,3.0.4,59.96777164080944,
3,They headed to the security line. ,2,2,,,0,3,3,3,,,,,0,20,20,20,,,,,,,,,,,,,,,,1,0.4530840799998259,,,,',001,2019_Feb_28_1357,body_behavioural,3.0.4,59.96777164080944,
3,"The line was not long, and they spent the time chatting and getting to know each other.",2,2,,,0,3,3,3,,,,,0,21,21,21,,,,,,,,,,,,,,,,9,0.05295946200203616,,,,',001,2019_Feb_28_1357,body_behavioural,3.0.4,59.96777164080944,
3,It turned out that Anna and David went to the same high school but Anna had been 3 years older.,2,2,,,0,3,3,3,,,,,0,22,22,22,,,,,,,,,,,,,,,,1,0.4198045129996899,,,,',001,2019_Feb_28_1357,body_behavioural,3.0.4,59.96777164080944,
3,When they got to the front of the line they took off their shoes and pulled off their coats.,2,3,,,0,3,3,3,,,,,0,23,23,23,,,,,,,,,,,,,,,,9,0.05297699700167868,,,,',001,2019_Feb_28_1357,body_behavioural,3.0.4,59.96777164080944,
3,Both of them went through the metal detector without any problems. ,2,3,,,0,3,3,3,,,,,0,24,24,24,,,,,,,,,,,,,,,,1,0.3696858149996842,,,,',001,2019_Feb_28_1357,body_behavioural,3.0.4,59.96777164080944,
3,"Anna’s flight was in 20 minutes, and as she was rushing to put her shoes and coat back on, David asked her, “So when are you coming back?”",2,3,,,0,3,3,3,,,,,0,25,25,25,,,,,,,,,,,,,,,,9,0.01765198499924736,,,,',001,2019_Feb_28_1357,body_behavioural,3.0.4,59.96777164080944,
3,"“In a week, it’s a short trip,” Anna replied. ",2,3,,,0,3,3,3,,,,,0,26,26,26,,,,,,,,,,,,,,,,1,0.45286519499859423,,,,',001,2019_Feb_28_1357,body_behavioural,3.0.4,59.96777164080944,
3,"“Me too,” David said.",2,3,,,0,3,3,3,,,,,0,27,27,27,,,,,,,,,,,,,,,,9,0.05212430199753726,,,,',001,2019_Feb_28_1357,body_behavioural,3.0.4,59.96777164080944,
3,"He continued, “When we're back in town, is there any chance you'd want to get dinner?",2,3,,,0,3,3,3,,,,,0,28,28,28,,,,,,,,,,,,,,,,1,0.38460317400313215,,,,',001,2019_Feb_28_1357,body_behavioural,3.0.4,59.96777164080944,
3,"I know we just met, but when life throws a luggage cart at you it seems like we should listen. “",2,3,,,0,3,3,3,,,,,0,29,29,29,,,,,,,,,,,,,,,,1,0.5189858329977142,,,,',001,2019_Feb_28_1357,body_behavioural,3.0.4,59.96777164080944,
3,"She stopped packing, and said with a smile, “Yes I would love that.”",2,3,,,0,3,3,3,,,,,0,30,30,30,,,,,,,,,,,,,,,,9,0.03618476499832468,,,,',001,2019_Feb_28_1357,body_behavioural,3.0.4,59.96777164080944,
3,Then they ran off to Anna’s gate which was at the end of the terminal. ,3,3,,,0,3,3,3,,,,,0,31,31,31,,,,,,,,,,,,,,,,1,0.37066696300098556,,,,',001,2019_Feb_28_1357,body_behavioural,3.0.4,59.96777164080944,
3,"David took put on her backpack, grabbed her hand, and navigated quickly through the crowds of people.",3,3,,,0,3,3,3,,,,,0,32,32,32,,,,,,,,,,,,,,,,1,0.45276142500006245,,,,',001,2019_Feb_28_1357,body_behavioural,3.0.4,59.96777164080944,
3,Anna was amazed at everything that was happening; she had arrived at the airport doubtful that she would make it and was now confident that she would due to this handsome and kind man she just met.,3,3,,,0,3,3,3,,,,,0,33,33,33,,,,,,,,,,,,,,,,9,0.01749541000026511,,,,',001,2019_Feb_28_1357,body_behavioural,3.0.4,59.96777164080944,
3,"As they approached her gate, Anna fished out a crumbled business card from her pocket and handed it to David, who handed her the backpack, and he promised to call her next week.",3,4,,,0,3,3,3,,,,,0,34,34,34,,,,,,,,,,,,,,,,1,2.3529401120031253,,,,',001,2019_Feb_28_1357,body_behavioural,3.0.4,59.96777164080944,
3,She gave him one last embarrassed smile and approached the flight attendant who scanned her ticket. ,3,4,,,0,3,3,3,,,,,0,35,35,35,,,,,,,,,,,,,,,,1,0.9863768899995193,,,,',001,2019_Feb_28_1357,body_behavioural,3.0.4,59.96777164080944,
3,"Finally, she boarded the plane, sliding into her window seat located all the way in the back of the plane.",4,4,,,0,3,3,3,,,,,0,36,36,36,,,,,,,,,,,,,,,,1,0.4363649920014723,,,,',001,2019_Feb_28_1357,body_behavioural,3.0.4,59.96777164080944,
3,"Barely containing her glee, she ignored the grumbles of complaint as she squeezed past the other passengers in her row and settled back in her seat. ",4,4,,,0,3,3,3,,,,,0,37,37,37,,,,,,,,,,,,,,,,1,0.43592143999921973,,,,',001,2019_Feb_28_1357,body_behavioural,3.0.4,59.96777164080944,
3,"She was thankful that she had not only made it onto the plane in time, but also that she had been clumsy enough to forget to tie her shoes.",4,4,,,0,3,3,3,,,,,0,38,38,38,,,,,,,,,,,,,,,,1,0.3519317130012496,,,,',001,2019_Feb_28_1357,body_behavioural,3.0.4,59.96777164080944,
3,,,,,,0,3,3,3,,,,,,,,,,,,,,,,,,,,,,,,,,,,,',001,2019_Feb_28_1357,body_behavioural,3.0.4,59.96777164080944,
4,,,,,,0,4,4,4,0,0,0,0,,,,,,,,,,,,,,space,0.569867353002337,space,0.3029913080026745,space,0.3692721920015174,,,,,,',001,2019_Feb_28_1357,body_behavioural,3.0.4,59.96777164080944,
4,"Ms. Bianchi and Ms. Morrison walked into the grocery store at the same time, and, after a moment of mutual recognition, greeted each other and shook hands.",1,1,,,0,4,4,4,,,,,0,0,0,0,,,,,,,,,,,,,,,,1,0.8698913769985666,,,,',001,2019_Feb_28_1357,body_behavioural,3.0.4,59.96777164080944,
4,"“Thank you again for inviting me here to discuss my business proposal,” said Ms. Bianchi, “And it’s a pleasure to be out of the office.” ",1,1,,,0,4,4,4,,,,,0,1,1,1,,,,,,,,,,,,,,,,1,0.5176610950002214,,,,',001,2019_Feb_28_1357,body_behavioural,3.0.4,59.96777164080944,
4,"As a salesperson for an Italian cheese company that was trying to expand its outreach to more mainstream grocery stores, this meeting could be a big break for her.",1,1,,,0,4,4,4,,,,,0,2,2,2,,,,,,,,,,,,,,,,1,0.3530747349977901,,,,',001,2019_Feb_28_1357,body_behavioural,3.0.4,59.96777164080944,
4,"Her sales target, Ms. Morrison,  who had a reputation for being a bit quirky, was a corporate buyer for a large chain grocery store. ",1,1,,,0,4,4,4,,,,,0,3,3,3,,,,,,,,,,,,,,,,1,0.40300432200092473,,,,',001,2019_Feb_28_1357,body_behavioural,3.0.4,59.96777164080944,
4,"She was known for doing things unconventionally: for example, she said that she liked to make deals with suppliers in the place where the products were sold- “to keep their minds focused on what’s important.” ",1,1,,,0,4,4,4,,,,,0,4,4,4,,,,,,,,,,,,,,,,1,0.46731264700065367,,,,',001,2019_Feb_28_1357,body_behavioural,3.0.4,59.96777164080944,
4,"They chatted a little in the front of the grocery store, which was surrounded by pumpkins and halloween decorations set up in special displays for the holiday season.",1,1,,,0,4,4,4,,,,,0,5,5,5,,,,,,,,,,,,,,,,1,0.41977002500061644,,,,',001,2019_Feb_28_1357,body_behavioural,3.0.4,59.96777164080944,
4,"Ms. Bianchi and Ms. Morrison walked to the cheese section, and Ms. Morrison picked up a block of parmesan.",2,1,,,0,4,4,4,,,,,0,6,6,6,,,,,,,,,,,,,,,,1,0.3841104550010641,,,,',001,2019_Feb_28_1357,body_behavioural,3.0.4,59.96777164080944,
4,“We have quite a selection here.,2,1,,,0,4,4,4,,,,,0,7,7,7,,,,,,,,,,,,,,,,1,0.46978907700031414,,,,',001,2019_Feb_28_1357,body_behavioural,3.0.4,59.96777164080944,
4,I don’t know that it needs an additional section for more gourmet cheeses.” ,2,1,,,0,4,4,4,,,,,0,8,8,8,,,,,,,,,,,,,,,,1,0.33532704900062527,,,,',001,2019_Feb_28_1357,body_behavioural,3.0.4,59.96777164080944,
4,"Ms. Bianchi's confidence faltered for a minute at this remark, but then she launched into her prepared pitch.",2,1,,,0,4,4,4,,,,,0,9,9,9,,,,,,,,,,,,,,,,1,0.3183981589972973,,,,',001,2019_Feb_28_1357,body_behavioural,3.0.4,59.96777164080944,
4," “Ms. Morrison, I think you would agree that selling food is more than just providing variety, but also about providing the highest quality.",2,2,,,0,4,4,4,,,,,0,10,10,10,,,,,,,,,,,,,,,,1,0.48482447100104764,,,,',001,2019_Feb_28_1357,body_behavioural,3.0.4,59.96777164080944,
4,"You don’t have cheeses made in America that are like ours, it is true.",2,2,,,0,4,4,4,,,,,0,11,11,11,,,,,,,,,,,,,,,,1,0.3844503469990741,,,,',001,2019_Feb_28_1357,body_behavioural,3.0.4,59.96777164080944,
4,Your store could be providing American consumers with a dimension in taste that they've never known before with our product.,2,2,,,0,4,4,4,,,,,0,12,12,12,,,,,,,,,,,,,,,,1,0.5033800700002757,,,,',001,2019_Feb_28_1357,body_behavioural,3.0.4,59.96777164080944,
4,"I propose that you give it a shot, buy $1000 worth of cheese products for a few stores, and see how the sales increase not only in our cheeses but also in products related to cheeses: crackers, jams, olives. ",2,2,,,0,4,4,4,,,,,0,13,13,13,,,,,,,,,,,,,,,,1,1.1532106369995745,,,,',001,2019_Feb_28_1357,body_behavioural,3.0.4,59.96777164080944,
4,"The availability of a finer product leads to the appreciation of the product, and your consumers will start to consume in a new, more profitable way.”",2,2,,,0,4,4,4,,,,,0,14,14,14,,,,,,,,,,,,,,,,1,0.636639340002148,,,,',001,2019_Feb_28_1357,body_behavioural,3.0.4,59.96777164080944,
4,"Ms. Bianchi picked up a box of crackers by the cheese section, and said, “Here, I will buy these, and we can try some of our cheeses that I've brought with me.”",2,2,,,0,4,4,4,,,,,0,15,15,15,,,,,,,,,,,,,,,,1,0.5021895600002608,,,,',001,2019_Feb_28_1357,body_behavioural,3.0.4,59.96777164080944,
4,"Ms. Morrison, who was thinking, nodded in agreement and said, “That sounds like a great idea.",2,2,,,0,4,4,4,,,,,0,16,16,16,,,,,,,,,,,,,,,,1,0.48618986699875677,,,,',001,2019_Feb_28_1357,body_behavioural,3.0.4,59.96777164080944,
4,"Let’s head to check out, and those crackers are on me.” ",2,2,,,0,4,4,4,,,,,0,17,17,17,,,,,,,,,,,,,,,,1,1.5697040800005198,,,,',001,2019_Feb_28_1357,body_behavioural,3.0.4,59.96777164080944,
4,They walked over to the checkout area.,3,2,,,0,4,4,4,,,,,0,18,18,18,,,,,,,,,,,,,,,,1,0.7197020870007691,,,,',001,2019_Feb_28_1357,body_behavioural,3.0.4,59.96777164080944,
4,"There was a very long line, and it was very busy in the checkout area as people were stocking up for Halloween parties and trick-or-treating. ",3,2,,,0,4,4,4,,,,,0,19,19,19,,,,,,,,,,,,,,,,1,0.9694855230009125,,,,',001,2019_Feb_28_1357,body_behavioural,3.0.4,59.96777164080944,
4,"Since they had almost a 10 minute wait in line, Ms. Bianchi handed a sheet with printed graphs to Ms. Morrison the increase in profits that several other stores had seen after starting to carry their products.",3,2,,,0,4,4,4,,,,,0,20,20,20,,,,,,,,,,,,,,,,1,0.7703018520005571,,,,',001,2019_Feb_28_1357,body_behavioural,3.0.4,59.96777164080944,
4,"Eventually, Ms. Morrison replied, “You know what, I think you've convinced me that this could work. ",3,3,,,0,4,4,4,,,,,0,21,21,21,,,,,,,,,,,,,,,,1,0.3862097299970628,,,,',001,2019_Feb_28_1357,body_behavioural,3.0.4,59.96777164080944,
4,We've been trying to find a way to add a little European cachet to our stores.,3,3,,,0,4,4,4,,,,,0,22,22,22,,,,,,,,,,,,,,,,1,0.4031872049999947,,,,',001,2019_Feb_28_1357,body_behavioural,3.0.4,59.96777164080944,
4,There's still a problem though - I'm worried we'll be paying out the nose for the import taxes.,3,3,,,0,4,4,4,,,,,0,23,23,23,,,,,,,,,,,,,,,,1,0.3192518750001909,,,,',001,2019_Feb_28_1357,body_behavioural,3.0.4,59.96777164080944,
4,Is that the case?",3,3,,,0,4,4,4,,,,,0,24,24,24,,,,,,,,,,,,,,,,1,0.40301092700246954,,,,',001,2019_Feb_28_1357,body_behavioural,3.0.4,59.96777164080944,
4,"It was Ms. Morrison’s turn to checkout, and the two businesswomen continued to talk back and forth as she did so. ",4,3,,,0,4,4,4,,,,,0,25,25,25,,,,,,,,,,,,,,,,1,0.8529816070004017,,,,',001,2019_Feb_28_1357,body_behavioural,3.0.4,59.96777164080944,
4,"The cashier scanned the crackers, and Ms. Bianchi watched in amusement as Ms. Morrison paid the $6 price entirely in quarters from a wallet bulging with change.",4,3,,,0,4,4,4,,,,,0,26,26,26,,,,,,,,,,,,,,,,1,0.6031439400030649,,,,',001,2019_Feb_28_1357,body_behavioural,3.0.4,59.96777164080944,
4,"They shortly came to an agreement and would have enough cheese shipments, $5000 worth, to different stores to qualify for a subsidized import tax. ",4,4,,,0,4,4,4,,,,,0,27,27,27,,,,,,,,,,,,,,,,1,0.5029558599999291,,,,',001,2019_Feb_28_1357,body_behavioural,3.0.4,59.96777164080944,
4,"Ms. Bianchi retrieved some of her samples from her car, and they toasted their new deal with crackers topped with fresh mozzarella. ",4,4,,,0,4,4,4,,,,,0,28,28,28,,,,,,,,,,,,,,,,1,0.46955844999683904,,,,',001,2019_Feb_28_1357,body_behavioural,3.0.4,59.96777164080944,
4,,,,,,0,4,4,4,,,,,,,,,,,,,,,,,,,,,,,,,,,,,',001,2019_Feb_28_1357,body_behavioural,3.0.4,59.96777164080944,
5,,,,,,0,5,5,5,0,0,0,0,,,,,,,,,,,,,,space,0.5193711050014826,space,0.28594581299694255,space,0.41680473499945947,,,,,,',001,2019_Feb_28_1357,body_behavioural,3.0.4,59.96777164080944,
5,"Thomas, dreading the conversation he was about to have, got to Annika’s Finer Diner early.",1,1,None,None,0,5,5,5,,,,,0,0,0,0,,,,,,,,,,,,,,,,1,0.8203470150001522,,,,',001,2019_Feb_28_1357,body_behavioural,3.0.4,59.96777164080944,
5,The restaurant had a kitschy charm and was reminiscent of a diner from the 70’s. ,1,1,None,None,0,5,5,5,,,,,0,1,1,1,,,,,,,,,,,,,,,,1,0.3840763900007005,,,,',001,2019_Feb_28_1357,body_behavioural,3.0.4,59.96777164080944,
5,A bell chimed as the door swung open and Sadie entered to find Thomas deep in thought on a bench by the door.,1,1,None,None,0,5,5,5,,,,,0,2,2,2,,,,,,,,,,,,,,,,1,0.33633694000309333,,,,',001,2019_Feb_28_1357,body_behavioural,3.0.4,59.96777164080944,
5,He jumped up and gave her a side hug. ,1,1,None,None,0,5,5,5,,,,,0,3,3,3,,,,,,,,,,,,,,,,1,0.3196210419991985,,,,',001,2019_Feb_28_1357,body_behavioural,3.0.4,59.96777164080944,
5,"“How was your day?”, he asked.",1,1,None,None,0,5,5,5,,,,,0,4,4,4,,,,,,,,,,,,,,,,1,0.30070034700111137,,,,',001,2019_Feb_28_1357,body_behavioural,3.0.4,59.96777164080944,
5,"She clung onto him, “It was okay.",1,1,None,None,0,5,5,5,,,,,0,5,5,5,,,,,,,,,,,,,,,,1,0.28636202800043975,,,,',001,2019_Feb_28_1357,body_behavioural,3.0.4,59.96777164080944,
5,I missed you today.”,1,1,None,None,0,5,5,5,,,,,0,6,6,6,,,,,,,,,,,,,,,,1,0.3363139519969991,,,,',001,2019_Feb_28_1357,body_behavioural,3.0.4,59.96777164080944,
5,He looked at the hostess coming towards them.,1,1,None,None,0,5,5,5,,,,,0,7,7,7,,,,,,,,,,,,,,,,1,0.43653754200204276,,,,',001,2019_Feb_28_1357,body_behavioural,3.0.4,59.96777164080944,
5,"“Can we have a table in the back?”, Thomas asked.",1,1,None,None,0,5,5,5,,,,,0,8,8,8,,,,,,,,,,,,,,,,1,0.3034464720003598,,,,',001,2019_Feb_28_1357,body_behavioural,3.0.4,59.96777164080944,
5,"She shrugged and, as she loudly popped her bubblegum, replied, “Sure, honey, this way.”",1,1,9.0,None,0,5,5,5,,,,,0,9,9,9,,,,,,,,,,,,,,,,1,0.3681319280003663,,,,',001,2019_Feb_28_1357,body_behavioural,3.0.4,59.96777164080944,
5,She led them to the back of the restaurant where there were dimly lit tables. ,2,1,None,None,0,5,5,5,,,,,0,10,10,10,,,,,,,,,,,,,,,,1,1.2363943350028421,,,,',001,2019_Feb_28_1357,body_behavioural,3.0.4,59.96777164080944,
5,"“Is this alright?”, the hostess asked.",2,1,None,None,0,5,5,5,,,,,0,11,11,11,,,,,,,,,,,,,,,,1,0.4030099720002909,,,,',001,2019_Feb_28_1357,body_behavioural,3.0.4,59.96777164080944,
5,Thomas cleared his throat and tried not to grimace at the stained fabric that lined the booth.,2,1,None,None,0,5,5,5,,,,,0,12,12,12,,,,,,,,,,,,,,,,1,0.26923624200207996,,,,',001,2019_Feb_28_1357,body_behavioural,3.0.4,59.96777164080944,
5,“This is great.,2,1,None,None,0,5,5,5,,,,,0,13,13,13,,,,,,,,,,,,,,,,1,0.30108572500103037,,,,',001,2019_Feb_28_1357,body_behavioural,3.0.4,59.96777164080944,
5,"Thank you,” Thomas said.",2,1,None,None,0,5,5,5,,,,,0,14,14,14,,,,,,,,,,,,,,,,1,0.30285698200168554,,,,',001,2019_Feb_28_1357,body_behavioural,3.0.4,59.96777164080944,
5,Sadie slipped into the cushioned seat and grabbed Thomas’ hand.,2,1,None,None,0,5,5,5,,,,,0,15,15,15,,,,,,,,,,,,,,,,1,0.21969822499886504,,,,',001,2019_Feb_28_1357,body_behavioural,3.0.4,59.96777164080944,
5,"“Tell me about your day!”, Sadie sang as Thomas sat down.",2,1,None,None,0,5,5,5,,,,,0,16,16,16,,,,,,,,,,,,,,,,1,0.31777411499933805,,,,',001,2019_Feb_28_1357,body_behavioural,3.0.4,59.96777164080944,
5,He looked at her silently and pulled his hand slowly from hers.,2,1,None,None,0,5,5,5,,,,,0,17,17,17,,,,,,,,,,,,,,,,1,0.2195445719989948,,,,',001,2019_Feb_28_1357,body_behavioural,3.0.4,59.96777164080944,
5,Sadie gave him a puzzled look.,2,1,None,None,0,5,5,5,,,,,0,18,18,18,,,,,,,,,,,,,,,,1,0.26972419999947306,,,,',001,2019_Feb_28_1357,body_behavioural,3.0.4,59.96777164080944,
5,Thomas looked away and took a deep breath. ,2,1,None,None,0,5,5,5,,,,,0,19,19,19,,,,,,,,,,,,,,,,1,0.23624607999954605,,,,',001,2019_Feb_28_1357,body_behavioural,3.0.4,59.96777164080944,
5,"Sadie asked, “What’s wrong?” ",2,1,None,None,0,5,5,5,,,,,0,20,20,20,,,,,,,,,,,,,,,,1,0.25029761999758193,,,,',001,2019_Feb_28_1357,body_behavioural,3.0.4,59.96777164080944,
5,Thomas picked at his fingernails.,2,1,None,22.0,0,5,5,5,,,,,0,21,21,21,,,,,,,,,,,,,,,,1,0.2505652550025843,,,,',001,2019_Feb_28_1357,body_behavioural,3.0.4,59.96777164080944,
5,"“Sadie, I’ve been thinking, and I need to figure out some stuff… on my own.”",2,2,None,None,0,5,5,5,,,,,0,22,22,22,,,,,,,,,,,,,,,,1,0.20288979199904134,,,,',001,2019_Feb_28_1357,body_behavioural,3.0.4,59.96777164080944,
5,Sadie’s mouth popped open for a moment.,2,2,None,None,0,5,5,5,,,,,0,23,23,23,,,,,,,,,,,,,,,,1,0.3029681999978493,,,,',001,2019_Feb_28_1357,body_behavioural,3.0.4,59.96777164080944,
5,Then she swallowed and shifted back in her seat.,2,2,None,None,0,5,5,5,,,,,0,24,24,24,,,,,,,,,,,,,,,,1,0.18626681000023382,,,,',001,2019_Feb_28_1357,body_behavioural,3.0.4,59.96777164080944,
5,“Things have been really picking up at work.,2,2,None,None,0,5,5,5,,,,,0,25,25,25,,,,,,,,,,,,,,,,1,0.252574199999799,,,,',001,2019_Feb_28_1357,body_behavioural,3.0.4,59.96777164080944,
5,And I’m not sure that this is the job I want to do anymore.,2,2,None,None,0,5,5,5,,,,,0,26,26,26,,,,,,,,,,,,,,,,1,0.22019342700150446,,,,',001,2019_Feb_28_1357,body_behavioural,3.0.4,59.96777164080944,
5,It’s been really overwhelming between working and figuring out if I should change careers.” ,2,2,17.0,None,0,5,5,5,,,,,0,27,27,27,,,,,,,,,,,,,,,,1,0.23626574000081746,,,,',001,2019_Feb_28_1357,body_behavioural,3.0.4,59.96777164080944,
5,The waiter appeared and interrupted the speech Thomas had been practicing.,3,2,None,None,0,5,5,5,,,,,0,28,28,28,,,,,,,,,,,,,,,,1,0.250672697002301,,,,',001,2019_Feb_28_1357,body_behavioural,3.0.4,59.96777164080944,
5,"“Hello you two!”, the waiter said.",3,2,None,None,0,5,5,5,,,,,0,29,29,29,,,,,,,,,,,,,,,,1,0.25260760500168544,,,,',001,2019_Feb_28_1357,body_behavioural,3.0.4,59.96777164080944,
5,“Have you decided what you would like?”,3,2,None,None,0,5,5,5,,,,,0,30,30,30,,,,,,,,,,,,,,,,1,0.2360646969973459,,,,',001,2019_Feb_28_1357,body_behavioural,3.0.4,59.96777164080944,
5,"Thomas and Sadie realized there were menus on the table, and they glanced at the lengthy list quickly.",3,2,None,None,0,5,5,5,,,,,0,31,31,31,,,,,,,,,,,,,,,,1,0.2197994669986656,,,,',001,2019_Feb_28_1357,body_behavioural,3.0.4,59.96777164080944,
5,"There were so many strange dishes they had never heard of before, so they settled on familiar orders.",3,2,None,None,0,5,5,5,,,,,0,32,32,32,,,,,,,,,,,,,,,,1,0.2360541550006019,,,,',001,2019_Feb_28_1357,body_behavioural,3.0.4,59.96777164080944,
5,"“I’ll have a burger, no tomatoes,” Thomas said.",3,2,None,None,0,5,5,5,,,,,0,33,33,33,,,,,,,,,,,,,,,,1,0.23632559000179754,,,,',001,2019_Feb_28_1357,body_behavioural,3.0.4,59.96777164080944,
5,"Sadie asked about the reuben, and the waiter told her it was excellent.",3,2,None,None,0,5,5,5,,,,,0,34,34,34,,,,,,,,,,,,,,,,1,0.23398002199974144,,,,',001,2019_Feb_28_1357,body_behavioural,3.0.4,59.96777164080944,
5,"Once she agreed to get that, he walked away. ",3,2,None,None,0,5,5,5,,,,,0,35,35,35,,,,,,,,,,,,,,,,1,0.23595627499889815,,,,',001,2019_Feb_28_1357,body_behavioural,3.0.4,59.96777164080944,
5,Sadie and Thomas looked at each other. ,3,2,None,None,0,5,5,5,,,,,0,36,36,36,,,,,,,,,,,,,,,,1,0.2701229320009588,,,,',001,2019_Feb_28_1357,body_behavioural,3.0.4,59.96777164080944,
5,"“So what are you saying?”, Sadie asked. ",3,2,None,None,0,5,5,5,,,,,0,37,37,37,,,,,,,,,,,,,,,,1,0.21974944699832122,,,,',001,2019_Feb_28_1357,body_behavioural,3.0.4,59.96777164080944,
5,"Thomas replied, “I want to take a break for awhile.",3,2,None,None,0,5,5,5,,,,,0,38,38,38,,,,,,,,,,,,,,,,1,0.23630912700173212,,,,',001,2019_Feb_28_1357,body_behavioural,3.0.4,59.96777164080944,
5,"You know, have space to figure out what I’m supposed to be doing.”",3,2,None,17.0,0,5,5,5,,,,,0,39,39,39,,,,,,,,,,,,,,,,1,0.20268629500060342,,,,',001,2019_Feb_28_1357,body_behavioural,3.0.4,59.96777164080944,
5,Sadie quietly burst into tears. ,3,3,None,None,0,5,5,5,,,,,0,40,40,40,,,,,,,,,,,,,,,,1,0.2027241200012213,,,,',001,2019_Feb_28_1357,body_behavioural,3.0.4,59.96777164080944,
5,"Nevertheless, people sitting at the adjacent table looked over and quickly averted their gaze as they realized what was happening. ",3,3,None,None,0,5,5,5,,,,,0,41,41,41,,,,,,,,,,,,,,,,1,0.25259132200153545,,,,',001,2019_Feb_28_1357,body_behavioural,3.0.4,59.96777164080944,
5,“Is this really what you want?,3,3,None,None,0,5,5,5,,,,,0,42,42,42,,,,,,,,,,,,,,,,1,0.2861041270007263,,,,',001,2019_Feb_28_1357,body_behavioural,3.0.4,59.96777164080944,
5,I don’t understand.,3,3,None,None,0,5,5,5,,,,,0,43,43,43,,,,,,,,,,,,,,,,1,0.25282709199746023,,,,',001,2019_Feb_28_1357,body_behavioural,3.0.4,59.96777164080944,
5,I don’t understand.,3,3,None,None,0,5,5,5,,,,,0,44,44,44,,,,,,,,,,,,,,,,1,0.21935438999935286,,,,',001,2019_Feb_28_1357,body_behavioural,3.0.4,59.96777164080944,
5,Things were fine. ,3,3,None,None,0,5,5,5,,,,,0,45,45,45,,,,,,,,,,,,,,,,1,0.33642523500020616,,,,',001,2019_Feb_28_1357,body_behavioural,3.0.4,59.96777164080944,
5,"We don’t have to hang out all the time, or as much as we do now.”",3,3,None,None,0,5,5,5,,,,,0,46,46,46,,,,,,,,,,,,,,,,1,0.23632518699741922,,,,',001,2019_Feb_28_1357,body_behavioural,3.0.4,59.96777164080944,
5,Thomas chewed on his bottom lip and picked at his now bleeding hangnail. ,3,3,20.0,None,0,5,5,5,,,,,0,47,47,47,,,,,,,,,,,,,,,,1,0.5364628700008325,,,,',001,2019_Feb_28_1357,body_behavioural,3.0.4,59.96777164080944,
5,"At that moment, the waiter arrived with the burger and reuben and set them on the table.",4,3,None,None,0,5,5,5,,,,,0,48,48,48,,,,,,,,,,,,,,,,1,0.25302600000213715,,,,',001,2019_Feb_28_1357,body_behavioural,3.0.4,59.96777164080944,
5,“Is there anything else I can get for you two?,4,3,None,None,0,5,5,5,,,,,0,49,49,49,,,,,,,,,,,,,,,,1,0.2700939450005535,,,,',001,2019_Feb_28_1357,body_behavioural,3.0.4,59.96777164080944,
5,"Will you be getting dessert tonight?”, he asked.",4,3,None,None,0,5,5,5,,,,,0,50,50,50,,,,,,,,,,,,,,,,1,0.23592499699952896,,,,',001,2019_Feb_28_1357,body_behavioural,3.0.4,59.96777164080944,
5,"“Oh no, we’re good, thanks,” Thomas said.",4,3,None,None,0,5,5,5,,,,,0,51,51,51,,,,,,,,,,,,,,,,1,0.2698355700013053,,,,',001,2019_Feb_28_1357,body_behavioural,3.0.4,59.96777164080944,
5,"Once the waiter had walked away still oblivious to the situation, Thomas sighed and said, “Sadie, I’m sorry.",4,3,None,None,0,5,5,5,,,,,0,52,52,52,,,,,,,,,,,,,,,,1,0.20286345700151287,,,,',001,2019_Feb_28_1357,body_behavioural,3.0.4,59.96777164080944,
5,"You are so great, and I love hanging out with you.",4,3,None,None,0,5,5,5,,,,,0,53,53,53,,,,,,,,,,,,,,,,1,0.2529656299993803,,,,',001,2019_Feb_28_1357,body_behavioural,3.0.4,59.96777164080944,
5,But I need some time.,4,3,None,None,0,5,5,5,,,,,0,54,54,54,,,,,,,,,,,,,,,,1,0.21935552200011443,,,,',001,2019_Feb_28_1357,body_behavioural,3.0.4,59.96777164080944,
5,I’m so sorry.”,4,3,None,None,0,5,5,5,,,,,0,55,55,55,,,,,,,,,,,,,,,,1,0.23618093700133613,,,,',001,2019_Feb_28_1357,body_behavioural,3.0.4,59.96777164080944,
5,"He grabbed her hand, and she pulled it out of his.",4,3,None,None,0,5,5,5,,,,,0,56,56,56,,,,,,,,,,,,,,,,1,0.21936754699709127,,,,',001,2019_Feb_28_1357,body_behavioural,3.0.4,59.96777164080944,
5,"“Sadie,” he said.",4,3,None,17.0,0,5,5,5,,,,,0,57,57,57,,,,,,,,,,,,,,,,1,0.252916589997767,,,,',001,2019_Feb_28_1357,body_behavioural,3.0.4,59.96777164080944,
5," She stood up, grabbed half of the reuben and shook it at him as she growled, “Don’t follow me, and don’t talk to me anymore!”",4,4,None,None,0,5,5,5,,,,,0,58,58,58,,,,,,,,,,,,,,,,1,0.23639285800163634,,,,',001,2019_Feb_28_1357,body_behavioural,3.0.4,59.96777164080944,
5,"Sadie's heels clacked loudly against the black and white linoleum, and the bell above the door jingled cheerfully as the door closed behind her.",4,4,None,None,0,5,5,5,,,,,0,59,59,59,,,,,,,,,,,,,,,,1,0.23737691499991342,,,,',001,2019_Feb_28_1357,body_behavioural,3.0.4,59.96777164080944,
5,Thomas sat there for awhile in shock at how quickly everything transpired. ,4,4,None,None,0,5,5,5,,,,,0,60,60,60,,,,,,,,,,,,,,,,1,0.20070759699956398,,,,',001,2019_Feb_28_1357,body_behavioural,3.0.4,59.96777164080944,
5,"He grabbed his burger and took a bite of it, creating a dry and fishy taste in his mouth.",4,4,None,None,0,5,5,5,,,,,0,61,61,61,,,,,,,,,,,,,,,,1,0.22015616499993484,,,,',001,2019_Feb_28_1357,body_behavioural,3.0.4,59.96777164080944,
5,He dropped it back on his plate and wondered if the restaurant was responsible for the foul taste. ,4,4,13.0,5.0,0,5,5,5,,,,,0,62,62,62,,,,,,,,,,,,,,,,1,0.2029904919982073,,,,',001,2019_Feb_28_1357,body_behavioural,3.0.4,59.96777164080944,
5,,,,,,0,5,5,5,,,,,,,,,,,,,,,,,,,,,,,,,,,,,',001,2019_Feb_28_1357,body_behavioural,3.0.4,59.96777164080944,
6,,,,,,0,6,6,6,0,0,0,0,,,,,,,,,,,,,,space,0.6032036049982707,space,0.3003555569994205,space,0.6029154719981307,,,,,,',001,2019_Feb_28_1357,body_behavioural,3.0.4,59.96777164080944,
6,,,,,,0,6,6,6,1,0,1,0,,,,,,,,,,,,,,,,,,space,0.4204020099969057,,,,,,',001,2019_Feb_28_1357,body_behavioural,3.0.4,59.96777164080944,
6,"Lana walked into lecture holding hands with her boyfriend, Aaron, who was trying to contain his excitement and anticipation for proposing to Lana in this class. ",1,1,,,0,6,6,6,,,,,0,0,0,0,,,,,,,,,,,,,,,,1,0.7026652120002836,,,,',001,2019_Feb_28_1357,body_behavioural,3.0.4,59.96777164080944,
6,"Lana was lost in thought, still puzzling over a calculus problem on her problem set due that night.",1,1,,,0,6,6,6,,,,,0,1,1,1,,,,,,,,,,,,,,,,1,0.4361845280000125,,,,',001,2019_Feb_28_1357,body_behavioural,3.0.4,59.96777164080944,
6,"The lecture hall was the fanciest one at Princeton, with chandeliers, high ceilings, wood floors and double-decker chalkboards.",1,1,,,0,6,6,6,,,,,0,2,2,2,,,,,,,,,,,,,,,,1,0.3338280549978663,,,,',001,2019_Feb_28_1357,body_behavioural,3.0.4,59.96777164080944,
6,"This is where Aaron and Lana had met two years ago during an economics class, and now they were back together in the same lecture hall for their Chemistry class. ",1,1,,,0,6,6,6,,,,,0,3,3,3,,,,,,,,,,,,,,,,1,0.2193192300001101,,,,',001,2019_Feb_28_1357,body_behavioural,3.0.4,59.96777164080944,
6,The professor caught Aaron's eye as he walked up to the front of the classroom and gave him a wink before the lecture began. ,1,1,,,0,6,6,6,,,,,0,4,4,4,,,,,,,,,,,,,,,,1,0.33645430500109796,,,,',001,2019_Feb_28_1357,body_behavioural,3.0.4,59.96777164080944,
6,Aaron responded with a huge grin. ,1,1,,,0,6,6,6,,,,,0,5,5,5,,,,,,,,,,,,,,,,1,0.2691948819992831,,,,',001,2019_Feb_28_1357,body_behavioural,3.0.4,59.96777164080944,
6,"The professor cleared his throat and said,“Alright, good afternoon, everyone!",2,1,,,0,6,6,6,,,,,0,6,6,6,,,,,,,,,,,,,,,,1,0.21937479000189342,,,,',001,2019_Feb_28_1357,body_behavioural,3.0.4,59.96777164080944,
6,"Last week we talked about the structure of the periodic table, and this week the topic is ions.",2,1,,,0,6,6,6,,,,,0,7,7,7,,,,,,,,,,,,,,,,1,0.20299141699797474,,,,',001,2019_Feb_28_1357,body_behavioural,3.0.4,59.96777164080944,
6,These are atoms or molecules in which the number of electrons does not equal the number of protons.,2,1,,,0,6,6,6,,,,,0,8,8,8,,,,,,,,,,,,,,,,1,0.20298977199854562,,,,',001,2019_Feb_28_1357,body_behavioural,3.0.4,59.96777164080944,
6,"Now, let me get my computer set up, one moment, class.”",2,1,,,0,6,6,6,,,,,0,9,9,9,,,,,,,,,,,,,,,,1,0.18643606000114232,,,,',001,2019_Feb_28_1357,body_behavioural,3.0.4,59.96777164080944,
6,Lana pulled out her Calculus problem set and puzzled over it.,2,1,,,0,6,6,6,,,,,0,10,10,10,,,,,,,,,,,,,,,,1,0.23358286200164002,,,,',001,2019_Feb_28_1357,body_behavioural,3.0.4,59.96777164080944,
6,"While she was distracted, Aaron unzipped the small pocket in his backpack and pulled out the ring box.",2,2,,,0,6,6,6,,,,,0,11,11,11,,,,,,,,,,,,,,,,1,0.21982995199869038,,,,',001,2019_Feb_28_1357,body_behavioural,3.0.4,59.96777164080944,
6,He opened it up and looked at the ring.,2,2,,,0,6,6,6,,,,,0,12,12,12,,,,,,,,,,,,,,,,1,0.18595271199956187,,,,',001,2019_Feb_28_1357,body_behavioural,3.0.4,59.96777164080944,
6,"Instead of one large diamond, there were 5 diamonds embedded in a thick band. ",2,2,,,0,6,6,6,,,,,0,13,13,13,,,,,,,,,,,,,,,,1,0.20266469000125653,,,,',001,2019_Feb_28_1357,body_behavioural,3.0.4,59.96777164080944,
6,He knew Lana would like this because her style was not flashy but more about simple elegance.,2,2,,,0,6,6,6,,,,,0,14,14,14,,,,,,,,,,,,,,,,1,0.20055964199855225,,,,',001,2019_Feb_28_1357,body_behavioural,3.0.4,59.96777164080944,
6,Aaron put the ring back into the bag as the professor began the lecture. ,3,2,,,0,6,6,6,,,,,0,15,15,15,,,,,,,,,,,,,,,,1,0.18581918999916525,,,,',001,2019_Feb_28_1357,body_behavioural,3.0.4,59.96777164080944,
6,“Recall from previous lectures that the number of protons determines the identity of the element. ,3,2,,,0,6,6,6,,,,,0,16,16,16,,,,,,,,,,,,,,,,1,0.20064737999928184,,,,',001,2019_Feb_28_1357,body_behavioural,3.0.4,59.96777164080944,
6,"So for example, all atoms of sodium have 11 protons in the nucleus. ",3,2,,,0,6,6,6,,,,,0,17,17,17,,,,,,,,,,,,,,,,1,0.18633873500220943,,,,',001,2019_Feb_28_1357,body_behavioural,3.0.4,59.96777164080944,
6,"And if you look on the periodic table, the atomic number for sodium, the symbol is Na, is eleven.”",3,2,,,0,6,6,6,,,,,0,18,18,18,,,,,,,,,,,,,,,,1,0.18632294700000784,,,,',001,2019_Feb_28_1357,body_behavioural,3.0.4,59.96777164080944,
6,Lana was taking notes while Aaron was texting all of his friends in the class to get ready for the proposal. ,3,2,,,0,6,6,6,,,,,0,19,19,19,,,,,,,,,,,,,,,,1,0.2031099850028113,,,,',001,2019_Feb_28_1357,body_behavioural,3.0.4,59.96777164080944,
6,"Right after talking about how two ions bond into one stable molecule by covalent bonds, the professor stopped the lecture and asked Lana to come to the front of the class to do a demonstration. ",3,2,,,0,6,6,6,,,,,0,20,20,20,,,,,,,,,,,,,,,,1,0.20289314000183367,,,,',001,2019_Feb_28_1357,body_behavioural,3.0.4,59.96777164080944,
6,"She walked to the front of the class confused, and the professor asked her to stand in the middle of the stage.",3,2,,,0,6,6,6,,,,,0,21,21,21,,,,,,,,,,,,,,,,1,0.3364154070004588,,,,',001,2019_Feb_28_1357,body_behavioural,3.0.4,59.96777164080944,
6,"Then Aaron walked up and, taking Lana’s hand, got down on one knee. ",3,3,,,0,6,6,6,,,,,0,22,22,22,,,,,,,,,,,,,,,,1,0.23609163500077557,,,,',001,2019_Feb_28_1357,body_behavioural,3.0.4,59.96777164080944,
6,"“It's time for us to make a bond of our own, Lana.",3,3,,,0,6,6,6,,,,,0,23,23,23,,,,,,,,,,,,,,,,1,0.23626742199849105,,,,',001,2019_Feb_28_1357,body_behavioural,3.0.4,59.96777164080944,
6,Will you marry me?” ,3,3,,,0,6,6,6,,,,,0,24,24,24,,,,,,,,,,,,,,,,1,0.18628806000197073,,,,',001,2019_Feb_28_1357,body_behavioural,3.0.4,59.96777164080944,
6,Lana gasped and put her other hand to her mouth and started looking around the room as if trying to convince herself that this was really happening.,3,3,,,0,6,6,6,,,,,0,25,25,25,,,,,,,,,,,,,,,,1,0.20060228500005906,,,,',001,2019_Feb_28_1357,body_behavioural,3.0.4,59.96777164080944,
6,For a few moments everyone was in suspense waiting for the Lana’s shock to wear off and for her to answer. ,3,3,,,0,6,6,6,,,,,0,26,26,26,,,,,,,,,,,,,,,,1,0.21983940299833193,,,,',001,2019_Feb_28_1357,body_behavioural,3.0.4,59.96777164080944,
6,"Finally, she said, “Yes!”",3,4,,,0,6,6,6,,,,,0,27,27,27,,,,,,,,,,,,,,,,1,0.2028341379991616,,,,',001,2019_Feb_28_1357,body_behavioural,3.0.4,59.96777164080944,
6,"Aaron put the ring on her finger, and they hugged while the whole class clapped. ",3,4,,,0,6,6,6,,,,,0,28,28,28,,,,,,,,,,,,,,,,1,0.48632862999875215,,,,',001,2019_Feb_28_1357,body_behavioural,3.0.4,59.96777164080944,
6,"Their friends came up and hugged both of them, and the professor gave Aaron a celebratory handshake.",3,4,,,0,6,6,6,,,,,0,29,29,29,,,,,,,,,,,,,,,,1,0.3864766149999923,,,,',001,2019_Feb_28_1357,body_behavioural,3.0.4,59.96777164080944,
6,"They made their way back to their seats, Lana and Aaron hand-in-hand and beaming. ",3,4,,,0,6,6,6,,,,,0,30,30,30,,,,,,,,,,,,,,,,1,0.26955152500158874,,,,',001,2019_Feb_28_1357,body_behavioural,3.0.4,59.96777164080944,
6,"The professor then dismissed the class, saying, “That was enough excitement for today!",4,4,,,0,6,6,6,,,,,0,31,31,31,,,,,,,,,,,,,,,,1,0.2191721500021231,,,,',001,2019_Feb_28_1357,body_behavioural,3.0.4,59.96777164080944,
6,Don’t forget there’s an exam next week on the first two chapters of the textbook.”,4,4,,,0,6,6,6,,,,,0,32,32,32,,,,,,,,,,,,,,,,1,0.19977324699721066,,,,',001,2019_Feb_28_1357,body_behavioural,3.0.4,59.96777164080944,
6,"As everyone was packing up their notebooks and leaving, Lana was already on her phone calling her family members to tell them the exciting news.",4,4,,,0,6,6,6,,,,,0,33,33,33,,,,,,,,,,,,,,,,1,0.2027963219989033,,,,',001,2019_Feb_28_1357,body_behavioural,3.0.4,59.96777164080944,
6,,,,,,0,6,6,6,,,,,,,,,,,,,,,,,,,,,,,,,,,,,',001,2019_Feb_28_1357,body_behavioural,3.0.4,59.96777164080944,
7,,,,,,0,7,7,7,0,0,0,0,,,,,,,,,,,,,,space,0.603130286999658,space,0.2692238969975733,space,0.41953235500113806,,,,,,',001,2019_Feb_28_1357,body_behavioural,3.0.4,59.96777164080944,
7,"Simon and Carina noticed each other as they walked into the grocery store at the same time, their carts nearly colliding as they squeezed into the entrance.",1,1,,,0,7,7,7,,,,,0,0,0,0,,,,,,,,,,,,,,,,1,0.320094907998282,,,,',001,2019_Feb_28_1357,body_behavioural,3.0.4,59.96777164080944,
7,"They were both new to the Boston area, and this was their first time in this store. ",1,1,,,0,7,7,7,,,,,0,1,1,1,,,,,,,,,,,,,,,,1,0.3028978649999772,,,,',001,2019_Feb_28_1357,body_behavioural,3.0.4,59.96777164080944,
7,"It kind of looked like a large warehouse, with high unfurnished ceilings, industrial lights, and large packages of food. ",1,1,,,0,7,7,7,,,,,0,2,2,2,,,,,,,,,,,,,,,,1,0.18625971499932348,,,,',001,2019_Feb_28_1357,body_behavioural,3.0.4,59.96777164080944,
7,"They went off along separate routes, but soon ended up back together in the meat section. ",2,1,,,0,7,7,7,,,,,0,3,3,3,,,,,,,,,,,,,,,,1,0.20318054700328503,,,,',001,2019_Feb_28_1357,body_behavioural,3.0.4,59.96777164080944,
7,"They were both preparing for barbecues, so they were looking over the same cuts of meat. ",2,1,,,0,7,7,7,,,,,0,4,4,4,,,,,,,,,,,,,,,,1,0.1362778350012377,,,,',001,2019_Feb_28_1357,body_behavioural,3.0.4,59.96777164080944,
7,"Simon really wanted to talk to Carina, and Carina really wanted to say something to Simon, but they felt embarrassed striking up a conversation with a stranger.",2,1,,,0,7,7,7,,,,,0,5,5,5,,,,,,,,,,,,,,,,1,0.20068655199793284,,,,',001,2019_Feb_28_1357,body_behavioural,3.0.4,59.96777164080944,
7,"Carina suddenly turned to Simon and, pointing at a Cornish hen, asked, “Isn’t this meat cute?”",2,2,,,0,7,7,7,,,,,0,6,6,6,,,,,,,,,,,,,,,,1,0.23711094000100275,,,,',001,2019_Feb_28_1357,body_behavioural,3.0.4,59.96777164080944,
7,"He laughed, and said, “It is very cute.",2,2,,,0,7,7,7,,,,,0,7,7,7,,,,,,,,,,,,,,,,1,0.2695890850009164,,,,',001,2019_Feb_28_1357,body_behavioural,3.0.4,59.96777164080944,
7,"Probably the younger brother of this guy,” and he picked up a regular-sized chicken.",2,2,,,0,7,7,7,,,,,0,8,8,8,,,,,,,,,,,,,,,,1,0.2364457699986815,,,,',001,2019_Feb_28_1357,body_behavioural,3.0.4,59.96777164080944,
7,"“Unlucky family,” she responded. ",2,2,,,0,7,7,7,,,,,0,9,9,9,,,,,,,,,,,,,,,,1,0.21959957200306235,,,,',001,2019_Feb_28_1357,body_behavioural,3.0.4,59.96777164080944,
7,They continued to chat as they picked out their groceries.,2,2,,,0,7,7,7,,,,,0,10,10,10,,,,,,,,,,,,,,,,1,0.2339776350017928,,,,',001,2019_Feb_28_1357,body_behavioural,3.0.4,59.96777164080944,
7,"Simon helped Carina pick out the best ribs and his personal favorite barbeque sauce, and she helped him gather the  peppers, onions, and spices for a vegetable kabob she recommended.",2,2,,,0,7,7,7,,,,,0,11,11,11,,,,,,,,,,,,,,,,1,0.16990790199997718,,,,',001,2019_Feb_28_1357,body_behavioural,3.0.4,59.96777164080944,
7,"When they were both finished shopping, they went to the checkout area.",3,2,,,0,7,7,7,,,,,0,12,12,12,,,,,,,,,,,,,,,,1,0.21960210500037647,,,,',001,2019_Feb_28_1357,body_behavioural,3.0.4,59.96777164080944,
7,"Simon was disappointed to see that the lines were short, since he had been hoping for an excuse to spend more time with Carina.",3,2,,,0,7,7,7,,,,,0,13,13,13,,,,,,,,,,,,,,,,1,0.18651279999903636,,,,',001,2019_Feb_28_1357,body_behavioural,3.0.4,59.96777164080944,
7,"They had real chemistry, and both of them could definitely see a future together despite having just met.",3,2,,,0,7,7,7,,,,,0,14,14,14,,,,,,,,,,,,,,,,1,0.20346103500196477,,,,',001,2019_Feb_28_1357,body_behavioural,3.0.4,59.96777164080944,
7,"“So you haven’t been around the city much?”, Simon asked. ",3,2,,,0,7,7,7,,,,,0,15,15,15,,,,,,,,,,,,,,,,1,0.23626426000191714,,,,',001,2019_Feb_28_1357,body_behavioural,3.0.4,59.96777164080944,
7,"“No, not really.",3,2,,,0,7,7,7,,,,,0,16,16,16,,,,,,,,,,,,,,,,1,0.21990699500020128,,,,',001,2019_Feb_28_1357,body_behavioural,3.0.4,59.96777164080944,
7,I’ve mainly been working and setting up my apartment.”,3,2,,,0,7,7,7,,,,,0,17,17,17,,,,,,,,,,,,,,,,1,0.2341307329988922,,,,',001,2019_Feb_28_1357,body_behavioural,3.0.4,59.96777164080944,
7,"Simon asked her, “Ok well, if you’d like I could pick you up next weekend, and we could go around Harvard Square and get dinner.",3,3,,,0,7,7,7,,,,,0,18,18,18,,,,,,,,,,,,,,,,1,0.18631579000066267,,,,',001,2019_Feb_28_1357,body_behavioural,3.0.4,59.96777164080944,
7,"There are a lot of great places around there, and it’s really nice during the summer.",3,3,,,0,7,7,7,,,,,0,19,19,19,,,,,,,,,,,,,,,,1,0.2194240249991708,,,,',001,2019_Feb_28_1357,body_behavioural,3.0.4,59.96777164080944,
7,The Harvard campus is also beautiful.” ,3,3,,,0,7,7,7,,,,,0,20,20,20,,,,,,,,,,,,,,,,1,0.219714839997323,,,,',001,2019_Feb_28_1357,body_behavioural,3.0.4,59.96777164080944,
7,"Carina smiled, “I’d love to: that sounds great!”",3,3,,,0,7,7,7,,,,,0,21,21,21,,,,,,,,,,,,,,,,1,0.23645124500035308,,,,',001,2019_Feb_28_1357,body_behavioural,3.0.4,59.96777164080944,
7,"She quickly entered her number in his phone, since they only had to wait a couple minutes in line.",3,3,,,0,7,7,7,,,,,0,22,22,22,,,,,,,,,,,,,,,,1,0.2203039429987257,,,,',001,2019_Feb_28_1357,body_behavioural,3.0.4,59.96777164080944,
7,Then it was her turn to check out with the cashier. ,4,3,,,0,7,7,7,,,,,0,23,23,23,,,,,,,,,,,,,,,,1,0.20065687199894455,,,,',001,2019_Feb_28_1357,body_behavioural,3.0.4,59.96777164080944,
7,"Simon, wanting to make a gesture of his affection, lifted up the divider on the conveyor belt and said to the cashier, “Actually these are together.",4,3,,,0,7,7,7,,,,,0,24,24,24,,,,,,,,,,,,,,,,1,0.20254801400005817,,,,',001,2019_Feb_28_1357,body_behavioural,3.0.4,59.96777164080944,
7,"Carina, I’ve got it.",4,3,,,0,7,7,7,,,,,0,25,25,25,,,,,,,,,,,,,,,,1,0.22029251499770908,,,,',001,2019_Feb_28_1357,body_behavioural,3.0.4,59.96777164080944,
7,This was kind-of a date today.”,4,3,,,0,7,7,7,,,,,0,26,26,26,,,,,,,,,,,,,,,,1,0.25058495000121184,,,,',001,2019_Feb_28_1357,body_behavioural,3.0.4,59.96777164080944,
7,Carina blushed and laughed; she thought this was ridiculous but also very sweet. ,4,3,,,0,7,7,7,,,,,0,27,27,27,,,,,,,,,,,,,,,,1,0.16900029099997482,,,,',001,2019_Feb_28_1357,body_behavioural,3.0.4,59.96777164080944,
7,"The cashier rolled her eyes when they weren’t looking, and she scanned the rest of his items. ",4,3,,,0,7,7,7,,,,,0,28,28,28,,,,,,,,,,,,,,,,1,0.2185493389988551,,,,',001,2019_Feb_28_1357,body_behavioural,3.0.4,59.96777164080944,
7,"The total came to $120, and he paid with his credit card.",4,3,,,0,7,7,7,,,,,0,29,29,29,,,,,,,,,,,,,,,,1,0.21875011200245353,,,,',001,2019_Feb_28_1357,body_behavioural,3.0.4,59.96777164080944,
7,"Carina thanked him, and they took the groceries and walked out.",4,3,,,0,7,7,7,,,,,0,30,30,30,,,,,,,,,,,,,,,,1,0.2203017589999945,,,,',001,2019_Feb_28_1357,body_behavioural,3.0.4,59.96777164080944,
7,"As they were walking towards the exit, Carina reluctantly said goodbye since she was running late for the barbeque she was hosting that afternoon.",4,4,,,0,7,7,7,,,,,0,31,31,31,,,,,,,,,,,,,,,,1,0.20302096500017797,,,,',001,2019_Feb_28_1357,body_behavioural,3.0.4,59.96777164080944,
7,"They hugged and parted ways, stealing glances at each other as they both walked back to their cars.",4,4,,,0,7,7,7,,,,,0,32,32,32,,,,,,,,,,,,,,,,1,0.26970759499818087,,,,',001,2019_Feb_28_1357,body_behavioural,3.0.4,59.96777164080944,
7,,,,,,0,7,7,7,,,,,,,,,,,,,,,,,,,,,,,,,,,,,',001,2019_Feb_28_1357,body_behavioural,3.0.4,59.96777164080944,
8,,,,,,0,8,8,8,0,0,0,0,,,,,,,,,,,,,,space,0.5526155299994571,space,0.4028820050007198,space,0.4363956279994454,,,,,,',001,2019_Feb_28_1357,body_behavioural,3.0.4,59.96777164080944,
8,"Sven and Isabel walked hurriedly from the cab into the Barcelona Airport after an incredible weekend with Isabel’s family, which had wiped away any doubts Sven had had about his decision to propose. ",1,1,,,0,8,8,8,,,,,0,0,0,0,,,,,,,,,,,,,,,,1,0.3034469379999791,,,,',001,2019_Feb_28_1357,body_behavioural,3.0.4,59.96777164080944,
8,"They were a little pressed for time, with only a little over an hour until their flight would take off to go back to the US, but they already had their online boarding passes and no checked luggage. ",1,1,,,0,8,8,8,,,,,0,1,1,1,,,,,,,,,,,,,,,,1,0.15299787999902037,,,,',001,2019_Feb_28_1357,body_behavioural,3.0.4,59.96777164080944,
8,"When Isabel stopped to rummage through her purse looking for her phone, Sven turned his back to her and took the velvet box out of his backpack, opening it to look at the ring he bought her.",1,2,,,0,8,8,8,,,,,0,2,2,2,,,,,,,,,,,,,,,,1,0.20066520500040497,,,,',001,2019_Feb_28_1357,body_behavioural,3.0.4,59.96777164080944,
8,"He had received her parents’ blessing during the trip, and he was almost giddy with excitement. ",1,2,,,0,8,8,8,,,,,0,3,3,3,,,,,,,,,,,,,,,,1,0.2360667499997362,,,,',001,2019_Feb_28_1357,body_behavioural,3.0.4,59.96777164080944,
8,"He tilted the ring backward and forward, despite having already studied it daily since he had purchased it a few weeks ago. ",1,2,,,0,8,8,8,,,,,0,4,4,4,,,,,,,,,,,,,,,,1,0.1870897349981533,,,,',001,2019_Feb_28_1357,body_behavioural,3.0.4,59.96777164080944,
8,"It was a simple design, with a clear, white diamond on a thin silver band.",1,2,,,0,8,8,8,,,,,0,5,5,5,,,,,,,,,,,,,,,,1,0.21927729500021087,,,,',001,2019_Feb_28_1357,body_behavioural,3.0.4,59.96777164080944,
8,"“Sven, let’s go! ” Isabel said. ",1,2,,,0,8,8,8,,,,,0,6,6,6,,,,,,,,,,,,,,,,1,0.18616738000127953,,,,',001,2019_Feb_28_1357,body_behavioural,3.0.4,59.96777164080944,
8,Sven discretely closed the box and put it in his pocket.,1,2,,,0,8,8,8,,,,,0,7,7,7,,,,,,,,,,,,,,,,1,0.16927973199926782,,,,',001,2019_Feb_28_1357,body_behavioural,3.0.4,59.96777164080944,
8," They entered the security line, weaving through the roped walkways to the front. ",2,2,,,0,8,8,8,,,,,0,8,8,8,,,,,,,,,,,,,,,,1,0.21732411500124726,,,,',001,2019_Feb_28_1357,body_behavioural,3.0.4,59.96777164080944,
8,"When they were up, Isabel realized her laptop was buried somewhere in her duffle bag. ",2,2,,,0,8,8,8,,,,,0,9,9,9,,,,,,,,,,,,,,,,1,0.20300762499755365,,,,',001,2019_Feb_28_1357,body_behavioural,3.0.4,59.96777164080944,
8,Sven had to hold the growing mound of objects she pulled from her bag until she unearthed the laptop.,2,2,,,0,8,8,8,,,,,0,10,10,10,,,,,,,,,,,,,,,,1,0.27009828700101934,,,,',001,2019_Feb_28_1357,body_behavioural,3.0.4,59.96777164080944,
8,She set it into a bin and then had to unstrap her leather boots and put everything else into the bins.,2,2,,,0,8,8,8,,,,,0,11,11,11,,,,,,,,,,,,,,,,1,0.20294504499906907,,,,',001,2019_Feb_28_1357,body_behavioural,3.0.4,59.96777164080944,
8,"Finally, she relieved Sven of his holding duties, and he hurriedly deposited his own backpack on the belt as the people behind them glared without shame. ",2,2,,,0,8,8,8,,,,,0,12,12,12,,,,,,,,,,,,,,,,1,0.2697898169972177,,,,',001,2019_Feb_28_1357,body_behavioural,3.0.4,59.96777164080944,
8,"Sven went into the millimeter wave scanner after Isabel, put his hands up, and the metal bars whirled around him.",2,2,,,0,8,8,8,,,,,0,13,13,13,,,,,,,,,,,,,,,,1,0.20074277499952586,,,,',001,2019_Feb_28_1357,body_behavioural,3.0.4,59.96777164080944,
8,"“Sir, please step to the side.",2,2,,,0,8,8,8,,,,,0,14,14,14,,,,,,,,,,,,,,,,1,0.3031158379999397,,,,',001,2019_Feb_28_1357,body_behavioural,3.0.4,59.96777164080944,
8,"You need to empty your pockets,” the security guard said.",2,2,,,0,8,8,8,,,,,0,15,15,15,,,,,,,,,,,,,,,,1,0.20301701999778743,,,,',001,2019_Feb_28_1357,body_behavioural,3.0.4,59.96777164080944,
8,"With a sinking feeling Sven realized the mistake he had made forgetting to put the ring back in his bag, as Isabel and the guard both looked at him expectantly.",2,2,,,0,8,8,8,,,,,0,16,16,16,,,,,,,,,,,,,,,,1,0.2506837649998488,,,,',001,2019_Feb_28_1357,body_behavioural,3.0.4,59.96777164080944,
8,"Sven,  deciding he would make the best of the situation, grabbed Isabel's hand as he reached into his pocket.",2,2,,,0,8,8,8,,,,,0,17,17,17,,,,,,,,,,,,,,,,1,0.2693982250020781,,,,',001,2019_Feb_28_1357,body_behavioural,3.0.4,59.96777164080944,
8,"He got down on one knee and, giggling slightly at her confused look, said, “Isabel, this isn't quite how I'd planned this, but - will you marry me?”",2,3,,,0,8,8,8,,,,,0,18,18,18,,,,,,,,,,,,,,,,1,0.2195050619993708,,,,',001,2019_Feb_28_1357,body_behavioural,3.0.4,59.96777164080944,
8,The security guard gasped.,2,3,,,0,8,8,8,,,,,0,19,19,19,,,,,,,,,,,,,,,,1,0.25320429500061437,,,,',001,2019_Feb_28_1357,body_behavioural,3.0.4,59.96777164080944,
8,All the people who were putting their shoes back on and gathering their belongings stopped what they were doing and walked closer to the couple.,2,3,,,0,8,8,8,,,,,0,20,20,20,,,,,,,,,,,,,,,,1,0.26982488699650276,,,,',001,2019_Feb_28_1357,body_behavioural,3.0.4,59.96777164080944,
8,"Isabel was astonished, and far too shy to respond in front of the backup of passengers waiting behind them.",2,3,,,0,8,8,8,,,,,0,21,21,21,,,,,,,,,,,,,,,,1,0.2530462399990938,,,,',001,2019_Feb_28_1357,body_behavioural,3.0.4,59.96777164080944,
8,"She attempted to stammer a response as she frantically grabbed her and Sven’s shoes, leaving Sven to retrieve their bags.",2,3,,,0,8,8,8,,,,,0,22,22,22,,,,,,,,,,,,,,,,1,0.2363258469995344,,,,',001,2019_Feb_28_1357,body_behavioural,3.0.4,59.96777164080944,
8,"Both of them slipping in their socked feet, she fled onto the concourse with Sven trying to catch up behind her.",3,3,,,0,8,8,8,,,,,0,23,23,23,,,,,,,,,,,,,,,,1,0.25287498499892536,,,,',001,2019_Feb_28_1357,body_behavioural,3.0.4,59.96777164080944,
8,"Everyone in the terminal was looking at them with confusion as Sven, holding the bags in one hand and the open ring box in the other, finally caught up to her.",3,3,,,0,8,8,8,,,,,0,24,24,24,,,,,,,,,,,,,,,,1,0.3007142370006477,,,,',001,2019_Feb_28_1357,body_behavioural,3.0.4,59.96777164080944,
8,“Isabel?”,3,3,,,0,8,8,8,,,,,0,25,25,25,,,,,,,,,,,,,,,,1,0.33641454000098747,,,,',001,2019_Feb_28_1357,body_behavioural,3.0.4,59.96777164080944,
8,"He watched her face as she turned, trying to read her expression.",3,3,,,0,8,8,8,,,,,0,26,26,26,,,,,,,,,,,,,,,,1,0.25286379200042575,,,,',001,2019_Feb_28_1357,body_behavioural,3.0.4,59.96777164080944,
8,"Her eyes were wide, but she was smiling as she hyperventilated, “Of course yes, Sven, yes!” ",3,4,,,0,8,8,8,,,,,0,27,27,27,,,,,,,,,,,,,,,,1,0.2697787819997757,,,,',001,2019_Feb_28_1357,body_behavioural,3.0.4,59.96777164080944,
8,"They dropped their belongings and hugged, and Sven slipped the ring onto Isabel’s finger. ",3,4,,,0,8,8,8,,,,,0,28,28,28,,,,,,,,,,,,,,,,1,0.25300004000018816,,,,',001,2019_Feb_28_1357,body_behavioural,3.0.4,59.96777164080944,
8,"After getting their shoes back on, they practically skipped to the gate, filled with joy.",3,4,,,0,8,8,8,,,,,0,29,29,29,,,,,,,,,,,,,,,,1,0.2527442800019344,,,,',001,2019_Feb_28_1357,body_behavioural,3.0.4,59.96777164080944,
8,Sven high-fived a confused shoe-shine attendant as they passed.,3,4,,,0,8,8,8,,,,,0,30,30,30,,,,,,,,,,,,,,,,1,0.2863071720021253,,,,',001,2019_Feb_28_1357,body_behavioural,3.0.4,59.96777164080944,
8,"They sat down outside their gate, having actually made good time, until the attendant called for passengers.",3,4,,,0,8,8,8,,,,,0,31,31,31,,,,,,,,,,,,,,,,1,0.2863035750015115,,,,',001,2019_Feb_28_1357,body_behavioural,3.0.4,59.96777164080944,
8,"They boarded, sitting together in first class, and had a glass of champagne to celebrate the departure into their new life together.",4,4,,,0,8,8,8,,,,,0,32,32,32,,,,,,,,,,,,,,,,1,0.2695898399979342,,,,',001,2019_Feb_28_1357,body_behavioural,3.0.4,59.96777164080944,
8,"Some of their neighboring passengers who had witnessed the proposal congratulated them, and a woman next to them showed them that she had been live-tweeting the whole event and that it was already going viral online.",4,4,,,0,8,8,8,,,,,0,33,33,33,,,,,,,,,,,,,,,,1,0.2527330049997545,,,,',001,2019_Feb_28_1357,body_behavioural,3.0.4,59.96777164080944,
8,"Isabel slid down in her seat with her hands over her face, both embarrassed and overjoyed at the same time.
",4,4,,,0,8,8,8,,,,,0,34,34,34,,,,,,,,,,,,,,,,1,0.4030051870031457,,,,',001,2019_Feb_28_1357,body_behavioural,3.0.4,59.96777164080944,
8,,,,,,0,8,8,8,,,,,,,,,,,,,,,,,,,,,,,,,,,,,',001,2019_Feb_28_1357,body_behavioural,3.0.4,59.96777164080944,
9,,,,,,0,9,9,9,0,0,0,0,,,,,,,,,,,,,,space,0.6197422869990987,space,0.2860704800004896,space,0.3681336360023124,,,,,,',001,2019_Feb_28_1357,body_behavioural,3.0.4,59.96777164080944,
9,"James noticed Teresa immediately as she walked into the restaurant - or, more accurately as she attempted to walk into the restaurant. ",1,1,,,0,9,9,9,,,,,0,0,0,0,,,,,,,,,,,,,,,,1,0.7363744850008516,,,,',001,2019_Feb_28_1357,body_behavioural,3.0.4,59.96777164080944,
9,"She was typing intently on her phone and ran straight into the diner's clear, glass door with an echoing thud. ",1,1,,,0,9,9,9,,,,,0,1,1,1,,,,,,,,,,,,,,,,1,0.4004692620001151,,,,',001,2019_Feb_28_1357,body_behavioural,3.0.4,59.96777164080944,
9,Everyone waiting around the cash register turned to see if she was okay.,1,1,,,0,9,9,9,,,,,0,2,2,2,,,,,,,,,,,,,,,,1,1.0196533570015163,,,,',001,2019_Feb_28_1357,body_behavioural,3.0.4,59.96777164080944,
9,Teresa rubbed her head.,1,1,,,0,9,9,9,,,,,0,3,3,3,,,,,,,,,,,,,,,,1,0.4029099449981004,,,,',001,2019_Feb_28_1357,body_behavioural,3.0.4,59.96777164080944,
9,"While being both confused and unembarrassed, she looked mostly indignant that the door had been in her way. ",1,1,,,0,9,9,9,,,,,0,4,4,4,,,,,,,,,,,,,,,,1,0.2692782369995257,,,,',001,2019_Feb_28_1357,body_behavioural,3.0.4,59.96777164080944,
9,James found this quite charming and stole a couple glances at her until she noticed and wrinkled her eyebrows at him in suspicion. ,1,1,,,0,9,9,9,,,,,0,5,5,5,,,,,,,,,,,,,,,,1,0.27024952200008556,,,,',001,2019_Feb_28_1357,body_behavioural,3.0.4,59.96777164080944,
9,"The restaurant they were in was a cabin-themed diner with wooden booths and bar, walls covered in plaid blankets, and antler decorations. ",1,1,,,0,9,9,9,,,,,0,6,6,6,,,,,,,,,,,,,,,,1,0.3197873120006989,,,,',001,2019_Feb_28_1357,body_behavioural,3.0.4,59.96777164080944,
9,The waiter saw that James and Teresa were both alone and motioned to both of them. ,1,1,,,0,9,9,9,,,,,0,7,7,7,,,,,,,,,,,,,,,,1,0.2860216949993628,,,,',001,2019_Feb_28_1357,body_behavioural,3.0.4,59.96777164080944,
9,“Right this way.,2,1,,,0,9,9,9,,,,,0,8,8,8,,,,,,,,,,,,,,,,1,0.26960780000081286,,,,',001,2019_Feb_28_1357,body_behavioural,3.0.4,59.96777164080944,
9,You two don't mind sitting at the counter?” ,2,1,,,0,9,9,9,,,,,0,9,9,9,,,,,,,,,,,,,,,,1,0.28633436000018264,,,,',001,2019_Feb_28_1357,body_behavioural,3.0.4,59.96777164080944,
9,They sat a seat apart from each other on the split tree trunk that served as a bench.,2,1,,,0,9,9,9,,,,,0,10,10,10,,,,,,,,,,,,,,,,1,0.20063351499993587,,,,',001,2019_Feb_28_1357,body_behavioural,3.0.4,59.96777164080944,
9, The waitress behind the counter gave them bright neon menus that were filled with breakfast items.,2,1,,,0,9,9,9,,,,,0,11,11,11,,,,,,,,,,,,,,,,1,0.25301534499885747,,,,',001,2019_Feb_28_1357,body_behavioural,3.0.4,59.96777164080944,
9,"Teresa quickly glanced through it, then pulled out a book and started reading it while James played with the salt and pepper shakers as he tried to think of an excuse to talk to Teresa.",2,1,,,0,9,9,9,,,,,0,12,12,12,,,,,,,,,,,,,,,,1,0.26967041500029154,,,,',001,2019_Feb_28_1357,body_behavioural,3.0.4,59.96777164080944,
9,"James eventually turned to her and asked, “Your forehead alright?”",2,2,,,0,9,9,9,,,,,0,13,13,13,,,,,,,,,,,,,,,,1,0.36964137500035577,,,,',001,2019_Feb_28_1357,body_behavioural,3.0.4,59.96777164080944,
9,She put down her book and gave him a smirk.,2,2,,,0,9,9,9,,,,,0,14,14,14,,,,,,,,,,,,,,,,1,0.3199505250013317,,,,',001,2019_Feb_28_1357,body_behavioural,3.0.4,59.96777164080944,
9,"“Have you ever been stung by a scorpion?”, she asked him, tilting her head.",2,2,,,0,9,9,9,,,,,0,15,15,15,,,,,,,,,,,,,,,,1,0.30290202999822213,,,,',001,2019_Feb_28_1357,body_behavioural,3.0.4,59.96777164080944,
9,"“What?”, he asked confusedly.",2,2,,,0,9,9,9,,,,,0,16,16,16,,,,,,,,,,,,,,,,1,0.2532703329998185,,,,',001,2019_Feb_28_1357,body_behavioural,3.0.4,59.96777164080944,
9, “A scorpion.”,2,2,,,0,9,9,9,,,,,0,17,17,17,,,,,,,,,,,,,,,,1,0.2863199399980658,,,,',001,2019_Feb_28_1357,body_behavioural,3.0.4,59.96777164080944,
9,James began to worry that Teresa had possibly suffered a concussion in the door crash.,2,2,,,0,9,9,9,,,,,0,18,18,18,,,,,,,,,,,,,,,,1,0.28428798700042535,,,,',001,2019_Feb_28_1357,body_behavioural,3.0.4,59.96777164080944,
9,"“Uh no, why?” ",2,2,,,0,9,9,9,,,,,0,19,19,19,,,,,,,,,,,,,,,,1,0.3172622899983253,,,,',001,2019_Feb_28_1357,body_behavioural,3.0.4,59.96777164080944,
9,"“Because I’ve been stung by one, and since then, things like bumping into doors seem like pretty small potatoes.” ",2,2,,,0,9,9,9,,,,,0,20,20,20,,,,,,,,,,,,,,,,1,0.2696701349996147,,,,',001,2019_Feb_28_1357,body_behavioural,3.0.4,59.96777164080944,
9,"They carried on talking, and Teresa told him all about her encounter with a Deathstalker scorpion while she was studying abroad in Egypt.",2,2,,,0,9,9,9,,,,,0,21,21,21,,,,,,,,,,,,,,,,1,0.23608346200126107,,,,',001,2019_Feb_28_1357,body_behavioural,3.0.4,59.96777164080944,
9,"After a few minutes, the waitress behind the counter came up to them, “Alrighty, can I take you order?” ",3,3,,,0,9,9,9,,,,,0,22,22,22,,,,,,,,,,,,,,,,1,0.5531341879977845,,,,',001,2019_Feb_28_1357,body_behavioural,3.0.4,59.96777164080944,
9,"She first looked at Teresa who answered, “I’ll have a Western Omelette and a glass of milk.”",3,3,,,0,9,9,9,,,,,0,23,23,23,,,,,,,,,,,,,,,,1,0.5359622950018093,,,,',001,2019_Feb_28_1357,body_behavioural,3.0.4,59.96777164080944,
9,Then the waitress turned to James.,3,3,,,0,9,9,9,,,,,0,24,24,24,,,,,,,,,,,,,,,,1,0.3363473149984202,,,,',001,2019_Feb_28_1357,body_behavioural,3.0.4,59.96777164080944,
9,"James said, “I’ll have the chocolate chip pancakes and a coffee.” ",3,3,,,0,9,9,9,,,,,0,25,25,25,,,,,,,,,,,,,,,,1,0.5530144170006679,,,,',001,2019_Feb_28_1357,body_behavioural,3.0.4,59.96777164080944,
9,"“Alrighty, comin’ right up!”",3,3,,,0,9,9,9,,,,,0,26,26,26,,,,,,,,,,,,,,,,1,0.28659929700006614,,,,',001,2019_Feb_28_1357,body_behavioural,3.0.4,59.96777164080944,
9,"They picked up their conversation, and James ended up telling Teresa about a concert he was going to later. ",3,3,,,0,9,9,9,,,,,0,27,27,27,,,,,,,,,,,,,,,,1,0.28636146200005896,,,,',001,2019_Feb_28_1357,body_behavioural,3.0.4,59.96777164080944,
9,"He invited her to come along, promising her that the concert would be indoors and absolutely free of venomous insects.",3,3,,,0,9,9,9,,,,,0,28,28,28,,,,,,,,,,,,,,,,1,0.25276834499891265,,,,',001,2019_Feb_28_1357,body_behavioural,3.0.4,59.96777164080944,
9,"Teresa agreed, gave him her number, and they worked out that James would pick her up before the concert and drive them there.",3,3,,,0,9,9,9,,,,,0,29,29,29,,,,,,,,,,,,,,,,1,0.33674665500075207,,,,',001,2019_Feb_28_1357,body_behavioural,3.0.4,59.96777164080944,
9,"This was not what they had expected from their solitary lunch plans and were both excited, even though Teresa was doing a much better job of hiding it than James. ",3,3,,,0,9,9,9,,,,,0,30,30,30,,,,,,,,,,,,,,,,1,0.26731948500309954,,,,',001,2019_Feb_28_1357,body_behavioural,3.0.4,59.96777164080944,
9," After awhile,  the waitress brought out their food, and James took this opportunity to scoot closer to her on the log bench. ",4,4,,,0,9,9,9,,,,,0,31,31,31,,,,,,,,,,,,,,,,1,0.3864345920010237,,,,',001,2019_Feb_28_1357,body_behavioural,3.0.4,59.96777164080944,
9,"Teresa was happy to share the meal with James, despite their food tasting pretty bad. ",4,4,,,0,9,9,9,,,,,0,32,32,32,,,,,,,,,,,,,,,,1,0.28627415699884295,,,,',001,2019_Feb_28_1357,body_behavioural,3.0.4,59.96777164080944,
9,"Judging by how salty the pancakes tasted, they suspected that the chef had confused the salt and sugar.",4,4,,,0,9,9,9,,,,,0,33,33,33,,,,,,,,,,,,,,,,1,0.35320508199947653,,,,',001,2019_Feb_28_1357,body_behavioural,3.0.4,59.96777164080944,
9,"When the meal was over, they got up, hugged, and parted ways. ",4,4,,,0,9,9,9,,,,,0,34,34,34,,,,,,,,,,,,,,,,1,0.5196981179979048,,,,',001,2019_Feb_28_1357,body_behavioural,3.0.4,59.96777164080944,
9,"James said,“I have to run, got to get to work.",4,4,,,0,9,9,9,,,,,0,35,35,35,,,,,,,,,,,,,,,,1,0.43628904200159013,,,,',001,2019_Feb_28_1357,body_behavioural,3.0.4,59.96777164080944,
9,See you tonight!”,4,4,,,0,9,9,9,,,,,0,36,36,36,,,,,,,,,,,,,,,,1,0.4528201100001752,,,,',001,2019_Feb_28_1357,body_behavioural,3.0.4,59.96777164080944,
9,"Teresa smiled and walked towards the door without looking, and almost ran into the door again. ",4,4,,,0,9,9,9,,,,,0,37,37,37,,,,,,,,,,,,,,,,1,0.43649123499926645,,,,',001,2019_Feb_28_1357,body_behavioural,3.0.4,59.96777164080944,
9,They both laughed and smiled once more goodbye. ,4,4,,,0,9,9,9,,,,,0,38,38,38,,,,,,,,,,,,,,,,1,0.43602204200215056,,,,',001,2019_Feb_28_1357,body_behavioural,3.0.4,59.96777164080944,
9,,,,,,0,9,9,9,,,,,,,,,,,,,,,,,,,,,,,,,,,,,',001,2019_Feb_28_1357,body_behavioural,3.0.4,59.96777164080944,
10,,,,,,0,10,10,10,0,0,0,0,,,,,,,,,,,,,,space,0.7029652150013135,space,0.31745580500137294,space,0.4696326269986457,,,,,,',001,2019_Feb_28_1357,body_behavioural,3.0.4,59.96777164080944,
10,The grocery store was not the place Emmanuella and Liam wanted to be at the moment considering they had been fighting beforehand to the point where Emmanuella was thinking of breaking up with Liam.,1,1,,,0,10,10,10,,,,,0,0,0,0,,,,,,,,,,,,,,,,1,0.8198578500014264,,,,',001,2019_Feb_28_1357,body_behavioural,3.0.4,59.96777164080944,
10,"However, they had to go grocery shopping because they were hosting a dinner party for friends that evening and had no groceries. ",1,1,,,0,10,10,10,,,,,0,1,1,1,,,,,,,,,,,,,,,,1,0.4691620950034121,,,,',001,2019_Feb_28_1357,body_behavioural,3.0.4,59.96777164080944,
10,The grocery store was dimly lit and had dark wood paneling for all the shelves.,1,1,,,0,10,10,10,,,,,0,2,2,2,,,,,,,,,,,,,,,,1,0.569104801001231,,,,',001,2019_Feb_28_1357,body_behavioural,3.0.4,59.96777164080944,
10,"The store specialized in organic produce and products catering to desires for high-end products, such as imported cheeses and sauces. ",1,1,,,0,10,10,10,,,,,0,3,3,3,,,,,,,,,,,,,,,,1,0.3695919569981925,,,,',001,2019_Feb_28_1357,body_behavioural,3.0.4,59.96777164080944,
10,"Emmanuella felt angry as she headed immediately for the pasta section, and Liam trailed behind her. ",2,1,,,0,10,10,10,,,,,0,4,4,4,,,,,,,,,,,,,,,,9,0.9527359249987057,,,,',001,2019_Feb_28_1357,body_behavioural,3.0.4,59.96777164080944,
10,Emmanuella selected a few boxes of linguine.,2,1,,,0,10,10,10,,,,,0,5,5,5,,,,,,,,,,,,,,,,9,0.6862716550022014,,,,',001,2019_Feb_28_1357,body_behavioural,3.0.4,59.96777164080944,
10,"“I guess we are having pasta tonight,” Liam said.",2,1,,,0,10,10,10,,,,,0,6,6,6,,,,,,,,,,,,,,,,9,0.4195727350015659,,,,',001,2019_Feb_28_1357,body_behavioural,3.0.4,59.96777164080944,
10,"Emmanuella looked back at him and said, “Well if you were going to actually help cook, I would be fine with something else.”",2,1,,,0,10,10,10,,,,,0,7,7,7,,,,,,,,,,,,,,,,9,0.3358443319993967,,,,',001,2019_Feb_28_1357,body_behavioural,3.0.4,59.96777164080944,
10,"Liam sighed, and finally said, “You don’t want me to help.",2,1,,,0,10,10,10,,,,,0,8,8,8,,,,,,,,,,,,,,,,9,0.3530127750018437,,,,',001,2019_Feb_28_1357,body_behavioural,3.0.4,59.96777164080944,
10,"I try to, but it seems like I always get in the way!” ",2,1,,,0,10,10,10,,,,,0,9,9,9,,,,,,,,,,,,,,,,9,0.3362737970019225,,,,',001,2019_Feb_28_1357,body_behavioural,3.0.4,59.96777164080944,
10,"Emmanuella angrily threw the pasta into the cart, losing her temper.",2,1,,,0,10,10,10,,,,,0,10,10,10,,,,,,,,,,,,,,,,9,0.25314799999978277,,,,',001,2019_Feb_28_1357,body_behavioural,3.0.4,59.96777164080944,
10," “Liam, you don’t even try!",2,1,,,0,10,10,10,,,,,0,11,11,11,,,,,,,,,,,,,,,,9,0.2534228719996463,,,,',001,2019_Feb_28_1357,body_behavioural,3.0.4,59.96777164080944,
10,You know what?,2,1,,,0,10,10,10,,,,,0,12,12,12,,,,,,,,,,,,,,,,9,0.36950662799790734,,,,',001,2019_Feb_28_1357,body_behavioural,3.0.4,59.96777164080944,
10,I don’t think I can do this anymore. ,2,2,,,0,10,10,10,,,,,0,13,13,13,,,,,,,,,,,,,,,,9,0.22028685999976005,,,,',001,2019_Feb_28_1357,body_behavioural,3.0.4,59.96777164080944,
10,"I was going to wait until after this unfortunately-timed dinner party tonight to talk about this, but I might as well say it now: I don’t want to be in a relationship with you anymore.",2,2,,,0,10,10,10,,,,,0,14,14,14,,,,,,,,,,,,,,,,9,0.40048860699971556,,,,',001,2019_Feb_28_1357,body_behavioural,3.0.4,59.96777164080944,
10," I’m tired of the constant fighting, and I feel like when we try to do anything fun anymore it ends up unpleasant for the stupidest reasons, and I am just past  trying to work things out.”",2,2,,,0,10,10,10,,,,,0,15,15,15,,,,,,,,,,,,,,,,9,0.3368086449991097,,,,',001,2019_Feb_28_1357,body_behavioural,3.0.4,59.96777164080944,
10,"Liam refused to look at her as she picked out sauces for the pasta, and then she threw up her hands, saying, “You know what, if this party is still happening we are going to just eat pasta.”",2,2,,,0,10,10,10,,,,,0,16,16,16,,,,,,,,,,,,,,,,9,0.35057860300003085,,,,',001,2019_Feb_28_1357,body_behavioural,3.0.4,59.96777164080944,
10,They headed to the checkout area where there was only one station open but it was not crowded at all.,3,2,,,0,10,10,10,,,,,0,17,17,17,,,,,,,,,,,,,,,,9,0.26957770499939215,,,,',001,2019_Feb_28_1357,body_behavioural,3.0.4,59.96777164080944,
10,Emmanuella sighed and got in line while Liam pretended to be interested in the magazine racks as he thought. ,3,2,,,0,10,10,10,,,,,0,18,18,18,,,,,,,,,,,,,,,,9,0.319624046998797,,,,',001,2019_Feb_28_1357,body_behavioural,3.0.4,59.96777164080944,
10,"Finally he turned to her and sighed, “Yes, I was thinking the same thing - I think we could definitely be happier with other people.” ",3,3,,,0,10,10,10,,,,,0,19,19,19,,,,,,,,,,,,,,,,9,0.2527800499992736,,,,',001,2019_Feb_28_1357,body_behavioural,3.0.4,59.96777164080944,
10,"As if she hadn't heard him, Emmanuella looked at their cart and said, “I'm not sure this will be enough, could you grab another box of pasta?”",3,3,,,0,10,10,10,,,,,0,20,20,20,,,,,,,,,,,,,,,,9,0.26939911500085145,,,,',001,2019_Feb_28_1357,body_behavioural,3.0.4,59.96777164080944,
10, Liam scoffed and walked off to quickly get it.,3,3,,,0,10,10,10,,,,,0,21,21,21,,,,,,,,,,,,,,,,9,0.30278195200298796,,,,',001,2019_Feb_28_1357,body_behavioural,3.0.4,59.96777164080944,
10,"As Emmanuella waited in line, she took a moment to compose herself, deciding that there was no reason to continue making a scene in the store. ",3,3,,,0,10,10,10,,,,,0,22,22,22,,,,,,,,,,,,,,,,9,0.25269871199998306,,,,',001,2019_Feb_28_1357,body_behavioural,3.0.4,59.96777164080944,
10," Right when Liam came back with the pasta, the cashier started scanning their groceries.",4,3,,,0,10,10,10,,,,,0,23,23,23,,,,,,,,,,,,,,,,9,0.285781701997621,,,,',001,2019_Feb_28_1357,body_behavioural,3.0.4,59.96777164080944,
10,"The cost came to $30, and Emmanuella paid with her credit card.",4,3,,,0,10,10,10,,,,,0,24,24,24,,,,,,,,,,,,,,,,9,0.2532318719968316,,,,',001,2019_Feb_28_1357,body_behavioural,3.0.4,59.96777164080944,
10,"She asked Liam politely to take the bags, and he obliged, following her to toward the exit. ",4,3,,,0,10,10,10,,,,,0,25,25,25,,,,,,,,,,,,,,,,9,0.26941411799998605,,,,',001,2019_Feb_28_1357,body_behavioural,3.0.4,59.96777164080944,
10,"“Liam, I think we are making the right decision.",4,4,,,0,10,10,10,,,,,0,26,26,26,,,,,,,,,,,,,,,,9,0.28604535199701786,,,,',001,2019_Feb_28_1357,body_behavioural,3.0.4,59.96777164080944,
10,This is good.” ,4,4,,,0,10,10,10,,,,,0,27,27,27,,,,,,,,,,,,,,,,9,0.4195877969978028,,,,',001,2019_Feb_28_1357,body_behavioural,3.0.4,59.96777164080944,
10,"“I agree,” he said, visibly relieved at the thought that they had gotten through the last fight they would ever need to have.",4,4,,,0,10,10,10,,,,,0,28,28,28,,,,,,,,,,,,,,,,9,0.3840246269974159,,,,',001,2019_Feb_28_1357,body_behavioural,3.0.4,59.96777164080944,
10,"“I think we can still host this dinner tonight, as long as you're still on board,” Emmanuella said.",4,4,,,0,10,10,10,,,,,0,29,29,29,,,,,,,,,,,,,,,,9,0.3007699980007601,,,,',001,2019_Feb_28_1357,body_behavioural,3.0.4,59.96777164080944,
10,"Liam nodded, “Yes, let’s just not tell anyone yet.” ",4,4,,,0,10,10,10,,,,,0,30,30,30,,,,,,,,,,,,,,,,9,0.26959840299969073,,,,',001,2019_Feb_28_1357,body_behavioural,3.0.4,59.96777164080944,
10,"Emmanuella laughed, “Whoever leaks it loses their rights to the cat.”",4,4,,,0,10,10,10,,,,,0,31,31,31,,,,,,,,,,,,,,,,9,0.36959683999884874,,,,',001,2019_Feb_28_1357,body_behavioural,3.0.4,59.96777164080944,
10,"Liam rolled his eyes and managed a weak chuckle, knowing the cat would be a whole other issue to sort out later.
",4,4,,,0,10,10,10,,,,,0,32,32,32,,,,,,,,,,,,,,,,9,0.26967362000141293,,,,',001,2019_Feb_28_1357,body_behavioural,3.0.4,59.96777164080944,
10,,,,,,0,10,10,10,,,,,,,,,,,,,,,,,,,,,,,,,,,,,',001,2019_Feb_28_1357,body_behavioural,3.0.4,59.96777164080944,
11,,,,,,0,11,11,11,0,0,0,0,,,,,,,,,,,,,,space,0.5366599349981698,space,0.285551241999201,space,0.43651765799950226,,,,,,',001,2019_Feb_28_1357,body_behavioural,3.0.4,59.96777164080944,
11,"Alex was a distracted, sweaty mess as he walked into the grocery store with Chloe; he was hoping that she wouldn't suspect that he was about to propose.",1,1,,,0,11,11,11,,,,,0,0,0,0,,,,,,,,,,,,,,,,9,1.2033111929995357,,,,',001,2019_Feb_28_1357,body_behavioural,3.0.4,59.96777164080944,
11,"The grocery store was brightly lit; this was one of the nicest grocery stores in Atlanta, and sunlight poured in through the glass walls.",1,1,,,0,11,11,11,,,,,0,1,1,1,,,,,,,,,,,,,,,,9,0.36969106499964255,,,,',001,2019_Feb_28_1357,body_behavioural,3.0.4,59.96777164080944,
11,"The atmosphere was also bright because tomorrow was Thanksgiving, and most shoppers had carts piled high with turkey, stuffing, and pies.",1,1,,,0,11,11,11,,,,,0,2,2,2,,,,,,,,,,,,,,,,9,0.31734790300106397,,,,',001,2019_Feb_28_1357,body_behavioural,3.0.4,59.96777164080944,
11,Alex wanted to propose to Chloe here because he knew she would not suspect it at all. ,1,1,,,0,11,11,11,,,,,0,3,3,3,,,,,,,,,,,,,,,,9,0.23641370199766243,,,,',001,2019_Feb_28_1357,body_behavioural,3.0.4,59.96777164080944,
11,"Chloe loved surprises, and Alex loved the look on Chloe’s face when she was surprised. ",1,1,,,0,11,11,11,,,,,0,4,4,4,,,,,,,,,,,,,,,,9,0.20257580000179587,,,,',001,2019_Feb_28_1357,body_behavioural,3.0.4,59.96777164080944,
11,"“Alex, we need to get some cranberry sauce, so let’s go there first.” ",2,1,,,0,11,11,11,,,,,0,5,5,5,,,,,,,,,,,,,,,,9,0.2195505019990378,,,,',001,2019_Feb_28_1357,body_behavioural,3.0.4,59.96777164080944,
11,She led the way to the section of the store that held the canned foods. ,2,1,,,0,11,11,11,,,,,0,6,6,6,,,,,,,,,,,,,,,,9,0.23619170000165468,,,,',001,2019_Feb_28_1357,body_behavioural,3.0.4,59.96777164080944,
