count,storyText,locationEvent,socialEvent,locationEventSize,socialEventSize,trials.thisRepN,trials.thisTrialN,trials.thisN,trials.thisIndex,trials_7.thisRepN,trials_7.thisTrialN,trials_7.thisN,trials_7.thisIndex,trials_2.thisRepN,trials_2.thisTrialN,trials_2.thisN,trials_2.thisIndex,order of stories,order of perspectives,participant 2 order - stories,participant 2 order  - schemas types,key_resp_8.keys,key_resp_8.rt,key_resp_5.keys,key_resp_5.rt,key_resp_7.keys,key_resp_7.rt,story_presses.keys,story_presses.rt,participant,session,date,expName,frameRate,
0,,,,,,0,0,0,0,0,0,0,0,,,,,[14 21 31 32 13 22 44 43 33 24 41 34 12 11 23 42],"['Location' 'Location' 'Social' 'Location' 'Social' 'Social' 'Social'
 'Location' 'Location' 'Location' 'Social' 'Social' 'Social' 'Location'
 'Social' 'Location']",[33 24 41 34 12 11 23 42],"['Location' 'Location' 'Social' 'Social' 'Social' 'Location' 'Social'
 'Location']",space,0.8190738819994294,space,2.201821361000839,space,0.5538193749998754,,,',001,2019_Feb_07_1354,body_behavioural,59.98213588031071,
0,"Maria walked into lecture beside Henry, and she was mentally rehearsing what she should say to break up with him.",1,1.0,,,0,0,0,0,,,,,0,0,0,0,,,,,,,,,,,1,2.401447377000295,',001,2019_Feb_07_1354,body_behavioural,59.98213588031071,
0,"She had been putting it off with a growing sense of dread, and now this lecture was the last chance before she had to leave campus. ",1,1.0,,,0,0,0,0,,,,,0,1,1,1,,,,,,,,,,,9,0.05224308299875702,',001,2019_Feb_07_1354,body_behavioural,59.98213588031071,
0,"The lecture hall was large, with a stage for the lecturer in the front of the room, and tiered seats that stretched up in 15 stacked rows. ",1,1.0,,,0,0,0,0,,,,,0,2,2,2,,,,,,,,,,,1,0.06891914399966481,',001,2019_Feb_07_1354,body_behavioural,59.98213588031071,
0,"The clock struck 3 pm, and Maria and Henry slid into neighboring seats near the back of the room.",1,1.0,,,0,0,0,0,,,,,0,3,3,3,,,,,,,,,,,9,0.08515184800126008,',001,2019_Feb_07_1354,body_behavioural,59.98213588031071,
0,"“Good afternoon, everybody," said the professor, fiddling to connect his laptop with the projector.",2,1.0,,,0,0,0,0,,,,,0,4,4,4,,,,,,,,,,,1,0.08530491599958623,',001,2019_Feb_07_1354,body_behavioural,59.98213588031071,
0,"Welcome to week 4 of Intro to Ancient Philosophy. ,2,1.0,,,0,0,0,0,,,,,0,5,5,5,,,,,,,,,,,9,0.05104491199926997,',001,2019_Feb_07_1354,body_behavioural,59.98213588031071,
0,Today we are going to continue our lecture on Aristotelian Philosophy.”,2,1.0,,,0,0,0,0,,,,,0,6,6,6,,,,,,,,,,,1,0.0858627739999065,',001,2019_Feb_07_1354,body_behavioural,59.98213588031071,
0,Everyone in class pulled out their notebooks and settled in their seats as the slides appeared on the large front screens.,2,1.0,,,0,0,0,0,,,,,0,7,7,7,,,,,,,,,,,9,0.01814226900023641,',001,2019_Feb_07_1354,body_behavioural,59.98213588031071,
0,"“Henry,” Maria whispered.",2,1.0,,,0,0,0,0,,,,,0,8,8,8,,,,,,,,,,,1,0.15273519800030044,',001,2019_Feb_07_1354,body_behavioural,59.98213588031071,
0,"“Hmm?” he replied, distracted.",2,1.0,,,0,0,0,0,,,,,0,9,9,9,,,,,,,,,,,9,0.1014967519986385,',001,2019_Feb_07_1354,body_behavioural,59.98213588031071,
0," “Henry, I need to tell you something really important, and I don’t know when else I’ll have a chance to do it,” she said.",2,1.0,,,0,0,0,0,,,,,0,10,10,10,,,,,,,,,,,1,0.1013525540001865,',001,2019_Feb_07_1354,body_behavioural,59.98213588031071,
0,"“Okay, what's up?”, he said, tilting his head close to her. ",2,1.0,,,0,0,0,0,,,,,0,11,11,11,,,,,,,,,,,9,0.03615437299959012,',001,2019_Feb_07_1354,body_behavioural,59.98213588031071,
0," “Henry, I don’t think I can do long distance.",2,2.0,,,0,0,0,0,,,,,0,12,12,12,,,,,,,,,,,1,0.10086319199945137,',001,2019_Feb_07_1354,body_behavioural,59.98213588031071,
0,"I think what we have here is great, but I think it will be really hard when we are so far apart for such an extended period.",2,2.0,,,0,0,0,0,,,,,0,13,13,13,,,,,,,,,,,9,0.0017546179988130461,',001,2019_Feb_07_1354,body_behavioural,59.98213588031071,
0,"I’m sorry I’m telling you now in lecture, but I'm out of time, and it’s taken me awhile to come to this decision.",2,2.0,,,0,0,0,0,,,,,0,14,14,14,,,,,,,,,,,1,0.10170242500134918,',001,2019_Feb_07_1354,body_behavioural,59.98213588031071,
0,"I really think this is best, and who knows what will happen when I get back from my study abroad.” ",2,2.0,,,0,0,0,0,,,,,0,15,15,15,,,,,,,,,,,9,0.03472636500009685,',001,2019_Feb_07_1354,body_behavioural,59.98213588031071,
0,"While Henry tried to think of what to say, he and Maria stared unlistening at the professor as he started the lecture, "First we will talk about Aristotle’s work, The Categories, which is about the kinds, or categories, of things that there are.",3,2.0,,,0,0,0,0,,,,,0,16,16,16,,,,,,,,,,,1,0.16774424200048088,',001,2019_Feb_07_1354,body_behavioural,59.98213588031071,
0,"In fact, our term category comes from this Aristotelian context.” ",3,2.0,,,0,0,0,0,,,,,0,17,17,17,,,,,,,,,,,1,0.09021762900010799,',001,2019_Feb_07_1354,body_behavioural,59.98213588031071,
0,"Henry felt horrible, like the wind had just been knocked out of him.",3,2.0,,,0,0,0,0,,,,,0,18,18,18,,,,,,,,,,,9,0.05201281999870844,',001,2019_Feb_07_1354,body_behavioural,59.98213588031071,
0,"A few tears started to fall down his cheeks as he whispered back, “Maria, I think we can make it work.",3,3.0,,,0,0,0,0,,,,,0,19,19,19,,,,,,,,,,,1,0.11815856899920618,',001,2019_Feb_07_1354,body_behavioural,59.98213588031071,
0,I’ll come visit you.,3,3.0,,,0,0,0,0,,,,,0,20,20,20,,,,,,,,,,,9,0.10090319299888506,',001,2019_Feb_07_1354,body_behavioural,59.98213588031071,
0,It will be fine.,3,3.0,,,0,0,0,0,,,,,0,21,21,21,,,,,,,,,,,1,0.13294638299885264,',001,2019_Feb_07_1354,body_behavioural,59.98213588031071,
0,I don’t want to break up.”,3,3.0,,,0,0,0,0,,,,,0,22,22,22,,,,,,,,,,,9,0.11936896300176159,',001,2019_Feb_07_1354,body_behavioural,59.98213588031071,
0,"Maria felt so guilty that she nearly gave in, but forced herself to hold her ground, knowing that this would make things much easier for both of them in the future.",3,3.0,,,0,0,0,0,,,,,0,23,23,23,,,,,,,,,,,1,0.06842431900076917,',001,2019_Feb_07_1354,body_behavioural,59.98213588031071,
0,"She gave his hand a squeeze but shook her head sadly, before turning back to her laptop and half-heartedly taking notes on the lecture which they sat through in painful silence.",3,3.0,,,0,0,0,0,,,,,0,24,24,24,,,,,,,,,,,9,0.06821200299964403,',001,2019_Feb_07_1354,body_behavioural,59.98213588031071,
0,"Finally, the professor was wrapping up, “This is what Aristotle means when he says that an animal’s or plant’s form rather than its matter is its nature. ",4,3.0,,,0,0,0,0,,,,,0,25,25,25,,,,,,,,,,,1,0.08424583900159632,',001,2019_Feb_07_1354,body_behavioural,59.98213588031071,
0,"Alright class, that’s all for today. ",4,3.0,,,0,0,0,0,,,,,0,26,26,26,,,,,,,,,,,9,0.10137276299974474,',001,2019_Feb_07_1354,body_behavioural,59.98213588031071,
0,"Remember the final exam is coming up next week on Tuesday on the Pre-Socratics, Plato, and Aristotle, so feel free to come by office hours to discuss if you have the inspiration.",4,3.0,,,0,0,0,0,,,,,0,27,27,27,,,,,,,,,,,1,0.05171409899958235,',001,2019_Feb_07_1354,body_behavioural,59.98213588031071,
0,"And if anyone is doing the 20 page paper in lieu of the final, that’s due next Tuesday as well.",4,3.0,,,0,0,0,0,,,,,0,28,28,28,,,,,,,,,,,9,0.08363841899881663,',001,2019_Feb_07_1354,body_behavioural,59.98213588031071,
0,"Have a good day, folks.” ",4,3.0,,,0,0,0,0,,,,,0,29,29,29,,,,,,,,,,,1,0.06754538800123555,',001,2019_Feb_07_1354,body_behavioural,59.98213588031071,
0,"Maria and Henry packed up hurriedly, and slipped quickly out of the class before the rest of the crowd. ",4,3.0,,,0,0,0,0,,,,,0,30,30,30,,,,,,,,,,,9,0.1021529030003876,',001,2019_Feb_07_1354,body_behavioural,59.98213588031071,
0,"They hugged outside, and both of them were crying. ",4,4.0,,,0,0,0,0,,,,,0,31,31,31,,,,,,,,,,,1,0.017849636999017093,',001,2019_Feb_07_1354,body_behavioural,59.98213588031071,
0,"“Maria, I don’t want you to leave.",4,4.0,,,0,0,0,0,,,,,0,32,32,32,,,,,,,,,,,9,0.16775845700067293,',001,2019_Feb_07_1354,body_behavioural,59.98213588031071,
0,I don’t want this to end. ,None,None,,,0,0,0,0,,,,,0,33,33,33,,,,,,,,,,,1,0.08440173900089576,',001,2019_Feb_07_1354,body_behavioural,59.98213588031071,
0,"But if this is what you think is best, I can’t make it otherwise.” ",pandro,4.0,,,0,0,0,0,,,,,0,34,34,34,,,,,,,,,,,9,0.13335542599998007,',001,2019_Feb_07_1354,body_behavioural,59.98213588031071,
0,"They hugged one last time, and Maria ran off to get her things from her dorm.",4,4.0,,,0,0,0,0,,,,,0,35,35,35,,,,,,,,,,,1,0.0688452669983235,',001,2019_Feb_07_1354,body_behavioural,59.98213588031071,
0,Henry sadly watched her go. ,4,4.0,,,0,0,0,0,,,,,0,36,36,36,,,,,,,,,,,9,0.06851489700056845,',001,2019_Feb_07_1354,body_behavioural,59.98213588031071,
0,,,,,,0,0,0,0,,,,,,,,,,,,,,,,,,,,,',001,2019_Feb_07_1354,body_behavioural,59.98213588031071,
1,,,,,,0,1,1,1,0,0,0,0,,,,,,,,,space,1.7525295670002379,space,0.6507559580004454,space,0.7516595600009168,,,',001,2019_Feb_07_1354,body_behavioural,59.98213588031071,
1,"Alvira and Senna walked into the restaurant hand in sweaty hand with quite different expectations: Senna was going to propose tonight, and Alvira had no idea.",1,1,None,None,0,1,1,1,,,,,0,0,0,0,,,,,,,,,,,1,2.1356413060002524,',001,2019_Feb_07_1354,body_behavioural,59.98213588031071,
1,"He took a deep breath, trying to calm his nerves as worst case scenarios ran through his mind. ",1,1,None,None,0,1,1,1,,,,,0,1,1,1,,,,,,,,,,,9,0.0669356099988363,',001,2019_Feb_07_1354,body_behavioural,59.98213588031071,
1,The entrance of the restaurant was dazzling; chandeliers spread their warm light onto the delicate place settings of all the tables filled with guests dressed to the nines. ,1,1,None,None,0,1,1,1,,,,,0,2,2,2,,,,,,,,,,,1,0.05094332999942708,',001,2019_Feb_07_1354,body_behavioural,59.98213588031071,
1,"Through the floor-to-ceiling arched windows of the back wall, they saw the sun setting onto the Pacific ocean.",1,1,None,None,0,1,1,1,,,,,0,3,3,3,,,,,,,,,,,1,0.2012519340005383,',001,2019_Feb_07_1354,body_behavioural,59.98213588031071,
1,"This was surely one of the best restaurants on the west coast, situated right on the beach.",1,1,None,None,0,1,1,1,,,,,0,4,4,4,,,,,,,,,,,1,0.1850305220013979,',001,2019_Feb_07_1354,body_behavioural,59.98213588031071,
1,"Senna gave his name to the host, who quickly located their reservation with an almost comically wide customer-service smile.",1,1,7.0,None,0,1,1,1,,,,,0,5,5,5,,,,,,,,,,,9,0.001705145999949309,',001,2019_Feb_07_1354,body_behavioural,59.98213588031071,
1,He led them to a table right by the window.,2,1,None,None,0,1,1,1,,,,,0,6,6,6,,,,,,,,,,,1,0.11692815599963069,',001,2019_Feb_07_1354,body_behavioural,59.98213588031071,
1,"He brought out some very small menus, with a short list of the celebrity chef's carefully selected daily dishes written in a loopy, cursive font unadorned by any mention of prices.",2,1,None,9.0,0,1,1,1,,,,,0,7,7,7,,,,,,,,,,,1,0.10070334699958039,',001,2019_Feb_07_1354,body_behavioural,59.98213588031071,
1,Senna slipped off to the bathroom to check to make sure the ring was in order.,2,2,None,None,0,1,1,1,,,,,0,8,8,8,,,,,,,,,,,9,0.05101953899975342,',001,2019_Feb_07_1354,body_behavioural,59.98213588031071,
1,"The ring contained a canary diamond that had been in his grandmother’s wedding ring, and it was a brilliant stone that was accentuated by the small white diamonds encircling it.",2,2,None,None,0,1,1,1,,,,,0,9,9,9,,,,,,,,,,,1,0.05166621099851909,',001,2019_Feb_07_1354,body_behavioural,59.98213588031071,
1,"He walked back to the table after handing the small, velvet box to a waiter at the front podium.",2,2,6.0,None,0,1,1,1,,,,,0,10,10,10,,,,,,,,,,,9,0.00176212999940617,',001,2019_Feb_07_1354,body_behavioural,59.98213588031071,
1,He came back just as their waiter was approaching the table to get their order.,3,2,None,None,0,1,1,1,,,,,0,11,11,11,,,,,,,,,,,1,0.10753085299984377,',001,2019_Feb_07_1354,body_behavioural,59.98213588031071,
1,"Senna ordered the oysters with garlic-parmesan sauce, and Alvira ordered the sauteed sea scallops with caramelized apples. ",3,2,None,None,0,1,1,1,,,,,0,12,12,12,,,,,,,,,,,1,0.1659878819991718,',001,2019_Feb_07_1354,body_behavioural,59.98213588031071,
1,"“Excellent choices,” the waiter said with a subsequent brisk spin away from the table.",3,2,None,None,0,1,1,1,,,,,0,13,13,13,,,,,,,,,,,1,0.1855013059994235,',001,2019_Feb_07_1354,body_behavioural,59.98213588031071,
1,"“What a beautiful place, Senna. ",3,2,None,None,0,1,1,1,,,,,0,14,14,14,,,,,,,,,,,9,0.01806498800033296,',001,2019_Feb_07_1354,body_behavioural,59.98213588031071,
1,"Really this is too much just to celebrate the first tomatoes I grew in the garden, like, this is absurd,” Alvira said.",3,2,None,None,0,1,1,1,,,,,0,15,15,15,,,,,,,,,,,1,0.11675672999990638,',001,2019_Feb_07_1354,body_behavioural,59.98213588031071,
1,"Senna laughed and said, “No, those were really the best tomatoes I’ve ever had. ",3,2,None,None,0,1,1,1,,,,,0,16,16,16,,,,,,,,,,,9,0.02378626199970313,',001,2019_Feb_07_1354,body_behavioural,59.98213588031071,
1,We had to celebrate.” ,3,2,None,None,0,1,1,1,,,,,0,17,17,17,,,,,,,,,,,1,0.11829527800000506,',001,2019_Feb_07_1354,body_behavioural,59.98213588031071,
1,"They talked and laughed as the sun sank below the horizon, and the glow from the ocean was replaced by the glow from the chandeliers.",3,2,8.0,None,0,1,1,1,,,,,0,18,18,18,,,,,,,,,,,9,0.018623332000061055,',001,2019_Feb_07_1354,body_behavioural,59.98213588031071,
1,"The waiter eventually returned with their meals, and everything was even more delicious than they had expected, especially the oysters, which Senna said tasted like the ocean. ",4,2,None,None,0,1,1,1,,,,,0,19,19,19,,,,,,,,,,,1,0.051537903998905676,',001,2019_Feb_07_1354,body_behavioural,59.98213588031071,
1,Then he paused and looked at Alvira meaningfully. ,4,2,None,None,0,1,1,1,,,,,0,20,20,20,,,,,,,,,,,9,0.05180282699984673,',001,2019_Feb_07_1354,body_behavioural,59.98213588031071,
1, “It’s really been the best three years of my life with you.,4,2,None,None,0,1,1,1,,,,,0,21,21,21,,,,,,,,,,,1,0.08848861800106533,',001,2019_Feb_07_1354,body_behavioural,59.98213588031071,
1,"I couldn’t imagine it any other way, and I don’t want to.",4,2,None,None,0,1,1,1,,,,,0,22,22,22,,,,,,,,,,,9,0.018634169000506517,',001,2019_Feb_07_1354,body_behavioural,59.98213588031071,
1,"I really want to spend the rest of my years eating garden tomatoes, whatever it is, with you.” ",4,2,None,None,0,1,1,1,,,,,0,23,23,23,,,,,,,,,,,1,0.10033330300029775,',001,2019_Feb_07_1354,body_behavioural,59.98213588031071,
1,"Alvira smiled, “I want the same with you too, Senna.” ",4,2,None,17.0,0,1,1,1,,,,,0,24,24,24,,,,,,,,,,,1,0.15224110500093957,',001,2019_Feb_07_1354,body_behavioural,59.98213588031071,
1,"Senna nodded at the waiter who had been watching attentively, and he quickly strode over to place a small, elegant cake topped with the ring in front of Alvira. ",4,3,None,None,0,1,1,1,,,,,0,25,25,25,,,,,,,,,,,1,0.16726225499951397,',001,2019_Feb_07_1354,body_behavioural,59.98213588031071,
1,Her eyes widened in shock when she realized what she was looking at.,4,3,None,None,0,1,1,1,,,,,0,26,26,26,,,,,,,,,,,9,0.08462046599925088,',001,2019_Feb_07_1354,body_behavioural,59.98213588031071,
1,"“Alvira, will you marry me? ",4,3,None,None,0,1,1,1,,,,,0,27,27,27,,,,,,,,,,,1,0.10168091700143123,',001,2019_Feb_07_1354,body_behavioural,59.98213588031071,
1,"I love you, and I will never stop loving you.” ",4,3,None,None,0,1,1,1,,,,,0,28,28,28,,,,,,,,,,,9,0.035571993999838014,',001,2019_Feb_07_1354,body_behavioural,59.98213588031071,
1,Alvira started to cry.,4,3,None,None,0,1,1,1,,,,,0,29,29,29,,,,,,,,,,,1,0.1334968570008641,',001,2019_Feb_07_1354,body_behavioural,59.98213588031071,
1,"The room became silent, and everyone turned to their table. ",4,3,None,5.0,0,1,1,1,,,,,0,30,30,30,,,,,,,,,,,9,0.018478818999938085,',001,2019_Feb_07_1354,body_behavioural,59.98213588031071,
1,"“Yes, of course, yes!” she shouted as she wiped away tears.",4,4,None,None,0,1,1,1,,,,,0,31,31,31,,,,,,,,,,,1,0.10070711999833293,',001,2019_Feb_07_1354,body_behavioural,59.98213588031071,
1,The neighboring tables exploded in applause.,4,4,None,None,0,1,1,1,,,,,0,32,32,32,,,,,,,,,,,9,0.01922283800013247,',001,2019_Feb_07_1354,body_behavioural,59.98213588031071,
1,The waiter returned with a bottle of champagne and popped it. ,4,4,None,None,0,1,1,1,,,,,0,33,33,33,,,,,,,,,,,1,0.11745364599846653,',001,2019_Feb_07_1354,body_behavioural,59.98213588031071,
1,"All of this went unnoticed by Senna and Alvira as they looked into each others’ eyes, and he slipped the ring onto her finger. ",4,4,None,None,0,1,1,1,,,,,0,34,34,34,,,,,,,,,,,1,0.18435693100036588,',001,2019_Feb_07_1354,body_behavioural,59.98213588031071,
1,"She held up her hand to admire it, and her glittering tears of joy matched the shine from her ring.   
",4,4,17.0,5.0,0,1,1,1,,,,,0,35,35,35,,,,,,,,,,,1,0.18493123999905947,',001,2019_Feb_07_1354,body_behavioural,59.98213588031071,
1,,,,,,0,1,1,1,,,,,,,,,,,,,,,,,,,,,',001,2019_Feb_07_1354,body_behavioural,59.98213588031071,
2,,,,,,0,2,2,2,0,0,0,0,,,,,,,,,space,0.9009359209994727,space,0.8516485670006659,space,3.1344783099993947,,,',001,2019_Feb_07_1354,body_behavioural,59.98213588031071,
2,Mr. Shelton and Mr. Gordon shook hands inside the foyer of the restaurant: lunch today was about big business. ,1,1,,,0,2,2,2,,,,,0,0,0,0,,,,,,,,,,,9,2.219378518000667,',001,2019_Feb_07_1354,body_behavioural,59.98213588031071,
2,Mr. Shelton and Mr. Gordon both were CEOs of airplane manufacturing companies.,1,1,,,0,2,2,2,,,,,0,1,1,1,,,,,,,,,,,1,0.12163299300118524,',001,2019_Feb_07_1354,body_behavioural,59.98213588031071,
2,"Mr. Shelton was in charge of a larger, well-established company and had been in the aviation business for decades, whereas Mr. Gordon led a smaller but technologically-advanced company that was projected to disrupt the airplane manufacturing market. ",1,1,,,0,2,2,2,,,,,0,2,2,2,,,,,,,,,,,1,0.08366594000108307,',001,2019_Feb_07_1354,body_behavioural,59.98213588031071,
2,"The restaurant they chose to meet at was old and fancy with high ceilings, dark wood paneling, and crystal chandeliers.",1,1,,,0,2,2,2,,,,,0,3,3,3,,,,,,,,,,,9,0.018598482000015792,',001,2019_Feb_07_1354,body_behavioural,59.98213588031071,
2,"The waitress led them to their table in the back, and they settled into a private table in the corner by the fireplace. ",2,1,,,0,2,2,2,,,,,0,4,4,4,,,,,,,,,,,1,0.08397440599947004,',001,2019_Feb_07_1354,body_behavioural,59.98213588031071,
2,The waitress brought out the menus and they broke the ice with some small talk.,2,1,,,0,2,2,2,,,,,0,5,5,5,,,,,,,,,,,9,0.03755373199965106,',001,2019_Feb_07_1354,body_behavioural,59.98213588031071,
2,"Mr. Gordon took out a picture of his daughter and talked about her recent engagement, and Mr. Gordon boasted about his purchase of a Tesla. ",2,1,,,0,2,2,2,,,,,0,6,6,6,,,,,,,,,,,1,0.06697861999964516,',001,2019_Feb_07_1354,body_behavioural,59.98213588031071,
2,"They looked at the menus as well, which were full of Italian classics like Carbonara and Tiramisu, and in the back section of the menu was a lengthy drink selection.",2,1,,,0,2,2,2,,,,,0,7,7,7,,,,,,,,,,,1,0.13448370699916268,',001,2019_Feb_07_1354,body_behavioural,59.98213588031071,
2,"After awhile, Mr. Shelton brought the conversation around to business.",2,2,,,0,2,2,2,,,,,0,8,8,8,,,,,,,,,,,9,0.018206851000286406,',001,2019_Feb_07_1354,body_behavioural,59.98213588031071,
2,"“Mr. Gordon, we really admire what you’re doing at your company.",2,2,,,0,2,2,2,,,,,0,9,9,9,,,,,,,,,,,1,0.1515285440000298,',001,2019_Feb_07_1354,body_behavioural,59.98213588031071,
2,We think it’s genius; we want to support your vision and make this tiny company of yours internationally known.,2,2,,,0,2,2,2,,,,,0,10,10,10,,,,,,,,,,,9,0.0016571159994782647,',001,2019_Feb_07_1354,body_behavioural,59.98213588031071,
2,"But honestly, your company doesn’t have the resources to reach international markets right now, maybe in a few years you could, but by that time, other companies may have already filled your niche.",2,2,,,0,2,2,2,,,,,0,11,11,11,,,,,,,,,,,1,0.0837514419999934,',001,2019_Feb_07_1354,body_behavioural,59.98213588031071,
2,I think we should join forces.”,2,2,,,0,2,2,2,,,,,0,12,12,12,,,,,,,,,,,9,0.06774198399943998,',001,2019_Feb_07_1354,body_behavioural,59.98213588031071,
2,The waitress came up to them and asked if they were ready to order.,3,2,,,0,2,2,2,,,,,0,13,13,13,,,,,,,,,,,1,0.20238289300141332,',001,2019_Feb_07_1354,body_behavioural,59.98213588031071,
2,"Mr. Gordon ordered a medium-rare steak and martini, and Mr. Shelton ordered veal and a manhattan. ",3,2,,,0,2,2,2,,,,,0,14,14,14,,,,,,,,,,,9,0.36842333799904736,',001,2019_Feb_07_1354,body_behavioural,59.98213588031071,
2,"Then Mr. Shelton continued, “Look, I’ve talked to other members of the board, and we are prepared to offer $600 million to buy your company. ",3,2,,,0,2,2,2,,,,,0,15,15,15,,,,,,,,,,,None,,',001,2019_Feb_07_1354,body_behavioural,59.98213588031071,
2,,,,,,0,2,2,2,,,,,,,,,,,,,,,,,,,,,',001,2019_Feb_07_1354,body_behavioural,59.98213588031071,
