count,storyText,locationEvent,socialEvent,locationEventSize,socialEventSize,instructText,trials.thisRepN,trials.thisTrialN,trials.thisN,trials.thisIndex,trials_7.thisRepN,trials_7.thisTrialN,trials_7.thisN,trials_7.thisIndex,trials_2.thisRepN,trials_2.thisTrialN,trials_2.thisN,trials_2.thisIndex,trials_3.thisRepN,trials_3.thisTrialN,trials_3.thisN,trials_3.thisIndex,trials_4.thisRepN,trials_4.thisTrialN,trials_4.thisN,trials_4.thisIndex,trials_5.thisRepN,trials_5.thisTrialN,trials_5.thisN,trials_5.thisIndex,trials_6.thisRepN,trials_6.thisTrialN,trials_6.thisN,trials_6.thisIndex,order of stories,order of perspectives,participant 2 order - stories,participant 2 order  - schemas types,key_resp_8.keys,key_resp_8.rt,key_resp_5.keys,key_resp_5.rt,key_resp_7.keys,key_resp_7.rt,story_presses.keys,story_presses.rt,story time,key_resp_6.keys,key_resp_6.rt,key_resp_2.keys,key_resp_2.rt,key_resp_10.keys,key_resp_10.rt,recall,recall time,key_resp_12.keys,key_resp_12.rt,key_resp_3.keys,key_resp_3.rt,key_resp_11.keys,key_resp_11.rt,question1_answer,order of question,participant,session,date,expName,psychopyVersion,frameRate,
0,,,,,,,0,0,0,0,0,0,0,0,,,,,,,,,,,,,,,,,,,,,[32 11 23 13 44 42 21 34 12 31 43 24 22 14 33 41],"['Location' 'Location' 'Location' 'Social' 'Location' 'Social' 'Social'
 'Social' 'Location' 'Location' 'Location' 'Location' 'Social' 'Social'
 'Social' 'Social']",[12 31 43 24 22 14 33 41],"['Location' 'Location' 'Location' 'Location' 'Social' 'Social' 'Social'
 'Social']",space,0.4225329199980479,space,0.31969158799984143,space,0.6363952449974022,,,,,,,,,,,,,,,,,,,,',001,2019_Feb_28_1417,body_behavioural,3.0.4,59.93460954312745,
0,"Jeff, hoping that today would be a pivotal day for his new business, had only been waiting inside the doors of the airport for a few minutes when he saw William and eagerly waved him over. ",1,1,,,,0,0,0,0,,,,,0,0,0,0,,,,,,,,,,,,,,,,,,,,,,,,,,,1,1.286085956999159,,,,,,,,,,,,,,,,,,',001,2019_Feb_28_1417,body_behavioural,3.0.4,59.93460954312745,
0,"Jeff, checking his watch, was pleased to see that the two of them had two hours to discuss business before their flights left Boston.",1,1,,,,0,0,0,0,,,,,0,1,1,1,,,,,,,,,,,,,,,,,,,,,,,,,,,1,1.2363365220007836,,,,,,,,,,,,,,,,,,',001,2019_Feb_28_1417,body_behavioural,3.0.4,59.93460954312745,
0,The two had met the night before in line for the bathroom at a local bar. ,1,1,,,,0,0,0,0,,,,,0,2,2,2,,,,,,,,,,,,,,,,,,,,,,,,,,,1,0.4030266900008428,,,,,,,,,,,,,,,,,,',001,2019_Feb_28_1417,body_behavioural,3.0.4,59.93460954312745,
0,Jeff had delivered some surprisingly-detailed complaints to William about the wine selection.,1,1,,,,0,0,0,0,,,,,0,3,3,3,,,,,,,,,,,,,,,,,,,,,,,,,,,1,0.4177437319995079,,,,,,,,,,,,,,,,,,',001,2019_Feb_28_1417,body_behavioural,3.0.4,59.93460954312745,
0,They quickly learned about each other that Jeff was a representative for wine vineyards in the Northeast and William was a wine buyer for corporate events.,1,1,,,,0,0,0,0,,,,,0,4,4,4,,,,,,,,,,,,,,,,,,,,,,,,,,,1,0.4532218249987636,,,,,,,,,,,,,,,,,,',001,2019_Feb_28_1417,body_behavioural,3.0.4,59.93460954312745,
0,"Since they both had flights out of Boston at the same time, they had agreed to meet at the airport and talk about potentially doing business. ",1,1,,,,0,0,0,0,,,,,0,5,5,5,,,,,,,,,,,,,,,,,,,,,,,,,,,1,0.5533557800008566,,,,,,,,,,,,,,,,,,',001,2019_Feb_28_1417,body_behavioural,3.0.4,59.93460954312745,
0,"They headed to security together, pleased to find that the line was not so long, and they chatted a little as they were waiting. ",2,1,,,,0,0,0,0,,,,,0,6,6,6,,,,,,,,,,,,,,,,,,,,,,,,,,,1,0.4860885909984063,,,,,,,,,,,,,,,,,,',001,2019_Feb_28_1417,body_behavioural,3.0.4,59.93460954312745,
0,"“It’s crazy that we met last night,” William said, “I am flying out right now to meet my boss, and was worried that I was going to show up empty handed without any local retailer prepared.” ",2,1,,,,0,0,0,0,,,,,0,7,7,7,,,,,,,,,,,,,,,,,,,,,,,,,,,1,0.5840662730006443,,,,,,,,,,,,,,,,,,',001,2019_Feb_28_1417,body_behavioural,3.0.4,59.93460954312745,
0,"“I know, what are the chances, right?” Jeff said.",2,1,,,,0,0,0,0,,,,,0,8,8,8,,,,,,,,,,,,,,,,,,,,,,,,,,,1,0.5360025519985356,,,,,,,,,,,,,,,,,,',001,2019_Feb_28_1417,body_behavioural,3.0.4,59.93460954312745,
0,"William laughed and said, “I’m glad our shared complaining can come in handy.",2,1,,,,0,0,0,0,,,,,0,9,9,9,,,,,,,,,,,,,,,,,,,,,,,,,,,1,0.5526667920021282,,,,,,,,,,,,,,,,,,',001,2019_Feb_28_1417,body_behavioural,3.0.4,59.93460954312745,
0,"I know this is fast, but I'd like to get right down to specifics.",2,2,,,,0,0,0,0,,,,,0,10,10,10,,,,,,,,,,,,,,,,,,,,,,,,,,,1,0.45254557500084047,,,,,,,,,,,,,,,,,,',001,2019_Feb_28_1417,body_behavioural,3.0.4,59.93460954312745,
0,I'd like to order a couple of sample shipments from you and present them to our corporate buyers.,2,2,,,,0,0,0,0,,,,,0,11,11,11,,,,,,,,,,,,,,,,,,,,,,,,,,,1,0.4862115450014244,,,,,,,,,,,,,,,,,,',001,2019_Feb_28_1417,body_behavioural,3.0.4,59.93460954312745,
0,"Typically we expect to get these kinds of samples at a deep discount, at least half-off the label price.",2,2,,,,0,0,0,0,,,,,0,12,12,12,,,,,,,,,,,,,,,,,,,,,,,,,,,1,1.0697552370002086,,,,,,,,,,,,,,,,,,',001,2019_Feb_28_1417,body_behavioural,3.0.4,59.93460954312745,
0,"This is nothing, okay, compared to what you will be making if one of these buyers makes a contract.",2,2,,,,0,0,0,0,,,,,0,13,13,13,,,,,,,,,,,,,,,,,,,,,,,,,,,1,0.40303299500010326,,,,,,,,,,,,,,,,,,',001,2019_Feb_28_1417,body_behavioural,3.0.4,59.93460954312745,
0,So I propose that you send us $600 worth of wine shipments for a price of $300.”,2,2,,,,0,0,0,0,,,,,0,14,14,14,,,,,,,,,,,,,,,,,,,,,,,,,,,1,0.38634092999927816,,,,,,,,,,,,,,,,,,',001,2019_Feb_28_1417,body_behavioural,3.0.4,59.93460954312745,
0,"When it was their turn to go through the metal detector, they took off their shoes and pulled out their laptops.",2,2,,,,0,0,0,0,,,,,0,15,15,15,,,,,,,,,,,,,,,,,,,,,,,,,,,1,0.38331993500105455,,,,,,,,,,,,,,,,,,',001,2019_Feb_28_1417,body_behavioural,3.0.4,59.93460954312745,
0,"Jeff mulled over the offer, nodding noncommittally to William's pitch as they proceeded through the metal detector and retrieved their belongings.",2,2,,,,0,0,0,0,,,,,0,16,16,16,,,,,,,,,,,,,,,,,,,,,,,,,,,1,0.4673710019997088,,,,,,,,,,,,,,,,,,',001,2019_Feb_28_1417,body_behavioural,3.0.4,59.93460954312745,
0,"They began to walk through the concourse, and William handed some printed spreadsheets to Jeff as they navigated toward their gates at the end of the terminal.",3,2,,,,0,0,0,0,,,,,0,17,17,17,,,,,,,,,,,,,,,,,,,,,,,,,,,1,0.4363645049998013,,,,,,,,,,,,,,,,,,',001,2019_Feb_28_1417,body_behavioural,3.0.4,59.93460954312745,
0,"Jeff, weaving through the crowds of travelers, squinted at William's rosy projections of the number of bottles he could be able to purchase in the future.",3,2,,,,0,0,0,0,,,,,0,18,18,18,,,,,,,,,,,,,,,,,,,,,,,,,,,1,0.4698056199995335,,,,,,,,,,,,,,,,,,',001,2019_Feb_28_1417,body_behavioural,3.0.4,59.93460954312745,
0,"Finally Jeff said, “I don’t know, we’re not coming from corporate vineyards, so gambling with sample shipments is the kind of risk we can’t necessarily make. ",3,3,,,,0,0,0,0,,,,,0,19,19,19,,,,,,,,,,,,,,,,,,,,,,,,,,,1,0.453127905002475,,,,,,,,,,,,,,,,,,',001,2019_Feb_28_1417,body_behavioural,3.0.4,59.93460954312745,
0,"These corporate purchases would have to be huge and practically guaranteed, to offset the loss from selling sample shipments at this price.”",3,3,,,,0,0,0,0,,,,,0,20,20,20,,,,,,,,,,,,,,,,,,,,,,,,,,,1,0.38602478800021345,,,,,,,,,,,,,,,,,,',001,2019_Feb_28_1417,body_behavioural,3.0.4,59.93460954312745,
0,"They walked to the gates very slowly, barely registering the hubbub of the airport since they were so caught up in figuring out this deal before their flights left.",3,3,,,,0,0,0,0,,,,,0,21,21,21,,,,,,,,,,,,,,,,,,,,,,,,,,,1,0.4006684449996101,,,,,,,,,,,,,,,,,,',001,2019_Feb_28_1417,body_behavioural,3.0.4,59.93460954312745,
0,"At the end of their long walk, they got to Jeff’s gate first, which had begun boarding passengers.",3,3,,,,0,0,0,0,,,,,0,22,22,22,,,,,,,,,,,,,,,,,,,,,,,,,,,1,0.4196780820020649,,,,,,,,,,,,,,,,,,',001,2019_Feb_28_1417,body_behavioural,3.0.4,59.93460954312745,
0,"In these last minutes, William and Jeff agreed on a compromise rate on the sample shipment, paying $400 for a $600 shipment, and they finalized the deal with a handshake. ",3,4,,,,0,0,0,0,,,,,0,23,23,23,,,,,,,,,,,,,,,,,,,,,,,,,,,1,0.3864173900001333,,,,,,,,,,,,,,,,,,',001,2019_Feb_28_1417,body_behavioural,3.0.4,59.93460954312745,
0,"“Well, what a tremendous pleasure to do business with you and to have all this work out,” William said.",3,4,,,,0,0,0,0,,,,,0,24,24,24,,,,,,,,,,,,,,,,,,,,,,,,,,,1,0.400688674999401,,,,,,,,,,,,,,,,,,',001,2019_Feb_28_1417,body_behavioural,3.0.4,59.93460954312745,
0,"Jeff nodded enthusiastically, and responded, “Likewise, this has been great.  ",3,4,,,,0,0,0,0,,,,,0,25,25,25,,,,,,,,,,,,,,,,,,,,,,,,,,,1,0.3358483569973032,,,,,,,,,,,,,,,,,,',001,2019_Feb_28_1417,body_behavioural,3.0.4,59.93460954312745,
0,I'll let you get to your gate.,3,4,,,,0,0,0,0,,,,,0,26,26,26,,,,,,,,,,,,,,,,,,,,,,,,,,,1,0.3692664100017282,,,,,,,,,,,,,,,,,,',001,2019_Feb_28_1417,body_behavioural,3.0.4,59.93460954312745,
0,"Once we’re both back on the ground, we can get all the shipments in the books.”",3,4,,,,0,0,0,0,,,,,0,27,27,27,,,,,,,,,,,,,,,,,,,,,,,,,,,1,0.4030257199992775,,,,,,,,,,,,,,,,,,',001,2019_Feb_28_1417,body_behavioural,3.0.4,59.93460954312745,
0,They parted with a wave as Jeff scanned his boarding pass at the gate. ,3,4,,,,0,0,0,0,,,,,0,28,28,28,,,,,,,,,,,,,,,,,,,,,,,,,,,1,0.45302285000070697,,,,,,,,,,,,,,,,,,',001,2019_Feb_28_1417,body_behavioural,3.0.4,59.93460954312745,
0,He walked onto the plane and sat down in his aisle seat in the business class section.,4,4,,,,0,0,0,0,,,,,0,29,29,29,,,,,,,,,,,,,,,,,,,,,,,,,,,1,0.3863316769966332,,,,,,,,,,,,,,,,,,',001,2019_Feb_28_1417,body_behavioural,3.0.4,59.93460954312745,
0,He typed out a quick email on his phone letting the rest of his team know the good news. ,4,4,,,,0,0,0,0,,,,,0,30,30,30,,,,,,,,,,,,,,,,,,,,,,,,,,,1,0.3526708999997936,,,,,,,,,,,,,,,,,,',001,2019_Feb_28_1417,body_behavioural,3.0.4,59.93460954312745,
0,"When the flight attendant came by, he ordered a glass of champagne to celebrate.",4,4,,,,0,0,0,0,,,,,0,31,31,31,,,,,,,,,,,,,,,,,,,,,,,,,,,1,0.3530674670000735,,,,,,,,,,,,,,,,,,',001,2019_Feb_28_1417,body_behavioural,3.0.4,59.93460954312745,
0,,,,,,,0,0,0,0,,,,,,,,,,,,,,,,,,,,,,,,,,,,,,,,,,,,,,,,,,,,,,,,,,,,,,',001,2019_Feb_28_1417,body_behavioural,3.0.4,59.93460954312745,
1,,,,,,,0,1,1,1,0,0,0,0,,,,,,,,,,,,,,,,,,,,,,,,,space,0.7699013249985001,space,0.3362667329965916,space,0.45295188700038125,,,,,,,,,,,,,,,,,,,,',001,2019_Feb_28_1417,body_behavioural,3.0.4,59.93460954312745,
1,"Thomas, dreading the conversation he was about to have, got to Annika’s Finer Diner early.",1,1,None,None,,0,1,1,1,,,,,0,0,0,0,,,,,,,,,,,,,,,,,,,,,,,,,,,1,0.9697909169990453,,,,,,,,,,,,,,,,,,',001,2019_Feb_28_1417,body_behavioural,3.0.4,59.93460954312745,
1,The restaurant had a kitschy charm and was reminiscent of a diner from the 70’s. ,1,1,None,None,,0,1,1,1,,,,,0,1,1,1,,,,,,,,,,,,,,,,,,,,,,,,,,,1,0.4698524079976778,,,,,,,,,,,,,,,,,,',001,2019_Feb_28_1417,body_behavioural,3.0.4,59.93460954312745,
1,A bell chimed as the door swung open and Sadie entered to find Thomas deep in thought on a bench by the door.,1,1,None,None,,0,1,1,1,,,,,0,2,2,2,,,,,,,,,,,,,,,,,,,,,,,,,,,1,0.5362347170012072,,,,,,,,,,,,,,,,,,',001,2019_Feb_28_1417,body_behavioural,3.0.4,59.93460954312745,
1,He jumped up and gave her a side hug. ,1,1,None,None,,0,1,1,1,,,,,0,3,3,3,,,,,,,,,,,,,,,,,,,,,,,,,,,1,0.5507818330006558,,,,,,,,,,,,,,,,,,',001,2019_Feb_28_1417,body_behavioural,3.0.4,59.93460954312745,
1,"“How was your day?”, he asked.",1,1,None,None,,0,1,1,1,,,,,0,4,4,4,,,,,,,,,,,,,,,,,,,,,,,,,,,1,0.4863161279972701,,,,,,,,,,,,,,,,,,',001,2019_Feb_28_1417,body_behavioural,3.0.4,59.93460954312745,
1,"She clung onto him, “It was okay.",1,1,None,None,,0,1,1,1,,,,,0,5,5,5,,,,,,,,,,,,,,,,,,,,,,,,,,,1,0.35330630199678126,,,,,,,,,,,,,,,,,,',001,2019_Feb_28_1417,body_behavioural,3.0.4,59.93460954312745,
1,I missed you today.”,1,1,None,None,,0,1,1,1,,,,,0,6,6,6,,,,,,,,,,,,,,,,,,,,,,,,,,,1,0.33630982199974824,,,,,,,,,,,,,,,,,,',001,2019_Feb_28_1417,body_behavioural,3.0.4,59.93460954312745,
1,He looked at the hostess coming towards them.,1,1,None,None,,0,1,1,1,,,,,0,7,7,7,,,,,,,,,,,,,,,,,,,,,,,,,,,1,0.31966332500087447,,,,,,,,,,,,,,,,,,',001,2019_Feb_28_1417,body_behavioural,3.0.4,59.93460954312745,
1,"“Can we have a table in the back?”, Thomas asked.",1,1,None,None,,0,1,1,1,,,,,0,8,8,8,,,,,,,,,,,,,,,,,,,,,,,,,,,1,0.36927083499904256,,,,,,,,,,,,,,,,,,',001,2019_Feb_28_1417,body_behavioural,3.0.4,59.93460954312745,
1,"She shrugged and, as she loudly popped her bubblegum, replied, “Sure, honey, this way.”",1,1,9.0,None,,0,1,1,1,,,,,0,9,9,9,,,,,,,,,,,,,,,,,,,,,,,,,,,1,0.3528950399995665,,,,,,,,,,,,,,,,,,',001,2019_Feb_28_1417,body_behavioural,3.0.4,59.93460954312745,
1,She led them to the back of the restaurant where there were dimly lit tables. ,2,1,None,None,,0,1,1,1,,,,,0,10,10,10,,,,,,,,,,,,,,,,,,,,,,,,,,,1,0.4511928669999179,,,,,,,,,,,,,,,,,,',001,2019_Feb_28_1417,body_behavioural,3.0.4,59.93460954312745,
1,"“Is this alright?”, the hostess asked.",2,1,None,None,,0,1,1,1,,,,,0,11,11,11,,,,,,,,,,,,,,,,,,,,,,,,,,,1,0.38620996000099694,,,,,,,,,,,,,,,,,,',001,2019_Feb_28_1417,body_behavioural,3.0.4,59.93460954312745,
1,Thomas cleared his throat and tried not to grimace at the stained fabric that lined the booth.,2,1,None,None,,0,1,1,1,,,,,0,12,12,12,,,,,,,,,,,,,,,,,,,,,,,,,,,1,0.2697006369999144,,,,,,,,,,,,,,,,,,',001,2019_Feb_28_1417,body_behavioural,3.0.4,59.93460954312745,
1,“This is great.,2,1,None,None,,0,1,1,1,,,,,0,13,13,13,,,,,,,,,,,,,,,,,,,,,,,,,,,1,0.46968811500119045,,,,,,,,,,,,,,,,,,',001,2019_Feb_28_1417,body_behavioural,3.0.4,59.93460954312745,
1,"Thank you,” Thomas said.",2,1,None,None,,0,1,1,1,,,,,0,14,14,14,,,,,,,,,,,,,,,,,,,,,,,,,,,1,0.36958771999707096,,,,,,,,,,,,,,,,,,',001,2019_Feb_28_1417,body_behavioural,3.0.4,59.93460954312745,
1,Sadie slipped into the cushioned seat and grabbed Thomas’ hand.,2,1,None,None,,0,1,1,1,,,,,0,15,15,15,,,,,,,,,,,,,,,,,,,,,,,,,,,1,0.286754237000423,,,,,,,,,,,,,,,,,,',001,2019_Feb_28_1417,body_behavioural,3.0.4,59.93460954312745,
1,"“Tell me about your day!”, Sadie sang as Thomas sat down.",2,1,None,None,,0,1,1,1,,,,,0,16,16,16,,,,,,,,,,,,,,,,,,,,,,,,,,,1,0.43617664499834063,,,,,,,,,,,,,,,,,,',001,2019_Feb_28_1417,body_behavioural,3.0.4,59.93460954312745,
1,He looked at her silently and pulled his hand slowly from hers.,2,1,None,None,,0,1,1,1,,,,,0,17,17,17,,,,,,,,,,,,,,,,,,,,,,,,,,,1,0.36984833700262243,,,,,,,,,,,,,,,,,,',001,2019_Feb_28_1417,body_behavioural,3.0.4,59.93460954312745,
1,Sadie gave him a puzzled look.,2,1,None,None,,0,1,1,1,,,,,0,18,18,18,,,,,,,,,,,,,,,,,,,,,,,,,,,1,0.3515888499969151,,,,,,,,,,,,,,,,,,',001,2019_Feb_28_1417,body_behavioural,3.0.4,59.93460954312745,
1,Thomas looked away and took a deep breath. ,2,1,None,None,,0,1,1,1,,,,,0,19,19,19,,,,,,,,,,,,,,,,,,,,,,,,,,,1,0.25341358500008937,,,,,,,,,,,,,,,,,,',001,2019_Feb_28_1417,body_behavioural,3.0.4,59.93460954312745,
1,"Sadie asked, “What’s wrong?” ",2,1,None,None,,0,1,1,1,,,,,0,20,20,20,,,,,,,,,,,,,,,,,,,,,,,,,,,1,0.32007414200052153,,,,,,,,,,,,,,,,,,',001,2019_Feb_28_1417,body_behavioural,3.0.4,59.93460954312745,
1,Thomas picked at his fingernails.,2,1,None,22.0,,0,1,1,1,,,,,0,21,21,21,,,,,,,,,,,,,,,,,,,,,,,,,,,1,0.31973058999938075,,,,,,,,,,,,,,,,,,',001,2019_Feb_28_1417,body_behavioural,3.0.4,59.93460954312745,
1,"“Sadie, I’ve been thinking, and I need to figure out some stuff… on my own.”",2,2,None,None,,0,1,1,1,,,,,0,22,22,22,,,,,,,,,,,,,,,,,,,,,,,,,,,1,0.3032172349994653,,,,,,,,,,,,,,,,,,',001,2019_Feb_28_1417,body_behavioural,3.0.4,59.93460954312745,
1,Sadie’s mouth popped open for a moment.,2,2,None,None,,0,1,1,1,,,,,0,23,23,23,,,,,,,,,,,,,,,,,,,,,,,,,,,1,0.38407191499936744,,,,,,,,,,,,,,,,,,',001,2019_Feb_28_1417,body_behavioural,3.0.4,59.93460954312745,
1,Then she swallowed and shifted back in her seat.,2,2,None,None,,0,1,1,1,,,,,0,24,24,24,,,,,,,,,,,,,,,,,,,,,,,,,,,1,0.3030295370008389,,,,,,,,,,,,,,,,,,',001,2019_Feb_28_1417,body_behavioural,3.0.4,59.93460954312745,
1,“Things have been really picking up at work.,2,2,None,None,,0,1,1,1,,,,,0,25,25,25,,,,,,,,,,,,,,,,,,,,,,,,,,,1,0.26967778199832537,,,,,,,,,,,,,,,,,,',001,2019_Feb_28_1417,body_behavioural,3.0.4,59.93460954312745,
1,And I’m not sure that this is the job I want to do anymore.,2,2,None,None,,0,1,1,1,,,,,0,26,26,26,,,,,,,,,,,,,,,,,,,,,,,,,,,1,0.2863468149989785,,,,,,,,,,,,,,,,,,',001,2019_Feb_28_1417,body_behavioural,3.0.4,59.93460954312745,
1,It’s been really overwhelming between working and figuring out if I should change careers.” ,2,2,17.0,None,,0,1,1,1,,,,,0,27,27,27,,,,,,,,,,,,,,,,,,,,,,,,,,,1,0.25345038500017836,,,,,,,,,,,,,,,,,,',001,2019_Feb_28_1417,body_behavioural,3.0.4,59.93460954312745,
1,The waiter appeared and interrupted the speech Thomas had been practicing.,3,2,None,None,,0,1,1,1,,,,,0,28,28,28,,,,,,,,,,,,,,,,,,,,,,,,,,,1,0.336261366999679,,,,,,,,,,,,,,,,,,',001,2019_Feb_28_1417,body_behavioural,3.0.4,59.93460954312745,
1,"“Hello you two!”, the waiter said.",3,2,None,None,,0,1,1,1,,,,,0,29,29,29,,,,,,,,,,,,,,,,,,,,,,,,,,,1,0.28645308499835664,,,,,,,,,,,,,,,,,,',001,2019_Feb_28_1417,body_behavioural,3.0.4,59.93460954312745,
1,“Have you decided what you would like?”,3,2,None,None,,0,1,1,1,,,,,0,30,30,30,,,,,,,,,,,,,,,,,,,,,,,,,,,1,0.2859163200009789,,,,,,,,,,,,,,,,,,',001,2019_Feb_28_1417,body_behavioural,3.0.4,59.93460954312745,
1,"Thomas and Sadie realized there were menus on the table, and they glanced at the lengthy list quickly.",3,2,None,None,,0,1,1,1,,,,,0,31,31,31,,,,,,,,,,,,,,,,,,,,,,,,,,,1,0.31982794500072487,,,,,,,,,,,,,,,,,,',001,2019_Feb_28_1417,body_behavioural,3.0.4,59.93460954312745,
1,"There were so many strange dishes they had never heard of before, so they settled on familiar orders.",3,2,None,None,,0,1,1,1,,,,,0,32,32,32,,,,,,,,,,,,,,,,,,,,,,,,,,,1,0.2696824749982625,,,,,,,,,,,,,,,,,,',001,2019_Feb_28_1417,body_behavioural,3.0.4,59.93460954312745,
1,"“I’ll have a burger, no tomatoes,” Thomas said.",3,2,None,None,,0,1,1,1,,,,,0,33,33,33,,,,,,,,,,,,,,,,,,,,,,,,,,,1,0.3031992350006476,,,,,,,,,,,,,,,,,,',001,2019_Feb_28_1417,body_behavioural,3.0.4,59.93460954312745,
1,"Sadie asked about the reuben, and the waiter told her it was excellent.",3,2,None,None,,0,1,1,1,,,,,0,34,34,34,,,,,,,,,,,,,,,,,,,,,,,,,,,1,0.45254197000031127,,,,,,,,,,,,,,,,,,',001,2019_Feb_28_1417,body_behavioural,3.0.4,59.93460954312745,
1,"Once she agreed to get that, he walked away. ",3,2,None,None,,0,1,1,1,,,,,0,35,35,35,,,,,,,,,,,,,,,,,,,,,,,,,,,1,0.36963403999834554,,,,,,,,,,,,,,,,,,',001,2019_Feb_28_1417,body_behavioural,3.0.4,59.93460954312745,
1,Sadie and Thomas looked at each other. ,3,2,None,None,,0,1,1,1,,,,,0,36,36,36,,,,,,,,,,,,,,,,,,,,,,,,,,,1,0.31962178699905053,,,,,,,,,,,,,,,,,,',001,2019_Feb_28_1417,body_behavioural,3.0.4,59.93460954312745,
1,"“So what are you saying?”, Sadie asked. ",3,2,None,None,,0,1,1,1,,,,,0,37,37,37,,,,,,,,,,,,,,,,,,,,,,,,,,,1,0.31985996200091904,,,,,,,,,,,,,,,,,,',001,2019_Feb_28_1417,body_behavioural,3.0.4,59.93460954312745,
1,"Thomas replied, “I want to take a break for awhile.",3,2,None,None,,0,1,1,1,,,,,0,38,38,38,,,,,,,,,,,,,,,,,,,,,,,,,,,1,0.2863886250015639,,,,,,,,,,,,,,,,,,',001,2019_Feb_28_1417,body_behavioural,3.0.4,59.93460954312745,
1,"You know, have space to figure out what I’m supposed to be doing.”",3,2,None,17.0,,0,1,1,1,,,,,0,39,39,39,,,,,,,,,,,,,,,,,,,,,,,,,,,1,0.28654639999876963,,,,,,,,,,,,,,,,,,',001,2019_Feb_28_1417,body_behavioural,3.0.4,59.93460954312745,
1,Sadie quietly burst into tears. ,3,3,None,None,,0,1,1,1,,,,,0,40,40,40,,,,,,,,,,,,,,,,,,,,,,,,,,,1,0.31951653199939756,,,,,,,,,,,,,,,,,,',001,2019_Feb_28_1417,body_behavioural,3.0.4,59.93460954312745,
1,"Nevertheless, people sitting at the adjacent table looked over and quickly averted their gaze as they realized what was happening. ",3,3,None,None,,0,1,1,1,,,,,0,41,41,41,,,,,,,,,,,,,,,,,,,,,,,,,,,1,0.3029946300011943,,,,,,,,,,,,,,,,,,',001,2019_Feb_28_1417,body_behavioural,3.0.4,59.93460954312745,
1,“Is this really what you want?,3,3,None,None,,0,1,1,1,,,,,0,42,42,42,,,,,,,,,,,,,,,,,,,,,,,,,,,1,0.31961845999830985,,,,,,,,,,,,,,,,,,',001,2019_Feb_28_1417,body_behavioural,3.0.4,59.93460954312745,
1,I don’t understand.,3,3,None,None,,0,1,1,1,,,,,0,43,43,43,,,,,,,,,,,,,,,,,,,,,,,,,,,1,0.3034072249974997,,,,,,,,,,,,,,,,,,',001,2019_Feb_28_1417,body_behavioural,3.0.4,59.93460954312745,
1,I don’t understand.,3,3,None,None,,0,1,1,1,,,,,0,44,44,44,,,,,,,,,,,,,,,,,,,,,,,,,,,1,0.33409684499929426,,,,,,,,,,,,,,,,,,',001,2019_Feb_28_1417,body_behavioural,3.0.4,59.93460954312745,
1,Things were fine. ,3,3,None,None,,0,1,1,1,,,,,0,45,45,45,,,,,,,,,,,,,,,,,,,,,,,,,,,1,0.3363148770004045,,,,,,,,,,,,,,,,,,',001,2019_Feb_28_1417,body_behavioural,3.0.4,59.93460954312745,
1,"We don’t have to hang out all the time, or as much as we do now.”",3,3,None,None,,0,1,1,1,,,,,0,46,46,46,,,,,,,,,,,,,,,,,,,,,,,,,,,1,0.5529272649982886,,,,,,,,,,,,,,,,,,',001,2019_Feb_28_1417,body_behavioural,3.0.4,59.93460954312745,
1,Thomas chewed on his bottom lip and picked at his now bleeding hangnail. ,3,3,20.0,None,,0,1,1,1,,,,,0,47,47,47,,,,,,,,,,,,,,,,,,,,,,,,,,,1,0.319460627000808,,,,,,,,,,,,,,,,,,',001,2019_Feb_28_1417,body_behavioural,3.0.4,59.93460954312745,
1,"At that moment, the waiter arrived with the burger and reuben and set them on the table.",4,3,None,None,,0,1,1,1,,,,,0,48,48,48,,,,,,,,,,,,,,,,,,,,,,,,,,,1,0.3031150450005953,,,,,,,,,,,,,,,,,,',001,2019_Feb_28_1417,body_behavioural,3.0.4,59.93460954312745,
1,“Is there anything else I can get for you two?,4,3,None,None,,0,1,1,1,,,,,0,49,49,49,,,,,,,,,,,,,,,,,,,,,,,,,,,1,0.303061031998368,,,,,,,,,,,,,,,,,,',001,2019_Feb_28_1417,body_behavioural,3.0.4,59.93460954312745,
1,"Will you be getting dessert tonight?”, he asked.",4,3,None,None,,0,1,1,1,,,,,0,50,50,50,,,,,,,,,,,,,,,,,,,,,,,,,,,1,0.11967011700107832,,,,,,,,,,,,,,,,,,',001,2019_Feb_28_1417,body_behavioural,3.0.4,59.93460954312745,
1,"“Oh no, we’re good, thanks,” Thomas said.",4,3,None,None,,0,1,1,1,,,,,0,51,51,51,,,,,,,,,,,,,,,,,,,,,,,,,,,1,0.4694423149994691,,,,,,,,,,,,,,,,,,',001,2019_Feb_28_1417,body_behavioural,3.0.4,59.93460954312745,
1,"Once the waiter had walked away still oblivious to the situation, Thomas sighed and said, “Sadie, I’m sorry.",4,3,None,None,,0,1,1,1,,,,,0,52,52,52,,,,,,,,,,,,,,,,,,,,,,,,,,,1,0.4512372390017845,,,,,,,,,,,,,,,,,,',001,2019_Feb_28_1417,body_behavioural,3.0.4,59.93460954312745,
1,"You are so great, and I love hanging out with you.",4,3,None,None,,0,1,1,1,,,,,0,53,53,53,,,,,,,,,,,,,,,,,,,,,,,,,,,1,0.3201475819987536,,,,,,,,,,,,,,,,,,',001,2019_Feb_28_1417,body_behavioural,3.0.4,59.93460954312745,
1,But I need some time.,4,3,None,None,,0,1,1,1,,,,,0,54,54,54,,,,,,,,,,,,,,,,,,,,,,,,,,,1,0.35041094700136455,,,,,,,,,,,,,,,,,,',001,2019_Feb_28_1417,body_behavioural,3.0.4,59.93460954312745,
1,I’m so sorry.”,4,3,None,None,,0,1,1,1,,,,,0,55,55,55,,,,,,,,,,,,,,,,,,,,,,,,,,,1,0.3700720849992649,,,,,,,,,,,,,,,,,,',001,2019_Feb_28_1417,body_behavioural,3.0.4,59.93460954312745,
1,"He grabbed her hand, and she pulled it out of his.",4,3,None,None,,0,1,1,1,,,,,0,56,56,56,,,,,,,,,,,,,,,,,,,,,,,,,,,1,0.46928144200137467,,,,,,,,,,,,,,,,,,',001,2019_Feb_28_1417,body_behavioural,3.0.4,59.93460954312745,
1,"“Sadie,” he said.",4,3,None,17.0,,0,1,1,1,,,,,0,57,57,57,,,,,,,,,,,,,,,,,,,,,,,,,,,1,0.3521209190002992,,,,,,,,,,,,,,,,,,',001,2019_Feb_28_1417,body_behavioural,3.0.4,59.93460954312745,
1," She stood up, grabbed half of the reuben and shook it at him as she growled, “Don’t follow me, and don’t talk to me anymore!”",4,4,None,None,,0,1,1,1,,,,,0,58,58,58,,,,,,,,,,,,,,,,,,,,,,,,,,,1,0.5172456079999392,,,,,,,,,,,,,,,,,,',001,2019_Feb_28_1417,body_behavioural,3.0.4,59.93460954312745,
1,"Sadie's heels clacked loudly against the black and white linoleum, and the bell above the door jingled cheerfully as the door closed behind her.",4,4,None,None,,0,1,1,1,,,,,0,59,59,59,,,,,,,,,,,,,,,,,,,,,,,,,,,1,0.40217723599926103,,,,,,,,,,,,,,,,,,',001,2019_Feb_28_1417,body_behavioural,3.0.4,59.93460954312745,
1,Thomas sat there for awhile in shock at how quickly everything transpired. ,4,4,None,None,,0,1,1,1,,,,,0,60,60,60,,,,,,,,,,,,,,,,,,,,,,,,,,,1,0.40195072700225865,,,,,,,,,,,,,,,,,,',001,2019_Feb_28_1417,body_behavioural,3.0.4,59.93460954312745,
1,"He grabbed his burger and took a bite of it, creating a dry and fishy taste in his mouth.",4,4,None,None,,0,1,1,1,,,,,0,61,61,61,,,,,,,,,,,,,,,,,,,,,,,,,,,1,0.3867449419994955,,,,,,,,,,,,,,,,,,',001,2019_Feb_28_1417,body_behavioural,3.0.4,59.93460954312745,
1,He dropped it back on his plate and wondered if the restaurant was responsible for the foul taste. ,4,4,13.0,5.0,,0,1,1,1,,,,,0,62,62,62,,,,,,,,,,,,,,,,,,,,,,,,,,,1,0.3352239339983498,,,,,,,,,,,,,,,,,,',001,2019_Feb_28_1417,body_behavioural,3.0.4,59.93460954312745,
1,,,,,,,0,1,1,1,,,,,,,,,,,,,,,,,,,,,,,,,,,,,,,,,,,,,,,,,,,,,,,,,,,,,,',001,2019_Feb_28_1417,body_behavioural,3.0.4,59.93460954312745,
2,,,,,,,0,2,2,2,0,0,0,0,,,,,,,,,,,,,,,,,,,,,,,,,space,0.48628511300194077,space,0.3202244950007298,space,0.4528954720008187,,,,,,,,,,,,,,,,,,,,',001,2019_Feb_28_1417,body_behavioural,3.0.4,59.93460954312745,
2,"Alex was a distracted, sweaty mess as he walked into the grocery store with Chloe; he was hoping that she wouldn't suspect that he was about to propose.",1,1,,,,0,2,2,2,,,,,0,0,0,0,,,,,,,,,,,,,,,,,,,,,,,,,,,1,0.703348779999942,,,,,,,,,,,,,,,,,,',001,2019_Feb_28_1417,body_behavioural,3.0.4,59.93460954312745,
2,"The grocery store was brightly lit; this was one of the nicest grocery stores in Atlanta, and sunlight poured in through the glass walls.",1,1,,,,0,2,2,2,,,,,0,1,1,1,,,,,,,,,,,,,,,,,,,,,,,,,,,1,0.28636694500164595,,,,,,,,,,,,,,,,,,',001,2019_Feb_28_1417,body_behavioural,3.0.4,59.93460954312745,
2,"The atmosphere was also bright because tomorrow was Thanksgiving, and most shoppers had carts piled high with turkey, stuffing, and pies.",1,1,,,,0,2,2,2,,,,,0,2,2,2,,,,,,,,,,,,,,,,,,,,,,,,,,,1,0.30306729700168944,,,,,,,,,,,,,,,,,,',001,2019_Feb_28_1417,body_behavioural,3.0.4,59.93460954312745,
2,Alex wanted to propose to Chloe here because he knew she would not suspect it at all. ,1,1,,,,0,2,2,2,,,,,0,3,3,3,,,,,,,,,,,,,,,,,,,,,,,,,,,1,0.31927136499871267,,,,,,,,,,,,,,,,,,',001,2019_Feb_28_1417,body_behavioural,3.0.4,59.93460954312745,
2,"Chloe loved surprises, and Alex loved the look on Chloe’s face when she was surprised. ",1,1,,,,0,2,2,2,,,,,0,4,4,4,,,,,,,,,,,,,,,,,,,,,,,,,,,1,0.2673391370008176,,,,,,,,,,,,,,,,,,',001,2019_Feb_28_1417,body_behavioural,3.0.4,59.93460954312745,
2,"“Alex, we need to get some cranberry sauce, so let’s go there first.” ",2,1,,,,0,2,2,2,,,,,0,5,5,5,,,,,,,,,,,,,,,,,,,,,,,,,,,1,0.336419075003505,,,,,,,,,,,,,,,,,,',001,2019_Feb_28_1417,body_behavioural,3.0.4,59.93460954312745,
2,She led the way to the section of the store that held the canned foods. ,2,1,,,,0,2,2,2,,,,,0,6,6,6,,,,,,,,,,,,,,,,,,,,,,,,,,,1,0.25327483800356276,,,,,,,,,,,,,,,,,,',001,2019_Feb_28_1417,body_behavioural,3.0.4,59.93460954312745,
2,Alex looked like he was going to throw up. ,2,1,,,,0,2,2,2,,,,,0,7,7,7,,,,,,,,,,,,,,,,,,,,,,,,,,,1,0.2673285950004356,,,,,,,,,,,,,,,,,,',001,2019_Feb_28_1417,body_behavioural,3.0.4,59.93460954312745,
2,"As they were walking there, Chloe asked him, “Is everything okay, dear?”",2,1,,,,0,2,2,2,,,,,0,8,8,8,,,,,,,,,,,,,,,,,,,,,,,,,,,1,0.2692810250009643,,,,,,,,,,,,,,,,,,',001,2019_Feb_28_1417,body_behavioural,3.0.4,59.93460954312745,
2,"“Oh yeah, for sure,” he said, unconvincingly. ",2,1,,,,0,2,2,2,,,,,0,9,9,9,,,,,,,,,,,,,,,,,,,,,,,,,,,1,0.23616726199907134,,,,,,,,,,,,,,,,,,',001,2019_Feb_28_1417,body_behavioural,3.0.4,59.93460954312745,
2,"She chuckled, “Alright, whatever you say.” ",2,1,,,,0,2,2,2,,,,,0,10,10,10,,,,,,,,,,,,,,,,,,,,,,,,,,,1,0.2673810250016686,,,,,,,,,,,,,,,,,,',001,2019_Feb_28_1417,body_behavioural,3.0.4,59.93460954312745,
2,"She was mulling over the different cans of cranberry sauce, and Alex knew she would be a while.",2,1,,,,0,2,2,2,,,,,0,11,11,11,,,,,,,,,,,,,,,,,,,,,,,,,,,1,0.219817791999958,,,,,,,,,,,,,,,,,,',001,2019_Feb_28_1417,body_behavioural,3.0.4,59.93460954312745,
2,He turned his back to her and pulled out the ring.,2,2,,,,0,2,2,2,,,,,0,12,12,12,,,,,,,,,,,,,,,,,,,,,,,,,,,1,0.23411076699994737,,,,,,,,,,,,,,,,,,',001,2019_Feb_28_1417,body_behavioural,3.0.4,59.93460954312745,
2,He had been saving up for this for a while. ,2,2,,,,0,2,2,2,,,,,0,13,13,13,,,,,,,,,,,,,,,,,,,,,,,,,,,1,0.23643856300259358,,,,,,,,,,,,,,,,,,',001,2019_Feb_28_1417,body_behavioural,3.0.4,59.93460954312745,
2,The ring had three large diamonds with smaller ones encircling each one: all of them sparkled in the light streaming in from the windows. ,2,2,,,,0,2,2,2,,,,,0,14,14,14,,,,,,,,,,,,,,,,,,,,,,,,,,,1,0.2194940100016538,,,,,,,,,,,,,,,,,,',001,2019_Feb_28_1417,body_behavioural,3.0.4,59.93460954312745,
2,"“Alex?”, Chloe said suspiciously. ",2,2,,,,0,2,2,2,,,,,0,15,15,15,,,,,,,,,,,,,,,,,,,,,,,,,,,1,0.30119505999755347,,,,,,,,,,,,,,,,,,',001,2019_Feb_28_1417,body_behavioural,3.0.4,59.93460954312745,
2,He closed the box and whipped around. “Yes?”,2,2,,,,0,2,2,2,,,,,0,16,16,16,,,,,,,,,,,,,,,,,,,,,,,,,,,1,0.26934103200255777,,,,,,,,,,,,,,,,,,',001,2019_Feb_28_1417,body_behavioural,3.0.4,59.93460954312745,
2,“Do we need anything else?”,2,2,,,,0,2,2,2,,,,,0,17,17,17,,,,,,,,,,,,,,,,,,,,,,,,,,,1,0.6695394900016254,,,,,,,,,,,,,,,,,,',001,2019_Feb_28_1417,body_behavioural,3.0.4,59.93460954312745,
2,"“Yeah I don’t know, honey.” ",2,2,,,,0,2,2,2,,,,,0,18,18,18,,,,,,,,,,,,,,,,,,,,,,,,,,,1,0.436224206998304,,,,,,,,,,,,,,,,,,',001,2019_Feb_28_1417,body_behavioural,3.0.4,59.93460954312745,
2,They went to the checkout and waited in a long line.,3,2,,,,0,2,2,2,,,,,0,19,19,19,,,,,,,,,,,,,,,,,,,,,,,,,,,1,0.2863633449996996,,,,,,,,,,,,,,,,,,',001,2019_Feb_28_1417,body_behavioural,3.0.4,59.93460954312745,
2,Alex was staring intensely off into the distance. ,3,2,,,,0,2,2,2,,,,,0,20,20,20,,,,,,,,,,,,,,,,,,,,,,,,,,,1,0.30298378500083345,,,,,,,,,,,,,,,,,,',001,2019_Feb_28_1417,body_behavioural,3.0.4,59.93460954312745,
2,Chloe was watching him trying to decide whether he looked scared or confused. ,3,2,,,,0,2,2,2,,,,,0,21,21,21,,,,,,,,,,,,,,,,,,,,,,,,,,,1,0.302906057000655,,,,,,,,,,,,,,,,,,',001,2019_Feb_28_1417,body_behavioural,3.0.4,59.93460954312745,
2,Alex looked over at their friends who were waiting by the entrance of the grocery store.,3,2,,,,0,2,2,2,,,,,0,22,22,22,,,,,,,,,,,,,,,,,,,,,,,,,,,1,0.36968947499917704,,,,,,,,,,,,,,,,,,',001,2019_Feb_28_1417,body_behavioural,3.0.4,59.93460954312745,
2,They got the message and walked over slowly. ,3,2,,,,0,2,2,2,,,,,0,23,23,23,,,,,,,,,,,,,,,,,,,,,,,,,,,1,0.285916040000302,,,,,,,,,,,,,,,,,,',001,2019_Feb_28_1417,body_behavioural,3.0.4,59.93460954312745,
2,"“Honey,” he said to get her attention, “Look, Chloe, I love you so much and I want to be with you forever, I can’t imagine a day without you.”",3,2,,,,0,2,2,2,,,,,0,24,24,24,,,,,,,,,,,,,,,,,,,,,,,,,,,1,0.25300795499788364,,,,,,,,,,,,,,,,,,',001,2019_Feb_28_1417,body_behavioural,3.0.4,59.93460954312745,
2,"“Awww, Alex, me too.”",3,2,,,,0,2,2,2,,,,,0,25,25,25,,,,,,,,,,,,,,,,,,,,,,,,,,,1,0.38608092999857035,,,,,,,,,,,,,,,,,,',001,2019_Feb_28_1417,body_behavioural,3.0.4,59.93460954312745,
2,"Alex got down on one knee, and Chloe gasped. ",3,3,,,,0,2,2,2,,,,,0,26,26,26,,,,,,,,,,,,,,,,,,,,,,,,,,,1,0.41965387200252735,,,,,,,,,,,,,,,,,,',001,2019_Feb_28_1417,body_behavioural,3.0.4,59.93460954312745,
2,"“I am serious, Chloe. Will you marry me?”",3,3,,,,0,2,2,2,,,,,0,27,27,27,,,,,,,,,,,,,,,,,,,,,,,,,,,1,0.30294851700091385,,,,,,,,,,,,,,,,,,',001,2019_Feb_28_1417,body_behavioural,3.0.4,59.93460954312745,
2,"The people in line around them realized what was happening, stepped back, and started taking pictures.",3,3,,,,0,2,2,2,,,,,0,28,28,28,,,,,,,,,,,,,,,,,,,,,,,,,,,1,0.33636802500041085,,,,,,,,,,,,,,,,,,',001,2019_Feb_28_1417,body_behavioural,3.0.4,59.93460954312745,
2,Their friends were no longer trying to hide and were videotaping and taking pictures too. ,3,3,,,,0,2,2,2,,,,,0,29,29,29,,,,,,,,,,,,,,,,,,,,,,,,,,,1,0.3033041400012735,,,,,,,,,,,,,,,,,,',001,2019_Feb_28_1417,body_behavioural,3.0.4,59.93460954312745,
2,Chloe looked around and laughed. ,3,3,,,,0,2,2,2,,,,,0,30,30,30,,,,,,,,,,,,,,,,,,,,,,,,,,,1,0.35294406699904357,,,,,,,,,,,,,,,,,,',001,2019_Feb_28_1417,body_behavioural,3.0.4,59.93460954312745,
2,"“Yes!” she shouted, and jumped to embrace Alex in a hug. ",3,4,,,,0,2,2,2,,,,,0,31,31,31,,,,,,,,,,,,,,,,,,,,,,,,,,,1,0.4529890150006395,,,,,,,,,,,,,,,,,,',001,2019_Feb_28_1417,body_behavioural,3.0.4,59.93460954312745,
2,Everyone in line clapped and cheered. ,3,4,,,,0,2,2,2,,,,,0,32,32,32,,,,,,,,,,,,,,,,,,,,,,,,,,,1,0.4864837320019433,,,,,,,,,,,,,,,,,,',001,2019_Feb_28_1417,body_behavioural,3.0.4,59.93460954312745,
2,"Alex put the ring on Chloe’s finger, who was nearly spinning in excitement.",3,4,,,,0,2,2,2,,,,,0,33,33,33,,,,,,,,,,,,,,,,,,,,,,,,,,,1,0.5006497499998659,,,,,,,,,,,,,,,,,,',001,2019_Feb_28_1417,body_behavioural,3.0.4,59.93460954312745,
2,"“I love it, oh my gosh, it’s so glittery!",3,4,,,,0,2,2,2,,,,,0,34,34,34,,,,,,,,,,,,,,,,,,,,,,,,,,,1,0.4174007200017513,,,,,,,,,,,,,,,,,,',001,2019_Feb_28_1417,body_behavioural,3.0.4,59.93460954312745,
2,Look at this!” she said as she shoved her hand in a stranger’s face.,3,4,,,,0,2,2,2,,,,,0,35,35,35,,,,,,,,,,,,,,,,,,,,,,,,,,,1,0.35300579000249854,,,,,,,,,,,,,,,,,,',001,2019_Feb_28_1417,body_behavioural,3.0.4,59.93460954312745,
2,Her friends came over and hugged them.,3,4,,,,0,2,2,2,,,,,0,36,36,36,,,,,,,,,,,,,,,,,,,,,,,,,,,1,0.3193974749992776,,,,,,,,,,,,,,,,,,',001,2019_Feb_28_1417,body_behavioural,3.0.4,59.93460954312745,
2,The other people let them move up to the front of the checkout line. ,3,4,,,,0,2,2,2,,,,,0,37,37,37,,,,,,,,,,,,,,,,,,,,,,,,,,,1,0.36736972499784315,,,,,,,,,,,,,,,,,,',001,2019_Feb_28_1417,body_behavioural,3.0.4,59.93460954312745,
2,The cashier congratulated them and scanned their cranberry sauce. ,4,4,,,,0,2,2,2,,,,,0,38,38,38,,,,,,,,,,,,,,,,,,,,,,,,,,,1,0.30296130499846186,,,,,,,,,,,,,,,,,,',001,2019_Feb_28_1417,body_behavioural,3.0.4,59.93460954312745,
2,The total came to $4 and Chloe paid in cash while getting distracted and staring at the ring as she pulled out the bills.,4,4,,,,0,2,2,2,,,,,0,39,39,39,,,,,,,,,,,,,,,,,,,,,,,,,,,1,0.3196676469997328,,,,,,,,,,,,,,,,,,',001,2019_Feb_28_1417,body_behavioural,3.0.4,59.93460954312745,
2,"Alex grabbed the cans, and they walked out with their friends bunched around them. ",4,4,,,,0,2,2,2,,,,,0,40,40,40,,,,,,,,,,,,,,,,,,,,,,,,,,,1,0.3529948819996207,,,,,,,,,,,,,,,,,,',001,2019_Feb_28_1417,body_behavioural,3.0.4,59.93460954312745,
2,,,,,,,0,2,2,2,,,,,,,,,,,,,,,,,,,,,,,,,,,,,,,,,,,,,,,,,,,,,,,,,,,,,,',001,2019_Feb_28_1417,body_behavioural,3.0.4,59.93460954312745,
3,,,,,,,0,3,3,3,0,0,0,0,,,,,,,,,,,,,,,,,,,,,,,,,space,0.6031126669986406,space,0.28625995999755105,space,0.45294020700021065,,,,,,,,,,,,,,,,,,,,',001,2019_Feb_28_1417,body_behavioural,3.0.4,59.93460954312745,
3,The grocery store was not the place Emmanuella and Liam wanted to be at the moment considering they had been fighting beforehand to the point where Emmanuella was thinking of breaking up with Liam.,1,1,,,,0,3,3,3,,,,,0,0,0,0,,,,,,,,,,,,,,,,,,,,,,,,,,,1,0.6865132120001363,,,,,,,,,,,,,,,,,,',001,2019_Feb_28_1417,body_behavioural,3.0.4,59.93460954312745,
3,"However, they had to go grocery shopping because they were hosting a dinner party for friends that evening and had no groceries. ",1,1,,,,0,3,3,3,,,,,0,1,1,1,,,,,,,,,,,,,,,,,,,,,,,,,,,1,0.3530197270010831,,,,,,,,,,,,,,,,,,',001,2019_Feb_28_1417,body_behavioural,3.0.4,59.93460954312745,
3,The grocery store was dimly lit and had dark wood paneling for all the shelves.,1,1,,,,0,3,3,3,,,,,0,2,2,2,,,,,,,,,,,,,,,,,,,,,,,,,,,1,0.2696912200008228,,,,,,,,,,,,,,,,,,',001,2019_Feb_28_1417,body_behavioural,3.0.4,59.93460954312745,
3,"The store specialized in organic produce and products catering to desires for high-end products, such as imported cheeses and sauces. ",1,1,,,,0,3,3,3,,,,,0,3,3,3,,,,,,,,,,,,,,,,,,,,,,,,,,,1,0.2388801279994368,,,,,,,,,,,,,,,,,,',001,2019_Feb_28_1417,body_behavioural,3.0.4,59.93460954312745,
3,"Emmanuella felt angry as she headed immediately for the pasta section, and Liam trailed behind her. ",2,1,,,,0,3,3,3,,,,,0,4,4,4,,,,,,,,,,,,,,,,,,,,,,,,,,,1,0.2689413970001624,,,,,,,,,,,,,,,,,,',001,2019_Feb_28_1417,body_behavioural,3.0.4,59.93460954312745,
3,Emmanuella selected a few boxes of linguine.,2,1,,,,0,3,3,3,,,,,0,5,5,5,,,,,,,,,,,,,,,,,,,,,,,,,,,1,0.5667255200023646,,,,,,,,,,,,,,,,,,',001,2019_Feb_28_1417,body_behavioural,3.0.4,59.93460954312745,
3,"“I guess we are having pasta tonight,” Liam said.",2,1,,,,0,3,3,3,,,,,0,6,6,6,,,,,,,,,,,,,,,,,,,,,,,,,,,1,0.5029973450000398,,,,,,,,,,,,,,,,,,',001,2019_Feb_28_1417,body_behavioural,3.0.4,59.93460954312745,
3,"Emmanuella looked back at him and said, “Well if you were going to actually help cook, I would be fine with something else.”",2,1,,,,0,3,3,3,,,,,0,7,7,7,,,,,,,,,,,,,,,,,,,,,,,,,,,1,0.46959806000086246,,,,,,,,,,,,,,,,,,',001,2019_Feb_28_1417,body_behavioural,3.0.4,59.93460954312745,
3,"Liam sighed, and finally said, “You don’t want me to help.",2,1,,,,0,3,3,3,,,,,0,8,8,8,,,,,,,,,,,,,,,,,,,,,,,,,,,1,0.3196498320030514,,,,,,,,,,,,,,,,,,',001,2019_Feb_28_1417,body_behavioural,3.0.4,59.93460954312745,
3,"I try to, but it seems like I always get in the way!” ",2,1,,,,0,3,3,3,,,,,0,9,9,9,,,,,,,,,,,,,,,,,,,,,,,,,,,1,0.3693857550024404,,,,,,,,,,,,,,,,,,',001,2019_Feb_28_1417,body_behavioural,3.0.4,59.93460954312745,
3,"Emmanuella angrily threw the pasta into the cart, losing her temper.",2,1,,,,0,3,3,3,,,,,0,10,10,10,,,,,,,,,,,,,,,,,,,,,,,,,,,1,0.15301642699705553,,,,,,,,,,,,,,,,,,',001,2019_Feb_28_1417,body_behavioural,3.0.4,59.93460954312745,
3," “Liam, you don’t even try!",2,1,,,,0,3,3,3,,,,,0,11,11,11,,,,,,,,,,,,,,,,,,,,,,,,,,,1,0.4030013300034625,,,,,,,,,,,,,,,,,,',001,2019_Feb_28_1417,body_behavioural,3.0.4,59.93460954312745,
3,You know what?,2,1,,,,0,3,3,3,,,,,0,12,12,12,,,,,,,,,,,,,,,,,,,,,,,,,,,1,0.819802764999622,,,,,,,,,,,,,,,,,,',001,2019_Feb_28_1417,body_behavioural,3.0.4,59.93460954312745,
3,I don’t think I can do this anymore. ,2,2,,,,0,3,3,3,,,,,0,13,13,13,,,,,,,,,,,,,,,,,,,,,,,,,,,1,0.35261005999927875,,,,,,,,,,,,,,,,,,',001,2019_Feb_28_1417,body_behavioural,3.0.4,59.93460954312745,
3,"I was going to wait until after this unfortunately-timed dinner party tonight to talk about this, but I might as well say it now: I don’t want to be in a relationship with you anymore.",2,2,,,,0,3,3,3,,,,,0,14,14,14,,,,,,,,,,,,,,,,,,,,,,,,,,,1,0.6863291349982319,,,,,,,,,,,,,,,,,,',001,2019_Feb_28_1417,body_behavioural,3.0.4,59.93460954312745,
3," I’m tired of the constant fighting, and I feel like when we try to do anything fun anymore it ends up unpleasant for the stupidest reasons, and I am just past  trying to work things out.”",2,2,,,,0,3,3,3,,,,,0,15,15,15,,,,,,,,,,,,,,,,,,,,,,,,,,,1,0.3867040099976293,,,,,,,,,,,,,,,,,,',001,2019_Feb_28_1417,body_behavioural,3.0.4,59.93460954312745,
3,"Liam refused to look at her as she picked out sauces for the pasta, and then she threw up her hands, saying, “You know what, if this party is still happening we are going to just eat pasta.”",2,2,,,,0,3,3,3,,,,,0,16,16,16,,,,,,,,,,,,,,,,,,,,,,,,,,,1,0.5858282250010234,,,,,,,,,,,,,,,,,,',001,2019_Feb_28_1417,body_behavioural,3.0.4,59.93460954312745,
3,They headed to the checkout area where there was only one station open but it was not crowded at all.,3,2,,,,0,3,3,3,,,,,0,17,17,17,,,,,,,,,,,,,,,,,,,,,,,,,,,1,0.40059163499972783,,,,,,,,,,,,,,,,,,',001,2019_Feb_28_1417,body_behavioural,3.0.4,59.93460954312745,
3,Emmanuella sighed and got in line while Liam pretended to be interested in the magazine racks as he thought. ,3,2,,,,0,3,3,3,,,,,0,18,18,18,,,,,,,,,,,,,,,,,,,,,,,,,,,1,0.36961448500005645,,,,,,,,,,,,,,,,,,',001,2019_Feb_28_1417,body_behavioural,3.0.4,59.93460954312745,
3,"Finally he turned to her and sighed, “Yes, I was thinking the same thing - I think we could definitely be happier with other people.” ",3,3,,,,0,3,3,3,,,,,0,19,19,19,,,,,,,,,,,,,,,,,,,,,,,,,,,1,0.3697193820007669,,,,,,,,,,,,,,,,,,',001,2019_Feb_28_1417,body_behavioural,3.0.4,59.93460954312745,
3,"As if she hadn't heard him, Emmanuella looked at their cart and said, “I'm not sure this will be enough, could you grab another box of pasta?”",3,3,,,,0,3,3,3,,,,,0,20,20,20,,,,,,,,,,,,,,,,,,,,,,,,,,,1,0.3525871300007566,,,,,,,,,,,,,,,,,,',001,2019_Feb_28_1417,body_behavioural,3.0.4,59.93460954312745,
3, Liam scoffed and walked off to quickly get it.,3,3,,,,0,3,3,3,,,,,0,21,21,21,,,,,,,,,,,,,,,,,,,,,,,,,,,1,0.3862873750003928,,,,,,,,,,,,,,,,,,',001,2019_Feb_28_1417,body_behavioural,3.0.4,59.93460954312745,
3,"As Emmanuella waited in line, she took a moment to compose herself, deciding that there was no reason to continue making a scene in the store. ",3,3,,,,0,3,3,3,,,,,0,22,22,22,,,,,,,,,,,,,,,,,,,,,,,,,,,1,0.38633825999932014,,,,,,,,,,,,,,,,,,',001,2019_Feb_28_1417,body_behavioural,3.0.4,59.93460954312745,
3," Right when Liam came back with the pasta, the cashier started scanning their groceries.",4,3,,,,0,3,3,3,,,,,0,23,23,23,,,,,,,,,,,,,,,,,,,,,,,,,,,1,0.35303901500083157,,,,,,,,,,,,,,,,,,',001,2019_Feb_28_1417,body_behavioural,3.0.4,59.93460954312745,
3,"The cost came to $30, and Emmanuella paid with her credit card.",4,3,,,,0,3,3,3,,,,,0,24,24,24,,,,,,,,,,,,,,,,,,,,,,,,,,,1,0.8030264369990618,,,,,,,,,,,,,,,,,,',001,2019_Feb_28_1417,body_behavioural,3.0.4,59.93460954312745,
3,"She asked Liam politely to take the bags, and he obliged, following her to toward the exit. ",4,3,,,,0,3,3,3,,,,,0,25,25,25,,,,,,,,,,,,,,,,,,,,,,,,,,,1,0.3364826750002976,,,,,,,,,,,,,,,,,,',001,2019_Feb_28_1417,body_behavioural,3.0.4,59.93460954312745,
3,"“Liam, I think we are making the right decision.",4,4,,,,0,3,3,3,,,,,0,26,26,26,,,,,,,,,,,,,,,,,,,,,,,,,,,1,0.3862812900006247,,,,,,,,,,,,,,,,,,',001,2019_Feb_28_1417,body_behavioural,3.0.4,59.93460954312745,
3,This is good.” ,4,4,,,,0,3,3,3,,,,,0,27,27,27,,,,,,,,,,,,,,,,,,,,,,,,,,,1,0.33630130699748406,,,,,,,,,,,,,,,,,,',001,2019_Feb_28_1417,body_behavioural,3.0.4,59.93460954312745,
3,"“I agree,” he said, visibly relieved at the thought that they had gotten through the last fight they would ever need to have.",4,4,,,,0,3,3,3,,,,,0,28,28,28,,,,,,,,,,,,,,,,,,,,,,,,,,,1,0.30251699200016446,,,,,,,,,,,,,,,,,,',001,2019_Feb_28_1417,body_behavioural,3.0.4,59.93460954312745,
3,"“I think we can still host this dinner tonight, as long as you're still on board,” Emmanuella said.",4,4,,,,0,3,3,3,,,,,0,29,29,29,,,,,,,,,,,,,,,,,,,,,,,,,,,1,0.31919727999775205,,,,,,,,,,,,,,,,,,',001,2019_Feb_28_1417,body_behavioural,3.0.4,59.93460954312745,
3,"Liam nodded, “Yes, let’s just not tell anyone yet.” ",4,4,,,,0,3,3,3,,,,,0,30,30,30,,,,,,,,,,,,,,,,,,,,,,,,,,,1,0.3693988550003269,,,,,,,,,,,,,,,,,,',001,2019_Feb_28_1417,body_behavioural,3.0.4,59.93460954312745,
3,"Emmanuella laughed, “Whoever leaks it loses their rights to the cat.”",4,4,,,,0,3,3,3,,,,,0,31,31,31,,,,,,,,,,,,,,,,,,,,,,,,,,,1,0.7862514699991152,,,,,,,,,,,,,,,,,,',001,2019_Feb_28_1417,body_behavioural,3.0.4,59.93460954312745,
3,"Liam rolled his eyes and managed a weak chuckle, knowing the cat would be a whole other issue to sort out later.
",4,4,,,,0,3,3,3,,,,,0,32,32,32,,,,,,,,,,,,,,,,,,,,,,,,,,,1,0.4029696530014917,,,,,,,,,,,,,,,,,,',001,2019_Feb_28_1417,body_behavioural,3.0.4,59.93460954312745,
3,,,,,,,0,3,3,3,,,,,,,,,,,,,,,,,,,,,,,,,,,,,,,,,,,,,,,,,,,,,,,,,,,,,,',001,2019_Feb_28_1417,body_behavioural,3.0.4,59.93460954312745,
4,,,,,,,0,4,4,4,0,0,0,0,,,,,,,,,,,,,,,,,,,,,,,,,space,0.6528396149988112,space,0.30248446500263526,space,0.4029860800001188,,,,,,,,,,,,,,,,,,,,',001,2019_Feb_28_1417,body_behavioural,3.0.4,59.93460954312745,
4,"Leon and  Ariana hurried into the classroom at the same time, and Leon did a double-take when he saw her. ",1,1,,,,0,4,4,4,,,,,0,0,0,0,,,,,,,,,,,,,,,,,,,,,,,,,,,1,0.5674848969974846,,,,,,,,,,,,,,,,,,',001,2019_Feb_28_1417,body_behavioural,3.0.4,59.93460954312745,
4,"This was his first day after transferring to this university, and he had assumed that he wouldn’t know anyone on campus, but he couldn't shake the nagging feeling  that he had seen her somewhere before. ",1,1,,,,0,4,4,4,,,,,0,1,1,1,,,,,,,,,,,,,,,,,,,,,,,,,,,1,2.119811791999382,,,,,,,,,,,,,,,,,,',001,2019_Feb_28_1417,body_behavioural,3.0.4,59.93460954312745,
4,"They were both a bit late, so they quickly slid into seats next to each other in the back of the small classroom.",1,1,,,,0,4,4,4,,,,,0,2,2,2,,,,,,,,,,,,,,,,,,,,,,,,,,,1,0.468763533001038,,,,,,,,,,,,,,,,,,',001,2019_Feb_28_1417,body_behavioural,3.0.4,59.93460954312745,
4,"This room was usually used for small meetings, but had been rearranged with the table pushed to the side and chairs set up in rows to face the projector screen. ",1,1,,,,0,4,4,4,,,,,0,3,3,3,,,,,,,,,,,,,,,,,,,,,,,,,,,1,0.5203313130004972,,,,,,,,,,,,,,,,,,',001,2019_Feb_28_1417,body_behavioural,3.0.4,59.93460954312745,
4,"There were no windows in the room, since they were down in the sub-basement of the history department.",1,1,,,,0,4,4,4,,,,,0,4,4,4,,,,,,,,,,,,,,,,,,,,,,,,,,,1,0.38638281199746416,,,,,,,,,,,,,,,,,,',001,2019_Feb_28_1417,body_behavioural,3.0.4,59.93460954312745,
4,"Leon, trying to figure out where he had seen her before, could not stop looking over at Ariana.",1,1,,,,0,4,4,4,,,,,0,5,5,5,,,,,,,,,,,,,,,,,,,,,,,,,,,1,0.36707499000112875,,,,,,,,,,,,,,,,,,',001,2019_Feb_28_1417,body_behavioural,3.0.4,59.93460954312745,
4,Ariana was oblivious to Leon’s gaze and was only focused on getting ready for class. ,1,1,,,,0,4,4,4,,,,,0,6,6,6,,,,,,,,,,,,,,,,,,,,,,,,,,,1,0.38591976200041245,,,,,,,,,,,,,,,,,,',001,2019_Feb_28_1417,body_behavioural,3.0.4,59.93460954312745,
4,"“Good afternoon class,” the professor began.",2,1,,,,0,4,4,4,,,,,0,7,7,7,,,,,,,,,,,,,,,,,,,,,,,,,,,1,0.4196279619973211,,,,,,,,,,,,,,,,,,',001,2019_Feb_28_1417,body_behavioural,3.0.4,59.93460954312745,
4,“Welcome to Egyptian Cultural Studies. ,2,1,,,,0,4,4,4,,,,,0,8,8,8,,,,,,,,,,,,,,,,,,,,,,,,,,,1,0.3364858950008056,,,,,,,,,,,,,,,,,,',001,2019_Feb_28_1417,body_behavioural,3.0.4,59.93460954312745,
4,"Today we will be talking about mummification, one of the most famous and often misunderstood customs in ancient Egyptian society.”",2,1,,,,0,4,4,4,,,,,0,9,9,9,,,,,,,,,,,,,,,,,,,,,,,,,,,1,0.41771640500155627,,,,,,,,,,,,,,,,,,',001,2019_Feb_28_1417,body_behavioural,3.0.4,59.93460954312745,
4,Leon pulled out his notebook and tried to concentrate on the class.,2,1,,,,0,4,4,4,,,,,0,10,10,10,,,,,,,,,,,,,,,,,,,,,,,,,,,1,0.43588725500012515,,,,,,,,,,,,,,,,,,',001,2019_Feb_28_1417,body_behavioural,3.0.4,59.93460954312745,
4,Within a few minutes though he found his attention wandering back to Ariana.,2,1,,,,0,4,4,4,,,,,0,11,11,11,,,,,,,,,,,,,,,,,,,,,,,,,,,1,0.30300267500206246,,,,,,,,,,,,,,,,,,',001,2019_Feb_28_1417,body_behavioural,3.0.4,59.93460954312745,
4,"He decided to do something about his hunch so he ripped off a corner of a page in his notebook, wrote a note, and set it on her desk.",2,1,,,,0,4,4,4,,,,,0,12,12,12,,,,,,,,,,,,,,,,,,,,,,,,,,,1,0.16962811700068414,,,,,,,,,,,,,,,,,,',001,2019_Feb_28_1417,body_behavioural,3.0.4,59.93460954312745,
4,"“Hi, sorry to distract you from mummies, but you look really familiar," it read.",2,2,,,,0,4,4,4,,,,,0,13,13,13,,,,,,,,,,,,,,,,,,,,,,,,,,,1,0.31940429200039944,,,,,,,,,,,,,,,,,,',001,2019_Feb_28_1417,body_behavioural,3.0.4,59.93460954312745,
4,It continued: “Do I know you from somewhere?”,2,2,,,,0,4,4,4,,,,,0,14,14,14,,,,,,,,,,,,,,,,,,,,,,,,,,,1,0.26988713500031736,,,,,,,,,,,,,,,,,,',001,2019_Feb_28_1417,body_behavioural,3.0.4,59.93460954312745,
4,"She looked at the note with surprise, and then turned to notice Leon for the first time. ",2,2,,,,0,4,4,4,,,,,0,15,15,15,,,,,,,,,,,,,,,,,,,,,,,,,,,1,0.18583871699956944,,,,,,,,,,,,,,,,,,',001,2019_Feb_28_1417,body_behavioural,3.0.4,59.93460954312745,
4,"She instantly liked him when she saw him; he had very soft eyes and sharp features, a combination that made him seem  trustworthy and genuine.",2,2,,,,0,4,4,4,,,,,0,16,16,16,,,,,,,,,,,,,,,,,,,,,,,,,,,1,0.5029524829988077,,,,,,,,,,,,,,,,,,',001,2019_Feb_28_1417,body_behavioural,3.0.4,59.93460954312745,
4,He smiled at her and she flashed him a smile back.,2,2,,,,0,4,4,4,,,,,0,17,17,17,,,,,,,,,,,,,,,,,,,,,,,,,,,1,0.36959705199842574,,,,,,,,,,,,,,,,,,',001,2019_Feb_28_1417,body_behavioural,3.0.4,59.93460954312745,
4,Then she turned the note over to the back and started to write a reply.,2,2,,,,0,4,4,4,,,,,0,18,18,18,,,,,,,,,,,,,,,,,,,,,,,,,,,1,0.3007657999987714,,,,,,,,,,,,,,,,,,',001,2019_Feb_28_1417,body_behavioural,3.0.4,59.93460954312745,
4,"Meanwhile the professor continued, “One may well question why the ancient Egyptians spent so much time and effort on their funerary practices.",3,2,,,,0,4,4,4,,,,,0,19,19,19,,,,,,,,,,,,,,,,,,,,,,,,,,,1,0.33397696199972415,,,,,,,,,,,,,,,,,,',001,2019_Feb_28_1417,body_behavioural,3.0.4,59.93460954312745,
4,"Not only was the mummification process itself a complicated affair, but there were also elaborate rituals before, during, and after death.",3,2,,,,0,4,4,4,,,,,0,20,20,20,,,,,,,,,,,,,,,,,,,,,,,,,,,1,0.3029537150032411,,,,,,,,,,,,,,,,,,',001,2019_Feb_28_1417,body_behavioural,3.0.4,59.93460954312745,
4,The practice required teams of experts with years of training and took a total of 70 days to complete.” ,3,2,,,,0,4,4,4,,,,,0,21,21,21,,,,,,,,,,,,,,,,,,,,,,,,,,,1,0.286082427999645,,,,,,,,,,,,,,,,,,',001,2019_Feb_28_1417,body_behavioural,3.0.4,59.93460954312745,
4,"Ariana passed the note back to Leon, and she had replied, “No, but maybe my twin and I were separated at birth.”",3,2,,,,0,4,4,4,,,,,0,22,22,22,,,,,,,,,,,,,,,,,,,,,,,,,,,1,0.26978983500157483,,,,,,,,,,,,,,,,,,',001,2019_Feb_28_1417,body_behavioural,3.0.4,59.93460954312745,
4,They passed notes back and forth the whole class like they were back in high school.,3,2,,,,0,4,4,4,,,,,0,23,23,23,,,,,,,,,,,,,,,,,,,,,,,,,,,1,0.30295244000080856,,,,,,,,,,,,,,,,,,',001,2019_Feb_28_1417,body_behavioural,3.0.4,59.93460954312745,
4,"Near the end of the lecture, Leon wrote, “Would you like to go to dinner tonight?” ",3,3,,,,0,4,4,4,,,,,0,24,24,24,,,,,,,,,,,,,,,,,,,,,,,,,,,1,0.26972090499839396,,,,,,,,,,,,,,,,,,',001,2019_Feb_28_1417,body_behavioural,3.0.4,59.93460954312745,
4,"Ariana read the note, and looked at him and nodded her head",3,3,,,,0,4,4,4,,,,,0,25,25,25,,,,,,,,,,,,,,,,,,,,,,,,,,,1,0.26996846000110963,,,,,,,,,,,,,,,,,,',001,2019_Feb_28_1417,body_behavioural,3.0.4,59.93460954312745,
4,"She wrote back on the slip of paper, “Pick me up at 6 in front of Patton Hall.”",3,3,,,,0,4,4,4,,,,,0,26,26,26,,,,,,,,,,,,,,,,,,,,,,,,,,,1,0.3368182130034256,,,,,,,,,,,,,,,,,,',001,2019_Feb_28_1417,body_behavioural,3.0.4,59.93460954312745,
4,Then the professor ended the lecture and announced to the class that they would have their first quiz next class on Friday on mummification. ,4,3,,,,0,4,4,4,,,,,0,27,27,27,,,,,,,,,,,,,,,,,,,,,,,,,,,1,0.30062081500000204,,,,,,,,,,,,,,,,,,',001,2019_Feb_28_1417,body_behavioural,3.0.4,59.93460954312745,
4,"Everyone packed up and started heading out, as well as Sophie and Leon.",4,3,,,,0,4,4,4,,,,,0,28,28,28,,,,,,,,,,,,,,,,,,,,,,,,,,,1,0.3359726570015482,,,,,,,,,,,,,,,,,,',001,2019_Feb_28_1417,body_behavioural,3.0.4,59.93460954312745,
4,"They approached each other smiling, and Leon said, “Well it was great to meet you, again, or maybe not again, but regardless it was great to meet you.” ",4,3,,,,0,4,4,4,,,,,0,29,29,29,,,,,,,,,,,,,,,,,,,,,,,,,,,1,0.31967083000199636,,,,,,,,,,,,,,,,,,',001,2019_Feb_28_1417,body_behavioural,3.0.4,59.93460954312745,
4,"She replied, “Yes, it was.",4,4,,,,0,4,4,4,,,,,0,30,30,30,,,,,,,,,,,,,,,,,,,,,,,,,,,1,0.43406693499855464,,,,,,,,,,,,,,,,,,',001,2019_Feb_28_1417,body_behavioural,3.0.4,59.93460954312745,
4,"I have to run to my next class, but I’ll see you later tonight.” ",4,4,,,,0,4,4,4,,,,,0,31,31,31,,,,,,,,,,,,,,,,,,,,,,,,,,,1,0.33630350500243367,,,,,,,,,,,,,,,,,,',001,2019_Feb_28_1417,body_behavioural,3.0.4,59.93460954312745,
4,"She waved as they parted ways outside of the door of the classroom, and Leon was still trying to figure out where he had seen her before as he watched her go. ",4,4,,,,0,4,4,4,,,,,0,32,32,32,,,,,,,,,,,,,,,,,,,,,,,,,,,1,0.36775030299759237,,,,,,,,,,,,,,,,,,',001,2019_Feb_28_1417,body_behavioural,3.0.4,59.93460954312745,
4,,,,,,,0,4,4,4,,,,,,,,,,,,,,,,,,,,,,,,,,,,,,,,,,,,,,,,,,,,,,,,,,,,,,',001,2019_Feb_28_1417,body_behavioural,3.0.4,59.93460954312745,
5,,,,,,,0,5,5,5,0,0,0,0,,,,,,,,,,,,,,,,,,,,,,,,,space,0.6363222649997624,space,0.35294927999711945,space,0.5690379690022382,,,,,,,,,,,,,,,,,,,,',001,2019_Feb_28_1417,body_behavioural,3.0.4,59.93460954312745,
5,David saw Anna for the first time when she burst into the airport with her bag skidding behind her half-zipped. ,1,1,,,,0,5,5,5,,,,,0,0,0,0,,,,,,,,,,,,,,,,,,,,,,,,,,,1,0.3865127399985795,,,,,,,,,,,,,,,,,,',001,2019_Feb_28_1417,body_behavioural,3.0.4,59.93460954312745,
5,"He had three hours until his flight, but she clearly had less than one.",1,1,,,,0,5,5,5,,,,,0,1,1,1,,,,,,,,,,,,,,,,,,,,,,,,,,,1,0.36749607299861964,,,,,,,,,,,,,,,,,,',001,2019_Feb_28_1417,body_behavioural,3.0.4,59.93460954312745,
5,"Anna’s yoga class had ran over, and afterwards, she, forgetting the time, had lingered to talk with friends. ",1,1,,,,0,5,5,5,,,,,0,2,2,2,,,,,,,,,,,,,,,,,,,,,,,,,,,1,0.5363565449988528,,,,,,,,,,,,,,,,,,',001,2019_Feb_28_1417,body_behavioural,3.0.4,59.93460954312745,
5,"Despite Anna's frazzled state, David was instantly intrigued by her.",1,1,,,,0,5,5,5,,,,,0,3,3,3,,,,,,,,,,,,,,,,,,,,,,,,,,,1,0.3199063819993171,,,,,,,,,,,,,,,,,,',001,2019_Feb_28_1417,body_behavioural,3.0.4,59.93460954312745,
5,"He thought she was beautiful, and she reminded him of one of his favorite paintings.",1,1,,,,0,5,5,5,,,,,0,4,4,4,,,,,,,,,,,,,,,,,,,,,,,,,,,1,0.3533801850026066,,,,,,,,,,,,,,,,,,',001,2019_Feb_28_1417,body_behavioural,3.0.4,59.93460954312745,
5,"Anna, a few strides into the airport, suddenly realized her shoes were untied, so she hunched over to tie them.",1,1,,,,0,5,5,5,,,,,0,5,5,5,,,,,,,,,,,,,,,,,,,,,,,,,,,1,0.3340631899991422,,,,,,,,,,,,,,,,,,',001,2019_Feb_28_1417,body_behavioural,3.0.4,59.93460954312745,
5,David observed that someone with a tall cart of luggage was heading straight for where Anna was kneeling. ,1,1,,,,0,5,5,5,,,,,0,6,6,6,,,,,,,,,,,,,,,,,,,,,,,,,,,1,0.4193633549984952,,,,,,,,,,,,,,,,,,',001,2019_Feb_28_1417,body_behavioural,3.0.4,59.93460954312745,
5,Both Anna and the person driving the cart were oblivious to the impending collision. ,1,1,,,,0,5,5,5,,,,,0,7,7,7,,,,,,,,,,,,,,,,,,,,,,,,,,,1,0.31953711499954807,,,,,,,,,,,,,,,,,,',001,2019_Feb_28_1417,body_behavioural,3.0.4,59.93460954312745,
5,"David had to intervene, and he ran in front of the cart pushing her out of the way just in the nick of time, and they tumbled on the airport floor. ",1,2,,,,0,5,5,5,,,,,0,8,8,8,,,,,,,,,,,,,,,,,,,,,,,,,,,1,0.3197930300011649,,,,,,,,,,,,,,,,,,',001,2019_Feb_28_1417,body_behavioural,3.0.4,59.93460954312745,
5,"Anna, bewildered, looked up and saw the cart pass by and then looked over at David. ",1,2,,,,0,5,5,5,,,,,0,9,9,9,,,,,,,,,,,,,,,,,,,,,,,,,,,1,0.38668844000130775,,,,,,,,,,,,,,,,,,',001,2019_Feb_28_1417,body_behavioural,3.0.4,59.93460954312745,
5,He gave a smile back.,1,2,,,,0,5,5,5,,,,,0,10,10,10,,,,,,,,,,,,,,,,,,,,,,,,,,,1,0.35276512500058743,,,,,,,,,,,,,,,,,,',001,2019_Feb_28_1417,body_behavioural,3.0.4,59.93460954312745,
5,"“You alright?”, he said.",1,2,,,,0,5,5,5,,,,,0,11,11,11,,,,,,,,,,,,,,,,,,,,,,,,,,,1,0.3363315099995816,,,,,,,,,,,,,,,,,,',001,2019_Feb_28_1417,body_behavioural,3.0.4,59.93460954312745,
5,"She whispered, “Uh yeah.",1,2,,,,0,5,5,5,,,,,0,12,12,12,,,,,,,,,,,,,,,,,,,,,,,,,,,1,0.28636290000213194,,,,,,,,,,,,,,,,,,',001,2019_Feb_28_1417,body_behavioural,3.0.4,59.93460954312745,
5,I almost got smooshed by that cart.”,1,2,,,,0,5,5,5,,,,,0,13,13,13,,,,,,,,,,,,,,,,,,,,,,,,,,,1,0.3031552200009173,,,,,,,,,,,,,,,,,,',001,2019_Feb_28_1417,body_behavioural,3.0.4,59.93460954312745,
5,Her head was still spinning as she stared at the handsome stranger who had saved her. ,1,2,,,,0,5,5,5,,,,,0,14,14,14,,,,,,,,,,,,,,,,,,,,,,,,,,,1,0.30302122499779216,,,,,,,,,,,,,,,,,,',001,2019_Feb_28_1417,body_behavioural,3.0.4,59.93460954312745,
5,David helped her up and had to keep holding on to her arms to steady her even once they were standing.,1,2,,,,0,5,5,5,,,,,0,15,15,15,,,,,,,,,,,,,,,,,,,,,,,,,,,1,0.2862417899996217,,,,,,,,,,,,,,,,,,',001,2019_Feb_28_1417,body_behavioural,3.0.4,59.93460954312745,
5,"“I’m really late for my flight,” she said. ",1,2,,,,0,5,5,5,,,,,0,16,16,16,,,,,,,,,,,,,,,,,,,,,,,,,,,1,0.3191901600002893,,,,,,,,,,,,,,,,,,',001,2019_Feb_28_1417,body_behavioural,3.0.4,59.93460954312745,
5,"“Don't worry,” said David, "let me help you get to your gate." ",1,2,,,,0,5,5,5,,,,,0,17,17,17,,,,,,,,,,,,,,,,,,,,,,,,,,,1,0.2531507350031461,,,,,,,,,,,,,,,,,,',001,2019_Feb_28_1417,body_behavioural,3.0.4,59.93460954312745,
5,He waved off her half-hearted protests. ,1,2,,,,0,5,5,5,,,,,0,18,18,18,,,,,,,,,,,,,,,,,,,,,,,,,,,1,0.2692799600008584,,,,,,,,,,,,,,,,,,',001,2019_Feb_28_1417,body_behavioural,3.0.4,59.93460954312745,
5,"“Really , I have plenty of time and nothing better to do.”",1,2,,,,0,5,5,5,,,,,0,19,19,19,,,,,,,,,,,,,,,,,,,,,,,,,,,1,0.23641232699810644,,,,,,,,,,,,,,,,,,',001,2019_Feb_28_1417,body_behavioural,3.0.4,59.93460954312745,
5,They headed to the security line. ,2,2,,,,0,5,5,5,,,,,0,20,20,20,,,,,,,,,,,,,,,,,,,,,,,,,,,1,0.20317188999979408,,,,,,,,,,,,,,,,,,',001,2019_Feb_28_1417,body_behavioural,3.0.4,59.93460954312745,
5,"The line was not long, and they spent the time chatting and getting to know each other.",2,2,,,,0,5,5,5,,,,,0,21,21,21,,,,,,,,,,,,,,,,,,,,,,,,,,,1,0.2833147750025091,,,,,,,,,,,,,,,,,,',001,2019_Feb_28_1417,body_behavioural,3.0.4,59.93460954312745,
5,It turned out that Anna and David went to the same high school but Anna had been 3 years older.,2,2,,,,0,5,5,5,,,,,0,22,22,22,,,,,,,,,,,,,,,,,,,,,,,,,,,1,0.2354603200001293,,,,,,,,,,,,,,,,,,',001,2019_Feb_28_1417,body_behavioural,3.0.4,59.93460954312745,
5,When they got to the front of the line they took off their shoes and pulled off their coats.,2,3,,,,0,5,5,5,,,,,0,23,23,23,,,,,,,,,,,,,,,,,,,,,,,,,,,1,0.23669187900304678,,,,,,,,,,,,,,,,,,',001,2019_Feb_28_1417,body_behavioural,3.0.4,59.93460954312745,
5,Both of them went through the metal detector without any problems. ,2,3,,,,0,5,5,5,,,,,0,24,24,24,,,,,,,,,,,,,,,,,,,,,,,,,,,1,0.21766276199923595,,,,,,,,,,,,,,,,,,',001,2019_Feb_28_1417,body_behavioural,3.0.4,59.93460954312745,
5,"Anna’s flight was in 20 minutes, and as she was rushing to put her shoes and coat back on, David asked her, “So when are you coming back?”",2,3,,,,0,5,5,5,,,,,0,25,25,25,,,,,,,,,,,,,,,,,,,,,,,,,,,1,0.2366099619976012,,,,,,,,,,,,,,,,,,',001,2019_Feb_28_1417,body_behavioural,3.0.4,59.93460954312745,
5,"“In a week, it’s a short trip,” Anna replied. ",2,3,,,,0,5,5,5,,,,,0,26,26,26,,,,,,,,,,,,,,,,,,,,,,,,,,,1,0.30325171500226134,,,,,,,,,,,,,,,,,,',001,2019_Feb_28_1417,body_behavioural,3.0.4,59.93460954312745,
5,"“Me too,” David said.",2,3,,,,0,5,5,5,,,,,0,27,27,27,,,,,,,,,,,,,,,,,,,,,,,,,,,1,0.251747840000462,,,,,,,,,,,,,,,,,,',001,2019_Feb_28_1417,body_behavioural,3.0.4,59.93460954312745,
5,"He continued, “When we're back in town, is there any chance you'd want to get dinner?",2,3,,,,0,5,5,5,,,,,0,28,28,28,,,,,,,,,,,,,,,,,,,,,,,,,,,1,0.2531297870009439,,,,,,,,,,,,,,,,,,',001,2019_Feb_28_1417,body_behavioural,3.0.4,59.93460954312745,
5,"I know we just met, but when life throws a luggage cart at you it seems like we should listen. “",2,3,,,,0,5,5,5,,,,,0,29,29,29,,,,,,,,,,,,,,,,,,,,,,,,,,,1,0.26738315500188037,,,,,,,,,,,,,,,,,,',001,2019_Feb_28_1417,body_behavioural,3.0.4,59.93460954312745,
5,"She stopped packing, and said with a smile, “Yes I would love that.”",2,3,,,,0,5,5,5,,,,,0,30,30,30,,,,,,,,,,,,,,,,,,,,,,,,,,,1,0.2366231650012196,,,,,,,,,,,,,,,,,,',001,2019_Feb_28_1417,body_behavioural,3.0.4,59.93460954312745,
5,Then they ran off to Anna’s gate which was at the end of the terminal. ,3,3,,,,0,5,5,5,,,,,0,31,31,31,,,,,,,,,,,,,,,,,,,,,,,,,,,1,0.23744078799791168,,,,,,,,,,,,,,,,,,',001,2019_Feb_28_1417,body_behavioural,3.0.4,59.93460954312745,
5,"David took put on her backpack, grabbed her hand, and navigated quickly through the crowds of people.",3,3,,,,0,5,5,5,,,,,0,32,32,32,,,,,,,,,,,,,,,,,,,,,,,,,,,1,0.25307667200104333,,,,,,,,,,,,,,,,,,',001,2019_Feb_28_1417,body_behavioural,3.0.4,59.93460954312745,
5,Anna was amazed at everything that was happening; she had arrived at the airport doubtful that she would make it and was now confident that she would due to this handsome and kind man she just met.,3,3,,,,0,5,5,5,,,,,0,33,33,33,,,,,,,,,,,,,,,,,,,,,,,,,,,1,0.8694432849988516,,,,,,,,,,,,,,,,,,',001,2019_Feb_28_1417,body_behavioural,3.0.4,59.93460954312745,
5,"As they approached her gate, Anna fished out a crumbled business card from her pocket and handed it to David, who handed her the backpack, and he promised to call her next week.",3,4,,,,0,5,5,5,,,,,0,34,34,34,,,,,,,,,,,,,,,,,,,,,,,,,,,1,0.3530732379986148,,,,,,,,,,,,,,,,,,',001,2019_Feb_28_1417,body_behavioural,3.0.4,59.93460954312745,
5,She gave him one last embarrassed smile and approached the flight attendant who scanned her ticket. ,3,4,,,,0,5,5,5,,,,,0,35,35,35,,,,,,,,,,,,,,,,,,,,,,,,,,,1,0.4176834720019542,,,,,,,,,,,,,,,,,,',001,2019_Feb_28_1417,body_behavioural,3.0.4,59.93460954312745,
5,"Finally, she boarded the plane, sliding into her window seat located all the way in the back of the plane.",4,4,,,,0,5,5,5,,,,,0,36,36,36,,,,,,,,,,,,,,,,,,,,,,,,,,,1,0.652497842998855,,,,,,,,,,,,,,,,,,',001,2019_Feb_28_1417,body_behavioural,3.0.4,59.93460954312745,
5,"Barely containing her glee, she ignored the grumbles of complaint as she squeezed past the other passengers in her row and settled back in her seat. ",4,4,,,,0,5,5,5,,,,,0,37,37,37,,,,,,,,,,,,,,,,,,,,,,,,,,,1,0.3531056380015798,,,,,,,,,,,,,,,,,,',001,2019_Feb_28_1417,body_behavioural,3.0.4,59.93460954312745,
5,"She was thankful that she had not only made it onto the plane in time, but also that she had been clumsy enough to forget to tie her shoes.",4,4,,,,0,5,5,5,,,,,0,38,38,38,,,,,,,,,,,,,,,,,,,,,,,,,,,1,0.31972184299957007,,,,,,,,,,,,,,,,,,',001,2019_Feb_28_1417,body_behavioural,3.0.4,59.93460954312745,
5,,,,,,,0,5,5,5,,,,,,,,,,,,,,,,,,,,,,,,,,,,,,,,,,,,,,,,,,,,,,,,,,,,,,',001,2019_Feb_28_1417,body_behavioural,3.0.4,59.93460954312745,
6,,,,,,,0,6,6,6,0,0,0,0,,,,,,,,,,,,,,,,,,,,,,,,,space,0.5028925469996466,space,0.3365350070016575,space,0.4037282419994881,,,,,,,,,,,,,,,,,,,,',001,2019_Feb_28_1417,body_behavioural,3.0.4,59.93460954312745,
6,,,,,,,0,6,6,6,1,0,1,0,,,,,,,,,,,,,,,,,,,,,,,,,,,,,space,1.5508546700002626,,,,,,,,,,,,,,,,,,,,',001,2019_Feb_28_1417,body_behavioural,3.0.4,59.93460954312745,
6,"Alvira and Senna walked into the restaurant hand in sweaty hand with quite different expectations: Senna was going to propose tonight, and Alvira had no idea.",1,1,None,None,,0,6,6,6,,,,,0,0,0,0,,,,,,,,,,,,,,,,,,,,,,,,,,,1,0.900705640000524,,,,,,,,,,,,,,,,,,',001,2019_Feb_28_1417,body_behavioural,3.0.4,59.93460954312745,
6,"He took a deep breath, trying to calm his nerves as worst case scenarios ran through his mind. ",1,1,None,None,,0,6,6,6,,,,,0,1,1,1,,,,,,,,,,,,,,,,,,,,,,,,,,,1,0.25312187199961045,,,,,,,,,,,,,,,,,,',001,2019_Feb_28_1417,body_behavioural,3.0.4,59.93460954312745,
6,The entrance of the restaurant was dazzling; chandeliers spread their warm light onto the delicate place settings of all the tables filled with guests dressed to the nines. ,1,1,None,None,,0,6,6,6,,,,,0,2,2,2,,,,,,,,,,,,,,,,,,,,,,,,,,,1,0.20047025900203153,,,,,,,,,,,,,,,,,,',001,2019_Feb_28_1417,body_behavioural,3.0.4,59.93460954312745,
6,"Through the floor-to-ceiling arched windows of the back wall, they saw the sun setting onto the Pacific ocean.",1,1,None,None,,0,6,6,6,,,,,0,3,3,3,,,,,,,,,,,,,,,,,,,,,,,,,,,1,0.20293699199828552,,,,,,,,,,,,,,,,,,',001,2019_Feb_28_1417,body_behavioural,3.0.4,59.93460954312745,
6,"This was surely one of the best restaurants on the west coast, situated right on the beach.",1,1,None,None,,0,6,6,6,,,,,0,4,4,4,,,,,,,,,,,,,,,,,,,,,,,,,,,1,0.30079183999987436,,,,,,,,,,,,,,,,,,',001,2019_Feb_28_1417,body_behavioural,3.0.4,59.93460954312745,
6,"Senna gave his name to the host, who quickly located their reservation with an almost comically wide customer-service smile.",1,1,7.0,None,,0,6,6,6,,,,,0,5,5,5,,,,,,,,,,,,,,,,,,,,,,,,,,,1,0.2506877970008645,,,,,,,,,,,,,,,,,,',001,2019_Feb_28_1417,body_behavioural,3.0.4,59.93460954312745,
6,He led them to a table right by the window.,2,1,None,None,,0,6,6,6,,,,,0,6,6,6,,,,,,,,,,,,,,,,,,,,,,,,,,,1,0.2697764250006003,,,,,,,,,,,,,,,,,,',001,2019_Feb_28_1417,body_behavioural,3.0.4,59.93460954312745,
6,"He brought out some very small menus, with a short list of the celebrity chef's carefully selected daily dishes written in a loopy, cursive font unadorned by any mention of prices.",2,1,None,9.0,,0,6,6,6,,,,,0,7,7,7,,,,,,,,,,,,,,,,,,,,,,,,,,,1,0.21975784499954898,,,,,,,,,,,,,,,,,,',001,2019_Feb_28_1417,body_behavioural,3.0.4,59.93460954312745,
6,Senna slipped off to the bathroom to check to make sure the ring was in order.,2,2,None,None,,0,6,6,6,,,,,0,8,8,8,,,,,,,,,,,,,,,,,,,,,,,,,,,1,0.25281672699929914,,,,,,,,,,,,,,,,,,',001,2019_Feb_28_1417,body_behavioural,3.0.4,59.93460954312745,
6,"The ring contained a canary diamond that had been in his grandmother’s wedding ring, and it was a brilliant stone that was accentuated by the small white diamonds encircling it.",2,2,None,None,,0,6,6,6,,,,,0,9,9,9,,,,,,,,,,,,,,,,,,,,,,,,,,,1,0.28640516200175625,,,,,,,,,,,,,,,,,,',001,2019_Feb_28_1417,body_behavioural,3.0.4,59.93460954312745,
6,"He walked back to the table after handing the small, velvet box to a waiter at the front podium.",2,2,6.0,None,,0,6,6,6,,,,,0,10,10,10,,,,,,,,,,,,,,,,,,,,,,,,,,,1,0.2694166050023341,,,,,,,,,,,,,,,,,,',001,2019_Feb_28_1417,body_behavioural,3.0.4,59.93460954312745,
6,He came back just as their waiter was approaching the table to get their order.,3,2,None,None,,0,6,6,6,,,,,0,11,11,11,,,,,,,,,,,,,,,,,,,,,,,,,,,1,0.3036356250013341,,,,,,,,,,,,,,,,,,',001,2019_Feb_28_1417,body_behavioural,3.0.4,59.93460954312745,
6,"Senna ordered the oysters with garlic-parmesan sauce, and Alvira ordered the sauteed sea scallops with caramelized apples. ",3,2,None,None,,0,6,6,6,,,,,0,12,12,12,,,,,,,,,,,,,,,,,,,,,,,,,,,1,0.3007289050001418,,,,,,,,,,,,,,,,,,',001,2019_Feb_28_1417,body_behavioural,3.0.4,59.93460954312745,
6,"“Excellent choices,” the waiter said with a subsequent brisk spin away from the table.",3,2,None,None,,0,6,6,6,,,,,0,13,13,13,,,,,,,,,,,,,,,,,,,,,,,,,,,1,0.25284277199898497,,,,,,,,,,,,,,,,,,',001,2019_Feb_28_1417,body_behavioural,3.0.4,59.93460954312745,
6,"“What a beautiful place, Senna. ",3,2,None,None,,0,6,6,6,,,,,0,14,14,14,,,,,,,,,,,,,,,,,,,,,,,,,,,1,0.28586576499947114,,,,,,,,,,,,,,,,,,',001,2019_Feb_28_1417,body_behavioural,3.0.4,59.93460954312745,
6,"Really this is too much just to celebrate the first tomatoes I grew in the garden, like, this is absurd,” Alvira said.",3,2,None,None,,0,6,6,6,,,,,0,15,15,15,,,,,,,,,,,,,,,,,,,,,,,,,,,1,0.2864637300008326,,,,,,,,,,,,,,,,,,',001,2019_Feb_28_1417,body_behavioural,3.0.4,59.93460954312745,
6,"Senna laughed and said, “No, those were really the best tomatoes I’ve ever had. ",3,2,None,None,,0,6,6,6,,,,,0,16,16,16,,,,,,,,,,,,,,,,,,,,,,,,,,,1,0.2858615049990476,,,,,,,,,,,,,,,,,,',001,2019_Feb_28_1417,body_behavioural,3.0.4,59.93460954312745,
6,We had to celebrate.” ,3,2,None,None,,0,6,6,6,,,,,0,17,17,17,,,,,,,,,,,,,,,,,,,,,,,,,,,1,0.3199476150002738,,,,,,,,,,,,,,,,,,',001,2019_Feb_28_1417,body_behavioural,3.0.4,59.93460954312745,
6,"They talked and laughed as the sun sank below the horizon, and the glow from the ocean was replaced by the glow from the chandeliers.",3,2,8.0,None,,0,6,6,6,,,,,0,18,18,18,,,,,,,,,,,,,,,,,,,,,,,,,,,1,0.28635676499834517,,,,,,,,,,,,,,,,,,',001,2019_Feb_28_1417,body_behavioural,3.0.4,59.93460954312745,
6,"The waiter eventually returned with their meals, and everything was even more delicious than they had expected, especially the oysters, which Senna said tasted like the ocean. ",4,2,None,None,,0,6,6,6,,,,,0,19,19,19,,,,,,,,,,,,,,,,,,,,,,,,,,,1,0.26944605500102625,,,,,,,,,,,,,,,,,,',001,2019_Feb_28_1417,body_behavioural,3.0.4,59.93460954312745,
6,Then he paused and looked at Alvira meaningfully. ,4,2,None,None,,0,6,6,6,,,,,0,20,20,20,,,,,,,,,,,,,,,,,,,,,,,,,,,1,0.3694424870009243,,,,,,,,,,,,,,,,,,',001,2019_Feb_28_1417,body_behavioural,3.0.4,59.93460954312745,
6, “It’s really been the best three years of my life with you.,4,2,None,None,,0,6,6,6,,,,,0,21,21,21,,,,,,,,,,,,,,,,,,,,,,,,,,,1,0.6863441599998623,,,,,,,,,,,,,,,,,,',001,2019_Feb_28_1417,body_behavioural,3.0.4,59.93460954312745,
6,"I couldn’t imagine it any other way, and I don’t want to.",4,2,None,None,,0,6,6,6,,,,,0,22,22,22,,,,,,,,,,,,,,,,,,,,,,,,,,,1,0.30312930999934906,,,,,,,,,,,,,,,,,,',001,2019_Feb_28_1417,body_behavioural,3.0.4,59.93460954312745,
6,"I really want to spend the rest of my years eating garden tomatoes, whatever it is, with you.” ",4,2,None,None,,0,6,6,6,,,,,0,23,23,23,,,,,,,,,,,,,,,,,,,,,,,,,,,1,0.25318977699862444,,,,,,,,,,,,,,,,,,',001,2019_Feb_28_1417,body_behavioural,3.0.4,59.93460954312745,
6,"Alvira smiled, “I want the same with you too, Senna.” ",4,2,None,17.0,,0,6,6,6,,,,,0,24,24,24,,,,,,,,,,,,,,,,,,,,,,,,,,,1,0.252732371998718,,,,,,,,,,,,,,,,,,',001,2019_Feb_28_1417,body_behavioural,3.0.4,59.93460954312745,
6,"Senna nodded at the waiter who had been watching attentively, and he quickly strode over to place a small, elegant cake topped with the ring in front of Alvira. ",4,3,None,None,,0,6,6,6,,,,,0,25,25,25,,,,,,,,,,,,,,,,,,,,,,,,,,,1,0.2360983649996342,,,,,,,,,,,,,,,,,,',001,2019_Feb_28_1417,body_behavioural,3.0.4,59.93460954312745,
6,Her eyes widened in shock when she realized what she was looking at.,4,3,None,None,,0,6,6,6,,,,,0,26,26,26,,,,,,,,,,,,,,,,,,,,,,,,,,,1,0.619344260001526,,,,,,,,,,,,,,,,,,',001,2019_Feb_28_1417,body_behavioural,3.0.4,59.93460954312745,
6,"“Alvira, will you marry me? ",4,3,None,None,,0,6,6,6,,,,,0,27,27,27,,,,,,,,,,,,,,,,,,,,,,,,,,,1,0.35294115299984696,,,,,,,,,,,,,,,,,,',001,2019_Feb_28_1417,body_behavioural,3.0.4,59.93460954312745,
6,"I love you, and I will never stop loving you.” ",4,3,None,None,,0,6,6,6,,,,,0,28,28,28,,,,,,,,,,,,,,,,,,,,,,,,,,,1,0.3032351000001654,,,,,,,,,,,,,,,,,,',001,2019_Feb_28_1417,body_behavioural,3.0.4,59.93460954312745,
6,Alvira started to cry.,4,3,None,None,,0,6,6,6,,,,,0,29,29,29,,,,,,,,,,,,,,,,,,,,,,,,,,,1,0.28645875500296825,,,,,,,,,,,,,,,,,,',001,2019_Feb_28_1417,body_behavioural,3.0.4,59.93460954312745,
6,"The room became silent, and everyone turned to their table. ",4,3,None,5.0,,0,6,6,6,,,,,0,30,30,30,,,,,,,,,,,,,,,,,,,,,,,,,,,1,0.3005850269983057,,,,,,,,,,,,,,,,,,',001,2019_Feb_28_1417,body_behavioural,3.0.4,59.93460954312745,
6,"“Yes, of course, yes!” she shouted as she wiped away tears.",4,4,None,None,,0,6,6,6,,,,,0,31,31,31,,,,,,,,,,,,,,,,,,,,,,,,,,,1,0.28638972499902593,,,,,,,,,,,,,,,,,,',001,2019_Feb_28_1417,body_behavioural,3.0.4,59.93460954312745,
6,The neighboring tables exploded in applause.,4,4,None,None,,0,6,6,6,,,,,0,32,32,32,,,,,,,,,,,,,,,,,,,,,,,,,,,1,0.2693055719973927,,,,,,,,,,,,,,,,,,',001,2019_Feb_28_1417,body_behavioural,3.0.4,59.93460954312745,
6,The waiter returned with a bottle of champagne and popped it. ,4,4,None,None,,0,6,6,6,,,,,0,33,33,33,,,,,,,,,,,,,,,,,,,,,,,,,,,1,0.25259154999730526,,,,,,,,,,,,,,,,,,',001,2019_Feb_28_1417,body_behavioural,3.0.4,59.93460954312745,
6,"All of this went unnoticed by Senna and Alvira as they looked into each others’ eyes, and he slipped the ring onto her finger. ",4,4,None,None,,0,6,6,6,,,,,0,34,34,34,,,,,,,,,,,,,,,,,,,,,,,,,,,1,0.2697167320002336,,,,,,,,,,,,,,,,,,',001,2019_Feb_28_1417,body_behavioural,3.0.4,59.93460954312745,
6,"She held up her hand to admire it, and her glittering tears of joy matched the shine from her ring.   
",4,4,17.0,5.0,,0,6,6,6,,,,,0,35,35,35,,,,,,,,,,,,,,,,,,,,,,,,,,,1,0.38613588999942294,,,,,,,,,,,,,,,,,,',001,2019_Feb_28_1417,body_behavioural,3.0.4,59.93460954312745,
6,,,,,,,0,6,6,6,,,,,,,,,,,,,,,,,,,,,,,,,,,,,,,,,,,,,,,,,,,,,,,,,,,,,,',001,2019_Feb_28_1417,body_behavioural,3.0.4,59.93460954312745,
7,,,,,,,0,7,7,7,0,0,0,0,,,,,,,,,,,,,,,,,,,,,,,,,space,0.5864004000031855,space,0.3194765050029673,space,0.5030252100004873,,,,,,,,,,,,,,,,,,,,',001,2019_Feb_28_1417,body_behavioural,3.0.4,59.93460954312745,
7,Charlie saw Alma as they walked into class and he motioned for her to come sit in the back next to him: they had business to discuss.,1,1,,,,0,7,7,7,,,,,0,0,0,0,,,,,,,,,,,,,,,,,,,,,,,,,,,1,0.8361317250019056,,,,,,,,,,,,,,,,,,',001,2019_Feb_28_1417,body_behavioural,3.0.4,59.93460954312745,
7,Charlie and Alma were both economics students with entrepreneurial bents.,1,1,,,,0,7,7,7,,,,,0,1,1,1,,,,,,,,,,,,,,,,,,,,,,,,,,,1,0.4195953419985017,,,,,,,,,,,,,,,,,,',001,2019_Feb_28_1417,body_behavioural,3.0.4,59.93460954312745,
7,They were also both very busy and in the same class.,1,1,,,,0,7,7,7,,,,,0,2,2,2,,,,,,,,,,,,,,,,,,,,,,,,,,,1,0.46945853700162843,,,,,,,,,,,,,,,,,,',001,2019_Feb_28_1417,body_behavioural,3.0.4,59.93460954312745,
7,"After talking at a party, Charlie had discovered that Alma was looking for financing for her web development company.",1,1,,,,0,7,7,7,,,,,0,3,3,3,,,,,,,,,,,,,,,,,,,,,,,,,,,1,0.5696989949974522,,,,,,,,,,,,,,,,,,',001,2019_Feb_28_1417,body_behavioural,3.0.4,59.93460954312745,
7,It was serendipitous because he had been talking with other members of his venture capital group about making an investment. ,1,1,,,,0,7,7,7,,,,,0,4,4,4,,,,,,,,,,,,,,,,,,,,,,,,,,,1,0.48640776699903654,,,,,,,,,,,,,,,,,,',001,2019_Feb_28_1417,body_behavioural,3.0.4,59.93460954312745,
7,"His financial group had come to a decision that morning about Alma’s idea, and he didn't want to wait until after class to discuss the proposal with her. ",1,1,,,,0,7,7,7,,,,,0,5,5,5,,,,,,,,,,,,,,,,,,,,,,,,,,,1,0.4361232299997937,,,,,,,,,,,,,,,,,,',001,2019_Feb_28_1417,body_behavioural,3.0.4,59.93460954312745,
7,"The class was in a large auditorium with small, foldable desks on the side of each cushioned chair. ",1,1,,,,0,7,7,7,,,,,0,6,6,6,,,,,,,,,,,,,,,,,,,,,,,,,,,1,0.38640234700142173,,,,,,,,,,,,,,,,,,',001,2019_Feb_28_1417,body_behavioural,3.0.4,59.93460954312745,
7,"There were large windows on both sides of the hall, and they could see the first flurries of a winter storm starting outside. ",1,1,,,,0,7,7,7,,,,,0,7,7,7,,,,,,,,,,,,,,,,,,,,,,,,,,,1,0.3858659819998138,,,,,,,,,,,,,,,,,,',001,2019_Feb_28_1417,body_behavioural,3.0.4,59.93460954312745,
7,"“Here we are at Lecture Seven already in History of the Eternal City,” said the professor. ",2,1,,,,0,7,7,7,,,,,0,8,8,8,,,,,,,,,,,,,,,,,,,,,,,,,,,1,0.3361690550009371,,,,,,,,,,,,,,,,,,',001,2019_Feb_28_1417,body_behavioural,3.0.4,59.93460954312745,
7,“We're going to talk today about the age of the first Roman emperor: Augustus.” ,2,1,,,,0,7,7,7,,,,,0,9,9,9,,,,,,,,,,,,,,,,,,,,,,,,,,,1,0.3173166050000873,,,,,,,,,,,,,,,,,,',001,2019_Feb_28_1417,body_behavioural,3.0.4,59.93460954312745,
7,"She went into some recap of the last lecture, and Charlie took this as an opportunity to start talking to Alma.",2,1,,,,0,7,7,7,,,,,0,10,10,10,,,,,,,,,,,,,,,,,,,,,,,,,,,1,0.3364507100013725,,,,,,,,,,,,,,,,,,',001,2019_Feb_28_1417,body_behavioural,3.0.4,59.93460954312745,
7,"“Okay so I’ve been thinking about your startup idea, and I have talked about it with my fellow investors.",2,2,,,,0,7,7,7,,,,,0,11,11,11,,,,,,,,,,,,,,,,,,,,,,,,,,,1,0.33610552200116217,,,,,,,,,,,,,,,,,,',001,2019_Feb_28_1417,body_behavioural,3.0.4,59.93460954312745,
7,We’d like to invest half of what you originally suggested.,2,2,,,,0,7,7,7,,,,,0,12,12,12,,,,,,,,,,,,,,,,,,,,,,,,,,,1,0.369626599996991,,,,,,,,,,,,,,,,,,',001,2019_Feb_28_1417,body_behavioural,3.0.4,59.93460954312745,
7,"Rather than $30,000, we start with $15,000.",2,2,,,,0,7,7,7,,,,,0,13,13,13,,,,,,,,,,,,,,,,,,,,,,,,,,,1,0.41951524700198206,,,,,,,,,,,,,,,,,,',001,2019_Feb_28_1417,body_behavioural,3.0.4,59.93460954312745,
7,We would see how the company does and then invest the other half later.” ,2,2,,,,0,7,7,7,,,,,0,14,14,14,,,,,,,,,,,,,,,,,,,,,,,,,,,1,0.43647450000207755,,,,,,,,,,,,,,,,,,',001,2019_Feb_28_1417,body_behavioural,3.0.4,59.93460954312745,
7,"Alma, tapping her pen on her notebook, narrowed her eyes and pursed her lips.",2,2,,,,0,7,7,7,,,,,0,15,15,15,,,,,,,,,,,,,,,,,,,,,,,,,,,1,0.36964021699895966,,,,,,,,,,,,,,,,,,',001,2019_Feb_28_1417,body_behavioural,3.0.4,59.93460954312745,
7,She turned back to the lecture as she considered this.,2,2,,,,0,7,7,7,,,,,0,16,16,16,,,,,,,,,,,,,,,,,,,,,,,,,,,1,0.3673835700028576,,,,,,,,,,,,,,,,,,',001,2019_Feb_28_1417,body_behavioural,3.0.4,59.93460954312745,
7,"The professor was going on: “The senate had conferred upon him the title of Augustus the sacred and revered one, the restorer of traditional values, the city’s new religious leader, the restorer of temples. ",3,2,,,,0,7,7,7,,,,,0,17,17,17,,,,,,,,,,,,,,,,,,,,,,,,,,,1,1.219800832997862,,,,,,,,,,,,,,,,,,',001,2019_Feb_28_1417,body_behavioural,3.0.4,59.93460954312745,
7,"Augustus also sought to beautify Rome, make it into a new Athens, and dispel the criticisms of Rome as disorganized and ugly.”",3,2,,,,0,7,7,7,,,,,0,18,18,18,,,,,,,,,,,,,,,,,,,,,,,,,,,1,0.8193538749983418,,,,,,,,,,,,,,,,,,',001,2019_Feb_28_1417,body_behavioural,3.0.4,59.93460954312745,
7,"Alma turned back to Charlie and offered her rebuttal, “I don’t know about that: it’s not going to be possible to implement our ideas effectively unless the project is fully funded. ",3,3,,,,0,7,7,7,,,,,0,19,19,19,,,,,,,,,,,,,,,,,,,,,,,,,,,1,0.7362292120014899,,,,,,,,,,,,,,,,,,',001,2019_Feb_28_1417,body_behavioural,3.0.4,59.93460954312745,
7,We would have to find other investors and that would set us back in our timeline. ,3,3,,,,0,7,7,7,,,,,0,20,20,20,,,,,,,,,,,,,,,,,,,,,,,,,,,1,0.7529006670010858,,,,,,,,,,,,,,,,,,',001,2019_Feb_28_1417,body_behavioural,3.0.4,59.93460954312745,
7,"Our profit projections assumed we'd be starting relatively soon, not months down the line.” ",3,3,,,,0,7,7,7,,,,,0,21,21,21,,,,,,,,,,,,,,,,,,,,,,,,,,,1,0.9507625969999935,,,,,,,,,,,,,,,,,,',001,2019_Feb_28_1417,body_behavioural,3.0.4,59.93460954312745,
7,They whispered back and forth during the whole class in order to work out a compromise. ,3,3,,,,0,7,7,7,,,,,0,22,22,22,,,,,,,,,,,,,,,,,,,,,,,,,,,1,0.3864768229977926,,,,,,,,,,,,,,,,,,',001,2019_Feb_28_1417,body_behavioural,3.0.4,59.93460954312745,
7,"Finally, the class ended, and the professor dismissed the students with a reminder that the midterm paper was due on Thursday and that they should email their papers to the TA.",4,3,,,,0,7,7,7,,,,,0,23,23,23,,,,,,,,,,,,,,,,,,,,,,,,,,,1,0.38702328500221483,,,,,,,,,,,,,,,,,,',001,2019_Feb_28_1417,body_behavioural,3.0.4,59.93460954312745,
7,"Everyone, except Charlie and Alma, packed up their things and headed out of the lecture hall to get to their next class. ",4,3,,,,0,7,7,7,,,,,0,24,24,24,,,,,,,,,,,,,,,,,,,,,,,,,,,1,0.33394599000166636,,,,,,,,,,,,,,,,,,',001,2019_Feb_28_1417,body_behavioural,3.0.4,59.93460954312745,
7,"“Alright, so we’ll have the $30,000 wired to you by tomorrow,” Charlie said. ",4,4,,,,0,7,7,7,,,,,0,25,25,25,,,,,,,,,,,,,,,,,,,,,,,,,,,1,0.28640152200023294,,,,,,,,,,,,,,,,,,',001,2019_Feb_28_1417,body_behavioural,3.0.4,59.93460954312745,
7,"This wasn't ideal for Charlie, but Alma had refused to budge, and his investment group had told him they were willing to pay the full amount if necessary. ",4,4,,,,0,7,7,7,,,,,0,26,26,26,,,,,,,,,,,,,,,,,,,,,,,,,,,1,0.36731630500071333,,,,,,,,,,,,,,,,,,',001,2019_Feb_28_1417,body_behavioural,3.0.4,59.93460954312745,
7,"They shook hands, walked out of the now-empty lecture hall, and made plans to sign the official paperwork the next day.",4,4,,,,0,7,7,7,,,,,0,27,27,27,,,,,,,,,,,,,,,,,,,,,,,,,,,1,0.25258559199937736,,,,,,,,,,,,,,,,,,',001,2019_Feb_28_1417,body_behavioural,3.0.4,59.93460954312745,
7,,,,,,,0,7,7,7,,,,,,,,,,,,,,,,,,,,,,,,,,,,,,,,,,,,,,,,,,,,,,,,,,,,,,',001,2019_Feb_28_1417,body_behavioural,3.0.4,59.93460954312745,
8,,,,,,,0,8,8,8,0,0,0,0,,,,,,,,,,,,,,,,,,,,,,,,,space,0.6531209380009386,space,0.28625324700260535,space,0.6364051419986936,,,,,,,,,,,,,,,,,,,,',001,2019_Feb_28_1417,body_behavioural,3.0.4,59.93460954312745,
8,"It didn’t help the situation that Calvin and Jessie were running late to the airport, since Jessie had already been fuming at Calvin and preparing to end things with him.",1,1,,,,0,8,8,8,,,,,0,0,0,0,,,,,,,,,,,,,,,,,,,,,,,,,,,1,0.30312739000146394,,,,,,,,,,,,,,,,,,',001,2019_Feb_28_1417,body_behavioural,3.0.4,59.93460954312745,
8,"Upon arriving, they had only 45 minutes until their international flight would depart from Jamaica for the US.",1,1,,,,0,8,8,8,,,,,0,1,1,1,,,,,,,,,,,,,,,,,,,,,,,,,,,1,0.36963136499980465,,,,,,,,,,,,,,,,,,',001,2019_Feb_28_1417,body_behavioural,3.0.4,59.93460954312745,
8,It had been a tough vacation for them.,1,1,,,,0,8,8,8,,,,,0,2,2,2,,,,,,,,,,,,,,,,,,,,,,,,,,,1,0.45300551500258734,,,,,,,,,,,,,,,,,,',001,2019_Feb_28_1417,body_behavioural,3.0.4,59.93460954312745,
8,"Jessie had really had it with Calvin’s constant ramblings about the same excruciatingly boring golfing and work stories, which he insisted on repeating to her regardless of how little interest she showed.",1,1,,,,0,8,8,8,,,,,0,3,3,3,,,,,,,,,,,,,,,,,,,,,,,,,,,1,0.2858856150014617,,,,,,,,,,,,,,,,,,',001,2019_Feb_28_1417,body_behavioural,3.0.4,59.93460954312745,
8,"Calvin knew that Jessie was upset, but wasn't sure what to do besides attempting to carry on as normal and tell stories that took up the silence. ",1,1,,,,0,8,8,8,,,,,0,4,4,4,,,,,,,,,,,,,,,,,,,,,,,,,,,1,0.40307777499765507,,,,,,,,,,,,,,,,,,',001,2019_Feb_28_1417,body_behavioural,3.0.4,59.93460954312745,
8,"The security line was luckily very short, and once the online boarding passes were scanned they were ushered quickly through the metal detector, not having to take off their shoes or remove the liquids from their bags.",2,1,,,,0,8,8,8,,,,,0,5,5,5,,,,,,,,,,,,,,,,,,,,,,,,,,,1,0.2694184700012556,,,,,,,,,,,,,,,,,,',001,2019_Feb_28_1417,body_behavioural,3.0.4,59.93460954312745,
8,"“The infrastructure of this airport is really quite poor," said Calvin as they waited for their bags to emerge from the x-ray machine.",2,1,,,,0,8,8,8,,,,,0,6,6,6,,,,,,,,,,,,,,,,,,,,,,,,,,,1,0.4026145300013013,,,,,,,,,,,,,,,,,,',001,2019_Feb_28_1417,body_behavioural,3.0.4,59.93460954312745,
8,“I really could've hidden something in my shoes quite easily.” ,2,1,,,,0,8,8,8,,,,,0,7,7,7,,,,,,,,,,,,,,,,,,,,,,,,,,,1,0.3530504669979564,,,,,,,,,,,,,,,,,,',001,2019_Feb_28_1417,body_behavioural,3.0.4,59.93460954312745,
8,"Jessie, exasperated at his need to broadcast his every inner thought, scowled at the conveyor belt.",2,1,,,,0,8,8,8,,,,,0,8,8,8,,,,,,,,,,,,,,,,,,,,,,,,,,,1,0.2857652849997976,,,,,,,,,,,,,,,,,,',001,2019_Feb_28_1417,body_behavioural,3.0.4,59.93460954312745,
8,"“What?”, he asked.",2,1,,,,0,8,8,8,,,,,0,9,9,9,,,,,,,,,,,,,,,,,,,,,,,,,,,1,0.33619938699848717,,,,,,,,,,,,,,,,,,',001,2019_Feb_28_1417,body_behavioural,3.0.4,59.93460954312745,
8,She balled up her fists and turned to face him.,2,1,,,,0,8,8,8,,,,,0,10,10,10,,,,,,,,,,,,,,,,,,,,,,,,,,,1,0.2696436949991039,,,,,,,,,,,,,,,,,,',001,2019_Feb_28_1417,body_behavioural,3.0.4,59.93460954312745,
8,"“Calvin, I really don’t think I can do this anymore.",2,2,,,,0,8,8,8,,,,,0,11,11,11,,,,,,,,,,,,,,,,,,,,,,,,,,,1,0.3367782700006501,,,,,,,,,,,,,,,,,,',001,2019_Feb_28_1417,body_behavioural,3.0.4,59.93460954312745,
8,I think it’s best that once we get to the States we part ways for good.” ,2,2,,,,0,8,8,8,,,,,0,12,12,12,,,,,,,,,,,,,,,,,,,,,,,,,,,1,0.4030246879992774,,,,,,,,,,,,,,,,,,',001,2019_Feb_28_1417,body_behavioural,3.0.4,59.93460954312745,
8,Calvin said nothing as he grabbed his bag and quickly walked away.,2,2,,,,0,8,8,8,,,,,0,13,13,13,,,,,,,,,,,,,,,,,,,,,,,,,,,1,0.20300792000125512,,,,,,,,,,,,,,,,,,',001,2019_Feb_28_1417,body_behavioural,3.0.4,59.93460954312745,
8,"Jessie trailed behind him as they made their way quickly toward their gate, shouting at his back in hopes of getting a response.",3,2,,,,0,8,8,8,,,,,0,14,14,14,,,,,,,,,,,,,,,,,,,,,,,,,,,1,0.4173529999970924,,,,,,,,,,,,,,,,,,',001,2019_Feb_28_1417,body_behavioural,3.0.4,59.93460954312745,
8,“So now you have nothing to say?,3,2,,,,0,8,8,8,,,,,0,15,15,15,,,,,,,,,,,,,,,,,,,,,,,,,,,1,0.2529690800001845,,,,,,,,,,,,,,,,,,',001,2019_Feb_28_1417,body_behavioural,3.0.4,59.93460954312745,
8,"Every time we talk, you are just looking for a way to steer the conversation back into your stories.”",3,2,,,,0,8,8,8,,,,,0,16,16,16,,,,,,,,,,,,,,,,,,,,,,,,,,,1,0.803153270000621,,,,,,,,,,,,,,,,,,',001,2019_Feb_28_1417,body_behavioural,3.0.4,59.93460954312745,
8,"Calvin didn't slow his pace, gritting his teeth and staring straight ahead. ",3,2,,,,0,8,8,8,,,,,0,17,17,17,,,,,,,,,,,,,,,,,,,,,,,,,,,1,0.33627314000113984,,,,,,,,,,,,,,,,,,',001,2019_Feb_28_1417,body_behavioural,3.0.4,59.93460954312745,
8,He was very frustrated that he had been trying to appease Jessie this whole time and this was how she responded. ,3,2,,,,0,8,8,8,,,,,0,18,18,18,,,,,,,,,,,,,,,,,,,,,,,,,,,1,0.3363634720008122,,,,,,,,,,,,,,,,,,',001,2019_Feb_28_1417,body_behavioural,3.0.4,59.93460954312745,
8,The silence was punctuated only by the rapid rhythmic clacking of their suitcase wheels over the tile floor as they continued power-walking through the terminal. ,3,2,,,,0,8,8,8,,,,,0,19,19,19,,,,,,,,,,,,,,,,,,,,,,,,,,,1,0.3533305599994492,,,,,,,,,,,,,,,,,,',001,2019_Feb_28_1417,body_behavioural,3.0.4,59.93460954312745,
8,"“Well?” Jessie said, and Calvin finally turned to her.",3,2,,,,0,8,8,8,,,,,0,20,20,20,,,,,,,,,,,,,,,,,,,,,,,,,,,1,0.4340582699987863,,,,,,,,,,,,,,,,,,',001,2019_Feb_28_1417,body_behavioural,3.0.4,59.93460954312745,
8,"“Well, Jessie, this makes perfect sense. ",3,3,,,,0,8,8,8,,,,,0,21,21,21,,,,,,,,,,,,,,,,,,,,,,,,,,,1,0.4530650369997602,,,,,,,,,,,,,,,,,,',001,2019_Feb_28_1417,body_behavioural,3.0.4,59.93460954312745,
8,"If you feel this way, then I don’t want to keep boring you, and I agree, let’s part ways once we make it back.",3,3,,,,0,8,8,8,,,,,0,22,22,22,,,,,,,,,,,,,,,,,,,,,,,,,,,1,0.4173616199987009,,,,,,,,,,,,,,,,,,',001,2019_Feb_28_1417,body_behavioural,3.0.4,59.93460954312745,
8,You should’ve spoken up about my apparent intolerability before you decided to plan this vacation.”,3,3,,,,0,8,8,8,,,,,0,23,23,23,,,,,,,,,,,,,,,,,,,,,,,,,,,1,0.4032431820014608,,,,,,,,,,,,,,,,,,',001,2019_Feb_28_1417,body_behavioural,3.0.4,59.93460954312745,
8,"He was clearly hurt, but thought it was pointless to argue. ",3,3,,,,0,8,8,8,,,,,0,24,24,24,,,,,,,,,,,,,,,,,,,,,,,,,,,1,0.4363271049987816,,,,,,,,,,,,,,,,,,',001,2019_Feb_28_1417,body_behavioural,3.0.4,59.93460954312745,
8,"They finally made it to the gate, just as they heard the final call for passengers boarding their flight.",3,3,,,,0,8,8,8,,,,,0,25,25,25,,,,,,,,,,,,,,,,,,,,,,,,,,,1,0.3529652069992153,,,,,,,,,,,,,,,,,,',001,2019_Feb_28_1417,body_behavioural,3.0.4,59.93460954312745,
8,"They scanned their tickets, and the annoyed flight attendant shooed them onto the jet bridge and then closed the door behind them.",4,3,,,,0,8,8,8,,,,,0,26,26,26,,,,,,,,,,,,,,,,,,,,,,,,,,,1,0.36966922500141663,,,,,,,,,,,,,,,,,,',001,2019_Feb_28_1417,body_behavioural,3.0.4,59.93460954312745,
8,"Luckily, they had forgotten to arrange seats next to each other on the flight back.",4,3,,,,0,8,8,8,,,,,0,27,27,27,,,,,,,,,,,,,,,,,,,,,,,,,,,1,0.41962853700169944,,,,,,,,,,,,,,,,,,',001,2019_Feb_28_1417,body_behavioural,3.0.4,59.93460954312745,
8,"They both had first-class tickets, but Jessie was headed for seat 1B while Calvin's seat was 4F. ",4,3,,,,0,8,8,8,,,,,0,28,28,28,,,,,,,,,,,,,,,,,,,,,,,,,,,1,0.35308225699918694,,,,,,,,,,,,,,,,,,',001,2019_Feb_28_1417,body_behavioural,3.0.4,59.93460954312745,
8,"Before Jessie sat down, she took a deep breath and then awkwardly shook Calvin’s hand, mumbling, “Well, have a nice flight.” ",4,4,,,,0,8,8,8,,,,,0,29,29,29,,,,,,,,,,,,,,,,,,,,,,,,,,,1,0.4030926749983337,,,,,,,,,,,,,,,,,,',001,2019_Feb_28_1417,body_behavioural,3.0.4,59.93460954312745,
8,He laughed in disbelief and walked to his window seat three rows back to get ready for takeoff.,4,4,,,,0,8,8,8,,,,,0,30,30,30,,,,,,,,,,,,,,,,,,,,,,,,,,,1,0.369607904998702,,,,,,,,,,,,,,,,,,',001,2019_Feb_28_1417,body_behavioural,3.0.4,59.93460954312745,
8,Both were upset but glad that they would have this flight to mull things over and recenter. ,4,4,,,,0,8,8,8,,,,,0,31,31,31,,,,,,,,,,,,,,,,,,,,,,,,,,,1,0.38631101500141085,,,,,,,,,,,,,,,,,,',001,2019_Feb_28_1417,body_behavioural,3.0.4,59.93460954312745,
8,,,,,,,0,8,8,8,,,,,,,,,,,,,,,,,,,,,,,,,,,,,,,,,,,,,,,,,,,,,,,,,,,,,,',001,2019_Feb_28_1417,body_behavioural,3.0.4,59.93460954312745,
9,,,,,,,0,9,9,9,0,0,0,0,,,,,,,,,,,,,,,,,,,,,,,,,space,0.8011322050006129,space,0.35275656200246885,space,0.5195896149998589,,,,,,,,,,,,,,,,,,,,',001,2019_Feb_28_1417,body_behavioural,3.0.4,59.93460954312745,
9,Mr. Shelton and Mr. Gordon shook hands inside the foyer of the restaurant: lunch today was about big business. ,1,1,,,,0,9,9,9,,,,,0,0,0,0,,,,,,,,,,,,,,,,,,,,,,,,,,,1,2.269704932001332,,,,,,,,,,,,,,,,,,',001,2019_Feb_28_1417,body_behavioural,3.0.4,59.93460954312745,
9,Mr. Shelton and Mr. Gordon both were CEOs of airplane manufacturing companies.,1,1,,,,0,9,9,9,,,,,0,1,1,1,,,,,,,,,,,,,,,,,,,,,,,,,,,1,0.5529886299991631,,,,,,,,,,,,,,,,,,',001,2019_Feb_28_1417,body_behavioural,3.0.4,59.93460954312745,
9,"Mr. Shelton was in charge of a larger, well-established company and had been in the aviation business for decades.",1,1,,,,0,9,9,9,,,,,0,2,2,2,,,,,,,,,,,,,,,,,,,,,,,,,,,1,1.7193611900001997,,,,,,,,,,,,,,,,,,',001,2019_Feb_28_1417,body_behavioural,3.0.4,59.93460954312745,
9,"On the other hand, Mr. Gordon led a smaller but technologically-advanced company that was projected to disrupt the airplane manufacturing market. ",1,1,,,,0,9,9,9,,,,,0,3,3,3,,,,,,,,,,,,,,,,,,,,,,,,,,,1,2.536287694998464,,,,,,,,,,,,,,,,,,',001,2019_Feb_28_1417,body_behavioural,3.0.4,59.93460954312745,
9,"The restaurant they chose to meet at was old and fancy with high ceilings, dark wood paneling, and crystal chandeliers.",1,1,,,,0,9,9,9,,,,,0,4,4,4,,,,,,,,,,,,,,,,,,,,,,,,,,,1,0.6030498969994369,,,,,,,,,,,,,,,,,,',001,2019_Feb_28_1417,body_behavioural,3.0.4,59.93460954312745,
9,"The waitress led them to their table in the back, and they settled into a private table in the corner by the fireplace. ",2,1,,,,0,9,9,9,,,,,0,5,5,5,,,,,,,,,,,,,,,,,,,,,,,,,,,1,0.4196288899984211,,,,,,,,,,,,,,,,,,',001,2019_Feb_28_1417,body_behavioural,3.0.4,59.93460954312745,
9,The waitress brought out the menus and they broke the ice with some small talk.,2,1,,,,0,9,9,9,,,,,0,6,6,6,,,,,,,,,,,,,,,,,,,,,,,,,,,1,0.41733581199878245,,,,,,,,,,,,,,,,,,',001,2019_Feb_28_1417,body_behavioural,3.0.4,59.93460954312745,
9,"Mr. Gordon took out a picture of his daughter and talked about her recent engagement, and Mr. Gordon boasted about his purchase of a Tesla. ",2,1,,,,0,9,9,9,,,,,0,7,7,7,,,,,,,,,,,,,,,,,,,,,,,,,,,1,0.4528177419997519,,,,,,,,,,,,,,,,,,',001,2019_Feb_28_1417,body_behavioural,3.0.4,59.93460954312745,
9,"They looked at the menus as well, which were full of Italian classics like Carbonara and Tiramisu, and in the back section of the menu was a lengthy drink selection.",2,1,,,,0,9,9,9,,,,,0,8,8,8,,,,,,,,,,,,,,,,,,,,,,,,,,,1,0.4039053710002918,,,,,,,,,,,,,,,,,,',001,2019_Feb_28_1417,body_behavioural,3.0.4,59.93460954312745,
9,"After awhile, Mr. Shelton brought the conversation around to business.",2,2,,,,0,9,9,9,,,,,0,9,9,9,,,,,,,,,,,,,,,,,,,,,,,,,,,1,0.41962113000045065,,,,,,,,,,,,,,,,,,',001,2019_Feb_28_1417,body_behavioural,3.0.4,59.93460954312745,
9,"“Mr. Gordon, we really admire what you’re doing at your company.",2,2,,,,0,9,9,9,,,,,0,10,10,10,,,,,,,,,,,,,,,,,,,,,,,,,,,1,0.3693053749993851,,,,,,,,,,,,,,,,,,',001,2019_Feb_28_1417,body_behavioural,3.0.4,59.93460954312745,
9,We think it’s genius; we want to support your vision and make this tiny company of yours internationally known.,2,2,,,,0,9,9,9,,,,,0,11,11,11,,,,,,,,,,,,,,,,,,,,,,,,,,,1,0.4029930719989352,,,,,,,,,,,,,,,,,,',001,2019_Feb_28_1417,body_behavioural,3.0.4,59.93460954312745,
9,"But honestly, your company doesn’t have the resources to reach international markets right now.",2,2,,,,0,9,9,9,,,,,0,12,12,12,,,,,,,,,,,,,,,,,,,,,,,,,,,1,0.36936416199750965,,,,,,,,,,,,,,,,,,',001,2019_Feb_28_1417,body_behavioural,3.0.4,59.93460954312745,
9,"Maybe in a few years you could, but by that time, other companies may have already filled your niche.",2,2,,,,0,9,9,9,,,,,0,13,13,13,,,,,,,,,,,,,,,,,,,,,,,,,,,1,0.36974355700294836,,,,,,,,,,,,,,,,,,',001,2019_Feb_28_1417,body_behavioural,3.0.4,59.93460954312745,
9,I think we should join forces.”,2,2,,,,0,9,9,9,,,,,0,14,14,14,,,,,,,,,,,,,,,,,,,,,,,,,,,1,0.3197815569983504,,,,,,,,,,,,,,,,,,',001,2019_Feb_28_1417,body_behavioural,3.0.4,59.93460954312745,
9,The waitress came up to them and asked if they were ready to order.,3,2,,,,0,9,9,9,,,,,0,15,15,15,,,,,,,,,,,,,,,,,,,,,,,,,,,1,0.369722504998208,,,,,,,,,,,,,,,,,,',001,2019_Feb_28_1417,body_behavioural,3.0.4,59.93460954312745,
9,"Mr. Gordon ordered a medium-rare steak and martini, and Mr. Shelton ordered veal and a manhattan. ",3,2,,,,0,9,9,9,,,,,0,16,16,16,,,,,,,,,,,,,,,,,,,,,,,,,,,1,0.3029421020000882,,,,,,,,,,,,,,,,,,',001,2019_Feb_28_1417,body_behavioural,3.0.4,59.93460954312745,
9,"Then Mr. Shelton continued, “Look, I’ve talked to other members of the board, and we are prepared to offer $600 million to buy your company. ",3,2,,,,0,9,9,9,,,,,0,17,17,17,,,,,,,,,,,,,,,,,,,,,,,,,,,1,0.5197976549970917,,,,,,,,,,,,,,,,,,',001,2019_Feb_28_1417,body_behavioural,3.0.4,59.93460954312745,
9,"We'd keep on all of your current employees, and you would join as the director of your company branch.” ",3,2,,,,0,9,9,9,,,,,0,18,18,18,,,,,,,,,,,,,,,,,,,,,,,,,,,1,0.35294057699866244,,,,,,,,,,,,,,,,,,',001,2019_Feb_28_1417,body_behavioural,3.0.4,59.93460954312745,
9,Mr. Gordon sat looking at Mr. Shelton for a few moments considering his response. ,3,2,,,,0,9,9,9,,,,,0,19,19,19,,,,,,,,,,,,,,,,,,,,,,,,,,,1,0.26962493500104756,,,,,,,,,,,,,,,,,,',001,2019_Feb_28_1417,body_behavioural,3.0.4,59.93460954312745,
9,He looked at Mr. Shelton skeptically.,3,2,,,,0,9,9,9,,,,,0,20,20,20,,,,,,,,,,,,,,,,,,,,,,,,,,,1,0.5863977970002452,,,,,,,,,,,,,,,,,,',001,2019_Feb_28_1417,body_behavioural,3.0.4,59.93460954312745,
9,"He said, “Mr. Shelton, I think that you make a compelling offer, but there are definitely some disadvantages to attaching our small, streamlined productions to a large company like yours.",3,3,,,,0,9,9,9,,,,,0,21,21,21,,,,,,,,,,,,,,,,,,,,,,,,,,,1,0.38384940000105416,,,,,,,,,,,,,,,,,,',001,2019_Feb_28_1417,body_behavioural,3.0.4,59.93460954312745,
9,"We operate in a very different way than a large company, and the kind of administrative complexity that makes the scale of your productions possible would suffocate our business.",3,3,,,,0,9,9,9,,,,,0,22,22,22,,,,,,,,,,,,,,,,,,,,,,,,,,,1,0.4030308250003145,,,,,,,,,,,,,,,,,,',001,2019_Feb_28_1417,body_behavioural,3.0.4,59.93460954312745,
9,"With our product, scaling-up doesn’t necessarily make sense.” ",3,3,,,,0,9,9,9,,,,,0,23,23,23,,,,,,,,,,,,,,,,,,,,,,,,,,,1,0.9007075330009684,,,,,,,,,,,,,,,,,,',001,2019_Feb_28_1417,body_behavioural,3.0.4,59.93460954312745,
9,Mr. Shelton had expected this response and had come prepared.,3,3,,,,0,9,9,9,,,,,0,24,24,24,,,,,,,,,,,,,,,,,,,,,,,,,,,1,0.33612621700012824,,,,,,,,,,,,,,,,,,',001,2019_Feb_28_1417,body_behavioural,3.0.4,59.93460954312745,
9,He began laying out the details of how he had handled similar acquisitions successfully in the past.,3,3,,,,0,9,9,9,,,,,0,25,25,25,,,,,,,,,,,,,,,,,,,,,,,,,,,1,0.33630037699913373,,,,,,,,,,,,,,,,,,',001,2019_Feb_28_1417,body_behavioural,3.0.4,59.93460954312745,
9,"Mr. Gordon was impressed, and they went back and forth hashing out what the company configuration would look like post-merger. ",3,3,,,,0,9,9,9,,,,,0,26,26,26,,,,,,,,,,,,,,,,,,,,,,,,,,,1,0.35341309000068577,,,,,,,,,,,,,,,,,,',001,2019_Feb_28_1417,body_behavioural,3.0.4,59.93460954312745,
9,"The waitress brought the food out, interrupting their animated conversation.",4,3,,,,0,9,9,9,,,,,0,27,27,27,,,,,,,,,,,,,,,,,,,,,,,,,,,1,0.3030877249984769,,,,,,,,,,,,,,,,,,',001,2019_Feb_28_1417,body_behavioural,3.0.4,59.93460954312745,
9,“Oh this looks so good!” Mr. Gordon said. ,4,3,,,,0,9,9,9,,,,,0,28,28,28,,,,,,,,,,,,,,,,,,,,,,,,,,,1,0.3199047550006071,,,,,,,,,,,,,,,,,,',001,2019_Feb_28_1417,body_behavioural,3.0.4,59.93460954312745,
9, “Can I get you anything else?” the waitress asked.,4,3,,,,0,9,9,9,,,,,0,29,29,29,,,,,,,,,,,,,,,,,,,,,,,,,,,1,0.2876337150009931,,,,,,,,,,,,,,,,,,',001,2019_Feb_28_1417,body_behavioural,3.0.4,59.93460954312745,
9,They declined and continued to talk.,4,3,,,,0,9,9,9,,,,,0,30,30,30,,,,,,,,,,,,,,,,,,,,,,,,,,,1,0.30303791199912666,,,,,,,,,,,,,,,,,,',001,2019_Feb_28_1417,body_behavioural,3.0.4,59.93460954312745,
9,"The meal lived up to the reputation of the restaurant, which was known for having the best cuts of meat in the area.",4,3,,,,0,9,9,9,,,,,0,31,31,31,,,,,,,,,,,,,,,,,,,,,,,,,,,1,0.26962028199704946,,,,,,,,,,,,,,,,,,',001,2019_Feb_28_1417,body_behavioural,3.0.4,59.93460954312745,
9,"Mr. Gordon, after taking a contemplative bite of his food, said, “Mr. Shelton, I think we have a deal. ",4,4,,,,0,9,9,9,,,,,0,32,32,32,,,,,,,,,,,,,,,,,,,,,,,,,,,1,0.3174704200027918,,,,,,,,,,,,,,,,,,',001,2019_Feb_28_1417,body_behavioural,3.0.4,59.93460954312745,
9,"If you can guarantee that I can still have the final say in the all the work done by my team, I think this could be beneficial for both of us.",4,4,,,,0,9,9,9,,,,,0,33,33,33,,,,,,,,,,,,,,,,,,,,,,,,,,,1,0.26971343500190414,,,,,,,,,,,,,,,,,,',001,2019_Feb_28_1417,body_behavioural,3.0.4,59.93460954312745,
9,I propose a toast to the merging of our companies.”,4,4,,,,0,9,9,9,,,,,0,34,34,34,,,,,,,,,,,,,,,,,,,,,,,,,,,1,0.3197918700025184,,,,,,,,,,,,,,,,,,',001,2019_Feb_28_1417,body_behavioural,3.0.4,59.93460954312745,
9,Mr. Shelton grinned and lifted his martini to clink glasses.,4,4,,,,0,9,9,9,,,,,0,35,35,35,,,,,,,,,,,,,,,,,,,,,,,,,,,1,0.3195600450017082,,,,,,,,,,,,,,,,,,',001,2019_Feb_28_1417,body_behavioural,3.0.4,59.93460954312745,
9,"He said, “Cheers to a lifelong partnership and to the growth of your company.” ",4,4,,,,0,9,9,9,,,,,0,36,36,36,,,,,,,,,,,,,,,,,,,,,,,,,,,1,0.2672583099993062,,,,,,,,,,,,,,,,,,',001,2019_Feb_28_1417,body_behavioural,3.0.4,59.93460954312745,
9,,,,,,,0,9,9,9,,,,,,,,,,,,,,,,,,,,,,,,,,,,,,,,,,,,,,,,,,,,,,,,,,,,,,',001,2019_Feb_28_1417,body_behavioural,3.0.4,59.93460954312745,
10,,,,,,,0,10,10,10,0,0,0,0,,,,,,,,,,,,,,,,,,,,,,,,,space,0.5675016480017803,space,0.3028785800015612,space,0.35288594699886744,,,,,,,,,,,,,,,,,,,,',001,2019_Feb_28_1417,body_behavioural,3.0.4,59.93460954312745,
10,,,,,,,0,10,10,10,1,0,1,0,,,,,,,,,,,,,,,,,,,,,,,,,,,,,space,0.3862353250005981,,,,,,,,,,,,,,,,,,,,',001,2019_Feb_28_1417,body_behavioural,3.0.4,59.93460954312745,
