instruct_text,this_pic,rolePic,job,instruct_text2,Q1,Q2,Q3,Q4,D1,D2,roleName,trials_2.thisRepN,trials_2.thisTrialN,trials_2.thisN,trials_2.thisIndex,trials_4.thisRepN,trials_4.thisTrialN,trials_4.thisN,trials_4.thisIndex,loop3.thisRepN,loop3.thisTrialN,loop3.thisN,loop3.thisIndex,trials_3.thisRepN,trials_3.thisTrialN,trials_3.thisN,trials_3.thisIndex,trials.thisRepN,trials.thisTrialN,trials.thisN,trials.thisIndex,trials_5.thisRepN,trials_5.thisTrialN,trials_5.thisN,trials_5.thisIndex,trials_7.thisRepN,trials_7.thisTrialN,trials_7.thisN,trials_7.thisIndex,key_resp_8.keys,key_resp_8.rt,key_resp_2.keys,key_resp_2.rt,key_resp_6.keys,key_resp_6.rt,key_resp_14.keys,key_resp_14.rt,key_resp_10.keys,key_resp_10.rt,key_resp_11.keys,key_resp_11.rt,key_resp_12.keys,key_resp_12.rt,key_resp_13.keys,key_resp_13.rt,key_resp_4.keys,key_resp_4.rt,participant,session,date,expName,psychopyVersion,frameRate,
Welcome to the Job Simulator Task!,instructions_photos/pixel.png,,,,,,,,,,,0,0,0,0,,,,,,,,,,,,,,,,,,,,,,,,,space,0.38803653500008295,,,,,,,,,,,,,,,,,',001,2019_Feb_21_1158,part1_subjective_segmentation,3.0.4,59.916462071970386,
"In this task, you'll be assuming various perspectives of jobs while reading stories. ",None,,,,,,,,,,,0,1,1,1,,,,,,,,,,,,,,,,,,,,,,,,,space,0.38594364200025666,,,,,,,,,,,,,,,,,',001,2019_Feb_21_1158,part1_subjective_segmentation,3.0.4,59.916462071970386,
"First, you’ll be introduced to the perspectives of 8 different jobs. ",instructions_photos/i1.png,,,,,,,,,,,0,2,2,2,,,,,,,,,,,,,,,,,,,,,,,,,space,0.25255504500000825,,,,,,,,,,,,,,,,,',001,2019_Feb_21_1158,part1_subjective_segmentation,3.0.4,59.916462071970386,
"For example, you may be asked to take on the perspective of a Restaurant Critic while you read a story that takes place in a restaurant. ",jobphotos/restaurant_critic.jpg,,,,,,,,,,,0,3,3,3,,,,,,,,,,,,,,,,,,,,,,,,,space,0.3526389190001282,,,,,,,,,,,,,,,,,',001,2019_Feb_21_1158,part1_subjective_segmentation,3.0.4,59.916462071970386,
"You’ll learn 4 questions associated with each perspective, and you’ll use these to interrogate the stories while assuming that perspective. ",instructions_photos/i2.png,,,,,,,,,,,0,4,4,4,,,,,,,,,,,,,,,,,,,,,,,,,space,0.26970508699969287,,,,,,,,,,,,,,,,,',001,2019_Feb_21_1158,part1_subjective_segmentation,3.0.4,59.916462071970386,
"For example, if you are a Restaurant Critic, you’ll learn to ask questions about the restaurant decor, menus, and the enjoyment of the food. ",jobphotos/restaurant_critic.jpg,,,,,,,,,,,0,5,5,5,,,,,,,,,,,,,,,,,,,,,,,,,space,0.31981360500003575,,,,,,,,,,,,,,,,,',001,2019_Feb_21_1158,part1_subjective_segmentation,3.0.4,59.916462071970386,
"After learning all the questions in a series of pre-task quizzes, you’ll read 8 stories, applying one perspective you’ve learned to each one. ",instructions_photos/i3.png,,,,,,,,,,,0,6,6,6,,,,,,,,,,,,,,,,,,,,,,,,,space,0.285711425000045,,,,,,,,,,,,,,,,,',001,2019_Feb_21_1158,part1_subjective_segmentation,3.0.4,59.916462071970386,
"While reading, try to keep in mind the perspective and questions. ",instructions_photos/i3.png,,,,,,,,,,,0,7,7,7,,,,,,,,,,,,,,,,,,,,,,,,,space,0.27004643300006137,,,,,,,,,,,,,,,,,',001,2019_Feb_21_1158,part1_subjective_segmentation,3.0.4,59.916462071970386,
"After you’re finished reading all the stories, you will be asked to recall the stories and answer questions about them. ",instructions_photos/i4.png,,,,,,,,,,,0,8,8,8,,,,,,,,,,,,,,,,,,,,,,,,,space,0.10287211500008198,,,,,,,,,,,,,,,,,',001,2019_Feb_21_1158,part1_subjective_segmentation,3.0.4,59.916462071970386,
Try to remember the stories and the answers to the questions as you read them for these later tasks. ,None,,,,,,,,,,,0,9,9,9,,,,,,,,,,,,,,,,,,,,,,,,,space,0.4698759550001341,,,,,,,,,,,,,,,,,',001,2019_Feb_21_1158,part1_subjective_segmentation,3.0.4,59.916462071970386,
Let’s begin! The 8 perspectives are as follows:,None,,,,,,,,,,,0,10,10,10,,,,,,,,,,,,,,,,,,,,,,,,,space,0.36965717200018844,,,,,,,,,,,,,,,,,',001,2019_Feb_21_1158,part1_subjective_segmentation,3.0.4,59.916462071970386,
,,jobphotos/gscem.jpg,"Grocery Store Customer Experience Manager
",,,,,,,,,,,,,0,0,0,5,,,,,,,,,,,,,,,,,,,,,,,space,0.3866317080000954,,,,,,,,,,,,,,,',001,2019_Feb_21_1158,part1_subjective_segmentation,3.0.4,59.916462071970386,
,,jobphotos/acem.jpg,Airport Customer Experience Manager,,,,,,,,,,,,,0,1,1,4,,,,,,,,,,,,,,,,,,,,,,,space,0.7692384000001766,,,,,,,,,,,,,,,',001,2019_Feb_21_1158,part1_subjective_segmentation,3.0.4,59.916462071970386,
,,jobphotos/dean.jpg,Dean of Academic Studies,,,,,,,,,,,,,0,2,2,6,,,,,,,,,,,,,,,,,,,,,,,space,0.41942020500027866,,,,,,,,,,,,,,,',001,2019_Feb_21_1158,part1_subjective_segmentation,3.0.4,59.916462071970386,
,,jobphotos/business_reporter.jpg,Business Reporter,,,,,,,,,,,,,0,3,3,0,,,,,,,,,,,,,,,,,,,,,,,space,0.33655525500034855,,,,,,,,,,,,,,,',001,2019_Feb_21_1158,part1_subjective_segmentation,3.0.4,59.916462071970386,
,,jobphotos/weddingplanner.jpg,Wedding Planner,,,,,,,,,,,,,0,4,4,3,,,,,,,,,,,,,,,,,,,,,,,space,0.45299322299979394,,,,,,,,,,,,,,,',001,2019_Feb_21_1158,part1_subjective_segmentation,3.0.4,59.916462071970386,
,,jobphotos/matchmaker.jpg,Matchmaker,,,,,,,,,,,,,0,5,5,2,,,,,,,,,,,,,,,,,,,,,,,space,0.3866777570001432,,,,,,,,,,,,,,,',001,2019_Feb_21_1158,part1_subjective_segmentation,3.0.4,59.916462071970386,
,,jobphotos/restaurant_critic.jpg,Restaurant Critic,,,,,,,,,,,,,0,6,6,1,,,,,,,,,,,,,,,,,,,,,,,space,0.5361527919999389,,,,,,,,,,,,,,,',001,2019_Feb_21_1158,part1_subjective_segmentation,3.0.4,59.916462071970386,
,,jobphotos/couples.jpeg,"Couples Therapist
",,,,,,,,,,,,,0,7,7,7,,,,,,,,,,,,,,,,,,,,,,,space,0.33618397999998706,,,,,,,,,,,,,,,',001,2019_Feb_21_1158,part1_subjective_segmentation,3.0.4,59.916462071970386,
You’ll become acquainted with these perspectives more in the following pre-task quizzes where you’ll learn the questions associated with each perspective. ,,,,(press space to continue),,,,,,,,,,,,,,,,0,0,0,0,,,,,,,,,,,,,,,,,,,,,space,1.4533629379998274,,,,,,,,,,,,,',001,2019_Feb_21_1158,part1_subjective_segmentation,3.0.4,59.916462071970386,
You’ll first go through all four questions for each perspective. ,,,,None,,,,,,,,,,,,,,,,0,1,1,1,,,,,,,,,,,,,,,,,,,,,space,0.36991631999990204,,,,,,,,,,,,,',001,2019_Feb_21_1158,part1_subjective_segmentation,3.0.4,59.916462071970386,
"Then, you’ll indicate the order in which you saw the questions during the quiz by pressing the number in front of the question. ",,,,None,,,,,,,,,,,,,,,,0,2,2,2,,,,,,,,,,,,,,,,,,,,,space,0.3367689070000779,,,,,,,,,,,,,',001,2019_Feb_21_1158,part1_subjective_segmentation,3.0.4,59.916462071970386,
"If you indicate the wrong question during the quiz, you’ll restart the learning.",,,,None,,,,,,,,,,,,,,,,0,3,3,3,,,,,,,,,,,,,,,,,,,,,space,0.28649398199968346,,,,,,,,,,,,,',001,2019_Feb_21_1158,part1_subjective_segmentation,3.0.4,59.916462071970386,
"After you’ve passed the learning for each perspective, you’ll have a round of final quizzes. ",,,,None,,,,,,,,,,,,,,,,0,4,4,4,,,,,,,,,,,,,,,,,,,,,space,0.3006964850001168,,,,,,,,,,,,,',001,2019_Feb_21_1158,part1_subjective_segmentation,3.0.4,59.916462071970386,
Press the space bar to begin the quizzes. ,,,,None,,,,,,,,,,,,,,,,0,5,5,5,,,,,,,,,,,,,,,,,,,,,space,0.2865261150000151,,,,,,,,,,,,,',001,2019_Feb_21_1158,part1_subjective_segmentation,3.0.4,59.916462071970386,
,,jobphotos/couples.jpeg,,,"How does the person who is initiating the breakup feel before they do it?
","Why does the initiator want to break up?
","How does the person being broken up with respond?
",Do the partners leave on good terms?,Does the person being broken up with expect that this is coming?,For how long has the initiator been wanting to break up?,"Couples Therapist
",,,,,,,,,,,,,0,0,0,7,0,0,0,0,,,,,,,,,,,,,,,space,0.7703480749996743,space,0.4364911419997952,space,0.3364978820000033,space,0.25028266299977986,space,0.18637589999980264,space,0.4028818249998949,',001,2019_Feb_21_1158,part1_subjective_segmentation,3.0.4,59.916462071970386,
,,jobphotos/couples.jpeg,,,"How does the person who is initiating the breakup feel before they do it?
","Why does the initiator want to break up?
","How does the person being broken up with respond?
",Do the partners leave on good terms?,Does the person being broken up with expect that this is coming?,For how long has the initiator been wanting to break up?,"Couples Therapist
",,,,,,,,,,,,,0,0,0,7,,,,,,,,,,,,,,,,,,,,,,,,,,,,,,,',001,2019_Feb_21_1158,part1_subjective_segmentation,3.0.4,59.916462071970386,
