instruct_text,this_pic,rolePic,job,instruct_text2,trials_2.thisRepN,trials_2.thisTrialN,trials_2.thisN,trials_2.thisIndex,trials_4.thisRepN,trials_4.thisTrialN,trials_4.thisN,trials_4.thisIndex,loop3.thisRepN,loop3.thisTrialN,loop3.thisN,loop3.thisIndex,trials_3.thisRepN,trials_3.thisTrialN,trials_3.thisN,trials_3.thisIndex,Q1,Q2,Q3,Q4,D1,D2,roleName,trials.thisRepN,trials.thisTrialN,trials.thisN,trials.thisIndex,key_resp_8.keys,key_resp_8.rt,key_resp_2.keys,key_resp_2.rt,key_resp_6.keys,key_resp_6.rt,key_resp_14.keys,key_resp_14.rt,participant,session,date,expName,psychopyVersion,frameRate,
Welcome to the Job Simulator Task!,instructions_photos/pixel.png,,,,0,0,0,0,,,,,,,,,,,,,,,,,,,,,,,,space,0.45353449000140245,,,,,,,',001,2019_Feb_13_1205,part1_subjective_segmentation,3.0.3,59.74656927332912,
"In this task, you’ll first be introduced to the perspectives of 8 different jobs. ",instructions_photos/i1.png,,,,0,1,1,1,,,,,,,,,,,,,,,,,,,,,,,,space,0.3539660520000325,,,,,,,',001,2019_Feb_13_1205,part1_subjective_segmentation,3.0.3,59.74656927332912,
You’ll then learn 4 questions associated with each perspective. ,instructions_photos/i2.png,,,,0,2,2,2,,,,,,,,,,,,,,,,,,,,,,,,space,0.28689491499972064,,,,,,,',001,2019_Feb_13_1205,part1_subjective_segmentation,3.0.3,59.74656927332912,
"Subsequently, you will be asked to apply those perspectives and questions to 8 stories.",instructions_photos/i3.png,,,,0,3,3,3,,,,,,,,,,,,,,,,,,,,,,,,space,0.2860076199995092,,,,,,,',001,2019_Feb_13_1205,part1_subjective_segmentation,3.0.3,59.74656927332912,
"For each story you read, you will be asked to assume one of the perspectives. ",instructions_photos/i3.png,,,,0,4,4,4,,,,,,,,,,,,,,,,,,,,,,,,space,0.3005999969991535,,,,,,,',001,2019_Feb_13_1205,part1_subjective_segmentation,3.0.3,59.74656927332912,
"While reading, try to remember the perspective and the questions of that perspective. ",instructions_photos/i3.png,,,,0,5,5,5,,,,,,,,,,,,,,,,,,,,,,,,space,0.13544311599980574,,,,,,,',001,2019_Feb_13_1205,part1_subjective_segmentation,3.0.3,59.74656927332912,
"After you’re finished reading all the stories, you will be asked to recall the stories and answer questions about them. ",instructions_photos/i4.png,,,,0,6,6,6,,,,,,,,,,,,,,,,,,,,,,,,space,0.11995735399978003,,,,,,,',001,2019_Feb_13_1205,part1_subjective_segmentation,3.0.3,59.74656927332912,
Let’s begin! The 8 perspectives are as follows:,None,,,,0,7,7,7,,,,,,,,,,,,,,,,,,,,,,,,space,0.687222501001088,,,,,,,',001,2019_Feb_13_1205,part1_subjective_segmentation,3.0.3,59.74656927332912,
,,jobphotos/matchmaker.jpg,Matchmaker,,,,,,0,0,0,2,,,,,,,,,,,,,,,,,,,,,,space,0.353381568000259,,,,,',001,2019_Feb_13_1205,part1_subjective_segmentation,3.0.3,59.74656927332912,
,,jobphotos/dean.jpg,Dean of Academic Studies,,,,,,0,1,1,6,,,,,,,,,,,,,,,,,,,,,,space,0.2859485280005174,,,,,',001,2019_Feb_13_1205,part1_subjective_segmentation,3.0.3,59.74656927332912,
,,jobphotos/gscem.jpg,"Grocery Store Customer Experience Manager
",,,,,,0,2,2,5,,,,,,,,,,,,,,,,,,,,,,space,0.28592552800000703,,,,,',001,2019_Feb_13_1205,part1_subjective_segmentation,3.0.3,59.74656927332912,
,,jobphotos/business_reporter.jpg,Business Reporter,,,,,,0,3,3,0,,,,,,,,,,,,,,,,,,,,,,space,0.25292957999954524,,,,,',001,2019_Feb_13_1205,part1_subjective_segmentation,3.0.3,59.74656927332912,
,,jobphotos/acem.jpg,Airport Customer Experience Manager,,,,,,0,4,4,4,,,,,,,,,,,,,,,,,,,,,,space,0.2694578320006258,,,,,',001,2019_Feb_13_1205,part1_subjective_segmentation,3.0.3,59.74656927332912,
,,jobphotos/restaurant_critic.jpg,Restaurant Critic,,,,,,0,5,5,1,,,,,,,,,,,,,,,,,,,,,,space,0.2857482520012127,,,,,',001,2019_Feb_13_1205,part1_subjective_segmentation,3.0.3,59.74656927332912,
,,jobphotos/couples.jpeg,"Couples Therapist
",,,,,,0,6,6,7,,,,,,,,,,,,,,,,,,,,,,space,0.31994333699913113,,,,,',001,2019_Feb_13_1205,part1_subjective_segmentation,3.0.3,59.74656927332912,
,,jobphotos/weddingplanner.jpg,Wedding Planner,,,,,,0,7,7,3,,,,,,,,,,,,,,,,,,,,,,space,0.26868622499932826,,,,,',001,2019_Feb_13_1205,part1_subjective_segmentation,3.0.3,59.74656927332912,
Each of these perspectives will be applied to one story. ,,,,(press space to continue),,,,,,,,,0,0,0,0,,,,,,,,,,,,,,,,,,,,space,0.5677302399999462,,,',001,2019_Feb_13_1205,part1_subjective_segmentation,3.0.3,59.74656927332912,
"Each perspective has 4 questions, and you will answer these questions about each story.",,,,None,,,,,,,,,0,1,1,1,,,,,,,,,,,,,,,,,,,,space,0.35307084300075076,,,',001,2019_Feb_13_1205,part1_subjective_segmentation,3.0.3,59.74656927332912,
You’ll answer these questions about each story after reading all 8 stories. ,,,,None,,,,,,,,,0,2,2,2,,,,,,,,,,,,,,,,,,,,space,0.3202084750009817,,,',001,2019_Feb_13_1205,part1_subjective_segmentation,3.0.3,59.74656927332912,
You’ll learn these questions with a series of pre-task quizzes and then the story reading will begin.,,,,None,,,,,,,,,0,3,3,3,,,,,,,,,,,,,,,,,,,,space,0.28594159800013585,,,',001,2019_Feb_13_1205,part1_subjective_segmentation,3.0.3,59.74656927332912,
"Once the story-reading task has begun, remember your answers to the questions for each story.",,,,None,,,,,,,,,0,4,4,4,,,,,,,,,,,,,,,,,,,,space,0.2526971950010193,,,',001,2019_Feb_13_1205,part1_subjective_segmentation,3.0.3,59.74656927332912,
Press the space bar to begin learning the perspectives and the questions for each one.,,,,None,,,,,,,,,0,5,5,5,,,,,,,,,,,,,,,,,,,,space,0.23561970199989446,,,',001,2019_Feb_13_1205,part1_subjective_segmentation,3.0.3,59.74656927332912,
,,,,,,,,,,,,,,,,,,,,,,,,,,,,,,,,,,,,,,space,0.50296696300029,,,,,,,
