instruct_text,this_pic,rolePic,job,instruct_text2,Q1,Q2,Q3,Q4,D1,D2,roleName,instructText,trials_2.thisRepN,trials_2.thisTrialN,trials_2.thisN,trials_2.thisIndex,trials_4.thisRepN,trials_4.thisTrialN,trials_4.thisN,trials_4.thisIndex,loop3.thisRepN,loop3.thisTrialN,loop3.thisN,loop3.thisIndex,trials_3.thisRepN,trials_3.thisTrialN,trials_3.thisN,trials_3.thisIndex,trials.thisRepN,trials.thisTrialN,trials.thisN,trials.thisIndex,trials_5.thisRepN,trials_5.thisTrialN,trials_5.thisN,trials_5.thisIndex,trials_7.thisRepN,trials_7.thisTrialN,trials_7.thisN,trials_7.thisIndex,trials_8.thisRepN,trials_8.thisTrialN,trials_8.thisN,trials_8.thisIndex,key_resp_8.keys,key_resp_8.rt,key_resp_2.keys,key_resp_2.rt,key_resp_6.keys,key_resp_6.rt,key_resp_14.keys,key_resp_14.rt,key_resp_10.keys,key_resp_10.rt,key_resp_11.keys,key_resp_11.rt,key_resp_12.keys,key_resp_12.rt,key_resp_13.keys,key_resp_13.rt,key_resp_4.keys,key_resp_4.rt,key_resp_3.keys,key_resp_3.rt,key_resp_5.keys,key_resp_5.rt,participant,session,date,expName,psychopyVersion,frameRate,
Welcome to the Job Simulator Task!,instructions_photos/pixel.png,,,,,,,,,,,,0,0,0,0,,,,,,,,,,,,,,,,,,,,,,,,,,,,,space,0.45511330499994074,,,,,,,,,,,,,,,,,,,,,',001,2019_Feb_21_1159,part1_subjective_segmentation,3.0.4,59.80868111998884,
"In this task, you'll be assuming various perspectives of jobs while reading stories. ",None,,,,,,,,,,,,0,1,1,1,,,,,,,,,,,,,,,,,,,,,,,,,,,,,space,0.4006402730001355,,,,,,,,,,,,,,,,,,,,,',001,2019_Feb_21_1159,part1_subjective_segmentation,3.0.4,59.80868111998884,
"First, you’ll be introduced to the perspectives of 8 different jobs. ",instructions_photos/i1.png,,,,,,,,,,,,0,2,2,2,,,,,,,,,,,,,,,,,,,,,,,,,,,,,space,0.5372861480000211,,,,,,,,,,,,,,,,,,,,,',001,2019_Feb_21_1159,part1_subjective_segmentation,3.0.4,59.80868111998884,
"For example, you may be asked to take on the perspective of a Restaurant Critic while you read a story that takes place in a restaurant. ",jobphotos/restaurant_critic.jpg,,,,,,,,,,,,0,3,3,3,,,,,,,,,,,,,,,,,,,,,,,,,,,,,space,0.3867956120002418,,,,,,,,,,,,,,,,,,,,,',001,2019_Feb_21_1159,part1_subjective_segmentation,3.0.4,59.80868111998884,
"You’ll learn 4 questions associated with each perspective, and you’ll use these to interrogate the stories while assuming that perspective. ",instructions_photos/i2.png,,,,,,,,,,,,0,4,4,4,,,,,,,,,,,,,,,,,,,,,,,,,,,,,space,0.11962725200010027,,,,,,,,,,,,,,,,,,,,,',001,2019_Feb_21_1159,part1_subjective_segmentation,3.0.4,59.80868111998884,
"For example, if you are a Restaurant Critic, you’ll learn to ask questions about the restaurant decor, menus, and the enjoyment of the food. ",jobphotos/restaurant_critic.jpg,,,,,,,,,,,,0,5,5,5,,,,,,,,,,,,,,,,,,,,,,,,,,,,,space,0.31948338500023965,,,,,,,,,,,,,,,,,,,,,',001,2019_Feb_21_1159,part1_subjective_segmentation,3.0.4,59.80868111998884,
"After learning all the questions in a series of pre-task quizzes, you’ll read 8 stories, applying one perspective you’ve learned to each one. ",instructions_photos/i3.png,,,,,,,,,,,,0,6,6,6,,,,,,,,,,,,,,,,,,,,,,,,,,,,,space,0.10241110800006936,,,,,,,,,,,,,,,,,,,,,',001,2019_Feb_21_1159,part1_subjective_segmentation,3.0.4,59.80868111998884,
"While reading, try to keep in mind the perspective and questions. ",instructions_photos/i3.png,,,,,,,,,,,,0,7,7,7,,,,,,,,,,,,,,,,,,,,,,,,,,,,,space,0.17038653999998132,,,,,,,,,,,,,,,,,,,,,',001,2019_Feb_21_1159,part1_subjective_segmentation,3.0.4,59.80868111998884,
"After you’re finished reading all the stories, you will be asked to recall the stories and answer questions about them. ",instructions_photos/i4.png,,,,,,,,,,,,0,8,8,8,,,,,,,,,,,,,,,,,,,,,,,,,,,,,space,0.017559793000145874,,,,,,,,,,,,,,,,,,,,,',001,2019_Feb_21_1159,part1_subjective_segmentation,3.0.4,59.80868111998884,
Try to remember the stories and the answers to the questions as you read them for these later tasks. ,None,,,,,,,,,,,,0,9,9,9,,,,,,,,,,,,,,,,,,,,,,,,,,,,,space,0.5866514780000216,,,,,,,,,,,,,,,,,,,,,',001,2019_Feb_21_1159,part1_subjective_segmentation,3.0.4,59.80868111998884,
Let’s begin! The 8 perspectives are as follows:,None,,,,,,,,,,,,0,10,10,10,,,,,,,,,,,,,,,,,,,,,,,,,,,,,space,0.3204792300002737,,,,,,,,,,,,,,,,,,,,,',001,2019_Feb_21_1159,part1_subjective_segmentation,3.0.4,59.80868111998884,
,,jobphotos/business_reporter.jpg,Business Reporter,,,,,,,,,,,,,,0,0,0,0,,,,,,,,,,,,,,,,,,,,,,,,,,,space,0.43605079200006003,,,,,,,,,,,,,,,,,,,',001,2019_Feb_21_1159,part1_subjective_segmentation,3.0.4,59.80868111998884,
,,jobphotos/gscem.jpg,"Grocery Store Customer Experience Manager
",,,,,,,,,,,,,,0,1,1,5,,,,,,,,,,,,,,,,,,,,,,,,,,,space,0.35310493499991935,,,,,,,,,,,,,,,,,,,',001,2019_Feb_21_1159,part1_subjective_segmentation,3.0.4,59.80868111998884,
,,jobphotos/couples.jpeg,"Couples Therapist
",,,,,,,,,,,,,,0,2,2,7,,,,,,,,,,,,,,,,,,,,,,,,,,,space,0.35290166300001147,,,,,,,,,,,,,,,,,,,',001,2019_Feb_21_1159,part1_subjective_segmentation,3.0.4,59.80868111998884,
,,jobphotos/dean.jpg,Dean of Academic Studies,,,,,,,,,,,,,,0,3,3,6,,,,,,,,,,,,,,,,,,,,,,,,,,,space,0.3201532100001714,,,,,,,,,,,,,,,,,,,',001,2019_Feb_21_1159,part1_subjective_segmentation,3.0.4,59.80868111998884,
,,jobphotos/matchmaker.jpg,Matchmaker,,,,,,,,,,,,,,0,4,4,2,,,,,,,,,,,,,,,,,,,,,,,,,,,space,0.3212023030000637,,,,,,,,,,,,,,,,,,,',001,2019_Feb_21_1159,part1_subjective_segmentation,3.0.4,59.80868111998884,
,,jobphotos/restaurant_critic.jpg,Restaurant Critic,,,,,,,,,,,,,,0,5,5,1,,,,,,,,,,,,,,,,,,,,,,,,,,,space,0.3856194999998479,,,,,,,,,,,,,,,,,,,',001,2019_Feb_21_1159,part1_subjective_segmentation,3.0.4,59.80868111998884,
,,jobphotos/acem.jpg,Airport Customer Experience Manager,,,,,,,,,,,,,,0,6,6,4,,,,,,,,,,,,,,,,,,,,,,,,,,,space,0.4535310470000695,,,,,,,,,,,,,,,,,,,',001,2019_Feb_21_1159,part1_subjective_segmentation,3.0.4,59.80868111998884,
,,jobphotos/weddingplanner.jpg,Wedding Planner,,,,,,,,,,,,,,0,7,7,3,,,,,,,,,,,,,,,,,,,,,,,,,,,space,0.4858647949999977,,,,,,,,,,,,,,,,,,,',001,2019_Feb_21_1159,part1_subjective_segmentation,3.0.4,59.80868111998884,
You’ll become acquainted with these perspectives more in the following pre-task quizzes where you’ll learn the questions associated with each perspective. ,,,,(press space to continue),,,,,,,,,,,,,,,,,0,0,0,0,,,,,,,,,,,,,,,,,,,,,,,,,space,0.6537904400001935,,,,,,,,,,,,,,,,,',001,2019_Feb_21_1159,part1_subjective_segmentation,3.0.4,59.80868111998884,
You’ll first go through all four questions for each perspective. ,,,,None,,,,,,,,,,,,,,,,,0,1,1,1,,,,,,,,,,,,,,,,,,,,,,,,,space,0.3529862969999158,,,,,,,,,,,,,,,,,',001,2019_Feb_21_1159,part1_subjective_segmentation,3.0.4,59.80868111998884,
"Then, you’ll indicate the order in which you saw the questions during the quiz by pressing the number in front of the question. ",,,,None,,,,,,,,,,,,,,,,,0,2,2,2,,,,,,,,,,,,,,,,,,,,,,,,,space,0.25299772500011386,,,,,,,,,,,,,,,,,',001,2019_Feb_21_1159,part1_subjective_segmentation,3.0.4,59.80868111998884,
"If you indicate the wrong question during the quiz, you’ll restart the learning.",,,,None,,,,,,,,,,,,,,,,,0,3,3,3,,,,,,,,,,,,,,,,,,,,,,,,,space,0.16989938200003962,,,,,,,,,,,,,,,,,',001,2019_Feb_21_1159,part1_subjective_segmentation,3.0.4,59.80868111998884,
"After you’ve passed the learning for each perspective, you’ll have a round of final quizzes. ",,,,None,,,,,,,,,,,,,,,,,0,4,4,4,,,,,,,,,,,,,,,,,,,,,,,,,space,0.17045763799978886,,,,,,,,,,,,,,,,,',001,2019_Feb_21_1159,part1_subjective_segmentation,3.0.4,59.80868111998884,
Press the space bar to begin the quizzes. ,,,,None,,,,,,,,,,,,,,,,,0,5,5,5,,,,,,,,,,,,,,,,,,,,,,,,,space,0.20294247500032725,,,,,,,,,,,,,,,,,',001,2019_Feb_21_1159,part1_subjective_segmentation,3.0.4,59.80868111998884,
,,jobphotos/matchmaker.jpg,,,"Who notices whom first and why do they notice the other?
","How does the couple start talking?
","Which of the people proposes going on an actual date and what do they propose?
","Who leaves first and why do they have to go?
",Is the couple going to get married?,Who shows more interest?,Matchmaker,,,,,,,,,,,,,,0,0,0,2,0,0,0,0,,,,,,,,,,,,,,,,,,,space,0.16979829199999585,space,0.8029956099999254,space,0.3358151719999114,space,0.18371862000003603,space,0.1536719349996929,space,0.2027671329997247,,,,,',001,2019_Feb_21_1159,part1_subjective_segmentation,3.0.4,59.80868111998884,
,,jobphotos/matchmaker.jpg,,,"Who notices whom first and why do they notice the other?
","How does the couple start talking?
","Which of the people proposes going on an actual date and what do they propose?
","Who leaves first and why do they have to go?
",Is the couple going to get married?,Who shows more interest?,Matchmaker,,,,,,,,,,,,,,0,0,0,2,,,,,,,,,,,,,,,,,,,,,,,,,,,,,,,,,,,,,,,',001,2019_Feb_21_1159,part1_subjective_segmentation,3.0.4,59.80868111998884,
,,jobphotos/business_reporter.jpg,,,What industry are the business people in?,What is being negotiated and how much money is at stake?,What is the response to the proposed deal?,What comes about from the business proposal?,Is the deal fair?,How long does it take to make the deal?,Business Reporter,,,,,,,,,,,,,,,,,,,,,,0,0,0,0,0,0,0,0,,,,,,,,,,,,,,,,,,,,,,,space,0.45037416299965116,,,',001,2019_Feb_21_1159,part1_subjective_segmentation,3.0.4,59.80868111998884,
,,jobphotos/business_reporter.jpg,,,What industry are the business people in?,What is being negotiated and how much money is at stake?,What is the response to the proposed deal?,What comes about from the business proposal?,Is the deal fair?,How long does it take to make the deal?,Business Reporter,,,,,,,,,,,,,,,,,,,,,,0,0,0,0,,,,,,,,,,,,,,,,,,,,,,,,,,,,,,,',001,2019_Feb_21_1159,part1_subjective_segmentation,3.0.4,59.80868111998884,
,,,,,,,,,,,,Good job! You’ve finished the pre-task quizzes. ,,,,,,,,,,,,,,,,,,,,,,,,,,,,,0,0,0,0,,,,,,,,,,,,,,,,,,,,,space,0.936062791999575,',001,2019_Feb_21_1159,part1_subjective_segmentation,3.0.4,59.80868111998884,
