count,storyText,locationEvent,socialEvent,trials.thisRepN,trials.thisTrialN,trials.thisN,trials.thisIndex,trials_7.thisRepN,trials_7.thisTrialN,trials_7.thisN,trials_7.thisIndex,trials_2.thisRepN,trials_2.thisTrialN,trials_2.thisN,trials_2.thisIndex,order of stories,order of perspectives,second half of x,key_resp_8.keys,key_resp_8.rt,key_resp_5.keys,key_resp_5.rt,key_resp_7.keys,key_resp_7.rt,key_resp_14.keys,key_resp_14.rt,story_presses.keys,story_presses.rt,participant,session,date,expName,psychopyVersion,frameRate,
0,,,,0,0,0,0,0,0,0,0,,,,,[12 43 41 34 32 21 14 23],"['Location' 'Social' 'Location' 'Location' 'Social' 'Social' 'Social'
 'Location']",091019,space,0.4719437889998517,space,0.40355267700033437,space,0.3868847349999669,,,,,',001,2019_Feb_20_1448,SECONDPART_body_behavioural,3.0.4,60.00804947982545,
0,"It didn’t help the situation that Calvin and Jessie were running late to the airport, since Jessie had already been fuming at Calvin and preparing to end things with him.",1,1,0,0,0,0,,,,,0,0,0,0,,,,,,,,,,space,0.5028940869997314,1,5.036956006999844,',001,2019_Feb_20_1448,SECONDPART_body_behavioural,3.0.4,60.00804947982545,
0,"Upon arriving, they had only 45 minutes until their international flight would depart from Jamaica for the US.",1,1,0,0,0,0,,,,,0,1,1,1,,,,,,,,,,,,1,0.8197528570003669,',001,2019_Feb_20_1448,SECONDPART_body_behavioural,3.0.4,60.00804947982545,
0,It had been a tough vacation for them.,1,1,0,0,0,0,,,,,0,2,2,2,,,,,,,,,,,,1,1.3195875299998079,',001,2019_Feb_20_1448,SECONDPART_body_behavioural,3.0.4,60.00804947982545,
0,"Jessie had really had it with Calvin’s constant ramblings about the same excruciatingly boring golfing and work stories, which he insisted on repeating to her regardless of how little interest she showed.",1,1,0,0,0,0,,,,,0,3,3,3,,,,,,,,,,,,9,0.08670533299982708,',001,2019_Feb_20_1448,SECONDPART_body_behavioural,3.0.4,60.00804947982545,
0,"Calvin knew that Jessie was upset, but wasn't sure what to do besides attempting to carry on as normal and tell stories that took up the silence. ",1,1,0,0,0,0,,,,,0,4,4,4,,,,,,,,,,,,9,0.18646660500007783,',001,2019_Feb_20_1448,SECONDPART_body_behavioural,3.0.4,60.00804947982545,
0,"The security line was luckily very short, and once the online boarding passes were scanned they were ushered quickly through the metal detector, not having to take off their shoes or remove the liquids from their bags.",2,1,0,0,0,0,,,,,0,5,5,5,,,,,,,,,,,,9,0.13625156999978572,',001,2019_Feb_20_1448,SECONDPART_body_behavioural,3.0.4,60.00804947982545,
0,"“The infrastructure of this airport is really quite poor," said Calvin as they waited for their bags to emerge from the x-ray machine.",2,1,0,0,0,0,,,,,0,6,6,6,,,,,,,,,,,,1,0.21923000500009948,',001,2019_Feb_20_1448,SECONDPART_body_behavioural,3.0.4,60.00804947982545,
0,“I really could've hidden something in my shoes quite easily.” ,2,1,0,0,0,0,,,,,0,7,7,7,,,,,,,,,,,,9,0.11742819500022961,',001,2019_Feb_20_1448,SECONDPART_body_behavioural,3.0.4,60.00804947982545,
0,"Jessie, exasperated at his need to broadcast his every inner thought, scowled at the conveyor belt.",2,1,0,0,0,0,,,,,0,8,8,8,,,,,,,,,,,,1,0.13659854800016547,',001,2019_Feb_20_1448,SECONDPART_body_behavioural,3.0.4,60.00804947982545,
0,"“What?”, he asked.",2,1,0,0,0,0,,,,,0,9,9,9,,,,,,,,,,,,9,0.10569834699981584,',001,2019_Feb_20_1448,SECONDPART_body_behavioural,3.0.4,60.00804947982545,
0,She balled up her fists and turned to face him.,2,1,0,0,0,0,,,,,0,10,10,10,,,,,,,,,,,,1,0.18658531199980644,',001,2019_Feb_20_1448,SECONDPART_body_behavioural,3.0.4,60.00804947982545,
0,"“Calvin, I really don’t think I can do this anymore.",2,2,0,0,0,0,,,,,0,11,11,11,,,,,,,,,,,,9,0.11890178800013018,',001,2019_Feb_20_1448,SECONDPART_body_behavioural,3.0.4,60.00804947982545,
0,I think it’s best that once we get to the States we part ways for good.” ,2,2,0,0,0,0,,,,,0,12,12,12,,,,,,,,,,,,1,0.2007802170001014,',001,2019_Feb_20_1448,SECONDPART_body_behavioural,3.0.4,60.00804947982545,
0,Calvin said nothing as he grabbed his bag and quickly walked away.,2,2,0,0,0,0,,,,,0,13,13,13,,,,,,,,,,,,9,0.10295088499970007,',001,2019_Feb_20_1448,SECONDPART_body_behavioural,3.0.4,60.00804947982545,
0,"Jessie trailed behind him as they made their way quickly toward their gate, shouting at his back in hopes of getting a response.",3,2,0,0,0,0,,,,,0,14,14,14,,,,,,,,,,,,1,0.13643430699994497,',001,2019_Feb_20_1448,SECONDPART_body_behavioural,3.0.4,60.00804947982545,
0,“So now you have nothing to say?,3,2,0,0,0,0,,,,,0,15,15,15,,,,,,,,,,,,9,0.03621950699971421,',001,2019_Feb_20_1448,SECONDPART_body_behavioural,3.0.4,60.00804947982545,
0,"Every time we talk, you are just looking for a way to steer the conversation back into your stories.”",3,2,0,0,0,0,,,,,0,16,16,16,,,,,,,,,,,,1,0.06931944000007206,',001,2019_Feb_20_1448,SECONDPART_body_behavioural,3.0.4,60.00804947982545,
0,"Calvin didn't slow his pace, gritting his teeth and staring straight ahead. ",3,2,0,0,0,0,,,,,0,17,17,17,,,,,,,,,,,,9,0.03632224700004372,',001,2019_Feb_20_1448,SECONDPART_body_behavioural,3.0.4,60.00804947982545,
0,He was very frustrated that he had been trying to appease Jessie this whole time and this was how she responded. ,3,2,0,0,0,0,,,,,0,18,18,18,,,,,,,,,,,,1,0.08609316499996567,',001,2019_Feb_20_1448,SECONDPART_body_behavioural,3.0.4,60.00804947982545,
0,The silence was punctuated only by the rapid rhythmic clacking of their suitcase wheels over the tile floor as they continued power-walking through the terminal. ,3,2,0,0,0,0,,,,,0,19,19,19,,,,,,,,,,,,9,0.0031235399997058266,',001,2019_Feb_20_1448,SECONDPART_body_behavioural,3.0.4,60.00804947982545,
0,"“Well?” Jessie said, and Calvin finally turned to her.",3,2,0,0,0,0,,,,,0,20,20,20,,,,,,,,,,,,1,0.10303380699997433,',001,2019_Feb_20_1448,SECONDPART_body_behavioural,3.0.4,60.00804947982545,
0,"“Well, Jessie, this makes perfect sense. ",3,3,0,0,0,0,,,,,0,21,21,21,,,,,,,,,,,,9,0.0029455869998855633,',001,2019_Feb_20_1448,SECONDPART_body_behavioural,3.0.4,60.00804947982545,
0,"If you feel this way, then I don’t want to keep boring you, and I agree, let’s part ways once we make it back.",3,3,0,0,0,0,,,,,0,22,22,22,,,,,,,,,,,,1,0.08621366000033959,',001,2019_Feb_20_1448,SECONDPART_body_behavioural,3.0.4,60.00804947982545,
0,You should’ve spoken up about my apparent intolerability before you decided to plan this vacation.”,3,3,0,0,0,0,,,,,0,23,23,23,,,,,,,,,,,,9,0.017426198000066506,',001,2019_Feb_20_1448,SECONDPART_body_behavioural,3.0.4,60.00804947982545,
0,"He was clearly hurt, but thought it was pointless to argue. ",3,3,0,0,0,0,,,,,0,24,24,24,,,,,,,,,,,,1,0.1364449880002212,',001,2019_Feb_20_1448,SECONDPART_body_behavioural,3.0.4,60.00804947982545,
0,"They finally made it to the gate, just as they heard the final call for passengers boarding their flight.",3,3,0,0,0,0,,,,,0,25,25,25,,,,,,,,,,,,9,0.06945848999976079,',001,2019_Feb_20_1448,SECONDPART_body_behavioural,3.0.4,60.00804947982545,
0,"They scanned their tickets, and the annoyed flight attendant shooed them onto the jet bridge and then closed the door behind them.",4,3,0,0,0,0,,,,,0,26,26,26,,,,,,,,,,,,1,0.1692913500000941,',001,2019_Feb_20_1448,SECONDPART_body_behavioural,3.0.4,60.00804947982545,
0,"Luckily, they had forgotten to arrange seats next to each other on the flight back.",4,3,0,0,0,0,,,,,0,27,27,27,,,,,,,,,,,,9,0.0674244900001213,',001,2019_Feb_20_1448,SECONDPART_body_behavioural,3.0.4,60.00804947982545,
0,"They both had first-class tickets, but Jessie was headed for seat 1B while Calvin's seat was 4F. ",4,3,0,0,0,0,,,,,0,28,28,28,,,,,,,,,,,,1,0.136702255000273,',001,2019_Feb_20_1448,SECONDPART_body_behavioural,3.0.4,60.00804947982545,
0,"Before Jessie sat down, she took a deep breath and then awkwardly shook Calvin’s hand, mumbling, “Well, have a nice flight.” ",4,4,0,0,0,0,,,,,0,29,29,29,,,,,,,,,,,,9,0.0006206030002431362,',001,2019_Feb_20_1448,SECONDPART_body_behavioural,3.0.4,60.00804947982545,
0,He laughed in disbelief and walked to his window seat three rows back to get ready for takeoff.,4,4,0,0,0,0,,,,,0,30,30,30,,,,,,,,,,,,1,0.11951061999980084,',001,2019_Feb_20_1448,SECONDPART_body_behavioural,3.0.4,60.00804947982545,
0,Both were upset but glad that they would have this flight to mull things over and recenter. ,4,4,0,0,0,0,,,,,0,31,31,31,,,,,,,,,,,,9,0.0029325119999157323,',001,2019_Feb_20_1448,SECONDPART_body_behavioural,3.0.4,60.00804947982545,
0,,,,0,0,0,0,,,,,,,,,,,,,,,,,,space,0.5865851549997387,,,',001,2019_Feb_20_1448,SECONDPART_body_behavioural,3.0.4,60.00804947982545,
