instruct_text,this_pic,rolePic,job,instruct_text2,Q1,Q2,Q3,Q4,D1,D2,roleName,trials_2.thisRepN,trials_2.thisTrialN,trials_2.thisN,trials_2.thisIndex,trials_4.thisRepN,trials_4.thisTrialN,trials_4.thisN,trials_4.thisIndex,loop3.thisRepN,loop3.thisTrialN,loop3.thisN,loop3.thisIndex,trials_3.thisRepN,trials_3.thisTrialN,trials_3.thisN,trials_3.thisIndex,trials.thisRepN,trials.thisTrialN,trials.thisN,trials.thisIndex,key_resp_8.keys,key_resp_8.rt,key_resp_2.keys,key_resp_2.rt,key_resp_6.keys,key_resp_6.rt,key_resp_14.keys,key_resp_14.rt,key_resp_10.keys,key_resp_10.rt,key_resp_11.keys,key_resp_11.rt,key_resp_12.keys,key_resp_12.rt,key_resp_13.keys,key_resp_13.rt,key_resp_4.keys,key_resp_4.rt,participant,session,date,expName,psychopyVersion,frameRate,
Welcome to the Job Simulator Task!,instructions_photos/pixel.png,,,,,,,,,,,0,0,0,0,,,,,,,,,,,,,,,,,space,0.4045706350000273,,,,,,,,,,,,,,,,,01,001,2019_Feb_12_1244,part1_subjective_segmentation,3.0.3,59.9193586097517,
"In this task, you’ll first be introduced to the perspectives of 8 different jobs. ",instructions_photos/i1.png,,,,,,,,,,,0,1,1,1,,,,,,,,,,,,,,,,,space,0.25298437500003956,,,,,,,,,,,,,,,,,01,001,2019_Feb_12_1244,part1_subjective_segmentation,3.0.3,59.9193586097517,
You’ll then learn 4 questions associated with each perspective. ,instructions_photos/i2.png,,,,,,,,,,,0,2,2,2,,,,,,,,,,,,,,,,,space,0.05282808500004421,,,,,,,,,,,,,,,,,01,001,2019_Feb_12_1244,part1_subjective_segmentation,3.0.3,59.9193586097517,
"Subsequently, you will be asked to apply those perspectives and questions to 8 stories.",instructions_photos/i3.png,,,,,,,,,,,0,3,3,3,,,,,,,,,,,,,,,,,space,0.0528717850000362,,,,,,,,,,,,,,,,,01,001,2019_Feb_12_1244,part1_subjective_segmentation,3.0.3,59.9193586097517,
"For each story you read, you will be asked to assume one of the perspectives. ",instructions_photos/i3.png,,,,,,,,,,,0,4,4,4,,,,,,,,,,,,,,,,,space,0.10299750999996604,,,,,,,,,,,,,,,,,01,001,2019_Feb_12_1244,part1_subjective_segmentation,3.0.3,59.9193586097517,
"While reading, try to remember the perspective and the questions of that perspective. ",instructions_photos/i3.png,,,,,,,,,,,0,5,5,5,,,,,,,,,,,,,,,,,space,0.15066779699998278,,,,,,,,,,,,,,,,,01,001,2019_Feb_12_1244,part1_subjective_segmentation,3.0.3,59.9193586097517,
"After you’re finished reading all the stories, you will be asked to recall the stories and answer questions about them. ",instructions_photos/i4.png,,,,,,,,,,,0,6,6,6,,,,,,,,,,,,,,,,,space,0.05295555800000784,,,,,,,,,,,,,,,,,01,001,2019_Feb_12_1244,part1_subjective_segmentation,3.0.3,59.9193586097517,
Let’s begin! The 8 perspectives are as follows:,None,,,,,,,,,,,0,7,7,7,,,,,,,,,,,,,,,,,space,0.16965838999999505,,,,,,,,,,,,,,,,,01,001,2019_Feb_12_1244,part1_subjective_segmentation,3.0.3,59.9193586097517,
,,jobphotos/weddingplanner.jpg,Wedding Planner,,,,,,,,,,,,,0,0,0,3,,,,,,,,,,,,,,,space,0.10319751800000176,,,,,,,,,,,,,,,01,001,2019_Feb_12_1244,part1_subjective_segmentation,3.0.3,59.9193586097517,
,,jobphotos/business_reporter.jpg,Business Reporter,,,,,,,,,,,,,0,1,1,0,,,,,,,,,,,,,,,space,0.1196663499999886,,,,,,,,,,,,,,,01,001,2019_Feb_12_1244,part1_subjective_segmentation,3.0.3,59.9193586097517,
,,jobphotos/dean.jpg,Dean of Academic Studies,,,,,,,,,,,,,0,2,2,6,,,,,,,,,,,,,,,space,0.08595401799999536,,,,,,,,,,,,,,,01,001,2019_Feb_12_1244,part1_subjective_segmentation,3.0.3,59.9193586097517,
,,jobphotos/matchmaker.jpg,Matchmaker,,,,,,,,,,,,,0,3,3,2,,,,,,,,,,,,,,,space,0.10290078499997435,,,,,,,,,,,,,,,01,001,2019_Feb_12_1244,part1_subjective_segmentation,3.0.3,59.9193586097517,
,,jobphotos/acem.jpg,Airport Customer Experience Manager,,,,,,,,,,,,,0,4,4,4,,,,,,,,,,,,,,,space,0.10295907500000112,,,,,,,,,,,,,,,01,001,2019_Feb_12_1244,part1_subjective_segmentation,3.0.3,59.9193586097517,
,,jobphotos/restaurant_critic.jpg,Restaurant Critic,,,,,,,,,,,,,0,5,5,1,,,,,,,,,,,,,,,space,0.08600961299998744,,,,,,,,,,,,,,,01,001,2019_Feb_12_1244,part1_subjective_segmentation,3.0.3,59.9193586097517,
,,jobphotos/couples.jpeg,"Couples Therapist
",,,,,,,,,,,,,0,6,6,7,,,,,,,,,,,,,,,space,0.18639424500003088,,,,,,,,,,,,,,,01,001,2019_Feb_12_1244,part1_subjective_segmentation,3.0.3,59.9193586097517,
,,jobphotos/gscem.jpg,"Grocery Store Customer Experience Manager
",,,,,,,,,,,,,0,7,7,5,,,,,,,,,,,,,,,space,0.20295183299998598,,,,,,,,,,,,,,,01,001,2019_Feb_12_1244,part1_subjective_segmentation,3.0.3,59.9193586097517,
Each of these perspectives will be applied to one story. ,,,,(press space to continue),,,,,,,,,,,,,,,,0,0,0,0,,,,,,,,,,,,,space,0.2532006600000045,,,,,,,,,,,,,01,001,2019_Feb_12_1244,part1_subjective_segmentation,3.0.3,59.9193586097517,
"Each perspective has 4 questions, and you will answer these questions about each story.",,,,None,,,,,,,,,,,,,,,,0,1,1,1,,,,,,,,,,,,,space,0.3364409370000203,,,,,,,,,,,,,01,001,2019_Feb_12_1244,part1_subjective_segmentation,3.0.3,59.9193586097517,
You’ll answer these questions about each story after reading all 8 stories. ,,,,None,,,,,,,,,,,,,,,,0,2,2,2,,,,,,,,,,,,,space,0.33633691299996826,,,,,,,,,,,,,01,001,2019_Feb_12_1244,part1_subjective_segmentation,3.0.3,59.9193586097517,
You’ll learn these questions with a series of pre-task quizzes and then the story reading will begin.,,,,None,,,,,,,,,,,,,,,,0,3,3,3,,,,,,,,,,,,,space,0.36974660300001005,,,,,,,,,,,,,01,001,2019_Feb_12_1244,part1_subjective_segmentation,3.0.3,59.9193586097517,
"Once the story-reading task has begun, remember your answers to the questions for each story.",,,,None,,,,,,,,,,,,,,,,0,4,4,4,,,,,,,,,,,,,space,0.5531200429999785,,,,,,,,,,,,,01,001,2019_Feb_12_1244,part1_subjective_segmentation,3.0.3,59.9193586097517,
Press the space bar to begin learning the perspectives and the questions for each one.,,,,None,,,,,,,,,,,,,,,,0,5,5,5,,,,,,,,,,,,,space,0.4172446780000314,,,,,,,,,,,,,01,001,2019_Feb_12_1244,part1_subjective_segmentation,3.0.3,59.9193586097517,
,,jobphotos/restaurant_critic.jpg,,,How is the restaurant decorated?,What are the menus like?,"What do the clients order?
",How do the clients like the food?,How old is the waiter?,What meal is being served?,Restaurant Critic,,,,,,,,,,,,,0,0,0,1,0,0,0,0,,,,,,,space,0.3697226919999821,space,0.31956523499997047,space,0.35311483300000646,space,0.2840174649999767,space,0.3031044649999899,space,0.4673292830000264,01,001,2019_Feb_12_1244,part1_subjective_segmentation,3.0.3,59.9193586097517,
