count,storyText,locationEvent,socialEvent,instructText,trials.thisRepN,trials.thisTrialN,trials.thisN,trials.thisIndex,trials_7.thisRepN,trials_7.thisTrialN,trials_7.thisN,trials_7.thisIndex,trials_2.thisRepN,trials_2.thisTrialN,trials_2.thisN,trials_2.thisIndex,trials_3.thisRepN,trials_3.thisTrialN,trials_3.thisN,trials_3.thisIndex,trials_4.thisRepN,trials_4.thisTrialN,trials_4.thisN,trials_4.thisIndex,trials_5.thisRepN,trials_5.thisTrialN,trials_5.thisN,trials_5.thisIndex,trials_6.thisRepN,trials_6.thisTrialN,trials_6.thisN,trials_6.thisIndex,order of stories,order of perspectives,participant 2 order - stories,participant 2 order  - schemas types,key_resp_8.keys,key_resp_8.rt,key_resp_5.keys,key_resp_5.rt,key_resp_7.keys,key_resp_7.rt,story_presses.keys,story_presses.rt,key_resp_2.keys,key_resp_2.rt,key_resp_10.keys,key_resp_10.rt,recall,key_resp_3.keys,key_resp_3.rt,key_resp_11.keys,key_resp_11.rt,question1_answer,order of question,question2_answer,question3_answer,question4_answer,question5_answer,question6_answer,question7_answer,question8_answer,participant,session,date,expName,psychopyVersion,frameRate,
0,,,,,0,0,0,0,0,0,0,0,,,,,,,,,,,,,,,,,,,,,[24 43 31 33 41 14 22 12 44 34 42 21 11 23 32 13],"['Location' 'Location' 'Location' 'Social' 'Social' 'Social' 'Social'
 'Location' 'Social' 'Location' 'Location' 'Location' 'Social' 'Social'
 'Social' 'Location']",[44 34 42 21 11 23 32 13],"['Social' 'Location' 'Location' 'Location' 'Social' 'Social' 'Social'
 'Location']",space,17.376653505000007,space,9.30345503000001,space,3.3541466270000058,,,,,,,,,,,,,,,,,,,,,021119_p1,001,2019_Feb_11_1420,body_behavioural,3.0.3,59.989808931262935,
0,"Lana walked into lecture holding hands with her boyfriend, Aaron, who was trying to contain his excitement and anticipation for proposing to Lana in this class. ",1,1,,0,0,0,0,,,,,0,0,0,0,,,,,,,,,,,,,,,,,,,,,,,,,,,9,44.43909899900001,,,,,,,,,,,,,,,,,,,021119_p1,001,2019_Feb_11_1420,body_behavioural,3.0.3,59.989808931262935,
0,"Lana was lost in thought, still puzzling over a calculus problem on her problem set due that night.",1,1,,0,0,0,0,,,,,0,1,1,1,,,,,,,,,,,,,,,,,,,,,,,,,,,9,6.486229281999982,,,,,,,,,,,,,,,,,,,021119_p1,001,2019_Feb_11_1420,body_behavioural,3.0.3,59.989808931262935,
0,"The lecture hall was the fanciest one at Princeton, with chandeliers, high ceilings, wood floors and double-decker chalkboards.",1,1,,0,0,0,0,,,,,0,2,2,2,,,,,,,,,,,,,,,,,,,,,,,,,,,1,15.836802026000015,,,,,,,,,,,,,,,,,,,021119_p1,001,2019_Feb_11_1420,body_behavioural,3.0.3,59.989808931262935,
0,"This is where Aaron and Lana had met two years ago during an economics class, and now they were back together in the same lecture hall for their Chemistry class. ",1,1,,0,0,0,0,,,,,0,3,3,3,,,,,,,,,,,,,,,,,,,,,,,,,,,1,6.402882828999992,,,,,,,,,,,,,,,,,,,021119_p1,001,2019_Feb_11_1420,body_behavioural,3.0.3,59.989808931262935,
0,The professor caught Aaron's eye as he walked up to the front of the classroom and gave him a wink before the lecture began. ,1,1,,0,0,0,0,,,,,0,4,4,4,,,,,,,,,,,,,,,,,,,,,,,,,,,1,6.085706275000007,,,,,,,,,,,,,,,,,,,021119_p1,001,2019_Feb_11_1420,body_behavioural,3.0.3,59.989808931262935,
0,Aaron responded with a huge grin. ,1,1,,0,0,0,0,,,,,0,5,5,5,,,,,,,,,,,,,,,,,,,,,,,,,,,1,2.153751982999978,,,,,,,,,,,,,,,,,,,021119_p1,001,2019_Feb_11_1420,body_behavioural,3.0.3,59.989808931262935,
0,"The professor cleared his throat and said,“Alright, good afternoon, everyone!",2,1,,0,0,0,0,,,,,0,6,6,6,,,,,,,,,,,,,,,,,,,,,,,,,,,9,15.886551512000011,,,,,,,,,,,,,,,,,,,021119_p1,001,2019_Feb_11_1420,body_behavioural,3.0.3,59.989808931262935,
0,"Last week we talked about the structure of the periodic table, and this week the topic is ions.",2,1,,0,0,0,0,,,,,0,7,7,7,,,,,,,,,,,,,,,,,,,,,,,,,,,1,3.7526345220000223,,,,,,,,,,,,,,,,,,,021119_p1,001,2019_Feb_11_1420,body_behavioural,3.0.3,59.989808931262935,
0,These are atoms or molecules in which the number of electrons does not equal the number of protons.,2,1,,0,0,0,0,,,,,0,8,8,8,,,,,,,,,,,,,,,,,,,,,,,,,,,1,4.552650242999988,,,,,,,,,,,,,,,,,,,021119_p1,001,2019_Feb_11_1420,body_behavioural,3.0.3,59.989808931262935,
0,"Now, let me get my computer set up, one moment, class.”",2,1,,0,0,0,0,,,,,0,9,9,9,,,,,,,,,,,,,,,,,,,,,,,,,,,1,6.636840740000025,,,,,,,,,,,,,,,,,,,021119_p1,001,2019_Feb_11_1420,body_behavioural,3.0.3,59.989808931262935,
0,Lana pulled out her Calculus problem set and puzzled over it.,2,1,,0,0,0,0,,,,,0,10,10,10,,,,,,,,,,,,,,,,,,,,,,,,,,,9,4.336228758000004,,,,,,,,,,,,,,,,,,,021119_p1,001,2019_Feb_11_1420,body_behavioural,3.0.3,59.989808931262935,
0,"While she was distracted, Aaron unzipped the small pocket in his backpack and pulled out the ring box.",2,2,,0,0,0,0,,,,,0,11,11,11,,,,,,,,,,,,,,,,,,,,,,,,,,,1,11.054203252000008,,,,,,,,,,,,,,,,,,,021119_p1,001,2019_Feb_11_1420,body_behavioural,3.0.3,59.989808931262935,
0,He opened it up and looked at the ring.,2,2,,0,0,0,0,,,,,0,12,12,12,,,,,,,,,,,,,,,,,,,,,,,,,,,1,3.317379865000021,,,,,,,,,,,,,,,,,,,021119_p1,001,2019_Feb_11_1420,body_behavioural,3.0.3,59.989808931262935,
0,"Instead of one large diamond, there were 5 diamonds embedded in a thick band. ",2,2,,0,0,0,0,,,,,0,13,13,13,,,,,,,,,,,,,,,,,,,,,,,,,,,1,6.853500554999982,,,,,,,,,,,,,,,,,,,021119_p1,001,2019_Feb_11_1420,body_behavioural,3.0.3,59.989808931262935,
0,He knew Lana would like this because her style was not flashy but more about simple elegance.,2,2,,0,0,0,0,,,,,0,14,14,14,,,,,,,,,,,,,,,,,,,,,,,,,,,1,3.8362687600000527,,,,,,,,,,,,,,,,,,,021119_p1,001,2019_Feb_11_1420,body_behavioural,3.0.3,59.989808931262935,
0,Aaron put the ring back into the bag as the professor began the lecture. ,3,2,,0,0,0,0,,,,,0,15,15,15,,,,,,,,,,,,,,,,,,,,,,,,,,,1,4.169892148000031,,,,,,,,,,,,,,,,,,,021119_p1,001,2019_Feb_11_1420,body_behavioural,3.0.3,59.989808931262935,
0,“Recall from previous lectures that the number of protons determines the identity of the element. ,3,2,,0,0,0,0,,,,,0,16,16,16,,,,,,,,,,,,,,,,,,,,,,,,,,,9,6.669823863000033,,,,,,,,,,,,,,,,,,,021119_p1,001,2019_Feb_11_1420,body_behavioural,3.0.3,59.989808931262935,
0,"So for example, all atoms of sodium have 11 protons in the nucleus. ",3,2,,0,0,0,0,,,,,0,17,17,17,,,,,,,,,,,,,,,,,,,,,,,,,,,1,4.5198954450000315,,,,,,,,,,,,,,,,,,,021119_p1,001,2019_Feb_11_1420,body_behavioural,3.0.3,59.989808931262935,
0,"And if you look on the periodic table, the atomic number for sodium, the symbol is Na, is eleven.”",3,2,,0,0,0,0,,,,,0,18,18,18,,,,,,,,,,,,,,,,,,,,,,,,,,,1,5.920084485000018,,,,,,,,,,,,,,,,,,,021119_p1,001,2019_Feb_11_1420,body_behavioural,3.0.3,59.989808931262935,
0,Lana was taking notes while Aaron was texting all of his friends in the class to get ready for the proposal. ,3,2,,0,0,0,0,,,,,0,19,19,19,,,,,,,,,,,,,,,,,,,,,,,,,,,9,7.469780100000037,,,,,,,,,,,,,,,,,,,021119_p1,001,2019_Feb_11_1420,body_behavioural,3.0.3,59.989808931262935,
0,"Right after talking about how two ions bond into one stable molecule by covalent bonds, the professor stopped the lecture and asked Lana to come to the front of the class to do a demonstration. ",3,2,,0,0,0,0,,,,,0,20,20,20,,,,,,,,,,,,,,,,,,,,,,,,,,,1,10.937212760000023,,,,,,,,,,,,,,,,,,,021119_p1,001,2019_Feb_11_1420,body_behavioural,3.0.3,59.989808931262935,
0,"She walked to the front of the class confused, and the professor asked her to stand in the middle of the stage.",3,2,,0,0,0,0,,,,,0,21,21,21,,,,,,,,,,,,,,,,,,,,,,,,,,,1,4.436106994999989,,,,,,,,,,,,,,,,,,,021119_p1,001,2019_Feb_11_1420,body_behavioural,3.0.3,59.989808931262935,
0,"Then Aaron walked up and, taking Lana’s hand, got down on one knee. ",3,3,,0,0,0,0,,,,,0,22,22,22,,,,,,,,,,,,,,,,,,,,,,,,,,,1,2.303185452999969,,,,,,,,,,,,,,,,,,,021119_p1,001,2019_Feb_11_1420,body_behavioural,3.0.3,59.989808931262935,
0,"“It's time for us to make a bond of our own, Lana.",3,3,,0,0,0,0,,,,,0,23,23,23,,,,,,,,,,,,,,,,,,,,,,,,,,,1,3.2021161239999856,,,,,,,,,,,,,,,,,,,021119_p1,001,2019_Feb_11_1420,body_behavioural,3.0.3,59.989808931262935,
0,Will you marry me?” ,3,3,,0,0,0,0,,,,,0,24,24,24,,,,,,,,,,,,,,,,,,,,,,,,,,,1,1.4694472450000262,,,,,,,,,,,,,,,,,,,021119_p1,001,2019_Feb_11_1420,body_behavioural,3.0.3,59.989808931262935,
0,Lana gasped and put her other hand to her mouth and started looking around the room as if trying to convince herself that this was really happening.,3,3,,0,0,0,0,,,,,0,25,25,25,,,,,,,,,,,,,,,,,,,,,,,,,,,9,10.837183691999996,,,,,,,,,,,,,,,,,,,021119_p1,001,2019_Feb_11_1420,body_behavioural,3.0.3,59.989808931262935,
0,For a few moments everyone was in suspense waiting for the Lana’s shock to wear off and for her to answer. ,3,3,,0,0,0,0,,,,,0,26,26,26,,,,,,,,,,,,,,,,,,,,,,,,,,,1,5.620954433999998,,,,,,,,,,,,,,,,,,,021119_p1,001,2019_Feb_11_1420,body_behavioural,3.0.3,59.989808931262935,
0,"Finally, she said, “Yes!”",3,4,,0,0,0,0,,,,,0,27,27,27,,,,,,,,,,,,,,,,,,,,,,,,,,,1,1.3690939699999944,,,,,,,,,,,,,,,,,,,021119_p1,001,2019_Feb_11_1420,body_behavioural,3.0.3,59.989808931262935,
0,"Aaron put the ring on her finger, and they hugged while the whole class clapped. ",3,4,,0,0,0,0,,,,,0,28,28,28,,,,,,,,,,,,,,,,,,,,,,,,,,,1,3.486827278000021,,,,,,,,,,,,,,,,,,,021119_p1,001,2019_Feb_11_1420,body_behavioural,3.0.3,59.989808931262935,
0,"Their friends came up and hugged both of them, and the professor gave Aaron a celebratory handshake.",3,4,,0,0,0,0,,,,,0,29,29,29,,,,,,,,,,,,,,,,,,,,,,,,,,,1,2.7860961239999824,,,,,,,,,,,,,,,,,,,021119_p1,001,2019_Feb_11_1420,body_behavioural,3.0.3,59.989808931262935,
0,"They made their way back to their seats, Lana and Aaron hand-in-hand and beaming. ",3,4,,0,0,0,0,,,,,0,30,30,30,,,,,,,,,,,,,,,,,,,,,,,,,,,1,5.687035037999976,,,,,,,,,,,,,,,,,,,021119_p1,001,2019_Feb_11_1420,body_behavioural,3.0.3,59.989808931262935,
0,"The professor then dismissed the class, saying, “That was enough excitement for today!",4,4,,0,0,0,0,,,,,0,31,31,31,,,,,,,,,,,,,,,,,,,,,,,,,,,1,6.418527805999986,,,,,,,,,,,,,,,,,,,021119_p1,001,2019_Feb_11_1420,body_behavioural,3.0.3,59.989808931262935,
0,Don’t forget there’s an exam next week on the first two chapters of the textbook.”,4,4,,0,0,0,0,,,,,0,32,32,32,,,,,,,,,,,,,,,,,,,,,,,,,,,1,4.436606822999977,,,,,,,,,,,,,,,,,,,021119_p1,001,2019_Feb_11_1420,body_behavioural,3.0.3,59.989808931262935,
0,"As everyone was packing up their notebooks and leaving, Lana was already on her phone calling her family members to tell them the exciting news.",4,4,,0,0,0,0,,,,,0,33,33,33,,,,,,,,,,,,,,,,,,,,,,,,,,,9,6.767850137999972,,,,,,,,,,,,,,,,,,,021119_p1,001,2019_Feb_11_1420,body_behavioural,3.0.3,59.989808931262935,
0,,,,,0,0,0,0,,,,,,,,,,,,,,,,,,,,,,,,,,,,,,,,,,,,,,,,,,,,,,,,,,,,,,,021119_p1,001,2019_Feb_11_1420,body_behavioural,3.0.3,59.989808931262935,
1,,,,,0,1,1,1,0,0,0,0,,,,,,,,,,,,,,,,,,,,,,,,,space,1.1341161000000284,space,2.385956759999999,space,3.5868941850000056,,,,,,,,,,,,,,,,,,,,,021119_p1,001,2019_Feb_11_1420,body_behavioural,3.0.3,59.989808931262935,
1,"Simon and Carina noticed each other as they walked into the grocery store at the same time, their carts nearly colliding as they squeezed into the entrance.",1,1,,0,1,1,1,,,,,0,0,0,0,,,,,,,,,,,,,,,,,,,,,,,,,,,9,17.487486312999977,,,,,,,,,,,,,,,,,,,021119_p1,001,2019_Feb_11_1420,body_behavioural,3.0.3,59.989808931262935,
1,"They were both new to the Boston area, and this was their first time in this store. ",1,1,,0,1,1,1,,,,,0,1,1,1,,,,,,,,,,,,,,,,,,,,,,,,,,,1,3.735015073999989,,,,,,,,,,,,,,,,,,,021119_p1,001,2019_Feb_11_1420,body_behavioural,3.0.3,59.989808931262935,
1,"It kind of looked like a large warehouse, with high unfurnished ceilings, industrial lights, and large packages of food. ",1,1,,0,1,1,1,,,,,0,2,2,2,,,,,,,,,,,,,,,,,,,,,,,,,,,1,5.303953387999968,,,,,,,,,,,,,,,,,,,021119_p1,001,2019_Feb_11_1420,body_behavioural,3.0.3,59.989808931262935,
1,"They went off along separate routes, but soon ended up back together in the meat section. ",2,1,,0,1,1,1,,,,,0,3,3,3,,,,,,,,,,,,,,,,,,,,,,,,,,,1,14.52060939300003,,,,,,,,,,,,,,,,,,,021119_p1,001,2019_Feb_11_1420,body_behavioural,3.0.3,59.989808931262935,
1,"They were both preparing for barbecues, so they were looking over the same cuts of meat. ",2,1,,0,1,1,1,,,,,0,4,4,4,,,,,,,,,,,,,,,,,,,,,,,,,,,1,3.5031537579999963,,,,,,,,,,,,,,,,,,,021119_p1,001,2019_Feb_11_1420,body_behavioural,3.0.3,59.989808931262935,
1,"Simon really wanted to talk to Carina, and Carina really wanted to say something to Simon, but they felt embarrassed striking up a conversation with a stranger.",2,1,,0,1,1,1,,,,,0,5,5,5,,,,,,,,,,,,,,,,,,,,,,,,,,,9,7.469950034999954,,,,,,,,,,,,,,,,,,,021119_p1,001,2019_Feb_11_1420,body_behavioural,3.0.3,59.989808931262935,
1,"Carina suddenly turned to Simon and, pointing at a Cornish hen, asked, “Isn’t this meat cute?”",2,2,,0,1,1,1,,,,,0,6,6,6,,,,,,,,,,,,,,,,,,,,,,,,,,,1,5.686369044999992,,,,,,,,,,,,,,,,,,,021119_p1,001,2019_Feb_11_1420,body_behavioural,3.0.3,59.989808931262935,
1,"He laughed, and said, “It is very cute.",2,2,,0,1,1,1,,,,,0,7,7,7,,,,,,,,,,,,,,,,,,,,,,,,,,,1,2.1031060280000133,,,,,,,,,,,,,,,,,,,021119_p1,001,2019_Feb_11_1420,body_behavioural,3.0.3,59.989808931262935,
1,"Probably the younger brother of this guy,” and he picked up a regular-sized chicken.",2,2,,0,1,1,1,,,,,0,8,8,8,,,,,,,,,,,,,,,,,,,,,,,,,,,1,3.2697831880000194,,,,,,,,,,,,,,,,,,,021119_p1,001,2019_Feb_11_1420,body_behavioural,3.0.3,59.989808931262935,
1,"“Unlucky family,” she responded. ",2,2,,0,1,1,1,,,,,0,9,9,9,,,,,,,,,,,,,,,,,,,,,,,,,,,1,3.086548295,,,,,,,,,,,,,,,,,,,021119_p1,001,2019_Feb_11_1420,body_behavioural,3.0.3,59.989808931262935,
1,They continued to chat as they picked out their groceries.,2,2,,0,1,1,1,,,,,0,10,10,10,,,,,,,,,,,,,,,,,,,,,,,,,,,9,4.317642844999966,,,,,,,,,,,,,,,,,,,021119_p1,001,2019_Feb_11_1420,body_behavioural,3.0.3,59.989808931262935,
1,"Simon helped Carina pick out the best ribs and his personal favorite barbeque sauce, and she helped him gather the  peppers, onions, and spices for a vegetable kabob she recommended.",2,2,,0,1,1,1,,,,,0,11,11,11,,,,,,,,,,,,,,,,,,,,,,,,,,,1,7.969863205000024,,,,,,,,,,,,,,,,,,,021119_p1,001,2019_Feb_11_1420,body_behavioural,3.0.3,59.989808931262935,
1,"When they were both finished shopping, they went to the checkout area.",3,2,,0,1,1,1,,,,,0,12,12,12,,,,,,,,,,,,,,,,,,,,,,,,,,,1,3.9695432099999834,,,,,,,,,,,,,,,,,,,021119_p1,001,2019_Feb_11_1420,body_behavioural,3.0.3,59.989808931262935,
1,"Simon was disappointed to see that the lines were short, since he had been hoping for an excuse to spend more time with Carina.",3,2,,0,1,1,1,,,,,0,13,13,13,,,,,,,,,,,,,,,,,,,,,,,,,,,1,10.936994924999965,,,,,,,,,,,,,,,,,,,021119_p1,001,2019_Feb_11_1420,body_behavioural,3.0.3,59.989808931262935,
1,"They had real chemistry, and both of them could definitely see a future together despite having just met.",3,2,,0,1,1,1,,,,,0,14,14,14,,,,,,,,,,,,,,,,,,,,,,,,,,,1,3.536386092999976,,,,,,,,,,,,,,,,,,,021119_p1,001,2019_Feb_11_1420,body_behavioural,3.0.3,59.989808931262935,
1,"“So you haven’t been around the city much?”, Simon asked. ",3,2,,0,1,1,1,,,,,0,15,15,15,,,,,,,,,,,,,,,,,,,,,,,,,,,1,3.5198184080000487,,,,,,,,,,,,,,,,,,,021119_p1,001,2019_Feb_11_1420,body_behavioural,3.0.3,59.989808931262935,
1,"“No, not really.",3,2,,0,1,1,1,,,,,0,16,16,16,,,,,,,,,,,,,,,,,,,,,,,,,,,1,0.7673163230000455,,,,,,,,,,,,,,,,,,,021119_p1,001,2019_Feb_11_1420,body_behavioural,3.0.3,59.989808931262935,
1,I’ve mainly been working and setting up my apartment.”,3,2,,0,1,1,1,,,,,0,17,17,17,,,,,,,,,,,,,,,,,,,,,,,,,,,1,3.7197948629999473,,,,,,,,,,,,,,,,,,,021119_p1,001,2019_Feb_11_1420,body_behavioural,3.0.3,59.989808931262935,
1,"Simon asked her, “Ok well, if you’d like I could pick you up next weekend, and we could go around Harvard Square and get dinner.",3,3,,0,1,1,1,,,,,0,18,18,18,,,,,,,,,,,,,,,,,,,,,,,,,,,1,6.303435749999949,,,,,,,,,,,,,,,,,,,021119_p1,001,2019_Feb_11_1420,body_behavioural,3.0.3,59.989808931262935,
1,"There are a lot of great places around there, and it’s really nice during the summer.",3,3,,0,1,1,1,,,,,0,19,19,19,,,,,,,,,,,,,,,,,,,,,,,,,,,1,3.236295688000041,,,,,,,,,,,,,,,,,,,021119_p1,001,2019_Feb_11_1420,body_behavioural,3.0.3,59.989808931262935,
1,The Harvard campus is also beautiful.” ,3,3,,0,1,1,1,,,,,0,20,20,20,,,,,,,,,,,,,,,,,,,,,,,,,,,1,2.7026847349999343,,,,,,,,,,,,,,,,,,,021119_p1,001,2019_Feb_11_1420,body_behavioural,3.0.3,59.989808931262935,
1,"Carina smiled, “I’d love to: that sounds great!”",3,3,,0,1,1,1,,,,,0,21,21,21,,,,,,,,,,,,,,,,,,,,,,,,,,,1,1.7864308629999641,,,,,,,,,,,,,,,,,,,021119_p1,001,2019_Feb_11_1420,body_behavioural,3.0.3,59.989808931262935,
1,"She quickly entered her number in his phone, since they only had to wait a couple minutes in line.",3,3,,0,1,1,1,,,,,0,22,22,22,,,,,,,,,,,,,,,,,,,,,,,,,,,1,8.686855027000092,,,,,,,,,,,,,,,,,,,021119_p1,001,2019_Feb_11_1420,body_behavioural,3.0.3,59.989808931262935,
1,Then it was her turn to check out with the cashier. ,4,3,,0,1,1,1,,,,,0,23,23,23,,,,,,,,,,,,,,,,,,,,,,,,,,,9,5.403314417999923,,,,,,,,,,,,,,,,,,,021119_p1,001,2019_Feb_11_1420,body_behavioural,3.0.3,59.989808931262935,
1,"Simon, wanting to make a gesture of his affection, lifted up the divider on the conveyor belt and said to the cashier, “Actually these are together.",4,3,,0,1,1,1,,,,,0,24,24,24,,,,,,,,,,,,,,,,,,,,,,,,,,,1,7.501146400000039,,,,,,,,,,,,,,,,,,,021119_p1,001,2019_Feb_11_1420,body_behavioural,3.0.3,59.989808931262935,
1,"Carina, I’ve got it.",4,3,,0,1,1,1,,,,,0,25,25,25,,,,,,,,,,,,,,,,,,,,,,,,,,,1,1.769803343000035,,,,,,,,,,,,,,,,,,,021119_p1,001,2019_Feb_11_1420,body_behavioural,3.0.3,59.989808931262935,
1,This was kind-of a date today.”,4,3,,0,1,1,1,,,,,0,26,26,26,,,,,,,,,,,,,,,,,,,,,,,,,,,1,3.6175369349999755,,,,,,,,,,,,,,,,,,,021119_p1,001,2019_Feb_11_1420,body_behavioural,3.0.3,59.989808931262935,
1,Carina blushed and laughed; she thought this was ridiculous but also very sweet. ,4,3,,0,1,1,1,,,,,0,27,27,27,,,,,,,,,,,,,,,,,,,,,,,,,,,1,2.6695127080000702,,,,,,,,,,,,,,,,,,,021119_p1,001,2019_Feb_11_1420,body_behavioural,3.0.3,59.989808931262935,
1,"The cashier rolled her eyes when they weren’t looking, and she scanned the rest of his items. ",4,3,,0,1,1,1,,,,,0,28,28,28,,,,,,,,,,,,,,,,,,,,,,,,,,,1,5.486769322999976,,,,,,,,,,,,,,,,,,,021119_p1,001,2019_Feb_11_1420,body_behavioural,3.0.3,59.989808931262935,
1,"The total came to $120, and he paid with his credit card.",4,3,,0,1,1,1,,,,,0,29,29,29,,,,,,,,,,,,,,,,,,,,,,,,,,,9,2.5864830799999936,,,,,,,,,,,,,,,,,,,021119_p1,001,2019_Feb_11_1420,body_behavioural,3.0.3,59.989808931262935,
1,"Carina thanked him, and they took the groceries and walked out.",4,3,,0,1,1,1,,,,,0,30,30,30,,,,,,,,,,,,,,,,,,,,,,,,,,,1,3.1030604600000515,,,,,,,,,,,,,,,,,,,021119_p1,001,2019_Feb_11_1420,body_behavioural,3.0.3,59.989808931262935,
1,"As they were walking towards the exit, Carina reluctantly said goodbye since she was running late for the barbeque she was hosting that afternoon.",4,4,,0,1,1,1,,,,,0,31,31,31,,,,,,,,,,,,,,,,,,,,,,,,,,,1,7.15337119000003,,,,,,,,,,,,,,,,,,,021119_p1,001,2019_Feb_11_1420,body_behavioural,3.0.3,59.989808931262935,
1,"They hugged and parted ways, stealing glances at each other as they both walked back to their cars.",4,4,,0,1,1,1,,,,,0,32,32,32,,,,,,,,,,,,,,,,,,,,,,,,,,,1,2.619886483000073,,,,,,,,,,,,,,,,,,,021119_p1,001,2019_Feb_11_1420,body_behavioural,3.0.3,59.989808931262935,
1,,,,,0,1,1,1,,,,,,,,,,,,,,,,,,,,,,,,,,,,,,,,,,,,,,,,,,,,,,,,,,,,,,,021119_p1,001,2019_Feb_11_1420,body_behavioural,3.0.3,59.989808931262935,
2,,,,,0,2,2,2,0,0,0,0,,,,,,,,,,,,,,,,,,,,,,,,,space,1.236309848000019,space,1.219721095000068,space,2.1364213550000386,,,,,,,,,,,,,,,,,,,,,021119_p1,001,2019_Feb_11_1420,body_behavioural,3.0.3,59.989808931262935,
2,Mr. Shelton and Mr. Gordon shook hands inside the foyer of the restaurant: lunch today was about big business. ,1,1,,0,2,2,2,,,,,0,0,0,0,,,,,,,,,,,,,,,,,,,,,,,,,,,9,8.403812783000035,,,,,,,,,,,,,,,,,,,021119_p1,001,2019_Feb_11_1420,body_behavioural,3.0.3,59.989808931262935,
2,Mr. Shelton and Mr. Gordon both were CEOs of airplane manufacturing companies.,1,1,,0,2,2,2,,,,,0,1,1,1,,,,,,,,,,,,,,,,,,,,,,,,,,,1,3.403193146999911,,,,,,,,,,,,,,,,,,,021119_p1,001,2019_Feb_11_1420,body_behavioural,3.0.3,59.989808931262935,
2,"Mr. Shelton was in charge of a larger, well-established company and had been in the aviation business for decades, whereas Mr. Gordon led a smaller but technologically-advanced company that was projected to disrupt the airplane manufacturing market. ",1,1,,0,2,2,2,,,,,0,2,2,2,,,,,,,,,,,,,,,,,,,,,,,,,,,1,13.087107570000057,,,,,,,,,,,,,,,,,,,021119_p1,001,2019_Feb_11_1420,body_behavioural,3.0.3,59.989808931262935,
2,"The restaurant they chose to meet at was old and fancy with high ceilings, dark wood paneling, and crystal chandeliers.",1,1,,0,2,2,2,,,,,0,3,3,3,,,,,,,,,,,,,,,,,,,,,,,,,,,9,5.586481189999972,,,,,,,,,,,,,,,,,,,021119_p1,001,2019_Feb_11_1420,body_behavioural,3.0.3,59.989808931262935,
2,"The waitress led them to their table in the back, and they settled into a private table in the corner by the fireplace. ",2,1,,0,2,2,2,,,,,0,4,4,4,,,,,,,,,,,,,,,,,,,,,,,,,,,1,6.270042815000011,,,,,,,,,,,,,,,,,,,021119_p1,001,2019_Feb_11_1420,body_behavioural,3.0.3,59.989808931262935,
2,The waitress brought out the menus and they broke the ice with some small talk.,2,1,,0,2,2,2,,,,,0,5,5,5,,,,,,,,,,,,,,,,,,,,,,,,,,,1,3.584250460000021,,,,,,,,,,,,,,,,,,,021119_p1,001,2019_Feb_11_1420,body_behavioural,3.0.3,59.989808931262935,
2,"Mr. Gordon took out a picture of his daughter and talked about her recent engagement, and Mr. Gordon boasted about his purchase of a Tesla. ",2,1,,0,2,2,2,,,,,0,6,6,6,,,,,,,,,,,,,,,,,,,,,,,,,,,1,5.536954334999905,,,,,,,,,,,,,,,,,,,021119_p1,001,2019_Feb_11_1420,body_behavioural,3.0.3,59.989808931262935,
2,"They looked at the menus as well, which were full of Italian classics like Carbonara and Tiramisu, and in the back section of the menu was a lengthy drink selection.",2,1,,0,2,2,2,,,,,0,7,7,7,,,,,,,,,,,,,,,,,,,,,,,,,,,9,7.687126757999977,,,,,,,,,,,,,,,,,,,021119_p1,001,2019_Feb_11_1420,body_behavioural,3.0.3,59.989808931262935,
2,"After awhile, Mr. Shelton brought the conversation around to business.",2,2,,0,2,2,2,,,,,0,8,8,8,,,,,,,,,,,,,,,,,,,,,,,,,,,9,4.917633668000008,,,,,,,,,,,,,,,,,,,021119_p1,001,2019_Feb_11_1420,body_behavioural,3.0.3,59.989808931262935,
2,"“Mr. Gordon, we really admire what you’re doing at your company.",2,2,,0,2,2,2,,,,,0,9,9,9,,,,,,,,,,,,,,,,,,,,,,,,,,,1,1.7028161580000187,,,,,,,,,,,,,,,,,,,021119_p1,001,2019_Feb_11_1420,body_behavioural,3.0.3,59.989808931262935,
2,We think it’s genius; we want to support your vision and make this tiny company of yours internationally known.,2,2,,0,2,2,2,,,,,0,10,10,10,,,,,,,,,,,,,,,,,,,,,,,,,,,1,5.903380109999944,,,,,,,,,,,,,,,,,,,021119_p1,001,2019_Feb_11_1420,body_behavioural,3.0.3,59.989808931262935,
2,"But honestly, your company doesn’t have the resources to reach international markets right now, maybe in a few years you could, but by that time, other companies may have already filled your niche.",2,2,,0,2,2,2,,,,,0,11,11,11,,,,,,,,,,,,,,,,,,,,,,,,,,,1,9.10369888699995,,,,,,,,,,,,,,,,,,,021119_p1,001,2019_Feb_11_1420,body_behavioural,3.0.3,59.989808931262935,
2,I think we should join forces.”,2,2,,0,2,2,2,,,,,0,12,12,12,,,,,,,,,,,,,,,,,,,,,,,,,,,1,3.552776535000021,,,,,,,,,,,,,,,,,,,021119_p1,001,2019_Feb_11_1420,body_behavioural,3.0.3,59.989808931262935,
2,The waitress came up to them and asked if they were ready to order.,3,2,,0,2,2,2,,,,,0,13,13,13,,,,,,,,,,,,,,,,,,,,,,,,,,,9,4.519983128000035,,,,,,,,,,,,,,,,,,,021119_p1,001,2019_Feb_11_1420,body_behavioural,3.0.3,59.989808931262935,
2,"Mr. Gordon ordered a medium-rare steak and martini, and Mr. Shelton ordered veal and a manhattan. ",3,2,,0,2,2,2,,,,,0,14,14,14,,,,,,,,,,,,,,,,,,,,,,,,,,,1,3.6027777949999518,,,,,,,,,,,,,,,,,,,021119_p1,001,2019_Feb_11_1420,body_behavioural,3.0.3,59.989808931262935,
2,"Then Mr. Shelton continued, “Look, I’ve talked to other members of the board, and we are prepared to offer $600 million to buy your company. ",3,2,,0,2,2,2,,,,,0,15,15,15,,,,,,,,,,,,,,,,,,,,,,,,,,,1,5.636460757000009,,,,,,,,,,,,,,,,,,,021119_p1,001,2019_Feb_11_1420,body_behavioural,3.0.3,59.989808931262935,
2,"We'd keep on all of your current employees, and you would join as the director of your company branch.” ",3,2,,0,2,2,2,,,,,0,16,16,16,,,,,,,,,,,,,,,,,,,,,,,,,,,1,4.3532116300000325,,,,,,,,,,,,,,,,,,,021119_p1,001,2019_Feb_11_1420,body_behavioural,3.0.3,59.989808931262935,
2,Mr. Gordon sat looking at Mr. Shelton for a few moments considering his response. ,3,2,,0,2,2,2,,,,,0,17,17,17,,,,,,,,,,,,,,,,,,,,,,,,,,,1,2.8026579050000464,,,,,,,,,,,,,,,,,,,021119_p1,001,2019_Feb_11_1420,body_behavioural,3.0.3,59.989808931262935,
2,He looked at Mr. Shelton skeptically.,3,2,,0,2,2,2,,,,,0,18,18,18,,,,,,,,,,,,,,,,,,,,,,,,,,,1,2.4698554430000286,,,,,,,,,,,,,,,,,,,021119_p1,001,2019_Feb_11_1420,body_behavioural,3.0.3,59.989808931262935,
2,"He said, “Mr. Shelton, I think that you make a compelling offer, but there are definitely some disadvantages to attaching our small, streamlined productions to a large company like yours.",3,3,,0,2,2,2,,,,,0,19,19,19,,,,,,,,,,,,,,,,,,,,,,,,,,,1,8.136548618000006,,,,,,,,,,,,,,,,,,,021119_p1,001,2019_Feb_11_1420,body_behavioural,3.0.3,59.989808931262935,
2,"We operate in a very different way than a large company, and the kind of administrative complexity that makes the scale of your productions possible would suffocate our business.",3,3,,0,2,2,2,,,,,0,20,20,20,,,,,,,,,,,,,,,,,,,,,,,,,,,1,4.369588909999948,,,,,,,,,,,,,,,,,,,021119_p1,001,2019_Feb_11_1420,body_behavioural,3.0.3,59.989808931262935,
2,"With our product, scaling-up doesn’t necessarily make sense.” ",3,3,,0,2,2,2,,,,,0,21,21,21,,,,,,,,,,,,,,,,,,,,,,,,,,,1,5.069605258000024,,,,,,,,,,,,,,,,,,,021119_p1,001,2019_Feb_11_1420,body_behavioural,3.0.3,59.989808931262935,
2,Mr. Shelton had expected this response and had come prepared.,3,3,,0,2,2,2,,,,,0,22,22,22,,,,,,,,,,,,,,,,,,,,,,,,,,,1,4.736494207999954,,,,,,,,,,,,,,,,,,,021119_p1,001,2019_Feb_11_1420,body_behavioural,3.0.3,59.989808931262935,
2,He began laying out the details of how he had handled similar acquisitions successfully in the past.,3,3,,0,2,2,2,,,,,0,23,23,23,,,,,,,,,,,,,,,,,,,,,,,,,,,1,4.703146199999992,,,,,,,,,,,,,,,,,,,021119_p1,001,2019_Feb_11_1420,body_behavioural,3.0.3,59.989808931262935,
2,"Mr. Gordon was impressed, and they went back and forth hashing out what the company configuration would look like post-merger. ",3,3,,0,2,2,2,,,,,0,24,24,24,,,,,,,,,,,,,,,,,,,,,,,,,,,1,5.119923572999937,,,,,,,,,,,,,,,,,,,021119_p1,001,2019_Feb_11_1420,body_behavioural,3.0.3,59.989808931262935,
2,"The waitress brought the food out, interrupting their animated conversation.",4,3,,0,2,2,2,,,,,0,25,25,25,,,,,,,,,,,,,,,,,,,,,,,,,,,9,2.8865193380000846,,,,,,,,,,,,,,,,,,,021119_p1,001,2019_Feb_11_1420,body_behavioural,3.0.3,59.989808931262935,
2,“Oh this looks so good!” Mr. Gordon said. ,4,3,,0,2,2,2,,,,,0,26,26,26,,,,,,,,,,,,,,,,,,,,,,,,,,,1,1.3534620799999857,,,,,,,,,,,,,,,,,,,021119_p1,001,2019_Feb_11_1420,body_behavioural,3.0.3,59.989808931262935,
2, “Can I get you anything else?” the waitress asked.,4,3,,0,2,2,2,,,,,0,27,27,27,,,,,,,,,,,,,,,,,,,,,,,,,,,1,1.3527621800000134,,,,,,,,,,,,,,,,,,,021119_p1,001,2019_Feb_11_1420,body_behavioural,3.0.3,59.989808931262935,
2,They declined and continued to talk.,4,3,,0,2,2,2,,,,,0,28,28,28,,,,,,,,,,,,,,,,,,,,,,,,,,,1,2.550931099999957,,,,,,,,,,,,,,,,,,,021119_p1,001,2019_Feb_11_1420,body_behavioural,3.0.3,59.989808931262935,
2,"The meal lived up to the reputation of the restaurant, which was known for having the best cuts of meat in the area.",4,3,,0,2,2,2,,,,,0,29,29,29,,,,,,,,,,,,,,,,,,,,,,,,,,,1,9.686891649999893,,,,,,,,,,,,,,,,,,,021119_p1,001,2019_Feb_11_1420,body_behavioural,3.0.3,59.989808931262935,
2,"Mr. Gordon, after taking a contemplative bite of his food, said, “Mr. Shelton, I think we have a deal. ",4,4,,0,2,2,2,,,,,0,30,30,30,,,,,,,,,,,,,,,,,,,,,,,,,,,9,6.420342460000029,,,,,,,,,,,,,,,,,,,021119_p1,001,2019_Feb_11_1420,body_behavioural,3.0.3,59.989808931262935,
2,"If you can guarantee that I can still have the final say in the all the work done by my team, I think this could be beneficial for both of us.",4,4,,0,2,2,2,,,,,0,31,31,31,,,,,,,,,,,,,,,,,,,,,,,,,,,1,6.153354169999943,,,,,,,,,,,,,,,,,,,021119_p1,001,2019_Feb_11_1420,body_behavioural,3.0.3,59.989808931262935,
2,I propose a toast to the merging of our companies.”,4,4,,0,2,2,2,,,,,0,32,32,32,,,,,,,,,,,,,,,,,,,,,,,,,,,1,1.9675013149999359,,,,,,,,,,,,,,,,,,,021119_p1,001,2019_Feb_11_1420,body_behavioural,3.0.3,59.989808931262935,
2,Mr. Shelton grinned and lifted his martini to clink glasses.,4,4,,0,2,2,2,,,,,0,33,33,33,,,,,,,,,,,,,,,,,,,,,,,,,,,1,3.5861983419999888,,,,,,,,,,,,,,,,,,,021119_p1,001,2019_Feb_11_1420,body_behavioural,3.0.3,59.989808931262935,
2,"He said, “Cheers to a lifelong partnership and to the growth of your company.” ",4,4,,0,2,2,2,,,,,0,34,34,34,,,,,,,,,,,,,,,,,,,,,,,,,,,1,1.836440717999949,,,,,,,,,,,,,,,,,,,021119_p1,001,2019_Feb_11_1420,body_behavioural,3.0.3,59.989808931262935,
2,,,,,0,2,2,2,,,,,,,,,,,,,,,,,,,,,,,,,,,,,,,,,,,,,,,,,,,,,,,,,,,,,,,021119_p1,001,2019_Feb_11_1420,body_behavioural,3.0.3,59.989808931262935,
3,,,,,0,3,3,3,0,0,0,0,,,,,,,,,,,,,,,,,,,,,,,,,space,1.5341227149999668,space,0.7862314799999695,space,0.8696657780000123,,,,,,,,,,,,,,,,,,,,,021119_p1,001,2019_Feb_11_1420,body_behavioural,3.0.3,59.989808931262935,
3,"Ms. Bianchi and Ms. Morrison walked into the grocery store at the same time, and, after a moment of mutual recognition, greeted each other and shook hands.",1,1,,0,3,3,3,,,,,0,0,0,0,,,,,,,,,,,,,,,,,,,,,,,,,,,9,9.786987777000036,,,,,,,,,,,,,,,,,,,021119_p1,001,2019_Feb_11_1420,body_behavioural,3.0.3,59.989808931262935,
3,"“Thank you again for inviting me here to discuss my business proposal,” said Ms. Bianchi, “And it’s a pleasure to be out of the office.” ",1,1,,0,3,3,3,,,,,0,1,1,1,,,,,,,,,,,,,,,,,,,,,,,,,,,1,6.253451390000009,,,,,,,,,,,,,,,,,,,021119_p1,001,2019_Feb_11_1420,body_behavioural,3.0.3,59.989808931262935,
3,"As a salesperson for an Italian cheese company that was trying to expand its outreach to more mainstream grocery stores, this meeting could be a big break for her.",1,1,,0,3,3,3,,,,,0,2,2,2,,,,,,,,,,,,,,,,,,,,,,,,,,,1,7.720305424999992,,,,,,,,,,,,,,,,,,,021119_p1,001,2019_Feb_11_1420,body_behavioural,3.0.3,59.989808931262935,
3,"Her sales target, Ms. Morrison,  who had a reputation for being a bit quirky, was a corporate buyer for a large chain grocery store. ",1,1,,0,3,3,3,,,,,0,3,3,3,,,,,,,,,,,,,,,,,,,,,,,,,,,1,4.97008072999995,,,,,,,,,,,,,,,,,,,021119_p1,001,2019_Feb_11_1420,body_behavioural,3.0.3,59.989808931262935,
3,"She was known for doing things unconventionally: for example, she said that she liked to make deals with suppliers in the place where the products were sold- “to keep their minds focused on what’s important.” ",1,1,,0,3,3,3,,,,,0,4,4,4,,,,,,,,,,,,,,,,,,,,,,,,,,,1,12.384723099999974,,,,,,,,,,,,,,,,,,,021119_p1,001,2019_Feb_11_1420,body_behavioural,3.0.3,59.989808931262935,
3,"They chatted a little in the front of the grocery store, which was surrounded by pumpkins and halloween decorations set up in special displays for the holiday season.",1,1,,0,3,3,3,,,,,0,5,5,5,,,,,,,,,,,,,,,,,,,,,,,,,,,9,5.0842576250000775,,,,,,,,,,,,,,,,,,,021119_p1,001,2019_Feb_11_1420,body_behavioural,3.0.3,59.989808931262935,
3,"Ms. Bianchi and Ms. Morrison walked to the cheese section, and Ms. Morrison picked up a block of parmesan.",2,1,,0,3,3,3,,,,,0,6,6,6,,,,,,,,,,,,,,,,,,,,,,,,,,,9,6.603447863000042,,,,,,,,,,,,,,,,,,,021119_p1,001,2019_Feb_11_1420,body_behavioural,3.0.3,59.989808931262935,
3,“We have quite a selection here.,2,1,,0,3,3,3,,,,,0,7,7,7,,,,,,,,,,,,,,,,,,,,,,,,,,,1,2.0530273529999477,,,,,,,,,,,,,,,,,,,021119_p1,001,2019_Feb_11_1420,body_behavioural,3.0.3,59.989808931262935,
3,I don’t know that it needs an additional section for more gourmet cheeses.” ,2,1,,0,3,3,3,,,,,0,8,8,8,,,,,,,,,,,,,,,,,,,,,,,,,,,1,6.069914277999942,,,,,,,,,,,,,,,,,,,021119_p1,001,2019_Feb_11_1420,body_behavioural,3.0.3,59.989808931262935,
3,"Ms. Bianchi's confidence faltered for a minute at this remark, but then she launched into her prepared pitch.",2,1,,0,3,3,3,,,,,0,9,9,9,,,,,,,,,,,,,,,,,,,,,,,,,,,1,6.070064756999955,,,,,,,,,,,,,,,,,,,021119_p1,001,2019_Feb_11_1420,body_behavioural,3.0.3,59.989808931262935,
3," “Ms. Morrison, I think you would agree that selling food is more than just providing variety, but also about providing the highest quality.",2,2,,0,3,3,3,,,,,0,10,10,10,,,,,,,,,,,,,,,,,,,,,,,,,,,1,6.301071405000016,,,,,,,,,,,,,,,,,,,021119_p1,001,2019_Feb_11_1420,body_behavioural,3.0.3,59.989808931262935,
3,"You don’t have cheeses made in America that are like ours, it is true.",2,2,,0,3,3,3,,,,,0,11,11,11,,,,,,,,,,,,,,,,,,,,,,,,,,,1,5.219944170000076,,,,,,,,,,,,,,,,,,,021119_p1,001,2019_Feb_11_1420,body_behavioural,3.0.3,59.989808931262935,
3,Your store could be providing American consumers with a dimension in taste that they've never known before with our product.,2,2,,0,3,3,3,,,,,0,12,12,12,,,,,,,,,,,,,,,,,,,,,,,,,,,1,5.634353079999983,,,,,,,,,,,,,,,,,,,021119_p1,001,2019_Feb_11_1420,body_behavioural,3.0.3,59.989808931262935,
3,"I propose that you give it a shot, buy $1000 worth of cheese products for a few stores, and see how the sales increase not only in our cheeses but also in products related to cheeses: crackers, jams, olives. ",2,2,,0,3,3,3,,,,,0,13,13,13,,,,,,,,,,,,,,,,,,,,,,,,,,,1,12.570435103000023,,,,,,,,,,,,,,,,,,,021119_p1,001,2019_Feb_11_1420,body_behavioural,3.0.3,59.989808931262935,
3,"The availability of a finer product leads to the appreciation of the product, and your consumers will start to consume in a new, more profitable way.”",2,2,,0,3,3,3,,,,,0,14,14,14,,,,,,,,,,,,,,,,,,,,,,,,,,,1,4.969858733000024,,,,,,,,,,,,,,,,,,,021119_p1,001,2019_Feb_11_1420,body_behavioural,3.0.3,59.989808931262935,
3,"Ms. Bianchi picked up a box of crackers by the cheese section, and said, “Here, I will buy these, and we can try some of our cheeses that I've brought with me.”",3,2,,0,3,3,3,,,,,0,15,15,15,,,,,,,,,,,,,,,,,,,,,,,,,,,1,8.686920344999976,,,,,,,,,,,,,,,,,,,021119_p1,001,2019_Feb_11_1420,body_behavioural,3.0.3,59.989808931262935,
3,"Ms. Morrison, who was thinking, nodded in agreement and said, “That sounds like a great idea.",3,2,,0,3,3,3,,,,,0,16,16,16,,,,,,,,,,,,,,,,,,,,,,,,,,,1,3.1864145900000267,,,,,,,,,,,,,,,,,,,021119_p1,001,2019_Feb_11_1420,body_behavioural,3.0.3,59.989808931262935,
3,"Let’s head to check out, and those crackers are on me.” ",3,2,,0,3,3,3,,,,,0,17,17,17,,,,,,,,,,,,,,,,,,,,,,,,,,,1,6.603257748000033,,,,,,,,,,,,,,,,,,,021119_p1,001,2019_Feb_11_1420,body_behavioural,3.0.3,59.989808931262935,
3,They walked over to the checkout area.,3,2,,0,3,3,3,,,,,0,18,18,18,,,,,,,,,,,,,,,,,,,,,,,,,,,1,2.4858866399999897,,,,,,,,,,,,,,,,,,,021119_p1,001,2019_Feb_11_1420,body_behavioural,3.0.3,59.989808931262935,
3,"There was a very long line, and it was very busy in the checkout area as people were stocking up for Halloween parties and trick-or-treating. ",3,2,,0,3,3,3,,,,,0,19,19,19,,,,,,,,,,,,,,,,,,,,,,,,,,,9,5.419686120000051,,,,,,,,,,,,,,,,,,,021119_p1,001,2019_Feb_11_1420,body_behavioural,3.0.3,59.989808931262935,
3,"Since they had almost a 10 minute wait in line, Ms. Bianchi handed a sheet with printed graphs to Ms. Morrison the increase in profits that several other stores had seen after starting to carry their products.",3,2,,0,3,3,3,,,,,0,20,20,20,,,,,,,,,,,,,,,,,,,,,,,,,,,1,9.169978720000017,,,,,,,,,,,,,,,,,,,021119_p1,001,2019_Feb_11_1420,body_behavioural,3.0.3,59.989808931262935,
3,"Eventually, Ms. Morrison replied, “You know what, I think you've convinced me that this could work. ",3,3,,0,3,3,3,,,,,0,21,21,21,,,,,,,,,,,,,,,,,,,,,,,,,,,1,5.5534792979999565,,,,,,,,,,,,,,,,,,,021119_p1,001,2019_Feb_11_1420,body_behavioural,3.0.3,59.989808931262935,
3,We've been trying to find a way to add a little European cachet to our stores.,3,3,,0,3,3,3,,,,,0,22,22,22,,,,,,,,,,,,,,,,,,,,,,,,,,,1,5.003237033000005,,,,,,,,,,,,,,,,,,,021119_p1,001,2019_Feb_11_1420,body_behavioural,3.0.3,59.989808931262935,
3,There's still a problem though - I'm worried we'll be paying out the nose for the import taxes.,3,3,,0,3,3,3,,,,,0,23,23,23,,,,,,,,,,,,,,,,,,,,,,,,,,,1,5.770062517000042,,,,,,,,,,,,,,,,,,,021119_p1,001,2019_Feb_11_1420,body_behavioural,3.0.3,59.989808931262935,
3,Is that the case?",3,3,,0,3,3,3,,,,,0,24,24,24,,,,,,,,,,,,,,,,,,,,,,,,,,,1,0.9865577749999375,,,,,,,,,,,,,,,,,,,021119_p1,001,2019_Feb_11_1420,body_behavioural,3.0.3,59.989808931262935,
3,"It was Ms. Morrison’s turn to checkout, and the two businesswomen continued to talk back and forth as she did so. ",4,3,,0,3,3,3,,,,,0,25,25,25,,,,,,,,,,,,,,,,,,,,,,,,,,,9,4.9867918400000235,,,,,,,,,,,,,,,,,,,021119_p1,001,2019_Feb_11_1420,body_behavioural,3.0.3,59.989808931262935,
3,"The cashier scanned the crackers, and Ms. Bianchi watched in amusement as Ms. Morrison paid the $6 price entirely in quarters from a wallet bulging with change.",4,3,,0,3,3,3,,,,,0,26,26,26,,,,,,,,,,,,,,,,,,,,,,,,,,,1,8.170153578000054,,,,,,,,,,,,,,,,,,,021119_p1,001,2019_Feb_11_1420,body_behavioural,3.0.3,59.989808931262935,
3,"They shortly came to an agreement and would have enough cheese shipments, $5000 worth, to different stores to qualify for a subsidized import tax. ",4,4,,0,3,3,3,,,,,0,27,27,27,,,,,,,,,,,,,,,,,,,,,,,,,,,9,6.2867632150000645,,,,,,,,,,,,,,,,,,,021119_p1,001,2019_Feb_11_1420,body_behavioural,3.0.3,59.989808931262935,
3,"Ms. Bianchi retrieved some of her samples from her car, and they toasted their new deal with crackers topped with fresh mozzarella. ",4,4,,0,3,3,3,,,,,0,28,28,28,,,,,,,,,,,,,,,,,,,,,,,,,,,1,4.9032721120000815,,,,,,,,,,,,,,,,,,,021119_p1,001,2019_Feb_11_1420,body_behavioural,3.0.3,59.989808931262935,
3,,,,,0,3,3,3,,,,,,,,,,,,,,,,,,,,,,,,,,,,,,,,,,,,,,,,,,,,,,,,,,,,,,,021119_p1,001,2019_Feb_11_1420,body_behavioural,3.0.3,59.989808931262935,
4,,,,,0,4,4,4,0,0,0,0,,,,,,,,,,,,,,,,,,,,,,,,,space,1.0193652769999062,space,0.5340760380000802,space,1.2695332849999659,,,,,,,,,,,,,,,,,,,,,021119_p1,001,2019_Feb_11_1420,body_behavioural,3.0.3,59.989808931262935,
4,,,,,0,4,4,4,1,0,1,0,,,,,,,,,,,,,,,,,,,,,,,,,,,,,space,0.5859819150000476,,,,,,,,,,,,,,,,,,,,,021119_p1,001,2019_Feb_11_1420,body_behavioural,3.0.3,59.989808931262935,
4,"James noticed Teresa immediately as she walked into the restaurant - or, more accurately as she attempted to walk into the restaurant. ",1,1,,0,4,4,4,,,,,0,0,0,0,,,,,,,,,,,,,,,,,,,,,,,,,,,9,10.287110927999947,,,,,,,,,,,,,,,,,,,021119_p1,001,2019_Feb_11_1420,body_behavioural,3.0.3,59.989808931262935,
4,"She was typing intently on her phone and ran straight into the diner's clear, glass door with an echoing thud. ",1,1,,0,4,4,4,,,,,0,1,1,1,,,,,,,,,,,,,,,,,,,,,,,,,,,1,9.136928975000046,,,,,,,,,,,,,,,,,,,021119_p1,001,2019_Feb_11_1420,body_behavioural,3.0.3,59.989808931262935,
4,Everyone waiting around the cash register turned to see if she was okay.,1,1,,0,4,4,4,,,,,0,2,2,2,,,,,,,,,,,,,,,,,,,,,,,,,,,1,4.319884072999912,,,,,,,,,,,,,,,,,,,021119_p1,001,2019_Feb_11_1420,body_behavioural,3.0.3,59.989808931262935,
4,Teresa rubbed her head.,1,1,,0,4,4,4,,,,,0,3,3,3,,,,,,,,,,,,,,,,,,,,,,,,,,,1,1.8193463879999854,,,,,,,,,,,,,,,,,,,021119_p1,001,2019_Feb_11_1420,body_behavioural,3.0.3,59.989808931262935,
4,"While being both confused and unembarrassed, she looked mostly indignant that the door had been in her way. ",1,1,,0,4,4,4,,,,,0,4,4,4,,,,,,,,,,,,,,,,,,,,,,,,,,,1,6.651055515000053,,,,,,,,,,,,,,,,,,,021119_p1,001,2019_Feb_11_1420,body_behavioural,3.0.3,59.989808931262935,
4,James found this quite charming and stole a couple glances at her until she noticed and wrinkled her eyebrows at him in suspicion. ,1,1,,0,4,4,4,,,,,0,5,5,5,,,,,,,,,,,,,,,,,,,,,,,,,,,1,7.636958349999986,,,,,,,,,,,,,,,,,,,021119_p1,001,2019_Feb_11_1420,body_behavioural,3.0.3,59.989808931262935,
4,"The restaurant they were in was a cabin-themed diner with wooden booths and bar, walls covered in plaid blankets, and antler decorations. ",1,1,,0,4,4,4,,,,,0,6,6,6,,,,,,,,,,,,,,,,,,,,,,,,,,,9,7.653470053000092,,,,,,,,,,,,,,,,,,,021119_p1,001,2019_Feb_11_1420,body_behavioural,3.0.3,59.989808931262935,
4,The waiter saw that James and Teresa were both alone and motioned to both of them. ,1,1,,0,4,4,4,,,,,0,7,7,7,,,,,,,,,,,,,,,,,,,,,,,,,,,1,5.603348789999927,,,,,,,,,,,,,,,,,,,021119_p1,001,2019_Feb_11_1420,body_behavioural,3.0.3,59.989808931262935,
4,“Right this way.,2,1,,0,4,4,4,,,,,0,8,8,8,,,,,,,,,,,,,,,,,,,,,,,,,,,1,1.2362742999998773,,,,,,,,,,,,,,,,,,,021119_p1,001,2019_Feb_11_1420,body_behavioural,3.0.3,59.989808931262935,
4,You two don't mind sitting at the counter?” ,2,1,,0,4,4,4,,,,,0,9,9,9,,,,,,,,,,,,,,,,,,,,,,,,,,,1,3.936604630000147,,,,,,,,,,,,,,,,,,,021119_p1,001,2019_Feb_11_1420,body_behavioural,3.0.3,59.989808931262935,
4,They sat a seat apart from each other on the split tree trunk that served as a bench.,2,1,,0,4,4,4,,,,,0,10,10,10,,,,,,,,,,,,,,,,,,,,,,,,,,,9,5.401023769999938,,,,,,,,,,,,,,,,,,,021119_p1,001,2019_Feb_11_1420,body_behavioural,3.0.3,59.989808931262935,
4, The waitress behind the counter gave them bright neon menus that were filled with breakfast items.,2,1,,0,4,4,4,,,,,0,11,11,11,,,,,,,,,,,,,,,,,,,,,,,,,,,1,3.8865628250000555,,,,,,,,,,,,,,,,,,,021119_p1,001,2019_Feb_11_1420,body_behavioural,3.0.3,59.989808931262935,
4,"Teresa quickly glanced through it, then pulled out a book and started reading it while James played with the salt and pepper shakers as he tried to think of an excuse to talk to Teresa.",2,1,,0,4,4,4,,,,,0,12,12,12,,,,,,,,,,,,,,,,,,,,,,,,,,,1,7.920428662999939,,,,,,,,,,,,,,,,,,,021119_p1,001,2019_Feb_11_1420,body_behavioural,3.0.3,59.989808931262935,
4,"James eventually turned to her and asked, “Your forehead alright?”",2,2,,0,4,4,4,,,,,0,13,13,13,,,,,,,,,,,,,,,,,,,,,,,,,,,1,3.5197756130000926,,,,,,,,,,,,,,,,,,,021119_p1,001,2019_Feb_11_1420,body_behavioural,3.0.3,59.989808931262935,
4,She put down her book and gave him a smirk.,2,2,,0,4,4,4,,,,,0,14,14,14,,,,,,,,,,,,,,,,,,,,,,,,,,,1,2.5353395669999372,,,,,,,,,,,,,,,,,,,021119_p1,001,2019_Feb_11_1420,body_behavioural,3.0.3,59.989808931262935,
4,"“Have you ever been stung by a scorpion?”, she asked him, tilting her head.",2,2,,0,4,4,4,,,,,0,15,15,15,,,,,,,,,,,,,,,,,,,,,,,,,,,1,4.90336941999999,,,,,,,,,,,,,,,,,,,021119_p1,001,2019_Feb_11_1420,body_behavioural,3.0.3,59.989808931262935,
4,"“What?”, he asked confusedly.",2,2,,0,4,4,4,,,,,0,16,16,16,,,,,,,,,,,,,,,,,,,,,,,,,,,1,2.2864542600000277,,,,,,,,,,,,,,,,,,,021119_p1,001,2019_Feb_11_1420,body_behavioural,3.0.3,59.989808931262935,
4, “A scorpion.”,2,2,,0,4,4,4,,,,,0,17,17,17,,,,,,,,,,,,,,,,,,,,,,,,,,,1,0.7029901749999681,,,,,,,,,,,,,,,,,,,021119_p1,001,2019_Feb_11_1420,body_behavioural,3.0.3,59.989808931262935,
4,James began to worry that Teresa had possibly suffered a concussion in the door crash.,2,2,,0,4,4,4,,,,,0,18,18,18,,,,,,,,,,,,,,,,,,,,,,,,,,,1,4.453477085000031,,,,,,,,,,,,,,,,,,,021119_p1,001,2019_Feb_11_1420,body_behavioural,3.0.3,59.989808931262935,
4,"“Uh no, why?” ",2,2,,0,4,4,4,,,,,0,19,19,19,,,,,,,,,,,,,,,,,,,,,,,,,,,1,0.9340545049999491,,,,,,,,,,,,,,,,,,,021119_p1,001,2019_Feb_11_1420,body_behavioural,3.0.3,59.989808931262935,
4,"“Because I’ve been stung by one, and since then, things like bumping into doors seem like pretty small potatoes.” ",2,2,,0,4,4,4,,,,,0,20,20,20,,,,,,,,,,,,,,,,,,,,,,,,,,,1,7.153191345000096,,,,,,,,,,,,,,,,,,,021119_p1,001,2019_Feb_11_1420,body_behavioural,3.0.3,59.989808931262935,
4,"They carried on talking, and Teresa told him all about her encounter with a Deathstalker scorpion while she was studying abroad in Egypt.",2,2,,0,4,4,4,,,,,0,21,21,21,,,,,,,,,,,,,,,,,,,,,,,,,,,9,5.769696515000078,,,,,,,,,,,,,,,,,,,021119_p1,001,2019_Feb_11_1420,body_behavioural,3.0.3,59.989808931262935,
4,"After a few minutes, the waitress behind the counter came up to them, “Alrighty, can I take you order?” ",3,3,,0,4,4,4,,,,,0,22,22,22,,,,,,,,,,,,,,,,,,,,,,,,,,,1,2.9864125449998937,,,,,,,,,,,,,,,,,,,021119_p1,001,2019_Feb_11_1420,body_behavioural,3.0.3,59.989808931262935,
4,"She first looked at Teresa who answered, “I’ll have a Western Omelette and a glass of milk.”",3,3,,0,4,4,4,,,,,0,23,23,23,,,,,,,,,,,,,,,,,,,,,,,,,,,1,7.486775322999847,,,,,,,,,,,,,,,,,,,021119_p1,001,2019_Feb_11_1420,body_behavioural,3.0.3,59.989808931262935,
4,Then the waitress turned to James.,3,3,,0,4,4,4,,,,,0,24,24,24,,,,,,,,,,,,,,,,,,,,,,,,,,,1,1.3007459830000698,,,,,,,,,,,,,,,,,,,021119_p1,001,2019_Feb_11_1420,body_behavioural,3.0.3,59.989808931262935,
4,"James said, “I’ll have the chocolate chip pancakes and a coffee.” ",3,3,,0,4,4,4,,,,,0,25,25,25,,,,,,,,,,,,,,,,,,,,,,,,,,,1,3.286483868000005,,,,,,,,,,,,,,,,,,,021119_p1,001,2019_Feb_11_1420,body_behavioural,3.0.3,59.989808931262935,
4,"“Alrighty, comin’ right up!”",3,3,,0,4,4,4,,,,,0,26,26,26,,,,,,,,,,,,,,,,,,,,,,,,,,,1,1.4527739800000745,,,,,,,,,,,,,,,,,,,021119_p1,001,2019_Feb_11_1420,body_behavioural,3.0.3,59.989808931262935,
4,"They picked up their conversation, and James ended up telling Teresa about a concert he was going to later. ",3,3,,0,4,4,4,,,,,0,27,27,27,,,,,,,,,,,,,,,,,,,,,,,,,,,9,5.387073429999873,,,,,,,,,,,,,,,,,,,021119_p1,001,2019_Feb_11_1420,body_behavioural,3.0.3,59.989808931262935,
4,"He invited her to come along, promising her that the concert would be indoors and absolutely free of venomous insects.",3,3,,0,4,4,4,,,,,0,28,28,28,,,,,,,,,,,,,,,,,,,,,,,,,,,1,4.536527720000095,,,,,,,,,,,,,,,,,,,021119_p1,001,2019_Feb_11_1420,body_behavioural,3.0.3,59.989808931262935,
4,"Teresa agreed, gave him her number, and they worked out that James would pick her up before the concert and drive them there.",3,3,,0,4,4,4,,,,,0,29,29,29,,,,,,,,,,,,,,,,,,,,,,,,,,,1,6.10330778499997,,,,,,,,,,,,,,,,,,,021119_p1,001,2019_Feb_11_1420,body_behavioural,3.0.3,59.989808931262935,
4,"This was not what they had expected from their solitary lunch plans and were both excited, even though Teresa was doing a much better job of hiding it than James. ",3,3,,0,4,4,4,,,,,0,30,30,30,,,,,,,,,,,,,,,,,,,,,,,,,,,1,13.937191904999963,,,,,,,,,,,,,,,,,,,021119_p1,001,2019_Feb_11_1420,body_behavioural,3.0.3,59.989808931262935,
4," After awhile,  the waitress brought out their food, and James took this opportunity to scoot closer to her on the log bench. ",4,4,,0,4,4,4,,,,,0,31,31,31,,,,,,,,,,,,,,,,,,,,,,,,,,,1,5.303675200000043,,,,,,,,,,,,,,,,,,,021119_p1,001,2019_Feb_11_1420,body_behavioural,3.0.3,59.989808931262935,
4,"Teresa was happy to share the meal with James, despite their food tasting pretty bad. ",4,4,,0,4,4,4,,,,,0,32,32,32,,,,,,,,,,,,,,,,,,,,,,,,,,,1,4.867568673000051,,,,,,,,,,,,,,,,,,,021119_p1,001,2019_Feb_11_1420,body_behavioural,3.0.3,59.989808931262935,
4,"Judging by how salty the pancakes tasted, they suspected that the chef had confused the salt and sugar.",4,4,,0,4,4,4,,,,,0,33,33,33,,,,,,,,,,,,,,,,,,,,,,,,,,,1,5.686694459999899,,,,,,,,,,,,,,,,,,,021119_p1,001,2019_Feb_11_1420,body_behavioural,3.0.3,59.989808931262935,
4,"When the meal was over, they got up, hugged, and parted ways. ",4,4,,0,4,4,4,,,,,0,34,34,34,,,,,,,,,,,,,,,,,,,,,,,,,,,1,2.486403854999935,,,,,,,,,,,,,,,,,,,021119_p1,001,2019_Feb_11_1420,body_behavioural,3.0.3,59.989808931262935,
4,"James said,“I have to run, got to get to work.",4,4,,0,4,4,4,,,,,0,35,35,35,,,,,,,,,,,,,,,,,,,,,,,,,,,9,5.3201087630000075,,,,,,,,,,,,,,,,,,,021119_p1,001,2019_Feb_11_1420,body_behavioural,3.0.3,59.989808931262935,
4,See you tonight!”,4,4,,0,4,4,4,,,,,0,36,36,36,,,,,,,,,,,,,,,,,,,,,,,,,,,1,0.9031383770000048,,,,,,,,,,,,,,,,,,,021119_p1,001,2019_Feb_11_1420,body_behavioural,3.0.3,59.989808931262935,
4,"Teresa smiled and walked towards the door without looking, and almost ran into the door again. ",4,4,,0,4,4,4,,,,,0,37,37,37,,,,,,,,,,,,,,,,,,,,,,,,,,,1,3.420037524999998,,,,,,,,,,,,,,,,,,,021119_p1,001,2019_Feb_11_1420,body_behavioural,3.0.3,59.989808931262935,
4,They both laughed and smiled once more goodbye. ,4,4,,0,4,4,4,,,,,0,38,38,38,,,,,,,,,,,,,,,,,,,,,,,,,,,1,1.8030376780000097,,,,,,,,,,,,,,,,,,,021119_p1,001,2019_Feb_11_1420,body_behavioural,3.0.3,59.989808931262935,
4,,,,,0,4,4,4,,,,,,,,,,,,,,,,,,,,,,,,,,,,,,,,,,,,,,,,,,,,,,,,,,,,,,,021119_p1,001,2019_Feb_11_1420,body_behavioural,3.0.3,59.989808931262935,
5,,,,,0,5,5,5,0,0,0,0,,,,,,,,,,,,,,,,,,,,,,,,,space,0.8692372979999163,space,0.6029266680000092,space,1.5697092630000498,,,,,,,,,,,,,,,,,,,,,021119_p1,001,2019_Feb_11_1420,body_behavioural,3.0.3,59.989808931262935,
5,,,,,0,5,5,5,1,0,1,0,,,,,,,,,,,,,,,,,,,,,,,,,,,,,space,0.6529688349999105,,,,,,,,,,,,,,,,,,,,,021119_p1,001,2019_Feb_11_1420,body_behavioural,3.0.3,59.989808931262935,
5,,,,,0,5,5,5,2,0,2,0,,,,,,,,,,,,,,,,,,,,,,,,,,,,,space,0.6696208629998637,,,,,,,,,,,,,,,,,,,,,021119_p1,001,2019_Feb_11_1420,body_behavioural,3.0.3,59.989808931262935,
5,,,,,0,5,5,5,3,0,3,0,,,,,,,,,,,,,,,,,,,,,,,,,,,,,space,0.4529639649999808,,,,,,,,,,,,,,,,,,,,,021119_p1,001,2019_Feb_11_1420,body_behavioural,3.0.3,59.989808931262935,
5,"Maria walked into lecture beside Henry, and she was mentally rehearsing what she should say to break up with him.",1,1,,0,5,5,5,,,,,0,0,0,0,,,,,,,,,,,,,,,,,,,,,,,,,,,9,7.2701914130000205,,,,,,,,,,,,,,,,,,,021119_p1,001,2019_Feb_11_1420,body_behavioural,3.0.3,59.989808931262935,
5,"She had been putting it off with a growing sense of dread, and now this lecture was the last chance before she had to leave campus. ",1,1,,0,5,5,5,,,,,0,1,1,1,,,,,,,,,,,,,,,,,,,,,,,,,,,1,6.786722462999933,,,,,,,,,,,,,,,,,,,021119_p1,001,2019_Feb_11_1420,body_behavioural,3.0.3,59.989808931262935,
5,"The lecture hall was large, with a stage for the lecturer in the front of the room, and tiered seats that stretched up in 15 stacked rows. ",1,1,,0,5,5,5,,,,,0,2,2,2,,,,,,,,,,,,,,,,,,,,,,,,,,,9,10.07018753300008,,,,,,,,,,,,,,,,,,,021119_p1,001,2019_Feb_11_1420,body_behavioural,3.0.3,59.989808931262935,
5,"The clock struck 3 pm, and Maria and Henry slid into neighboring seats near the back of the room.",1,1,,0,5,5,5,,,,,0,3,3,3,,,,,,,,,,,,,,,,,,,,,,,,,,,1,7.453086447000032,,,,,,,,,,,,,,,,,,,021119_p1,001,2019_Feb_11_1420,body_behavioural,3.0.3,59.989808931262935,
5,"“Good afternoon, everybody,” said the professor, fiddling to connect his laptop with the projector.",2,1,,0,5,5,5,,,,,0,4,4,4,,,,,,,,,,,,,,,,,,,,,,,,,,,9,3.5696337550000408,,,,,,,,,,,,,,,,,,,021119_p1,001,2019_Feb_11_1420,body_behavioural,3.0.3,59.989808931262935,
5,“Welcome to week 4 of Intro to Ancient Philosophy. ,2,1,,0,5,5,5,,,,,0,5,5,5,,,,,,,,,,,,,,,,,,,,,,,,,,,1,1.8861642900001243,,,,,,,,,,,,,,,,,,,021119_p1,001,2019_Feb_11_1420,body_behavioural,3.0.3,59.989808931262935,
5,Today we are going to continue our lecture on Aristotelian Philosophy.”,2,1,,0,5,5,5,,,,,0,6,6,6,,,,,,,,,,,,,,,,,,,,,,,,,,,1,2.9696974880000653,,,,,,,,,,,,,,,,,,,021119_p1,001,2019_Feb_11_1420,body_behavioural,3.0.3,59.989808931262935,
5,Everyone in class pulled out their notebooks and settled in their seats as the slides appeared on the large front screens.,2,1,,0,5,5,5,,,,,0,7,7,7,,,,,,,,,,,,,,,,,,,,,,,,,,,1,5.253246620000027,,,,,,,,,,,,,,,,,,,021119_p1,001,2019_Feb_11_1420,body_behavioural,3.0.3,59.989808931262935,
5,"“Henry,” Maria whispered.",2,1,,0,5,5,5,,,,,0,8,8,8,,,,,,,,,,,,,,,,,,,,,,,,,,,9,4.319885738000039,,,,,,,,,,,,,,,,,,,021119_p1,001,2019_Feb_11_1420,body_behavioural,3.0.3,59.989808931262935,
5,"“Hmm?” he replied, distracted.",2,1,,0,5,5,5,,,,,0,9,9,9,,,,,,,,,,,,,,,,,,,,,,,,,,,1,1.969775213000048,,,,,,,,,,,,,,,,,,,021119_p1,001,2019_Feb_11_1420,body_behavioural,3.0.3,59.989808931262935,
5,"“Henry, I need to tell you something really important, and I don’t know when else I’ll have a chance to do it,” she said.",2,1,,0,5,5,5,,,,,0,10,10,10,,,,,,,,,,,,,,,,,,,,,,,,,,,1,4.386490883000079,,,,,,,,,,,,,,,,,,,021119_p1,001,2019_Feb_11_1420,body_behavioural,3.0.3,59.989808931262935,
5,"“Okay, what's up?”, he said, tilting his head close to her. ",2,1,,0,5,5,5,,,,,0,11,11,11,,,,,,,,,,,,,,,,,,,,,,,,,,,1,5.119994647000112,,,,,,,,,,,,,,,,,,,021119_p1,001,2019_Feb_11_1420,body_behavioural,3.0.3,59.989808931262935,
5," “Henry, I don’t think I can do long distance.",2,2,,0,5,5,5,,,,,0,12,12,12,,,,,,,,,,,,,,,,,,,,,,,,,,,1,2.5197852220001096,,,,,,,,,,,,,,,,,,,021119_p1,001,2019_Feb_11_1420,body_behavioural,3.0.3,59.989808931262935,
5,"I think what we have here is great, but I think it will be really hard when we are so far apart for such an extended period.",2,2,,0,5,5,5,,,,,0,13,13,13,,,,,,,,,,,,,,,,,,,,,,,,,,,1,5.534394934999909,,,,,,,,,,,,,,,,,,,021119_p1,001,2019_Feb_11_1420,body_behavioural,3.0.3,59.989808931262935,
5,"I’m sorry I’m telling you now in lecture, but I'm out of time, and it’s taken me awhile to come to this decision.",2,2,,0,5,5,5,,,,,0,14,14,14,,,,,,,,,,,,,,,,,,,,,,,,,,,1,4.870718440000019,,,,,,,,,,,,,,,,,,,021119_p1,001,2019_Feb_11_1420,body_behavioural,3.0.3,59.989808931262935,
5,"I really think this is best, and who knows what will happen when I get back from my study abroad.” ",2,2,,0,5,5,5,,,,,0,15,15,15,,,,,,,,,,,,,,,,,,,,,,,,,,,1,4.38624945499987,,,,,,,,,,,,,,,,,,,021119_p1,001,2019_Feb_11_1420,body_behavioural,3.0.3,59.989808931262935,
5,"While Henry tried to think of what to say, he and Maria stared unlistening at the professor as he started the lecture, “First we will talk about Aristotle’s work, The Categories, which is about the kinds, or categories, of things that there are.",3,2,,0,5,5,5,,,,,0,16,16,16,,,,,,,,,,,,,,,,,,,,,,,,,,,9,13.404009201999997,,,,,,,,,,,,,,,,,,,021119_p1,001,2019_Feb_11_1420,body_behavioural,3.0.3,59.989808931262935,
5,"In fact, our term category comes from this Aristotelian context.” ",3,2,,0,5,5,5,,,,,0,17,17,17,,,,,,,,,,,,,,,,,,,,,,,,,,,1,3.536466193000024,,,,,,,,,,,,,,,,,,,021119_p1,001,2019_Feb_11_1420,body_behavioural,3.0.3,59.989808931262935,
5,"Henry felt horrible, like the wind had just been knocked out of him.",3,2,,0,5,5,5,,,,,0,18,18,18,,,,,,,,,,,,,,,,,,,,,,,,,,,9,3.119785370000045,,,,,,,,,,,,,,,,,,,021119_p1,001,2019_Feb_11_1420,body_behavioural,3.0.3,59.989808931262935,
5,"A few tears started to fall down his cheeks as he whispered back, “Maria, I think we can make it work.",3,3,,0,5,5,5,,,,,0,19,19,19,,,,,,,,,,,,,,,,,,,,,,,,,,,1,7.469813907999878,,,,,,,,,,,,,,,,,,,021119_p1,001,2019_Feb_11_1420,body_behavioural,3.0.3,59.989808931262935,
5,I’ll come visit you.,3,3,,0,5,5,5,,,,,0,20,20,20,,,,,,,,,,,,,,,,,,,,,,,,,,,1,0.9197297499999877,,,,,,,,,,,,,,,,,,,021119_p1,001,2019_Feb_11_1420,body_behavioural,3.0.3,59.989808931262935,
5,It will be fine.,3,3,,0,5,5,5,,,,,0,21,21,21,,,,,,,,,,,,,,,,,,,,,,,,,,,1,0.6359268830001383,,,,,,,,,,,,,,,,,,,021119_p1,001,2019_Feb_11_1420,body_behavioural,3.0.3,59.989808931262935,
5,I don’t want to break up.”,3,3,,0,5,5,5,,,,,0,22,22,22,,,,,,,,,,,,,,,,,,,,,,,,,,,1,0.6360461429999305,,,,,,,,,,,,,,,,,,,021119_p1,001,2019_Feb_11_1420,body_behavioural,3.0.3,59.989808931262935,
5,"Maria felt so guilty that she nearly gave in, but forced herself to hold her ground, knowing that this would make things much easier for both of them in the future.",3,3,,0,5,5,5,,,,,0,23,23,23,,,,,,,,,,,,,,,,,,,,,,,,,,,1,6.486404067999956,,,,,,,,,,,,,,,,,,,021119_p1,001,2019_Feb_11_1420,body_behavioural,3.0.3,59.989808931262935,
5,"She gave his hand a squeeze but shook her head sadly, before turning back to her laptop and half-heartedly taking notes on the lecture which they sat through in painful silence.",3,3,,0,5,5,5,,,,,0,24,24,24,,,,,,,,,,,,,,,,,,,,,,,,,,,1,6.253285770000048,,,,,,,,,,,,,,,,,,,021119_p1,001,2019_Feb_11_1420,body_behavioural,3.0.3,59.989808931262935,
5,"Finally, the professor was wrapping up, “This is what Aristotle means when he says that an animal’s or plant’s form rather than its matter is its nature. ",4,3,,0,5,5,5,,,,,0,25,25,25,,,,,,,,,,,,,,,,,,,,,,,,,,,9,12.07050538999988,,,,,,,,,,,,,,,,,,,021119_p1,001,2019_Feb_11_1420,body_behavioural,3.0.3,59.989808931262935,
5,"Alright class, that’s all for today. ",4,3,,0,5,5,5,,,,,0,26,26,26,,,,,,,,,,,,,,,,,,,,,,,,,,,1,1.219649089999848,,,,,,,,,,,,,,,,,,,021119_p1,001,2019_Feb_11_1420,body_behavioural,3.0.3,59.989808931262935,
5,"Remember the final exam is coming up next week on Tuesday on the Pre-Socratics, Plato, and Aristotle, so feel free to come by office hours to discuss if you have the inspiration.",4,3,,0,5,5,5,,,,,0,27,27,27,,,,,,,,,,,,,,,,,,,,,,,,,,,1,6.534542917999943,,,,,,,,,,,,,,,,,,,021119_p1,001,2019_Feb_11_1420,body_behavioural,3.0.3,59.989808931262935,
5,"And if anyone is doing the 20 page paper in lieu of the final, that’s due next Tuesday as well.",4,3,,0,5,5,5,,,,,0,28,28,28,,,,,,,,,,,,,,,,,,,,,,,,,,,1,5.0508633229999305,,,,,,,,,,,,,,,,,,,021119_p1,001,2019_Feb_11_1420,body_behavioural,3.0.3,59.989808931262935,
5,"Have a good day, folks.” ",4,3,,0,5,5,5,,,,,0,29,29,29,,,,,,,,,,,,,,,,,,,,,,,,,,,1,2.836456519999956,,,,,,,,,,,,,,,,,,,021119_p1,001,2019_Feb_11_1420,body_behavioural,3.0.3,59.989808931262935,
5,"Maria and Henry packed up hurriedly, and slipped quickly out of the class before the rest of the crowd. ",4,3,,0,5,5,5,,,,,0,30,30,30,,,,,,,,,,,,,,,,,,,,,,,,,,,9,3.669845384999917,,,,,,,,,,,,,,,,,,,021119_p1,001,2019_Feb_11_1420,body_behavioural,3.0.3,59.989808931262935,
5,"They hugged outside, and both of them were crying. ",4,4,,0,5,5,5,,,,,0,31,31,31,,,,,,,,,,,,,,,,,,,,,,,,,,,1,1.8363631950001036,,,,,,,,,,,,,,,,,,,021119_p1,001,2019_Feb_11_1420,body_behavioural,3.0.3,59.989808931262935,
5,"“Maria, I don’t want you to leave.",4,4,,0,5,5,5,,,,,0,32,32,32,,,,,,,,,,,,,,,,,,,,,,,,,,,1,1.2363264049999998,,,,,,,,,,,,,,,,,,,021119_p1,001,2019_Feb_11_1420,body_behavioural,3.0.3,59.989808931262935,
5,I don’t want this to end. ,4,4,,0,5,5,5,,,,,0,33,33,33,,,,,,,,,,,,,,,,,,,,,,,,,,,1,1.8031589529998655,,,,,,,,,,,,,,,,,,,021119_p1,001,2019_Feb_11_1420,body_behavioural,3.0.3,59.989808931262935,
5,"But if this is what you think is best, I can’t make it otherwise.” ",4,4,,0,5,5,5,,,,,0,34,34,34,,,,,,,,,,,,,,,,,,,,,,,,,,,1,3.7031007149998914,,,,,,,,,,,,,,,,,,,021119_p1,001,2019_Feb_11_1420,body_behavioural,3.0.3,59.989808931262935,
5,"They hugged one last time, and Maria ran off to get her things from her dorm.",4,4,,0,5,5,5,,,,,0,35,35,35,,,,,,,,,,,,,,,,,,,,,,,,,,,1,3.067541970000093,,,,,,,,,,,,,,,,,,,021119_p1,001,2019_Feb_11_1420,body_behavioural,3.0.3,59.989808931262935,
5,Henry sadly watched her go. ,4,4,,0,5,5,5,,,,,0,36,36,36,,,,,,,,,,,,,,,,,,,,,,,,,,,1,1.3198037330000716,,,,,,,,,,,,,,,,,,,021119_p1,001,2019_Feb_11_1420,body_behavioural,3.0.3,59.989808931262935,
5,,,,,0,5,5,5,,,,,,,,,,,,,,,,,,,,,,,,,,,,,,,,,,,,,,,,,,,,,,,,,,,,,,,021119_p1,001,2019_Feb_11_1420,body_behavioural,3.0.3,59.989808931262935,
6,,,,,0,6,6,6,0,0,0,0,,,,,,,,,,,,,,,,,,,,,,,,,space,0.7864155130000654,space,0.7695521749999443,space,1.2007247830001688,,,,,,,,,,,,,,,,,,,,,021119_p1,001,2019_Feb_11_1420,body_behavioural,3.0.3,59.989808931262935,
6,"Sven and Isabel walked hurriedly from the cab into the Barcelona Airport after an incredible weekend with Isabel’s family, which had wiped away any doubts Sven had had about his decision to propose. ",1,1,,0,6,6,6,,,,,0,0,0,0,,,,,,,,,,,,,,,,,,,,,,,,,,,9,12.070644509999966,,,,,,,,,,,,,,,,,,,021119_p1,001,2019_Feb_11_1420,body_behavioural,3.0.3,59.989808931262935,
6,"They were a little pressed for time, with only a little over an hour until their flight would take off to go back to the US, but they already had their online boarding passes and no checked luggage. ",1,1,,0,6,6,6,,,,,0,1,1,1,,,,,,,,,,,,,,,,,,,,,,,,,,,9,13.920595025000011,,,,,,,,,,,,,,,,,,,021119_p1,001,2019_Feb_11_1420,body_behavioural,3.0.3,59.989808931262935,
6,"When Isabel stopped to rummage through her purse looking for her phone, Sven turned his back to her and took the velvet box out of his backpack, opening it to look at the ring he bought her.",1,2,,0,6,6,6,,,,,0,2,2,2,,,,,,,,,,,,,,,,,,,,,,,,,,,1,6.653398118000041,,,,,,,,,,,,,,,,,,,021119_p1,001,2019_Feb_11_1420,body_behavioural,3.0.3,59.989808931262935,
6,"He had received her parents’ blessing during the trip, and he was almost giddy with excitement. ",1,2,,0,6,6,6,,,,,0,3,3,3,,,,,,,,,,,,,,,,,,,,,,,,,,,1,8.220142340000166,,,,,,,,,,,,,,,,,,,021119_p1,001,2019_Feb_11_1420,body_behavioural,3.0.3,59.989808931262935,
6,"He tilted the ring backward and forward, despite having already studied it daily since he had purchased it a few weeks ago. ",1,2,,0,6,6,6,,,,,0,4,4,4,,,,,,,,,,,,,,,,,,,,,,,,,,,1,4.119525559999829,,,,,,,,,,,,,,,,,,,021119_p1,001,2019_Feb_11_1420,body_behavioural,3.0.3,59.989808931262935,
6,"It was a simple design, with a clear, white diamond on a thin silver band.",1,2,,0,6,6,6,,,,,0,5,5,5,,,,,,,,,,,,,,,,,,,,,,,,,,,1,4.169981589999907,,,,,,,,,,,,,,,,,,,021119_p1,001,2019_Feb_11_1420,body_behavioural,3.0.3,59.989808931262935,
6,"“Sven, let’s go! ” Isabel said. ",1,2,,0,6,6,6,,,,,0,6,6,6,,,,,,,,,,,,,,,,,,,,,,,,,,,9,1.4197260680000454,,,,,,,,,,,,,,,,,,,021119_p1,001,2019_Feb_11_1420,body_behavioural,3.0.3,59.989808931262935,
6,Sven discretely closed the box and put it in his pocket.,1,2,,0,6,6,6,,,,,0,7,7,7,,,,,,,,,,,,,,,,,,,,,,,,,,,9,4.68428605500003,,,,,,,,,,,,,,,,,,,021119_p1,001,2019_Feb_11_1420,body_behavioural,3.0.3,59.989808931262935,
6," They entered the security line, weaving through the roped walkways to the front. ",2,2,,0,6,6,6,,,,,0,8,8,8,,,,,,,,,,,,,,,,,,,,,,,,,,,1,7.903463959999954,,,,,,,,,,,,,,,,,,,021119_p1,001,2019_Feb_11_1420,body_behavioural,3.0.3,59.989808931262935,
6,"When they were up, Isabel realized her laptop was buried somewhere in her duffle bag. ",2,2,,0,6,6,6,,,,,0,9,9,9,,,,,,,,,,,,,,,,,,,,,,,,,,,1,4.33625452299998,,,,,,,,,,,,,,,,,,,021119_p1,001,2019_Feb_11_1420,body_behavioural,3.0.3,59.989808931262935,
6,Sven had to hold the growing mound of objects she pulled from her bag until she unearthed the laptop.,2,2,,0,6,6,6,,,,,0,10,10,10,,,,,,,,,,,,,,,,,,,,,,,,,,,1,9.36788093500013,,,,,,,,,,,,,,,,,,,021119_p1,001,2019_Feb_11_1420,body_behavioural,3.0.3,59.989808931262935,
6,She set it into a bin and then had to unstrap her leather boots and put everything else into the bins.,2,2,,0,6,6,6,,,,,0,11,11,11,,,,,,,,,,,,,,,,,,,,,,,,,,,1,5.67009529500001,,,,,,,,,,,,,,,,,,,021119_p1,001,2019_Feb_11_1420,body_behavioural,3.0.3,59.989808931262935,
6,"Finally, she relieved Sven of his holding duties, and he hurriedly deposited his own backpack on the belt as the people behind them glared without shame. ",2,2,,0,6,6,6,,,,,0,12,12,12,,,,,,,,,,,,,,,,,,,,,,,,,,,1,3.934227247999843,,,,,,,,,,,,,,,,,,,021119_p1,001,2019_Feb_11_1420,body_behavioural,3.0.3,59.989808931262935,
6,"Sven went into the millimeter wave scanner after Isabel, put his hands up, and the metal bars whirled around him.",2,2,,0,6,6,6,,,,,0,13,13,13,,,,,,,,,,,,,,,,,,,,,,,,,,,1,5.2200637930000084,,,,,,,,,,,,,,,,,,,021119_p1,001,2019_Feb_11_1420,body_behavioural,3.0.3,59.989808931262935,
6,"“Sir, please step to the side.",2,2,,0,6,6,6,,,,,0,14,14,14,,,,,,,,,,,,,,,,,,,,,,,,,,,1,1.0527298550000523,,,,,,,,,,,,,,,,,,,021119_p1,001,2019_Feb_11_1420,body_behavioural,3.0.3,59.989808931262935,
6,"You need to empty your pockets,” the security guard said.",2,2,,0,6,6,6,,,,,0,15,15,15,,,,,,,,,,,,,,,,,,,,,,,,,,,1,2.586541377000003,,,,,,,,,,,,,,,,,,,021119_p1,001,2019_Feb_11_1420,body_behavioural,3.0.3,59.989808931262935,
6,"With a sinking feeling Sven realized the mistake he had made forgetting to put the ring back in his bag, as Isabel and the guard both looked at him expectantly.",2,2,,0,6,6,6,,,,,0,16,16,16,,,,,,,,,,,,,,,,,,,,,,,,,,,1,5.3676938480000445,,,,,,,,,,,,,,,,,,,021119_p1,001,2019_Feb_11_1420,body_behavioural,3.0.3,59.989808931262935,
6,"Sven,  deciding he would make the best of the situation, grabbed Isabel's hand as he reached into his pocket.",2,2,,0,6,6,6,,,,,0,17,17,17,,,,,,,,,,,,,,,,,,,,,,,,,,,1,6.253362724999988,,,,,,,,,,,,,,,,,,,021119_p1,001,2019_Feb_11_1420,body_behavioural,3.0.3,59.989808931262935,
6,"He got down on one knee and, giggling slightly at her confused look, said, “Isabel, this isn't quite how I'd planned this, but - will you marry me?”",2,3,,0,6,6,6,,,,,0,18,18,18,,,,,,,,,,,,,,,,,,,,,,,,,,,1,5.069989764999946,,,,,,,,,,,,,,,,,,,021119_p1,001,2019_Feb_11_1420,body_behavioural,3.0.3,59.989808931262935,
6,The security guard gasped.,2,3,,0,6,6,6,,,,,0,19,19,19,,,,,,,,,,,,,,,,,,,,,,,,,,,1,2.4694448750001357,,,,,,,,,,,,,,,,,,,021119_p1,001,2019_Feb_11_1420,body_behavioural,3.0.3,59.989808931262935,
6,All the people who were putting their shoes back on and gathering their belongings stopped what they were doing and walked closer to the couple.,2,3,,0,6,6,6,,,,,0,20,20,20,,,,,,,,,,,,,,,,,,,,,,,,,,,1,4.084243564999952,,,,,,,,,,,,,,,,,,,021119_p1,001,2019_Feb_11_1420,body_behavioural,3.0.3,59.989808931262935,
6,"Isabel was astonished, and far too shy to respond in front of the backup of passengers waiting behind them.",2,3,,0,6,6,6,,,,,0,21,21,21,,,,,,,,,,,,,,,,,,,,,,,,,,,1,3.4862084649998906,,,,,,,,,,,,,,,,,,,021119_p1,001,2019_Feb_11_1420,body_behavioural,3.0.3,59.989808931262935,
6,"She attempted to stammer a response as she frantically grabbed her and Sven’s shoes, leaving Sven to retrieve their bags.",2,3,,0,6,6,6,,,,,0,22,22,22,,,,,,,,,,,,,,,,,,,,,,,,,,,1,6.367747007999924,,,,,,,,,,,,,,,,,,,021119_p1,001,2019_Feb_11_1420,body_behavioural,3.0.3,59.989808931262935,
6,"Both of them slipping in their socked feet, she fled onto the concourse with Sven trying to catch up behind her.",3,3,,0,6,6,6,,,,,0,23,23,23,,,,,,,,,,,,,,,,,,,,,,,,,,,9,14.220414090000077,,,,,,,,,,,,,,,,,,,021119_p1,001,2019_Feb_11_1420,body_behavioural,3.0.3,59.989808931262935,
6,"Everyone in the terminal was looking at them with confusion as Sven, holding the bags in one hand and the open ring box in the other, finally caught up to her.",3,3,,0,6,6,6,,,,,0,24,24,24,,,,,,,,,,,,,,,,,,,,,,,,,,,1,4.469971205000093,,,,,,,,,,,,,,,,,,,021119_p1,001,2019_Feb_11_1420,body_behavioural,3.0.3,59.989808931262935,
6,“Isabel?”,3,3,,0,6,6,6,,,,,0,25,25,25,,,,,,,,,,,,,,,,,,,,,,,,,,,1,1.0863304950000838,,,,,,,,,,,,,,,,,,,021119_p1,001,2019_Feb_11_1420,body_behavioural,3.0.3,59.989808931262935,
6,"He watched her face as she turned, trying to read her expression.",3,3,,0,6,6,6,,,,,0,26,26,26,,,,,,,,,,,,,,,,,,,,,,,,,,,1,3.0202747949999775,,,,,,,,,,,,,,,,,,,021119_p1,001,2019_Feb_11_1420,body_behavioural,3.0.3,59.989808931262935,
6,"Her eyes were wide, but she was smiling as she hyperventilated, “Of course yes, Sven, yes!” ",3,4,,0,6,6,6,,,,,0,27,27,27,,,,,,,,,,,,,,,,,,,,,,,,,,,1,2.7698289700001624,,,,,,,,,,,,,,,,,,,021119_p1,001,2019_Feb_11_1420,body_behavioural,3.0.3,59.989808931262935,
6,"They dropped their belongings and hugged, and Sven slipped the ring onto Isabel’s finger. ",3,4,,0,6,6,6,,,,,0,28,28,28,,,,,,,,,,,,,,,,,,,,,,,,,,,1,2.4197696630001246,,,,,,,,,,,,,,,,,,,021119_p1,001,2019_Feb_11_1420,body_behavioural,3.0.3,59.989808931262935,
6,"After getting their shoes back on, they practically skipped to the gate, filled with joy.",3,4,,0,6,6,6,,,,,0,29,29,29,,,,,,,,,,,,,,,,,,,,,,,,,,,9,2.953191383000103,,,,,,,,,,,,,,,,,,,021119_p1,001,2019_Feb_11_1420,body_behavioural,3.0.3,59.989808931262935,
6,Sven high-fived a confused shoe-shine attendant as they passed.,3,4,,0,6,6,6,,,,,0,30,30,30,,,,,,,,,,,,,,,,,,,,,,,,,,,1,2.353242942999941,,,,,,,,,,,,,,,,,,,021119_p1,001,2019_Feb_11_1420,body_behavioural,3.0.3,59.989808931262935,
6,"They sat down outside their gate, having actually made good time, until the attendant called for passengers.",3,4,,0,6,6,6,,,,,0,31,31,31,,,,,,,,,,,,,,,,,,,,,,,,,,,9,3.0698683330001586,,,,,,,,,,,,,,,,,,,021119_p1,001,2019_Feb_11_1420,body_behavioural,3.0.3,59.989808931262935,
6,"They boarded, sitting together in first class, and had a glass of champagne to celebrate the departure into their new life together.",4,4,,0,6,6,6,,,,,0,32,32,32,,,,,,,,,,,,,,,,,,,,,,,,,,,1,5.03665854299993,,,,,,,,,,,,,,,,,,,021119_p1,001,2019_Feb_11_1420,body_behavioural,3.0.3,59.989808931262935,
6,"Some of their neighboring passengers who had witnessed the proposal congratulated them, and a woman next to them showed them that she had been live-tweeting the whole event and that it was already going viral online.",4,4,,0,6,6,6,,,,,0,33,33,33,,,,,,,,,,,,,,,,,,,,,,,,,,,9,7.784480699999904,,,,,,,,,,,,,,,,,,,021119_p1,001,2019_Feb_11_1420,body_behavioural,3.0.3,59.989808931262935,
6,"Isabel slid down in her seat with her hands over her face, both embarrassed and overjoyed at the same time.
",4,4,,0,6,6,6,,,,,0,34,34,34,,,,,,,,,,,,,,,,,,,,,,,,,,,1,5.63654812499999,,,,,,,,,,,,,,,,,,,021119_p1,001,2019_Feb_11_1420,body_behavioural,3.0.3,59.989808931262935,
6,,,,,0,6,6,6,,,,,,,,,,,,,,,,,,,,,,,,,,,,,,,,,,,,,,,,,,,,,,,,,,,,,,,021119_p1,001,2019_Feb_11_1420,body_behavioural,3.0.3,59.989808931262935,
7,,,,,0,7,7,7,0,0,0,0,,,,,,,,,,,,,,,,,,,,,,,,,space,0.7695822819998739,space,0.4695766500001355,space,1.5697067400001288,,,,,,,,,,,,,,,,,,,,,021119_p1,001,2019_Feb_11_1420,body_behavioural,3.0.3,59.989808931262935,
7,"It didn’t help the situation that Calvin and Jessie were running late to the airport, since Jessie had already been fuming at Calvin and preparing to end things with him.",1,1,,0,7,7,7,,,,,0,0,0,0,,,,,,,,,,,,,,,,,,,,,,,,,,,9,9.720484299999953,,,,,,,,,,,,,,,,,,,021119_p1,001,2019_Feb_11_1420,body_behavioural,3.0.3,59.989808931262935,
7,"Upon arriving, they had only 45 minutes until their international flight would depart from Jamaica for the US.",1,1,,0,7,7,7,,,,,0,1,1,1,,,,,,,,,,,,,,,,,,,,,,,,,,,1,11.553698237999924,,,,,,,,,,,,,,,,,,,021119_p1,001,2019_Feb_11_1420,body_behavioural,3.0.3,59.989808931262935,
7,It had been a tough vacation for them.,1,1,,0,7,7,7,,,,,0,2,2,2,,,,,,,,,,,,,,,,,,,,,,,,,,,1,1.5030916180000986,,,,,,,,,,,,,,,,,,,021119_p1,001,2019_Feb_11_1420,body_behavioural,3.0.3,59.989808931262935,
7,"Jessie had really had it with Calvin’s constant ramblings about the same excruciatingly boring golfing and work stories, which he insisted on repeating to her regardless of how little interest she showed.",1,1,,0,7,7,7,,,,,0,3,3,3,,,,,,,,,,,,,,,,,,,,,,,,,,,1,7.50312556300014,,,,,,,,,,,,,,,,,,,021119_p1,001,2019_Feb_11_1420,body_behavioural,3.0.3,59.989808931262935,
7,"Calvin knew that Jessie was upset, but wasn't sure what to do besides attempting to carry on as normal and tell stories that took up the silence. ",1,1,,0,7,7,7,,,,,0,4,4,4,,,,,,,,,,,,,,,,,,,,,,,,,,,1,3.553264752999894,,,,,,,,,,,,,,,,,,,021119_p1,001,2019_Feb_11_1420,body_behavioural,3.0.3,59.989808931262935,
7,"The security line was luckily very short, and once the online boarding passes were scanned they were ushered quickly through the metal detector, not having to take off their shoes or remove the liquids from their bags.",2,1,,0,7,7,7,,,,,0,5,5,5,,,,,,,,,,,,,,,,,,,,,,,,,,,9,6.0367094369998995,,,,,,,,,,,,,,,,,,,021119_p1,001,2019_Feb_11_1420,body_behavioural,3.0.3,59.989808931262935,
7,"“The infrastructure of this airport is really quite poor," said Calvin as they waited for their bags to emerge from the x-ray machine.",2,1,,0,7,7,7,,,,,0,6,6,6,,,,,,,,,,,,,,,,,,,,,,,,,,,1,7.753521723000176,,,,,,,,,,,,,,,,,,,021119_p1,001,2019_Feb_11_1420,body_behavioural,3.0.3,59.989808931262935,
7,“I really could've hidden something in my shoes quite easily.” ,2,1,,0,7,7,7,,,,,0,7,7,7,,,,,,,,,,,,,,,,,,,,,,,,,,,1,4.58433438499992,,,,,,,,,,,,,,,,,,,021119_p1,001,2019_Feb_11_1420,body_behavioural,3.0.3,59.989808931262935,
7,"Jessie, exasperated at his need to broadcast his every inner thought, scowled at the conveyor belt.",2,1,,0,7,7,7,,,,,0,8,8,8,,,,,,,,,,,,,,,,,,,,,,,,,,,1,3.686570472000085,,,,,,,,,,,,,,,,,,,021119_p1,001,2019_Feb_11_1420,body_behavioural,3.0.3,59.989808931262935,
7,"“What?”, he asked.",2,1,,0,7,7,7,,,,,0,9,9,9,,,,,,,,,,,,,,,,,,,,,,,,,,,1,0.8363448929999322,,,,,,,,,,,,,,,,,,,021119_p1,001,2019_Feb_11_1420,body_behavioural,3.0.3,59.989808931262935,
7,She balled up her fists and turned to face him.,2,1,,0,7,7,7,,,,,0,10,10,10,,,,,,,,,,,,,,,,,,,,,,,,,,,1,1.5530403049999677,,,,,,,,,,,,,,,,,,,021119_p1,001,2019_Feb_11_1420,body_behavioural,3.0.3,59.989808931262935,
7,"“Calvin, I really don’t think I can do this anymore.",2,2,,0,7,7,7,,,,,0,11,11,11,,,,,,,,,,,,,,,,,,,,,,,,,,,1,3.986364298000126,,,,,,,,,,,,,,,,,,,021119_p1,001,2019_Feb_11_1420,body_behavioural,3.0.3,59.989808931262935,
7,I think it’s best that once we get to the States we part ways for good.” ,2,2,,0,7,7,7,,,,,0,12,12,12,,,,,,,,,,,,,,,,,,,,,,,,,,,1,3.4864667869999266,,,,,,,,,,,,,,,,,,,021119_p1,001,2019_Feb_11_1420,body_behavioural,3.0.3,59.989808931262935,
7,Calvin said nothing as he grabbed his bag and quickly walked away.,2,2,,0,7,7,7,,,,,0,13,13,13,,,,,,,,,,,,,,,,,,,,,,,,,,,1,3.6032793280000988,,,,,,,,,,,,,,,,,,,021119_p1,001,2019_Feb_11_1420,body_behavioural,3.0.3,59.989808931262935,
7,"Jessie trailed behind him as they made their way quickly toward their gate, shouting at his back in hopes of getting a response.",3,2,,0,7,7,7,,,,,0,14,14,14,,,,,,,,,,,,,,,,,,,,,,,,,,,1,5.8362098529999,,,,,,,,,,,,,,,,,,,021119_p1,001,2019_Feb_11_1420,body_behavioural,3.0.3,59.989808931262935,
7,“So now you have nothing to say?,3,2,,0,7,7,7,,,,,0,15,15,15,,,,,,,,,,,,,,,,,,,,,,,,,,,1,1.9030975299999682,,,,,,,,,,,,,,,,,,,021119_p1,001,2019_Feb_11_1420,body_behavioural,3.0.3,59.989808931262935,
7,"Every time we talk, you are just looking for a way to steer the conversation back into your stories.”",3,2,,0,7,7,7,,,,,0,16,16,16,,,,,,,,,,,,,,,,,,,,,,,,,,,1,4.30364428300004,,,,,,,,,,,,,,,,,,,021119_p1,001,2019_Feb_11_1420,body_behavioural,3.0.3,59.989808931262935,
7,"Calvin didn't slow his pace, gritting his teeth and staring straight ahead. ",3,2,,0,7,7,7,,,,,0,17,17,17,,,,,,,,,,,,,,,,,,,,,,,,,,,1,3.9700161030000345,,,,,,,,,,,,,,,,,,,021119_p1,001,2019_Feb_11_1420,body_behavioural,3.0.3,59.989808931262935,
7,He was very frustrated that he had been trying to appease Jessie this whole time and this was how she responded. ,3,2,,0,7,7,7,,,,,0,18,18,18,,,,,,,,,,,,,,,,,,,,,,,,,,,9,5.370046969999976,,,,,,,,,,,,,,,,,,,021119_p1,001,2019_Feb_11_1420,body_behavioural,3.0.3,59.989808931262935,
7,The silence was punctuated only by the rapid rhythmic clacking of their suitcase wheels over the tile floor as they continued power-walking through the terminal. ,3,2,,0,7,7,7,,,,,0,19,19,19,,,,,,,,,,,,,,,,,,,,,,,,,,,1,5.469968914999981,,,,,,,,,,,,,,,,,,,021119_p1,001,2019_Feb_11_1420,body_behavioural,3.0.3,59.989808931262935,
7,"“Well?” Jessie said, and Calvin finally turned to her.",3,2,,0,7,7,7,,,,,0,20,20,20,,,,,,,,,,,,,,,,,,,,,,,,,,,1,2.3864528520000476,,,,,,,,,,,,,,,,,,,021119_p1,001,2019_Feb_11_1420,body_behavioural,3.0.3,59.989808931262935,
7,"“Well, Jessie, this makes perfect sense. ",3,3,,0,7,7,7,,,,,0,21,21,21,,,,,,,,,,,,,,,,,,,,,,,,,,,1,1.6698032880001392,,,,,,,,,,,,,,,,,,,021119_p1,001,2019_Feb_11_1420,body_behavioural,3.0.3,59.989808931262935,
7,"If you feel this way, then I don’t want to keep boring you, and I agree, let’s part ways once we make it back.",3,3,,0,7,7,7,,,,,0,22,22,22,,,,,,,,,,,,,,,,,,,,,,,,,,,1,5.803240955000092,,,,,,,,,,,,,,,,,,,021119_p1,001,2019_Feb_11_1420,body_behavioural,3.0.3,59.989808931262935,
7,You should’ve spoken up about my apparent intolerability before you decided to plan this vacation.”,3,3,,0,7,7,7,,,,,0,23,23,23,,,,,,,,,,,,,,,,,,,,,,,,,,,1,3.4694782679998752,,,,,,,,,,,,,,,,,,,021119_p1,001,2019_Feb_11_1420,body_behavioural,3.0.3,59.989808931262935,
7,"He was clearly hurt, but thought it was pointless to argue. ",3,3,,0,7,7,7,,,,,0,24,24,24,,,,,,,,,,,,,,,,,,,,,,,,,,,9,3.1532722699998885,,,,,,,,,,,,,,,,,,,021119_p1,001,2019_Feb_11_1420,body_behavioural,3.0.3,59.989808931262935,
7,"They finally made it to the gate, just as they heard the final call for passengers boarding their flight.",3,3,,0,7,7,7,,,,,0,25,25,25,,,,,,,,,,,,,,,,,,,,,,,,,,,1,3.7194282250000015,,,,,,,,,,,,,,,,,,,021119_p1,001,2019_Feb_11_1420,body_behavioural,3.0.3,59.989808931262935,
7,"They scanned their tickets, and the annoyed flight attendant shooed them onto the jet bridge and then closed the door behind them.",4,3,,0,7,7,7,,,,,0,26,26,26,,,,,,,,,,,,,,,,,,,,,,,,,,,1,4.103196879999814,,,,,,,,,,,,,,,,,,,021119_p1,001,2019_Feb_11_1420,body_behavioural,3.0.3,59.989808931262935,
7,"Luckily, they had forgotten to arrange seats next to each other on the flight back.",4,3,,0,7,7,7,,,,,0,27,27,27,,,,,,,,,,,,,,,,,,,,,,,,,,,1,3.3697385299999496,,,,,,,,,,,,,,,,,,,021119_p1,001,2019_Feb_11_1420,body_behavioural,3.0.3,59.989808931262935,
7,"They both had first-class tickets, but Jessie was headed for seat 1B while Calvin's seat was 4F. ",4,3,,0,7,7,7,,,,,0,28,28,28,,,,,,,,,,,,,,,,,,,,,,,,,,,1,11.27049042800013,,,,,,,,,,,,,,,,,,,021119_p1,001,2019_Feb_11_1420,body_behavioural,3.0.3,59.989808931262935,
7,"Before Jessie sat down, she took a deep breath and then awkwardly shook Calvin’s hand, mumbling, “Well, have a nice flight.” ",4,4,,0,7,7,7,,,,,0,29,29,29,,,,,,,,,,,,,,,,,,,,,,,,,,,1,7.853152635000015,,,,,,,,,,,,,,,,,,,021119_p1,001,2019_Feb_11_1420,body_behavioural,3.0.3,59.989808931262935,
7,He laughed in disbelief and walked to his window seat three rows back to get ready for takeoff.,4,4,,0,7,7,7,,,,,0,30,30,30,,,,,,,,,,,,,,,,,,,,,,,,,,,1,3.403184923000026,,,,,,,,,,,,,,,,,,,021119_p1,001,2019_Feb_11_1420,body_behavioural,3.0.3,59.989808931262935,
7,Both were upset but glad that they would have this flight to mull things over and recenter. ,4,4,,0,7,7,7,,,,,0,31,31,31,,,,,,,,,,,,,,,,,,,,,,,,,,,9,5.469975284999919,,,,,,,,,,,,,,,,,,,021119_p1,001,2019_Feb_11_1420,body_behavioural,3.0.3,59.989808931262935,
7,,,,,0,7,7,7,,,,,,,,,,,,,,,,,,,,,,,,,,,,,,,,,,,,,,,,,,,,,,,,,,,,,,,021119_p1,001,2019_Feb_11_1420,body_behavioural,3.0.3,59.989808931262935,
,,,,The next task in the experiment is to recall each story to the best of your ability.,,,,,,,,,,,,,0,0,0,0,,,,,,,,,,,,,,,,,,,,,,,,,space,3.119733704999817,,,,,,,,,,,,,,,,,021119_p1,001,2019_Feb_11_1420,body_behavioural,3.0.3,59.989808931262935,
,,,,"You will be presented with the story title, names, the images, and a blank text box for each story.",,,,,,,,,,,,,0,1,1,1,,,,,,,,,,,,,,,,,,,,,,,,,space,5.053268310000021,,,,,,,,,,,,,,,,,021119_p1,001,2019_Feb_11_1420,body_behavioural,3.0.3,59.989808931262935,
,,,,Describe the story with as many details as you can remember in the space provided. ,,,,,,,,,,,,,0,2,2,2,,,,,,,,,,,,,,,,,,,,,,,,,space,2.519700970000031,,,,,,,,,,,,,,,,,021119_p1,001,2019_Feb_11_1420,body_behavioural,3.0.3,59.989808931262935,
,,,,"When you are finished recalling one story, to move onto the next one hit ‘return’. ",,,,,,,,,,,,,0,3,3,3,,,,,,,,,,,,,,,,,,,,,,,,,space,4.453231269999833,,,,,,,,,,,,,,,,,021119_p1,001,2019_Feb_11_1420,body_behavioural,3.0.3,59.989808931262935,
,,,,There is no time limit for your responses. ,,,,,,,,,,,,,0,4,4,4,,,,,,,,,,,,,,,,,,,,,,,,,space,1.4696121879999282,,,,,,,,,,,,,,,,,021119_p1,001,2019_Feb_11_1420,body_behavioural,3.0.3,59.989808931262935,
0,,,,,,,,,,,,,,,,,,,,,0,0,0,0,,,,,,,,,,,,,,,,,,,,,,,space,0.8864994400000796,Aaron walked into chemistry class with lana planning to ask her to marry him. lana was thinking about her uncompleted calc homework. while walking to their seats aaron smiled at the professor who smiled right back. they took their seat before and lana started work on her unfinished homework while aaron texted his friends preparing them for the big moment. the teacher began lecturing about atoms and pulled lana up for an unexpected class demonstartion. at this time aaron proposed to lana in fron of the entire class who celebrated as she said yes. the professor then ended the class saying thats enough excitement for today he additionally reminded the students of an upcoming homework assignment.l,,,,,,,,,,,,,,021119_p1,001,2019_Feb_11_1420,body_behavioural,3.0.3,59.989808931262935,
1,,,,,,,,,,,,,,,,,,,,,0,1,1,1,,,,,,,,,,,,,,,,,,,,,,,space,1.8530969830003414,,,,,,,,,,,,,,,021119_p1,001,2019_Feb_11_1420,body_behavioural,3.0.3,59.989808931262935,
2,,,,,,,,,,,,,,,,,,,,,0,2,2,2,,,,,,,,,,,,,,,,,,,,,,,space,8.920356777000052,"Mr shelton and mr gordon attended a lunch meeting in hopes of making a merger for their airplane manufacturing companies . mr, shelton was a well known and succesful buisnessman while mr gordon owned a much smaller company. they engaged in small talk while looking over the italian resturants menu. it contained classics like tiramsu and carbanara. mr shelton offered mr gordon 500 million dollars and a position at his company in exchange for his buisness. gordon voiced his complaints mainly that the type of manufacturing they do was about quality and not purely profit. they both ordered cuts of meat and an alcoholic beverage. shelton was able to ease gordans concerns and make a deal",,,,,,,,,,,,,,021119_p1,001,2019_Feb_11_1420,body_behavioural,3.0.3,59.989808931262935,
3,,,,,,,,,,,,,,,,,,,,,0,3,3,3,,,,,,,,,,,,,,,,,,,,,,,space,0.6529267050000271,"Ms. bianchi and ms. morrison met in a grocery store for a buisness meeting regarding imported cheeses. morrison was trying to convince bianchi to buy his foreign cheese as it could boost not only her cheese sales but the sales of related items like crackers, olives, and jams. to convice her she suggested she buy only $2000 worth of her product and see how it sold in some of her stores. bianchi remained hesitant and morrsion then bought crackers that were nearby to try some of the samples she brought along. they waited in a long line at the checkout in which she showed projected graphs on how her sales could increase. ",,,,,,,,,,,,,,021119_p1,001,2019_Feb_11_1420,body_behavioural,3.0.3,59.989808931262935,
4,,,,,,,,,,,,,,,,,,,,,0,4,4,4,,,,,,,,,,,,,,,,,,,,,,,space,0.6695499729999028,James noticed teresa as soon as he saw her. teresa was burried in her phone and walked into the glass door of the resturant both were attending. james and teresa waited to be seated in the wood cabin themed diner and eventually were escorted to seats at the counter. they sat on a wood log style bench and james nervously looked over the menu while thinking about what to say to teresa. teresa on the other hand pulled out a book and started to read. james eventually wored up the courage to ask teresa your forehead ok to which she replied have you ever been bitten by a scorpion. james replied no to which she said since she had been things like that dont bother her much. they enjoyed pleasent converstaion and james invited her to a concert he was attneding that night. teresa agreed anf both left happy. during their meal james had pancakes and coffee while teresa had an omlete,,,,,,,,,,,,,,021119_p1,001,2019_Feb_11_1420,body_behavioural,3.0.3,59.989808931262935,
5,,,,,,,,,,,,,,,,,,,,,0,5,5,5,,,,,,,,,,,,,,,,,,,,,,,space,0.4529008699996666,Maria and henry were attending their ancient philosophy course in which maria intended to break up with henry. the lecuture hall was large and the professor struggled to connect the projector. the lecture of the day was on aristotle. maria would be leaving for a semster abroad soon and although she didnt want to end things with henry she knew she could not do long distance. maria tells henry during the lecture and he is upsetsaying that he truly does not want to end things and will visit her. maria refuses and they sit through the rest of lecture both sad. the professor ends the class reminding everyone of their final nect tuesday or an alternative 20 oage writting assignment and the two rush out before the rest of the class leaves. they embrace and say goodbye. maria leaves to pack her things and henry watches ,,,,,,,,,,,,,,021119_p1,001,2019_Feb_11_1420,body_behavioural,3.0.3,59.989808931262935,
6,,,,,,,,,,,,,,,,,,,,,0,6,6,6,,,,,,,,,,,,,,,,,,,,,,,space,0.6193459799997072,Sven and isabel arrive at the airport in barcelona from a trip visitng isabels family. sven is so excited because he recived their blessing to marry isabel and he feels the ring in his pocket excitedly. as they approach security isabel realizes that she forgot her laptop in her bag and must dig through her bag making sven hold everything. she gets it out and removes her boots and goes through security. sven folllows but as he is xrayed the officer asks him to please step aside. in horror sven relaizes he left the ring in his pcoket and will have to reveal it so he sezies the moment and grabs isabels hand. he asks her to marry him and isabel is so overwhelmed by the public spectacle and for holding up the line that she runs shoeless with sven pursuing. she says yes and they run giddy to their gate. sven high fives a confused shoe shiner. they make great time to the gate and sit in first class where they are shown that the whole event was recorded and is now trending on twitter,,,,,,,,,,,,,,021119_p1,001,2019_Feb_11_1420,body_behavioural,3.0.3,59.989808931262935,
7,,,,,,,,,,,,,,,,,,,,,0,7,7,7,,,,,,,,,,,,,,,,,,,,,,,space,0.5526081180000801,Calvin and jessie prepare to fly back to the us from jamica. jessie is also prepared to break up with calvin because she cannot take his stories about golf any longer. they head to the security line and calvin comments on the poor design of the airport and how easily he could have snuck something through in his shoe. annoyed at his need to voice every thought in his head jessie tells him that they should go their seperate ways once they reach the states . calvin turns his back to jessu and walks away while jessie pursues screaming at him. they arrive just in time at the gate and thsankfully have booked seats not next to one another in first classs. calvin tells jessie he wishes she would have just told him sooner that she was so annoyed,,,,,,,,,,,,,,021119_p1,001,2019_Feb_11_1420,body_behavioural,3.0.3,59.989808931262935,
,,,,The next part of the task is to answer 8 questions about each story.,,,,,,,,,,,,,,,,,,,,,0,0,0,0,,,,,,,,,,,,,,,,,,,,,,space,1301.1765720850003,,,,,,,,,,,,021119_p1,001,2019_Feb_11_1420,body_behavioural,3.0.3,59.989808931262935,
,,,,Some of the questions are not related to the perspective you were asked to assume.,,,,,,,,,,,,,,,,,,,,,0,1,1,1,,,,,,,,,,,,,,,,,,,,,,space,1.1363802249998116,,,,,,,,,,,,021119_p1,001,2019_Feb_11_1420,body_behavioural,3.0.3,59.989808931262935,
,,,,"We realize that we did not tell you to think of these questions during the story, but do your best to answer them.",,,,,,,,,,,,,,,,,,,,,0,2,2,2,,,,,,,,,,,,,,,,,,,,,,space,0.2338357199996608,,,,,,,,,,,,021119_p1,001,2019_Feb_11_1420,body_behavioural,3.0.3,59.989808931262935,
,,,,"When you have finished typing your answer, hit ‘return’ to submit your answer and move onto the next question. ",,,,,,,,,,,,,,,,,,,,,0,3,3,3,,,,,,,,,,,,,,,,,,,,,,space,0.28651815000011993,,,,,,,,,,,,021119_p1,001,2019_Feb_11_1420,body_behavioural,3.0.3,59.989808931262935,
0,,,,,,,,,,,,,,,,,,,,,,,,,,,,,0,0,0,0,,,,,,,,,,,,,,,,,,,,space,0.15306790300019202,,primed first,,,,,,,,021119_p1,001,2019_Feb_11_1420,body_behavioural,3.0.3,59.989808931262935,
1,,,,,,,,,,,,,,,,,,,,,,,,,,,,,0,1,1,1,,,,,,,,,,,,,,,,,,,,space,0.36968155999966257, ,primed first,,,,,,,,021119_p1,001,2019_Feb_11_1420,body_behavioural,3.0.3,59.989808931262935,
2,,,,,,,,,,,,,,,,,,,,,,,,,,,,,0,2,2,2,,,,,,,,,,,,,,,,,,,,space,0.33644524499959516,,primed first,,,,,,,,021119_p1,001,2019_Feb_11_1420,body_behavioural,3.0.3,59.989808931262935,
3,,,,,,,,,,,,,,,,,,,,,,,,,,,,,0,3,3,3,,,,,,,,,,,,,,,,,,,,space,0.4028428699994038,,non-primed first,,,,,,,,021119_p1,001,2019_Feb_11_1420,body_behavioural,3.0.3,59.989808931262935,
4,,,,,,,,,,,,,,,,,,,,,,,,,,,,,0,4,4,4,,,,,,,,,,,,,,,,,,,,space,0.3864403580000726, ,primed first,,,,,,,,021119_p1,001,2019_Feb_11_1420,body_behavioural,3.0.3,59.989808931262935,
5,,,,,,,,,,,,,,,,,,,,,,,,,,,,,0,5,5,5,,,,,,,,,,,,,,,,,,,,space,0.4365826930006733,,non-primed first,,,,,,,,021119_p1,001,2019_Feb_11_1420,body_behavioural,3.0.3,59.989808931262935,
6,,,,,,,,,,,,,,,,,,,,,,,,,,,,,0,6,6,6,,,,,,,,,,,,,,,,,,,,space,0.5698509279991413,,non-primed first,,,,,,,,021119_p1,001,2019_Feb_11_1420,body_behavioural,3.0.3,59.989808931262935,
7,,,,,,,,,,,,,,,,,,,,,,,,,,,,,0,7,7,7,,,,,,,,,,,,,,,,,,,,space,0.35290457300015987,,primed first,,,,,,,,021119_p1,001,2019_Feb_11_1420,body_behavioural,3.0.3,59.989808931262935,
