count,storyText,locationEvent,socialEvent,locationEventSize,socialEventSize,instructText,trials.thisRepN,trials.thisTrialN,trials.thisN,trials.thisIndex,trials_7.thisRepN,trials_7.thisTrialN,trials_7.thisN,trials_7.thisIndex,trials_2.thisRepN,trials_2.thisTrialN,trials_2.thisN,trials_2.thisIndex,trials_3.thisRepN,trials_3.thisTrialN,trials_3.thisN,trials_3.thisIndex,trials_4.thisRepN,trials_4.thisTrialN,trials_4.thisN,trials_4.thisIndex,trials_5.thisRepN,trials_5.thisTrialN,trials_5.thisN,trials_5.thisIndex,trials_6.thisRepN,trials_6.thisTrialN,trials_6.thisN,trials_6.thisIndex,trials_8.thisRepN,trials_8.thisTrialN,trials_8.thisN,trials_8.thisIndex,order of stories,order of perspectives,participant 2 order - stories,participant 2 order  - schemas types,key_resp_8.keys,key_resp_8.rt,key_resp_5.keys,key_resp_5.rt,key_resp_7.keys,key_resp_7.rt,story_presses.keys,story_presses.rt,story time,key_resp_6.keys,key_resp_6.rt,key_resp_2.keys,key_resp_2.rt,key_resp_10.keys,key_resp_10.rt,recall,recall time,key_resp_12.keys,key_resp_12.rt,key_resp_3.keys,key_resp_3.rt,key_resp_11.keys,key_resp_11.rt,question1_answer,order of question,question2_answer,question3_answer,question4_answer,question5_answer,question6_answer,question7_answer,question8_answer,questions time,key_resp_13.keys,key_resp_13.rt,participant,session,date,expName,psychopyVersion,frameRate,
0,,,,,,,0,0,0,0,0,0,0,0,,,,,,,,,,,,,,,,,,,,,,,,,[33 32 44 23 14 22 11 41 43 12 34 24 13 42 31 21],"['Social' 'Location' 'Social' 'Location' 'Location' 'Social' 'Social'
 'Location' 'Location' 'Location' 'Location' 'Social' 'Social' 'Social'
 'Social' 'Location']",[43 12 34 24 13 42 31 21],"['Location' 'Location' 'Location' 'Social' 'Social' 'Social' 'Social'
 'Location']",space,9.226196994999995,space,1.3191720549999957,space,1.4691952359999902,,,,,,,,,,,,,,,,,,,,,,,,,,,,,,021819_p1,001,2019_Feb_18_1518,body_behavioural,3.0.3,60.000486603950385,
0,"Ms. Bianchi and Ms. Morrison walked into the grocery store at the same time, and, after a moment of mutual recognition, greeted each other and shook hands.",1,1,,,,0,0,0,0,,,,,0,0,0,0,,,,,,,,,,,,,,,,,,,,,,,,,,,,,,,1,13.654125182000001,,,,,,,,,,,,,,,,,,,,,,,,,,,,021819_p1,001,2019_Feb_18_1518,body_behavioural,3.0.3,60.000486603950385,
0,"“Thank you again for inviting me here to discuss my business proposal,” said Ms. Bianchi, “And it’s a pleasure to be out of the office.” ",1,1,,,,0,0,0,0,,,,,0,1,1,1,,,,,,,,,,,,,,,,,,,,,,,,,,,,,,,1,10.270331954999989,,,,,,,,,,,,,,,,,,,,,,,,,,,,021819_p1,001,2019_Feb_18_1518,body_behavioural,3.0.3,60.000486603950385,
0,"As a salesperson for an Italian cheese company that was trying to expand its outreach to more mainstream grocery stores, this meeting could be a big break for her.",1,1,,,,0,0,0,0,,,,,0,2,2,2,,,,,,,,,,,,,,,,,,,,,,,,,,,,,,,1,7.87024282500002,,,,,,,,,,,,,,,,,,,,,,,,,,,,021819_p1,001,2019_Feb_18_1518,body_behavioural,3.0.3,60.000486603950385,
0,"Her sales target, Ms. Morrison,  who had a reputation for being a bit quirky, was a corporate buyer for a large chain grocery store. ",1,1,,,,0,0,0,0,,,,,0,3,3,3,,,,,,,,,,,,,,,,,,,,,,,,,,,,,,,1,5.419997606999999,,,,,,,,,,,,,,,,,,,,,,,,,,,,021819_p1,001,2019_Feb_18_1518,body_behavioural,3.0.3,60.000486603950385,
0,"She was known for doing things unconventionally: for example, she said that she liked to make deals with suppliers in the place where the products were sold- “to keep their minds focused on what’s important.” ",1,1,,,,0,0,0,0,,,,,0,4,4,4,,,,,,,,,,,,,,,,,,,,,,,,,,,,,,,1,13.637293259999979,,,,,,,,,,,,,,,,,,,,,,,,,,,,021819_p1,001,2019_Feb_18_1518,body_behavioural,3.0.3,60.000486603950385,
0,"They chatted a little in the front of the grocery store, which was surrounded by pumpkins and halloween decorations set up in special displays for the holiday season.",1,1,,,,0,0,0,0,,,,,0,5,5,5,,,,,,,,,,,,,,,,,,,,,,,,,,,,,,,9,5.670197906999988,,,,,,,,,,,,,,,,,,,,,,,,,,,,021819_p1,001,2019_Feb_18_1518,body_behavioural,3.0.3,60.000486603950385,
0,"Ms. Bianchi and Ms. Morrison walked to the cheese section, and Ms. Morrison picked up a block of parmesan.",2,1,,,,0,0,0,0,,,,,0,6,6,6,,,,,,,,,,,,,,,,,,,,,,,,,,,,,,,9,21.270779925,,,,,,,,,,,,,,,,,,,,,,,,,,,,021819_p1,001,2019_Feb_18_1518,body_behavioural,3.0.3,60.000486603950385,
0,“We have quite a selection here.,2,1,,,,0,0,0,0,,,,,0,7,7,7,,,,,,,,,,,,,,,,,,,,,,,,,,,,,,,1,0.8361325670000213,,,,,,,,,,,,,,,,,,,,,,,,,,,,021819_p1,001,2019_Feb_18_1518,body_behavioural,3.0.3,60.000486603950385,
0,I don’t know that it needs an additional section for more gourmet cheeses.” ,2,1,,,,0,0,0,0,,,,,0,8,8,8,,,,,,,,,,,,,,,,,,,,,,,,,,,,,,,1,2.0856790869999884,,,,,,,,,,,,,,,,,,,,,,,,,,,,021819_p1,001,2019_Feb_18_1518,body_behavioural,3.0.3,60.000486603950385,
0,"Ms. Bianchi's confidence faltered for a minute at this remark, but then she launched into her prepared pitch.",2,1,,,,0,0,0,0,,,,,0,9,9,9,,,,,,,,,,,,,,,,,,,,,,,,,,,,,,,1,2.6848107169999764,,,,,,,,,,,,,,,,,,,,,,,,,,,,021819_p1,001,2019_Feb_18_1518,body_behavioural,3.0.3,60.000486603950385,
0," “Ms. Morrison, I think you would agree that selling food is more than just providing variety, but also about providing the highest quality.",2,2,,,,0,0,0,0,,,,,0,10,10,10,,,,,,,,,,,,,,,,,,,,,,,,,,,,,,,1,4.503924237999996,,,,,,,,,,,,,,,,,,,,,,,,,,,,021819_p1,001,2019_Feb_18_1518,body_behavioural,3.0.3,60.000486603950385,
0,"You don’t have cheeses made in America that are like ours, it is true.",2,2,,,,0,0,0,0,,,,,0,11,11,11,,,,,,,,,,,,,,,,,,,,,,,,,,,,,,,1,3.7200134149999826,,,,,,,,,,,,,,,,,,,,,,,,,,,,021819_p1,001,2019_Feb_18_1518,body_behavioural,3.0.3,60.000486603950385,
0,Your store could be providing American consumers with a dimension in taste that they've never known before with our product.,2,2,,,,0,0,0,0,,,,,0,12,12,12,,,,,,,,,,,,,,,,,,,,,,,,,,,,,,,1,8.085971016999991,,,,,,,,,,,,,,,,,,,,,,,,,,,,021819_p1,001,2019_Feb_18_1518,body_behavioural,3.0.3,60.000486603950385,
0,"I propose that you give it a shot, buy $1000 worth of cheese products for a few stores, and see how the sales increase not only in our cheeses but also in products related to cheeses: crackers, jams, olives. ",2,2,,,,0,0,0,0,,,,,0,13,13,13,,,,,,,,,,,,,,,,,,,,,,,,,,,,,,,1,5.787521837000014,,,,,,,,,,,,,,,,,,,,,,,,,,,,021819_p1,001,2019_Feb_18_1518,body_behavioural,3.0.3,60.000486603950385,
0,"The availability of a finer product leads to the appreciation of the product, and your consumers will start to consume in a new, more profitable way.”",2,2,,,,0,0,0,0,,,,,0,14,14,14,,,,,,,,,,,,,,,,,,,,,,,,,,,,,,,1,3.0864557799999943,,,,,,,,,,,,,,,,,,,,,,,,,,,,021819_p1,001,2019_Feb_18_1518,body_behavioural,3.0.3,60.000486603950385,
0,"Ms. Bianchi picked up a box of crackers by the cheese section, and said, “Here, I will buy these, and we can try some of our cheeses that I've brought with me.”",2,2,,,,0,0,0,0,,,,,0,15,15,15,,,,,,,,,,,,,,,,,,,,,,,,,,,,,,,1,8.687083174999998,,,,,,,,,,,,,,,,,,,,,,,,,,,,021819_p1,001,2019_Feb_18_1518,body_behavioural,3.0.3,60.000486603950385,
0,"Ms. Morrison, who was thinking, nodded in agreement and said, “That sounds like a great idea.",2,2,,,,0,0,0,0,,,,,0,16,16,16,,,,,,,,,,,,,,,,,,,,,,,,,,,,,,,1,2.786490845000003,,,,,,,,,,,,,,,,,,,,,,,,,,,,021819_p1,001,2019_Feb_18_1518,body_behavioural,3.0.3,60.000486603950385,
0,"Let’s head to check out, and those crackers are on me.” ",2,2,,,,0,0,0,0,,,,,0,17,17,17,,,,,,,,,,,,,,,,,,,,,,,,,,,,,,,1,1.60080372500002,,,,,,,,,,,,,,,,,,,,,,,,,,,,021819_p1,001,2019_Feb_18_1518,body_behavioural,3.0.3,60.000486603950385,
0,They walked over to the checkout area.,3,2,,,,0,0,0,0,,,,,0,18,18,18,,,,,,,,,,,,,,,,,,,,,,,,,,,,,,,9,2.2861783419999995,,,,,,,,,,,,,,,,,,,,,,,,,,,,021819_p1,001,2019_Feb_18_1518,body_behavioural,3.0.3,60.000486603950385,
0,"There was a very long line, and it was very busy in the checkout area as people were stocking up for Halloween parties and trick-or-treating. ",3,2,,,,0,0,0,0,,,,,0,19,19,19,,,,,,,,,,,,,,,,,,,,,,,,,,,,,,,1,4.21948893199999,,,,,,,,,,,,,,,,,,,,,,,,,,,,021819_p1,001,2019_Feb_18_1518,body_behavioural,3.0.3,60.000486603950385,
0,"Since they had almost a 10 minute wait in line, Ms. Bianchi handed a sheet with printed graphs to Ms. Morrison the increase in profits that several other stores had seen after starting to carry their products.",3,2,,,,0,0,0,0,,,,,0,20,20,20,,,,,,,,,,,,,,,,,,,,,,,,,,,,,,,1,10.920362109999985,,,,,,,,,,,,,,,,,,,,,,,,,,,,021819_p1,001,2019_Feb_18_1518,body_behavioural,3.0.3,60.000486603950385,
0,"Eventually, Ms. Morrison replied, “You know what, I think you've convinced me that this could work. ",3,3,,,,0,0,0,0,,,,,0,21,21,21,,,,,,,,,,,,,,,,,,,,,,,,,,,,,,,1,2.4698337469999956,,,,,,,,,,,,,,,,,,,,,,,,,,,,021819_p1,001,2019_Feb_18_1518,body_behavioural,3.0.3,60.000486603950385,
0,We've been trying to find a way to add a little European cachet to our stores.,3,3,,,,0,0,0,0,,,,,0,22,22,22,,,,,,,,,,,,,,,,,,,,,,,,,,,,,,,1,2.6031855619999646,,,,,,,,,,,,,,,,,,,,,,,,,,,,021819_p1,001,2019_Feb_18_1518,body_behavioural,3.0.3,60.000486603950385,
0,There's still a problem though - I'm worried we'll be paying out the nose for the import taxes.,3,3,,,,0,0,0,0,,,,,0,23,23,23,,,,,,,,,,,,,,,,,,,,,,,,,,,,,,,1,2.0030334100000005,,,,,,,,,,,,,,,,,,,,,,,,,,,,021819_p1,001,2019_Feb_18_1518,body_behavioural,3.0.3,60.000486603950385,
0,Is that the case?",3,3,,,,0,0,0,0,,,,,0,24,24,24,,,,,,,,,,,,,,,,,,,,,,,,,,,,,,,1,1.2029362179999907,,,,,,,,,,,,,,,,,,,,,,,,,,,,021819_p1,001,2019_Feb_18_1518,body_behavioural,3.0.3,60.000486603950385,
0,"It was Ms. Morrison’s turn to checkout, and the two businesswomen continued to talk back and forth as she did so. ",4,3,,,,0,0,0,0,,,,,0,25,25,25,,,,,,,,,,,,,,,,,,,,,,,,,,,,,,,9,2.884221914999955,,,,,,,,,,,,,,,,,,,,,,,,,,,,021819_p1,001,2019_Feb_18_1518,body_behavioural,3.0.3,60.000486603950385,
0,"The cashier scanned the crackers, and Ms. Bianchi watched in amusement as Ms. Morrison paid the $6 price entirely in quarters from a wallet bulging with change.",4,3,,,,0,0,0,0,,,,,0,26,26,26,,,,,,,,,,,,,,,,,,,,,,,,,,,,,,,1,11.537261810000018,,,,,,,,,,,,,,,,,,,,,,,,,,,,021819_p1,001,2019_Feb_18_1518,body_behavioural,3.0.3,60.000486603950385,
0,"They shortly came to an agreement and would have enough cheese shipments, $5000 worth, to different stores to qualify for a subsidized import tax. ",4,4,,,,0,0,0,0,,,,,0,27,27,27,,,,,,,,,,,,,,,,,,,,,,,,,,,,,,,1,2.536623676999966,,,,,,,,,,,,,,,,,,,,,,,,,,,,021819_p1,001,2019_Feb_18_1518,body_behavioural,3.0.3,60.000486603950385,
0,"Ms. Bianchi retrieved some of her samples from her car, and they toasted their new deal with crackers topped with fresh mozzarella. ",4,4,,,,0,0,0,0,,,,,0,28,28,28,,,,,,,,,,,,,,,,,,,,,,,,,,,,,,,9,3.0364960370000063,,,,,,,,,,,,,,,,,,,,,,,,,,,,021819_p1,001,2019_Feb_18_1518,body_behavioural,3.0.3,60.000486603950385,
0,,,,,,,0,0,0,0,,,,,,,,,,,,,,,,,,,,,,,,,,,,,,,,,,,,,,,,,,,,,,,,,,,,,,,,,,,,,,,,,,,,021819_p1,001,2019_Feb_18_1518,body_behavioural,3.0.3,60.000486603950385,
1,,,,,,,0,1,1,1,0,0,0,0,,,,,,,,,,,,,,,,,,,,,,,,,,,,,space,4.48434474000004,space,0.6196514349999802,space,0.600662371999988,,,,,,,,,,,,,,,,,,,,,,,,,,,,,,021819_p1,001,2019_Feb_18_1518,body_behavioural,3.0.3,60.000486603950385,
1,"Jeff, hoping that today would be a pivotal day for his new business, had only been waiting inside the doors of the airport for a few minutes when he saw William and eagerly waved him over. ",1,1,,,,0,1,1,1,,,,,0,0,0,0,,,,,,,,,,,,,,,,,,,,,,,,,,,,,,,1,11.653842625000038,,,,,,,,,,,,,,,,,,,,,,,,,,,,021819_p1,001,2019_Feb_18_1518,body_behavioural,3.0.3,60.000486603950385,
1,"Jeff, checking his watch, was pleased to see that the two of them had two hours to discuss business before their flights left Boston.",1,1,,,,0,1,1,1,,,,,0,1,1,1,,,,,,,,,,,,,,,,,,,,,,,,,,,,,,,1,6.270213001999991,,,,,,,,,,,,,,,,,,,,,,,,,,,,021819_p1,001,2019_Feb_18_1518,body_behavioural,3.0.3,60.000486603950385,
1,The two had met the night before in line for the bathroom at a local bar. ,1,1,,,,0,1,1,1,,,,,0,2,2,2,,,,,,,,,,,,,,,,,,,,,,,,,,,,,,,1,3.4032082400000263,,,,,,,,,,,,,,,,,,,,,,,,,,,,021819_p1,001,2019_Feb_18_1518,body_behavioural,3.0.3,60.000486603950385,
1,"Jeff had delivered some surprisingly-detailed complaints to William about the wine selection, and they quickly learned that Jeff was a representative for wine vineyards in the Northeast and William was a wine buyer for corporate events.",1,1,,,,0,1,1,1,,,,,0,3,3,3,,,,,,,,,,,,,,,,,,,,,,,,,,,,,,,1,9.320294770000032,,,,,,,,,,,,,,,,,,,,,,,,,,,,021819_p1,001,2019_Feb_18_1518,body_behavioural,3.0.3,60.000486603950385,
1,"Since they both had flights out of Boston at the same time, they had agreed to meet at the airport and talk about potentially doing business. ",1,1,,,,0,1,1,1,,,,,0,4,4,4,,,,,,,,,,,,,,,,,,,,,,,,,,,,,,,1,1.8862606669999877,,,,,,,,,,,,,,,,,,,,,,,,,,,,021819_p1,001,2019_Feb_18_1518,body_behavioural,3.0.3,60.000486603950385,
1,"They headed to security together, pleased to find that the line was not so long, and they chatted a little as they were waiting. ",2,1,,,,0,1,1,1,,,,,0,5,5,5,,,,,,,,,,,,,,,,,,,,,,,,,,,,,,,9,4.103189869999994,,,,,,,,,,,,,,,,,,,,,,,,,,,,021819_p1,001,2019_Feb_18_1518,body_behavioural,3.0.3,60.000486603950385,
1,"“It’s crazy that we met last night,” William said, “I am flying out right now to meet my boss, and was worried that I was going to show up empty handed without any local retailer prepared.” ",2,1,,,,0,1,1,1,,,,,0,6,6,6,,,,,,,,,,,,,,,,,,,,,,,,,,,,,,,1,5.5040345450000245,,,,,,,,,,,,,,,,,,,,,,,,,,,,021819_p1,001,2019_Feb_18_1518,body_behavioural,3.0.3,60.000486603950385,
1,"“I know, what are the chances, right?” Jeff said.",2,1,,,,0,1,1,1,,,,,0,7,7,7,,,,,,,,,,,,,,,,,,,,,,,,,,,,,,,1,4.553308757000025,,,,,,,,,,,,,,,,,,,,,,,,,,,,021819_p1,001,2019_Feb_18_1518,body_behavioural,3.0.3,60.000486603950385,
1,"William laughed and said, “I’m glad our shared complaining can come in handy.",2,1,,,,0,1,1,1,,,,,0,8,8,8,,,,,,,,,,,,,,,,,,,,,,,,,,,,,,,1,3.686366832000033,,,,,,,,,,,,,,,,,,,,,,,,,,,,021819_p1,001,2019_Feb_18_1518,body_behavioural,3.0.3,60.000486603950385,
1,"I know this is fast, but I'd like to get right down to specifics.",2,2,,,,0,1,1,1,,,,,0,9,9,9,,,,,,,,,,,,,,,,,,,,,,,,,,,,,,,1,1.5867181749999872,,,,,,,,,,,,,,,,,,,,,,,,,,,,021819_p1,001,2019_Feb_18_1518,body_behavioural,3.0.3,60.000486603950385,
1,I'd like to order a couple of sample shipments from you and present them to our corporate buyers.,2,2,,,,0,1,1,1,,,,,0,10,10,10,,,,,,,,,,,,,,,,,,,,,,,,,,,,,,,1,2.3697363249999626,,,,,,,,,,,,,,,,,,,,,,,,,,,,021819_p1,001,2019_Feb_18_1518,body_behavioural,3.0.3,60.000486603950385,
1,"Typically we expect to get these kinds of samples at a deep discount, at least half-off the label price.",2,2,,,,0,1,1,1,,,,,0,11,11,11,,,,,,,,,,,,,,,,,,,,,,,,,,,,,,,1,2.934240526999986,,,,,,,,,,,,,,,,,,,,,,,,,,,,021819_p1,001,2019_Feb_18_1518,body_behavioural,3.0.3,60.000486603950385,
1,"This is nothing, okay, compared to what you will be making if one of these buyers makes a contract.",2,2,,,,0,1,1,1,,,,,0,12,12,12,,,,,,,,,,,,,,,,,,,,,,,,,,,,,,,1,2.4364993550000236,,,,,,,,,,,,,,,,,,,,,,,,,,,,021819_p1,001,2019_Feb_18_1518,body_behavioural,3.0.3,60.000486603950385,
1,So I propose that you send us $600 worth of wine shipments for a price of $300.”,2,2,,,,0,1,1,1,,,,,0,13,13,13,,,,,,,,,,,,,,,,,,,,,,,,,,,,,,,1,1.9199204800000302,,,,,,,,,,,,,,,,,,,,,,,,,,,,021819_p1,001,2019_Feb_18_1518,body_behavioural,3.0.3,60.000486603950385,
1,"When it was their turn to go through the metal detector, they took off their shoes and pulled out their laptops.",2,2,,,,0,1,1,1,,,,,0,14,14,14,,,,,,,,,,,,,,,,,,,,,,,,,,,,,,,9,4.086755451999977,,,,,,,,,,,,,,,,,,,,,,,,,,,,021819_p1,001,2019_Feb_18_1518,body_behavioural,3.0.3,60.000486603950385,
1,"Jeff mulled over the offer, nodding noncommittally to William's pitch as they proceeded through the metal detector and retrieved their belongings.",2,2,,,,0,1,1,1,,,,,0,15,15,15,,,,,,,,,,,,,,,,,,,,,,,,,,,,,,,1,5.336859964999974,,,,,,,,,,,,,,,,,,,,,,,,,,,,021819_p1,001,2019_Feb_18_1518,body_behavioural,3.0.3,60.000486603950385,
1,"They began to walk through the concourse, and William handed some printed spreadsheets to Jeff as they navigated toward their gates at the end of the terminal.",3,2,,,,0,1,1,1,,,,,0,16,16,16,,,,,,,,,,,,,,,,,,,,,,,,,,,,,,,9,4.000981686999978,,,,,,,,,,,,,,,,,,,,,,,,,,,,021819_p1,001,2019_Feb_18_1518,body_behavioural,3.0.3,60.000486603950385,
1,"Jeff, weaving through the crowds of travelers, squinted at William's rosy projections of the number of bottles he could be able to purchase in the future.",3,2,,,,0,1,1,1,,,,,0,17,17,17,,,,,,,,,,,,,,,,,,,,,,,,,,,,,,,1,10.901425985000003,,,,,,,,,,,,,,,,,,,,,,,,,,,,021819_p1,001,2019_Feb_18_1518,body_behavioural,3.0.3,60.000486603950385,
1,"Finally Jeff said, “I don’t know, we’re not coming from corporate vineyards, so gambling with sample shipments is the kind of risk we can’t necessarily make. ",3,3,,,,0,1,1,1,,,,,0,18,18,18,,,,,,,,,,,,,,,,,,,,,,,,,,,,,,,1,3.386491264999961,,,,,,,,,,,,,,,,,,,,,,,,,,,,021819_p1,001,2019_Feb_18_1518,body_behavioural,3.0.3,60.000486603950385,
1,"These corporate purchases would have to be huge and practically guaranteed, to offset the loss from selling sample shipments at this price.”",3,3,,,,0,1,1,1,,,,,0,19,19,19,,,,,,,,,,,,,,,,,,,,,,,,,,,,,,,1,2.519791762000011,,,,,,,,,,,,,,,,,,,,,,,,,,,,021819_p1,001,2019_Feb_18_1518,body_behavioural,3.0.3,60.000486603950385,
1,"They walked to the gates very slowly, barely registering the hubbub of the airport since they were so caught up in figuring out this deal before their flights left.",3,3,,,,0,1,1,1,,,,,0,20,20,20,,,,,,,,,,,,,,,,,,,,,,,,,,,,,,,9,4.234241977000011,,,,,,,,,,,,,,,,,,,,,,,,,,,,021819_p1,001,2019_Feb_18_1518,body_behavioural,3.0.3,60.000486603950385,
1,"At the end of their long walk, they got to Jeff’s gate first, which had begun boarding passengers.",3,3,,,,0,1,1,1,,,,,0,21,21,21,,,,,,,,,,,,,,,,,,,,,,,,,,,,,,,1,2.3533025499999667,,,,,,,,,,,,,,,,,,,,,,,,,,,,021819_p1,001,2019_Feb_18_1518,body_behavioural,3.0.3,60.000486603950385,
1,"In these last minutes, William and Jeff agreed on a compromise rate on the sample shipment, paying $400 for a $600 shipment, and they finalized the deal with a handshake. ",3,4,,,,0,1,1,1,,,,,0,22,22,22,,,,,,,,,,,,,,,,,,,,,,,,,,,,,,,1,8.15123757699996,,,,,,,,,,,,,,,,,,,,,,,,,,,,021819_p1,001,2019_Feb_18_1518,body_behavioural,3.0.3,60.000486603950385,
1,"“Well, what a tremendous pleasure to do business with you and to have all this work out,” William said.",3,4,,,,0,1,1,1,,,,,0,23,23,23,,,,,,,,,,,,,,,,,,,,,,,,,,,,,,,1,1.5697147200000359,,,,,,,,,,,,,,,,,,,,,,,,,,,,021819_p1,001,2019_Feb_18_1518,body_behavioural,3.0.3,60.000486603950385,
1,"Jeff nodded enthusiastically, and responded, “Likewise, this has been great.  ",3,4,,,,0,1,1,1,,,,,0,24,24,24,,,,,,,,,,,,,,,,,,,,,,,,,,,,,,,1,1.7508186499999852,,,,,,,,,,,,,,,,,,,,,,,,,,,,021819_p1,001,2019_Feb_18_1518,body_behavioural,3.0.3,60.000486603950385,
1,I'll let you get to your gate.,3,4,,,,0,1,1,1,,,,,0,25,25,25,,,,,,,,,,,,,,,,,,,,,,,,,,,,,,,1,1.3530203520000441,,,,,,,,,,,,,,,,,,,,,,,,,,,,021819_p1,001,2019_Feb_18_1518,body_behavioural,3.0.3,60.000486603950385,
1,"Once we’re both back on the ground, we can get all the shipments in the books.”",3,4,,,,0,1,1,1,,,,,0,26,26,26,,,,,,,,,,,,,,,,,,,,,,,,,,,,,,,1,1.3197399570000243,,,,,,,,,,,,,,,,,,,,,,,,,,,,021819_p1,001,2019_Feb_18_1518,body_behavioural,3.0.3,60.000486603950385,
1,They parted with a wave as Jeff scanned his boarding pass at the gate. ,3,4,,,,0,1,1,1,,,,,0,27,27,27,,,,,,,,,,,,,,,,,,,,,,,,,,,,,,,1,1.2530826650000222,,,,,,,,,,,,,,,,,,,,,,,,,,,,021819_p1,001,2019_Feb_18_1518,body_behavioural,3.0.3,60.000486603950385,
1,He walked onto the plane and sat down in his aisle seat in the business class section.,4,4,,,,0,1,1,1,,,,,0,28,28,28,,,,,,,,,,,,,,,,,,,,,,,,,,,,,,,9,13.170547332000012,,,,,,,,,,,,,,,,,,,,,,,,,,,,021819_p1,001,2019_Feb_18_1518,body_behavioural,3.0.3,60.000486603950385,
1,He typed out a quick email on his phone letting the rest of his team know the good news. ,4,4,,,,0,1,1,1,,,,,0,29,29,29,,,,,,,,,,,,,,,,,,,,,,,,,,,,,,,1,1.7198538270000086,,,,,,,,,,,,,,,,,,,,,,,,,,,,021819_p1,001,2019_Feb_18_1518,body_behavioural,3.0.3,60.000486603950385,
1,"When the flight attendant came by, he ordered a glass of champagne to celebrate.",4,4,,,,0,1,1,1,,,,,0,30,30,30,,,,,,,,,,,,,,,,,,,,,,,,,,,,,,,1,5.453046279999967,,,,,,,,,,,,,,,,,,,,,,,,,,,,021819_p1,001,2019_Feb_18_1518,body_behavioural,3.0.3,60.000486603950385,
1,,,,,,,0,1,1,1,,,,,,,,,,,,,,,,,,,,,,,,,,,,,,,,,,,,,,,,,,,,,,,,,,,,,,,,,,,,,,,,,,,,021819_p1,001,2019_Feb_18_1518,body_behavioural,3.0.3,60.000486603950385,
2,,,,,,,0,2,2,2,0,0,0,0,,,,,,,,,,,,,,,,,,,,,,,,,,,,,space,1.253079667999998,space,0.8030230900000106,space,0.619555035000019,,,,,,,,,,,,,,,,,,,,,,,,,,,,,,021819_p1,001,2019_Feb_18_1518,body_behavioural,3.0.3,60.000486603950385,
2,,,,,,,0,2,2,2,1,0,1,0,,,,,,,,,,,,,,,,,,,,,,,,,,,,,,,,,space,0.8529703250000011,,,,,,,,,,,,,,,,,,,,,,,,,,,,,,021819_p1,001,2019_Feb_18_1518,body_behavioural,3.0.3,60.000486603950385,
2,"Leon and  Ariana hurried into the classroom at the same time, and Leon did a double-take when he saw her. ",1,1,,,,0,2,2,2,,,,,0,0,0,0,,,,,,,,,,,,,,,,,,,,,,,,,,,,,,,1,7.403771595000023,,,,,,,,,,,,,,,,,,,,,,,,,,,,021819_p1,001,2019_Feb_18_1518,body_behavioural,3.0.3,60.000486603950385,
2,"This was his first day after transferring to this university, and he had assumed that he wouldn’t know anyone on campus, but he couldn't shake the nagging feeling  that he had seen her somewhere before. ",1,1,,,,0,2,2,2,,,,,0,1,1,1,,,,,,,,,,,,,,,,,,,,,,,,,,,,,,,1,3.219888400000002,,,,,,,,,,,,,,,,,,,,,,,,,,,,021819_p1,001,2019_Feb_18_1518,body_behavioural,3.0.3,60.000486603950385,
2,"They were both a bit late, so they quickly slid into seats next to each other in the back of the small classroom.",1,1,,,,0,2,2,2,,,,,0,2,2,2,,,,,,,,,,,,,,,,,,,,,,,,,,,,,,,1,10.486938950000024,,,,,,,,,,,,,,,,,,,,,,,,,,,,021819_p1,001,2019_Feb_18_1518,body_behavioural,3.0.3,60.000486603950385,
2,"This room was usually used for small meetings, but had been rearranged with the table pushed to the side and chairs set up in rows to face the projector screen. ",1,1,,,,0,2,2,2,,,,,0,3,3,3,,,,,,,,,,,,,,,,,,,,,,,,,,,,,,,1,3.5364697320000005,,,,,,,,,,,,,,,,,,,,,,,,,,,,021819_p1,001,2019_Feb_18_1518,body_behavioural,3.0.3,60.000486603950385,
2,"There were no windows in the room, since they were down in the sub-basement of the history department.",1,1,,,,0,2,2,2,,,,,0,4,4,4,,,,,,,,,,,,,,,,,,,,,,,,,,,,,,,1,1.969797017000019,,,,,,,,,,,,,,,,,,,,,,,,,,,,021819_p1,001,2019_Feb_18_1518,body_behavioural,3.0.3,60.000486603950385,
2,"Leon, trying to figure out where he had seen her before, could not stop looking over at Ariana.",1,1,,,,0,2,2,2,,,,,0,5,5,5,,,,,,,,,,,,,,,,,,,,,,,,,,,,,,,9,2.336549864999995,,,,,,,,,,,,,,,,,,,,,,,,,,,,021819_p1,001,2019_Feb_18_1518,body_behavioural,3.0.3,60.000486603950385,
2,Ariana was oblivious to Leon’s gaze and was only focused on getting ready for class. ,1,1,,,,0,2,2,2,,,,,0,6,6,6,,,,,,,,,,,,,,,,,,,,,,,,,,,,,,,1,1.6362326700000267,,,,,,,,,,,,,,,,,,,,,,,,,,,,021819_p1,001,2019_Feb_18_1518,body_behavioural,3.0.3,60.000486603950385,
2,"“Good afternoon class,” the professor began.",2,1,,,,0,2,2,2,,,,,0,7,7,7,,,,,,,,,,,,,,,,,,,,,,,,,,,,,,,9,1.336383292999983,,,,,,,,,,,,,,,,,,,,,,,,,,,,021819_p1,001,2019_Feb_18_1518,body_behavioural,3.0.3,60.000486603950385,
2,“Welcome to Egyptian Cultural Studies. ,2,1,,,,0,2,2,2,,,,,0,8,8,8,,,,,,,,,,,,,,,,,,,,,,,,,,,,,,,1,1.5360428050000223,,,,,,,,,,,,,,,,,,,,,,,,,,,,021819_p1,001,2019_Feb_18_1518,body_behavioural,3.0.3,60.000486603950385,
2,"Today we will be talking about mummification, one of the most famous and often misunderstood customs in ancient Egyptian society.”",2,1,,,,0,2,2,2,,,,,0,9,9,9,,,,,,,,,,,,,,,,,,,,,,,,,,,,,,,1,2.803885107000042,,,,,,,,,,,,,,,,,,,,,,,,,,,,021819_p1,001,2019_Feb_18_1518,body_behavioural,3.0.3,60.000486603950385,
2,Leon pulled out his notebook and tried to concentrate on the class.,2,1,,,,0,2,2,2,,,,,0,10,10,10,,,,,,,,,,,,,,,,,,,,,,,,,,,,,,,9,3.8199780570000144,,,,,,,,,,,,,,,,,,,,,,,,,,,,021819_p1,001,2019_Feb_18_1518,body_behavioural,3.0.3,60.000486603950385,
2,Within a few minutes though he found his attention wandering back to Ariana.,2,1,,,,0,2,2,2,,,,,0,11,11,11,,,,,,,,,,,,,,,,,,,,,,,,,,,,,,,1,1.453019749999953,,,,,,,,,,,,,,,,,,,,,,,,,,,,021819_p1,001,2019_Feb_18_1518,body_behavioural,3.0.3,60.000486603950385,
2,"He decided to do something about his hunch so he ripped off a corner of a page in his notebook, wrote a note, and set it on her desk.",2,1,,,,0,2,2,2,,,,,0,12,12,12,,,,,,,,,,,,,,,,,,,,,,,,,,,,,,,1,4.119959386999994,,,,,,,,,,,,,,,,,,,,,,,,,,,,021819_p1,001,2019_Feb_18_1518,body_behavioural,3.0.3,60.000486603950385,
2,"“Hi, sorry to distract you from mummies, but you look really familiar," it read.",2,2,,,,0,2,2,2,,,,,0,13,13,13,,,,,,,,,,,,,,,,,,,,,,,,,,,,,,,1,2.534187717000009,,,,,,,,,,,,,,,,,,,,,,,,,,,,021819_p1,001,2019_Feb_18_1518,body_behavioural,3.0.3,60.000486603950385,
2,It continued: “Do I know you from somewhere?”,2,2,,,,0,2,2,2,,,,,0,14,14,14,,,,,,,,,,,,,,,,,,,,,,,,,,,,,,,1,1.1529346449999593,,,,,,,,,,,,,,,,,,,,,,,,,,,,021819_p1,001,2019_Feb_18_1518,body_behavioural,3.0.3,60.000486603950385,
2,"She looked at the note with surprise, and then turned to notice Leon for the first time. ",2,2,,,,0,2,2,2,,,,,0,15,15,15,,,,,,,,,,,,,,,,,,,,,,,,,,,,,,,1,1.3864153450000458,,,,,,,,,,,,,,,,,,,,,,,,,,,,021819_p1,001,2019_Feb_18_1518,body_behavioural,3.0.3,60.000486603950385,
2,"She instantly liked him when she saw him; he had very soft eyes and sharp features, a combination that made him seem  trustworthy and genuine.",2,2,,,,0,2,2,2,,,,,0,16,16,16,,,,,,,,,,,,,,,,,,,,,,,,,,,,,,,9,4.936682030000043,,,,,,,,,,,,,,,,,,,,,,,,,,,,021819_p1,001,2019_Feb_18_1518,body_behavioural,3.0.3,60.000486603950385,
2,He smiled at her and she flashed him a smile back.,2,2,,,,0,2,2,2,,,,,0,17,17,17,,,,,,,,,,,,,,,,,,,,,,,,,,,,,,,1,3.4200335670000186,,,,,,,,,,,,,,,,,,,,,,,,,,,,021819_p1,001,2019_Feb_18_1518,body_behavioural,3.0.3,60.000486603950385,
2,Then she turned the note over to the back and started to write a reply.,2,2,,,,0,2,2,2,,,,,0,18,18,18,,,,,,,,,,,,,,,,,,,,,,,,,,,,,,,1,7.586924832000022,,,,,,,,,,,,,,,,,,,,,,,,,,,,021819_p1,001,2019_Feb_18_1518,body_behavioural,3.0.3,60.000486603950385,
2,"Meanwhile the professor continued, “One may well question why the ancient Egyptians spent so much time and effort on their funerary practices.",3,2,,,,0,2,2,2,,,,,0,19,19,19,,,,,,,,,,,,,,,,,,,,,,,,,,,,,,,9,6.370413099999951,,,,,,,,,,,,,,,,,,,,,,,,,,,,021819_p1,001,2019_Feb_18_1518,body_behavioural,3.0.3,60.000486603950385,
2,"Not only was the mummification process itself a complicated affair, but there were also elaborate rituals before, during, and after death.",3,2,,,,0,2,2,2,,,,,0,20,20,20,,,,,,,,,,,,,,,,,,,,,,,,,,,,,,,1,1.4697994350000272,,,,,,,,,,,,,,,,,,,,,,,,,,,,021819_p1,001,2019_Feb_18_1518,body_behavioural,3.0.3,60.000486603950385,
2,The practice required teams of experts with years of training and took a total of 70 days to complete.” ,3,2,,,,0,2,2,2,,,,,0,21,21,21,,,,,,,,,,,,,,,,,,,,,,,,,,,,,,,1,1.1863495220000004,,,,,,,,,,,,,,,,,,,,,,,,,,,,021819_p1,001,2019_Feb_18_1518,body_behavioural,3.0.3,60.000486603950385,
2,"Ariana passed the note back to Leon, and she had replied, “No, but maybe my twin and I were separated at birth.”",3,2,,,,0,2,2,2,,,,,0,22,22,22,,,,,,,,,,,,,,,,,,,,,,,,,,,,,,,9,5.620180052000023,,,,,,,,,,,,,,,,,,,,,,,,,,,,021819_p1,001,2019_Feb_18_1518,body_behavioural,3.0.3,60.000486603950385,
2,They passed notes back and forth the whole class like they were back in high school.,3,2,,,,0,2,2,2,,,,,0,23,23,23,,,,,,,,,,,,,,,,,,,,,,,,,,,,,,,1,1.1529555400001072,,,,,,,,,,,,,,,,,,,,,,,,,,,,021819_p1,001,2019_Feb_18_1518,body_behavioural,3.0.3,60.000486603950385,
2,"Near the end of the lecture, Leon wrote, “Would you like to go to dinner tonight?” ",3,3,,,,0,2,2,2,,,,,0,24,24,24,,,,,,,,,,,,,,,,,,,,,,,,,,,,,,,1,1.403123834999974,,,,,,,,,,,,,,,,,,,,,,,,,,,,021819_p1,001,2019_Feb_18_1518,body_behavioural,3.0.3,60.000486603950385,
2,"Ariana read the note, and looked at him and nodded her head",3,3,,,,0,2,2,2,,,,,0,25,25,25,,,,,,,,,,,,,,,,,,,,,,,,,,,,,,,1,1.8031508369999756,,,,,,,,,,,,,,,,,,,,,,,,,,,,021819_p1,001,2019_Feb_18_1518,body_behavioural,3.0.3,60.000486603950385,
2,"She wrote back on the slip of paper, “Pick me up at 6 in front of Patton Hall.”",3,3,,,,0,2,2,2,,,,,0,26,26,26,,,,,,,,,,,,,,,,,,,,,,,,,,,,,,,1,1.8364603949999037,,,,,,,,,,,,,,,,,,,,,,,,,,,,021819_p1,001,2019_Feb_18_1518,body_behavioural,3.0.3,60.000486603950385,
2,Then the professor ended the lecture and announced to the class that they would have their first quiz next class on Friday on mummification. ,4,3,,,,0,2,2,2,,,,,0,27,27,27,,,,,,,,,,,,,,,,,,,,,,,,,,,,,,,1,3.4198523820000446,,,,,,,,,,,,,,,,,,,,,,,,,,,,021819_p1,001,2019_Feb_18_1518,body_behavioural,3.0.3,60.000486603950385,
2,"Everyone packed up and started heading out, as well as Sophie and Leon.",4,3,,,,0,2,2,2,,,,,0,28,28,28,,,,,,,,,,,,,,,,,,,,,,,,,,,,,,,1,1.570174800000018,,,,,,,,,,,,,,,,,,,,,,,,,,,,021819_p1,001,2019_Feb_18_1518,body_behavioural,3.0.3,60.000486603950385,
2,"They approached each other smiling, and Leon said, “Well it was great to meet you, again, or maybe not again, but regardless it was great to meet you.” ",4,3,,,,0,2,2,2,,,,,0,29,29,29,,,,,,,,,,,,,,,,,,,,,,,,,,,,,,,1,2.553022520000013,,,,,,,,,,,,,,,,,,,,,,,,,,,,021819_p1,001,2019_Feb_18_1518,body_behavioural,3.0.3,60.000486603950385,
2,"She replied, “Yes, it was.",4,4,,,,0,2,2,2,,,,,0,30,30,30,,,,,,,,,,,,,,,,,,,,,,,,,,,,,,,1,1.0696762320000062,,,,,,,,,,,,,,,,,,,,,,,,,,,,021819_p1,001,2019_Feb_18_1518,body_behavioural,3.0.3,60.000486603950385,
2,"I have to run to my next class, but I’ll see you later tonight.” ",4,4,,,,0,2,2,2,,,,,0,31,31,31,,,,,,,,,,,,,,,,,,,,,,,,,,,,,,,1,1.0861073500000202,,,,,,,,,,,,,,,,,,,,,,,,,,,,021819_p1,001,2019_Feb_18_1518,body_behavioural,3.0.3,60.000486603950385,
2,"She waved as they parted ways outside of the door of the classroom, and Leon was still trying to figure out where he had seen her before as he watched her go. ",4,4,,,,0,2,2,2,,,,,0,32,32,32,,,,,,,,,,,,,,,,,,,,,,,,,,,,,,,1,7.486439092000069,,,,,,,,,,,,,,,,,,,,,,,,,,,,021819_p1,001,2019_Feb_18_1518,body_behavioural,3.0.3,60.000486603950385,
2,,,,,,,0,2,2,2,,,,,,,,,,,,,,,,,,,,,,,,,,,,,,,,,,,,,,,,,,,,,,,,,,,,,,,,,,,,,,,,,,,,021819_p1,001,2019_Feb_18_1518,body_behavioural,3.0.3,60.000486603950385,
3,,,,,,,0,3,3,3,0,0,0,0,,,,,,,,,,,,,,,,,,,,,,,,,,,,,space,1.1363804630000232,space,0.56970186500007,space,0.5198406719999866,,,,,,,,,,,,,,,,,,,,,,,,,,,,,,021819_p1,001,2019_Feb_18_1518,body_behavioural,3.0.3,60.000486603950385,
3,"Alex was a distracted, sweaty mess as he walked into the grocery store with Chloe; he was hoping that she wouldn't suspect that he was about to propose.",1,1,,,,0,3,3,3,,,,,0,0,0,0,,,,,,,,,,,,,,,,,,,,,,,,,,,,,,,1,6.036491711999929,,,,,,,,,,,,,,,,,,,,,,,,,,,,021819_p1,001,2019_Feb_18_1518,body_behavioural,3.0.3,60.000486603950385,
3,"The grocery store was brightly lit; this was one of the nicest grocery stores in Atlanta, and sunlight poured in through the glass walls.",1,1,,,,0,3,3,3,,,,,0,1,1,1,,,,,,,,,,,,,,,,,,,,,,,,,,,,,,,9,4.603408652999974,,,,,,,,,,,,,,,,,,,,,,,,,,,,021819_p1,001,2019_Feb_18_1518,body_behavioural,3.0.3,60.000486603950385,
3,"The atmosphere was also bright because tomorrow was Thanksgiving, and most shoppers had carts piled high with turkey, stuffing, and pies.",1,1,,,,0,3,3,3,,,,,0,2,2,2,,,,,,,,,,,,,,,,,,,,,,,,,,,,,,,1,2.2870483749999266,,,,,,,,,,,,,,,,,,,,,,,,,,,,021819_p1,001,2019_Feb_18_1518,body_behavioural,3.0.3,60.000486603950385,
3,Alex wanted to propose to Chloe here because he knew she would not suspect it at all. ,1,1,,,,0,3,3,3,,,,,0,3,3,3,,,,,,,,,,,,,,,,,,,,,,,,,,,,,,,1,3.7532836849999285,,,,,,,,,,,,,,,,,,,,,,,,,,,,021819_p1,001,2019_Feb_18_1518,body_behavioural,3.0.3,60.000486603950385,
3,"Chloe loved surprises, and Alex loved the look on Chloe’s face when she was surprised. ",1,1,,,,0,3,3,3,,,,,0,4,4,4,,,,,,,,,,,,,,,,,,,,,,,,,,,,,,,1,1.3863509919999615,,,,,,,,,,,,,,,,,,,,,,,,,,,,021819_p1,001,2019_Feb_18_1518,body_behavioural,3.0.3,60.000486603950385,
3,"“Alex, we need to get some cranberry sauce, so let’s go there first.” ",2,1,,,,0,3,3,3,,,,,0,5,5,5,,,,,,,,,,,,,,,,,,,,,,,,,,,,,,,9,1.886187163000045,,,,,,,,,,,,,,,,,,,,,,,,,,,,021819_p1,001,2019_Feb_18_1518,body_behavioural,3.0.3,60.000486603950385,
3,She led the way to the section of the store that held the canned foods. ,2,1,,,,0,3,3,3,,,,,0,6,6,6,,,,,,,,,,,,,,,,,,,,,,,,,,,,,,,1,4.486471970000025,,,,,,,,,,,,,,,,,,,,,,,,,,,,021819_p1,001,2019_Feb_18_1518,body_behavioural,3.0.3,60.000486603950385,
3,Alex looked like he was going to throw up. ,2,1,,,,0,3,3,3,,,,,0,7,7,7,,,,,,,,,,,,,,,,,,,,,,,,,,,,,,,1,2.5031030970000074,,,,,,,,,,,,,,,,,,,,,,,,,,,,021819_p1,001,2019_Feb_18_1518,body_behavioural,3.0.3,60.000486603950385,
3,"As they were walking there, Chloe asked him, “Is everything okay, dear?”",2,1,,,,0,3,3,3,,,,,0,8,8,8,,,,,,,,,,,,,,,,,,,,,,,,,,,,,,,1,9.134616606999998,,,,,,,,,,,,,,,,,,,,,,,,,,,,021819_p1,001,2019_Feb_18_1518,body_behavioural,3.0.3,60.000486603950385,
3,"“Oh yeah, for sure,” he said, unconvincingly. ",2,1,,,,0,3,3,3,,,,,0,9,9,9,,,,,,,,,,,,,,,,,,,,,,,,,,,,,,,1,0.8530444369999941,,,,,,,,,,,,,,,,,,,,,,,,,,,,021819_p1,001,2019_Feb_18_1518,body_behavioural,3.0.3,60.000486603950385,
3,"She chuckled, “Alright, whatever you say.” ",2,1,,,,0,3,3,3,,,,,0,10,10,10,,,,,,,,,,,,,,,,,,,,,,,,,,,,,,,1,1.0507206350000615,,,,,,,,,,,,,,,,,,,,,,,,,,,,021819_p1,001,2019_Feb_18_1518,body_behavioural,3.0.3,60.000486603950385,
3,"She was mulling over the different cans of cranberry sauce, and Alex knew she would be a while.",2,1,,,,0,3,3,3,,,,,0,11,11,11,,,,,,,,,,,,,,,,,,,,,,,,,,,,,,,1,2.8699389549999523,,,,,,,,,,,,,,,,,,,,,,,,,,,,021819_p1,001,2019_Feb_18_1518,body_behavioural,3.0.3,60.000486603950385,
3,He turned his back to her and pulled out the ring.,2,2,,,,0,3,3,3,,,,,0,12,12,12,,,,,,,,,,,,,,,,,,,,,,,,,,,,,,,1,2.319796370000063,,,,,,,,,,,,,,,,,,,,,,,,,,,,021819_p1,001,2019_Feb_18_1518,body_behavioural,3.0.3,60.000486603950385,
3,He had been saving up for this for a while. ,2,2,,,,0,3,3,3,,,,,0,13,13,13,,,,,,,,,,,,,,,,,,,,,,,,,,,,,,,1,0.9029695369999899,,,,,,,,,,,,,,,,,,,,,,,,,,,,021819_p1,001,2019_Feb_18_1518,body_behavioural,3.0.3,60.000486603950385,
3,The ring had three large diamonds with smaller ones encircling each one: all of them sparkled in the light streaming in from the windows. ,2,2,,,,0,3,3,3,,,,,0,14,14,14,,,,,,,,,,,,,,,,,,,,,,,,,,,,,,,9,2.469767035000018,,,,,,,,,,,,,,,,,,,,,,,,,,,,021819_p1,001,2019_Feb_18_1518,body_behavioural,3.0.3,60.000486603950385,
3,"“Alex?”, Chloe said suspiciously. ",2,2,,,,0,3,3,3,,,,,0,15,15,15,,,,,,,,,,,,,,,,,,,,,,,,,,,,,,,1,1.4840571199999886,,,,,,,,,,,,,,,,,,,,,,,,,,,,021819_p1,001,2019_Feb_18_1518,body_behavioural,3.0.3,60.000486603950385,
3,He closed the box and whipped around. “Yes?”,2,2,,,,0,3,3,3,,,,,0,16,16,16,,,,,,,,,,,,,,,,,,,,,,,,,,,,,,,1,3.486570870000037,,,,,,,,,,,,,,,,,,,,,,,,,,,,021819_p1,001,2019_Feb_18_1518,body_behavioural,3.0.3,60.000486603950385,
3,“Do we need anything else?”,2,2,,,,0,3,3,3,,,,,0,17,17,17,,,,,,,,,,,,,,,,,,,,,,,,,,,,,,,1,0.9506845469999234,,,,,,,,,,,,,,,,,,,,,,,,,,,,021819_p1,001,2019_Feb_18_1518,body_behavioural,3.0.3,60.000486603950385,
3,"“Yeah I don’t know, honey.” ",2,2,,,,0,3,3,3,,,,,0,18,18,18,,,,,,,,,,,,,,,,,,,,,,,,,,,,,,,1,1.0693083969999861,,,,,,,,,,,,,,,,,,,,,,,,,,,,021819_p1,001,2019_Feb_18_1518,body_behavioural,3.0.3,60.000486603950385,
3,They went to the checkout and waited in a long line.,3,2,,,,0,3,3,3,,,,,0,19,19,19,,,,,,,,,,,,,,,,,,,,,,,,,,,,,,,9,4.952983785000015,,,,,,,,,,,,,,,,,,,,,,,,,,,,021819_p1,001,2019_Feb_18_1518,body_behavioural,3.0.3,60.000486603950385,
3,Alex was staring intensely off into the distance. ,3,2,,,,0,3,3,3,,,,,0,20,20,20,,,,,,,,,,,,,,,,,,,,,,,,,,,,,,,1,1.7674400699999069,,,,,,,,,,,,,,,,,,,,,,,,,,,,021819_p1,001,2019_Feb_18_1518,body_behavioural,3.0.3,60.000486603950385,
3,Chloe was watching him trying to decide whether he looked scared or confused. ,3,2,,,,0,3,3,3,,,,,0,21,21,21,,,,,,,,,,,,,,,,,,,,,,,,,,,,,,,1,1.352660116999914,,,,,,,,,,,,,,,,,,,,,,,,,,,,021819_p1,001,2019_Feb_18_1518,body_behavioural,3.0.3,60.000486603950385,
3,Alex looked over at their friends who were waiting by the entrance of the grocery store.,3,2,,,,0,3,3,3,,,,,0,22,22,22,,,,,,,,,,,,,,,,,,,,,,,,,,,,,,,1,3.8370354649999854,,,,,,,,,,,,,,,,,,,,,,,,,,,,021819_p1,001,2019_Feb_18_1518,body_behavioural,3.0.3,60.000486603950385,
3,They got the message and walked over slowly. ,3,2,,,,0,3,3,3,,,,,0,23,23,23,,,,,,,,,,,,,,,,,,,,,,,,,,,,,,,1,6.6030796669999745,,,,,,,,,,,,,,,,,,,,,,,,,,,,021819_p1,001,2019_Feb_18_1518,body_behavioural,3.0.3,60.000486603950385,
3,"“Honey,” he said to get her attention, “Look, Chloe, I love you so much and I want to be with you forever, I can’t imagine a day without you.”",3,2,,,,0,3,3,3,,,,,0,24,24,24,,,,,,,,,,,,,,,,,,,,,,,,,,,,,,,9,2.686437201999979,,,,,,,,,,,,,,,,,,,,,,,,,,,,021819_p1,001,2019_Feb_18_1518,body_behavioural,3.0.3,60.000486603950385,
3,"“Awww, Alex, me too.”",3,2,,,,0,3,3,3,,,,,0,25,25,25,,,,,,,,,,,,,,,,,,,,,,,,,,,,,,,1,2.4031024650000745,,,,,,,,,,,,,,,,,,,,,,,,,,,,021819_p1,001,2019_Feb_18_1518,body_behavioural,3.0.3,60.000486603950385,
3,"Alex got down on one knee, and Chloe gasped. ",3,3,,,,0,3,3,3,,,,,0,26,26,26,,,,,,,,,,,,,,,,,,,,,,,,,,,,,,,1,2.6365942119999772,,,,,,,,,,,,,,,,,,,,,,,,,,,,021819_p1,001,2019_Feb_18_1518,body_behavioural,3.0.3,60.000486603950385,
3,"“I am serious, Chloe. Will you marry me?”",3,3,,,,0,3,3,3,,,,,0,27,27,27,,,,,,,,,,,,,,,,,,,,,,,,,,,,,,,1,1.5531263749999198,,,,,,,,,,,,,,,,,,,,,,,,,,,,021819_p1,001,2019_Feb_18_1518,body_behavioural,3.0.3,60.000486603950385,
3,"The people in line around them realized what was happening, stepped back, and started taking pictures.",3,3,,,,0,3,3,3,,,,,0,28,28,28,,,,,,,,,,,,,,,,,,,,,,,,,,,,,,,9,3.086554324999952,,,,,,,,,,,,,,,,,,,,,,,,,,,,021819_p1,001,2019_Feb_18_1518,body_behavioural,3.0.3,60.000486603950385,
3,Their friends were no longer trying to hide and were videotaping and taking pictures too. ,3,3,,,,0,3,3,3,,,,,0,29,29,29,,,,,,,,,,,,,,,,,,,,,,,,,,,,,,,1,2.6012841200000594,,,,,,,,,,,,,,,,,,,,,,,,,,,,021819_p1,001,2019_Feb_18_1518,body_behavioural,3.0.3,60.000486603950385,
3,Chloe looked around and laughed. ,3,3,,,,0,3,3,3,,,,,0,30,30,30,,,,,,,,,,,,,,,,,,,,,,,,,,,,,,,1,2.600808241999971,,,,,,,,,,,,,,,,,,,,,,,,,,,,021819_p1,001,2019_Feb_18_1518,body_behavioural,3.0.3,60.000486603950385,
3,"“Yes!” she shouted, and jumped to embrace Alex in a hug. ",3,4,,,,0,3,3,3,,,,,0,31,31,31,,,,,,,,,,,,,,,,,,,,,,,,,,,,,,,1,1.1527554100000543,,,,,,,,,,,,,,,,,,,,,,,,,,,,021819_p1,001,2019_Feb_18_1518,body_behavioural,3.0.3,60.000486603950385,
3,Everyone in line clapped and cheered. ,3,4,,,,0,3,3,3,,,,,0,32,32,32,,,,,,,,,,,,,,,,,,,,,,,,,,,,,,,1,1.4031873100000212,,,,,,,,,,,,,,,,,,,,,,,,,,,,021819_p1,001,2019_Feb_18_1518,body_behavioural,3.0.3,60.000486603950385,
3,"Alex put the ring on Chloe’s finger, who was nearly spinning in excitement.",3,4,,,,0,3,3,3,,,,,0,33,33,33,,,,,,,,,,,,,,,,,,,,,,,,,,,,,,,9,3.236562436999975,,,,,,,,,,,,,,,,,,,,,,,,,,,,021819_p1,001,2019_Feb_18_1518,body_behavioural,3.0.3,60.000486603950385,
3,"“I love it, oh my gosh, it’s so glittery!",3,4,,,,0,3,3,3,,,,,0,34,34,34,,,,,,,,,,,,,,,,,,,,,,,,,,,,,,,1,1.0029725399999734,,,,,,,,,,,,,,,,,,,,,,,,,,,,021819_p1,001,2019_Feb_18_1518,body_behavioural,3.0.3,60.000486603950385,
3,Look at this!” she said as she shoved her hand in a stranger’s face.,3,4,,,,0,3,3,3,,,,,0,35,35,35,,,,,,,,,,,,,,,,,,,,,,,,,,,,,,,1,2.1365526969999564,,,,,,,,,,,,,,,,,,,,,,,,,,,,021819_p1,001,2019_Feb_18_1518,body_behavioural,3.0.3,60.000486603950385,
3,Her friends came over and hugged them.,3,4,,,,0,3,3,3,,,,,0,36,36,36,,,,,,,,,,,,,,,,,,,,,,,,,,,,,,,1,2.7696084250000013,,,,,,,,,,,,,,,,,,,,,,,,,,,,021819_p1,001,2019_Feb_18_1518,body_behavioural,3.0.3,60.000486603950385,
3,The other people let them move up to the front of the checkout line. ,3,4,,,,0,3,3,3,,,,,0,37,37,37,,,,,,,,,,,,,,,,,,,,,,,,,,,,,,,1,4.452970679999908,,,,,,,,,,,,,,,,,,,,,,,,,,,,021819_p1,001,2019_Feb_18_1518,body_behavioural,3.0.3,60.000486603950385,
3,The cashier congratulated them and scanned their cranberry sauce. ,4,4,,,,0,3,3,3,,,,,0,38,38,38,,,,,,,,,,,,,,,,,,,,,,,,,,,,,,,1,1.2196786250000287,,,,,,,,,,,,,,,,,,,,,,,,,,,,021819_p1,001,2019_Feb_18_1518,body_behavioural,3.0.3,60.000486603950385,
3,The total came to $4 and Chloe paid in cash while getting distracted and staring at the ring as she pulled out the bills.,4,4,,,,0,3,3,3,,,,,0,39,39,39,,,,,,,,,,,,,,,,,,,,,,,,,,,,,,,1,7.386795634999999,,,,,,,,,,,,,,,,,,,,,,,,,,,,021819_p1,001,2019_Feb_18_1518,body_behavioural,3.0.3,60.000486603950385,
3,"Alex grabbed the cans, and they walked out with their friends bunched around them. ",4,4,,,,0,3,3,3,,,,,0,40,40,40,,,,,,,,,,,,,,,,,,,,,,,,,,,,,,,1,1.7696785220000493,,,,,,,,,,,,,,,,,,,,,,,,,,,,021819_p1,001,2019_Feb_18_1518,body_behavioural,3.0.3,60.000486603950385,
3,,,,,,,0,3,3,3,,,,,,,,,,,,,,,,,,,,,,,,,,,,,,,,,,,,,,,,,,,,,,,,,,,,,,,,,,,,,,,,,,,,021819_p1,001,2019_Feb_18_1518,body_behavioural,3.0.3,60.000486603950385,
4,,,,,,,0,4,4,4,0,0,0,0,,,,,,,,,,,,,,,,,,,,,,,,,,,,,space,1.7364218249999794,space,0.5862792220000301,space,0.502928857000029,,,,,,,,,,,,,,,,,,,,,,,,,,,,,,021819_p1,001,2019_Feb_18_1518,body_behavioural,3.0.3,60.000486603950385,
4,"Maria walked into lecture beside Henry, and she was mentally rehearsing what she should say to break up with him.",1,1,,,,0,4,4,4,,,,,0,0,0,0,,,,,,,,,,,,,,,,,,,,,,,,,,,,,,,1,7.434513240000001,,,,,,,,,,,,,,,,,,,,,,,,,,,,021819_p1,001,2019_Feb_18_1518,body_behavioural,3.0.3,60.000486603950385,
4,"She had been putting it off with a growing sense of dread, and now this lecture was the last chance before she had to leave campus. ",1,1,,,,0,4,4,4,,,,,0,1,1,1,,,,,,,,,,,,,,,,,,,,,,,,,,,,,,,1,3.4198065020000286,,,,,,,,,,,,,,,,,,,,,,,,,,,,021819_p1,001,2019_Feb_18_1518,body_behavioural,3.0.3,60.000486603950385,
4,"The lecture hall was large, with a stage for the lecturer in the front of the room, and tiered seats that stretched up in 15 stacked rows. ",1,1,,,,0,4,4,4,,,,,0,2,2,2,,,,,,,,,,,,,,,,,,,,,,,,,,,,,,,9,3.1842316920000258,,,,,,,,,,,,,,,,,,,,,,,,,,,,021819_p1,001,2019_Feb_18_1518,body_behavioural,3.0.3,60.000486603950385,
4,"The clock struck 3 pm, and Maria and Henry slid into neighboring seats near the back of the room.",1,1,,,,0,4,4,4,,,,,0,3,3,3,,,,,,,,,,,,,,,,,,,,,,,,,,,,,,,9,5.070016190000047,,,,,,,,,,,,,,,,,,,,,,,,,,,,021819_p1,001,2019_Feb_18_1518,body_behavioural,3.0.3,60.000486603950385,
4,"“Good afternoon, everybody,” said the professor, fiddling to connect his laptop with the projector.",2,1,,,,0,4,4,4,,,,,0,4,4,4,,,,,,,,,,,,,,,,,,,,,,,,,,,,,,,9,14.286912980000011,,,,,,,,,,,,,,,,,,,,,,,,,,,,021819_p1,001,2019_Feb_18_1518,body_behavioural,3.0.3,60.000486603950385,
4,“Welcome to week 4 of Intro to Ancient Philosophy. ,2,1,,,,0,4,4,4,,,,,0,5,5,5,,,,,,,,,,,,,,,,,,,,,,,,,,,,,,,1,0.6693017549999922,,,,,,,,,,,,,,,,,,,,,,,,,,,,021819_p1,001,2019_Feb_18_1518,body_behavioural,3.0.3,60.000486603950385,
4,Today we are going to continue our lecture on Aristotelian Philosophy.”,2,1,,,,0,4,4,4,,,,,0,6,6,6,,,,,,,,,,,,,,,,,,,,,,,,,,,,,,,1,0.9864096800000652,,,,,,,,,,,,,,,,,,,,,,,,,,,,021819_p1,001,2019_Feb_18_1518,body_behavioural,3.0.3,60.000486603950385,
4,Everyone in class pulled out their notebooks and settled in their seats as the slides appeared on the large front screens.,2,1,,,,0,4,4,4,,,,,0,7,7,7,,,,,,,,,,,,,,,,,,,,,,,,,,,,,,,1,1.986474401999999,,,,,,,,,,,,,,,,,,,,,,,,,,,,021819_p1,001,2019_Feb_18_1518,body_behavioural,3.0.3,60.000486603950385,
4,"“Henry,” Maria whispered.",2,1,,,,0,4,4,4,,,,,0,8,8,8,,,,,,,,,,,,,,,,,,,,,,,,,,,,,,,9,1.586451225000019,,,,,,,,,,,,,,,,,,,,,,,,,,,,021819_p1,001,2019_Feb_18_1518,body_behavioural,3.0.3,60.000486603950385,
4,"“Hmm?” he replied, distracted.",2,1,,,,0,4,4,4,,,,,0,9,9,9,,,,,,,,,,,,,,,,,,,,,,,,,,,,,,,1,0.6530391569999665,,,,,,,,,,,,,,,,,,,,,,,,,,,,021819_p1,001,2019_Feb_18_1518,body_behavioural,3.0.3,60.000486603950385,
4,"“Henry, I need to tell you something really important, and I don’t know when else I’ll have a chance to do it,” she said.",2,1,,,,0,4,4,4,,,,,0,10,10,10,,,,,,,,,,,,,,,,,,,,,,,,,,,,,,,1,1.7673668550000912,,,,,,,,,,,,,,,,,,,,,,,,,,,,021819_p1,001,2019_Feb_18_1518,body_behavioural,3.0.3,60.000486603950385,
4,"“Okay, what's up?”, he said, tilting his head close to her. ",2,1,,,,0,4,4,4,,,,,0,11,11,11,,,,,,,,,,,,,,,,,,,,,,,,,,,,,,,1,1.1029135649999944,,,,,,,,,,,,,,,,,,,,,,,,,,,,021819_p1,001,2019_Feb_18_1518,body_behavioural,3.0.3,60.000486603950385,
4," “Henry, I don’t think I can do long distance.",2,2,,,,0,4,4,4,,,,,0,12,12,12,,,,,,,,,,,,,,,,,,,,,,,,,,,,,,,1,1.034058630000004,,,,,,,,,,,,,,,,,,,,,,,,,,,,021819_p1,001,2019_Feb_18_1518,body_behavioural,3.0.3,60.000486603950385,
4,"I think what we have here is great, but I think it will be really hard when we are so far apart for such an extended period.",2,2,,,,0,4,4,4,,,,,0,13,13,13,,,,,,,,,,,,,,,,,,,,,,,,,,,,,,,1,1.619912290000002,,,,,,,,,,,,,,,,,,,,,,,,,,,,021819_p1,001,2019_Feb_18_1518,body_behavioural,3.0.3,60.000486603950385,
4,"I’m sorry I’m telling you now in lecture, but I'm out of time, and it’s taken me awhile to come to this decision.",2,2,,,,0,4,4,4,,,,,0,14,14,14,,,,,,,,,,,,,,,,,,,,,,,,,,,,,,,1,1.5527813119999792,,,,,,,,,,,,,,,,,,,,,,,,,,,,021819_p1,001,2019_Feb_18_1518,body_behavioural,3.0.3,60.000486603950385,
4,"I really think this is best, and who knows what will happen when I get back from my study abroad.” ",2,2,,,,0,4,4,4,,,,,0,15,15,15,,,,,,,,,,,,,,,,,,,,,,,,,,,,,,,1,1.1863453170000184,,,,,,,,,,,,,,,,,,,,,,,,,,,,021819_p1,001,2019_Feb_18_1518,body_behavioural,3.0.3,60.000486603950385,
4,"While Henry tried to think of what to say, he and Maria stared unlistening at the professor as he started the lecture, “First we will talk about Aristotle’s work, The Categories, which is about the kinds, or categories, of things that there are.",3,2,,,,0,4,4,4,,,,,0,16,16,16,,,,,,,,,,,,,,,,,,,,,,,,,,,,,,,9,4.919542867000018,,,,,,,,,,,,,,,,,,,,,,,,,,,,021819_p1,001,2019_Feb_18_1518,body_behavioural,3.0.3,60.000486603950385,
4,"In fact, our term category comes from this Aristotelian context.” ",3,2,,,,0,4,4,4,,,,,0,17,17,17,,,,,,,,,,,,,,,,,,,,,,,,,,,,,,,1,4.853748117000009,,,,,,,,,,,,,,,,,,,,,,,,,,,,021819_p1,001,2019_Feb_18_1518,body_behavioural,3.0.3,60.000486603950385,
4,"Henry felt horrible, like the wind had just been knocked out of him.",3,2,,,,0,4,4,4,,,,,0,18,18,18,,,,,,,,,,,,,,,,,,,,,,,,,,,,,,,9,1.8031313999999838,,,,,,,,,,,,,,,,,,,,,,,,,,,,021819_p1,001,2019_Feb_18_1518,body_behavioural,3.0.3,60.000486603950385,
4,"A few tears started to fall down his cheeks as he whispered back, “Maria, I think we can make it work.",3,3,,,,0,4,4,4,,,,,0,19,19,19,,,,,,,,,,,,,,,,,,,,,,,,,,,,,,,1,1.769715061999932,,,,,,,,,,,,,,,,,,,,,,,,,,,,021819_p1,001,2019_Feb_18_1518,body_behavioural,3.0.3,60.000486603950385,
4,I’ll come visit you.,3,3,,,,0,4,4,4,,,,,0,20,20,20,,,,,,,,,,,,,,,,,,,,,,,,,,,,,,,1,0.9696737169999778,,,,,,,,,,,,,,,,,,,,,,,,,,,,021819_p1,001,2019_Feb_18_1518,body_behavioural,3.0.3,60.000486603950385,
4,It will be fine.,3,3,,,,0,4,4,4,,,,,0,21,21,21,,,,,,,,,,,,,,,,,,,,,,,,,,,,,,,1,0.4696911070000169,,,,,,,,,,,,,,,,,,,,,,,,,,,,021819_p1,001,2019_Feb_18_1518,body_behavioural,3.0.3,60.000486603950385,
4,I don’t want to break up.”,3,3,,,,0,4,4,4,,,,,0,22,22,22,,,,,,,,,,,,,,,,,,,,,,,,,,,,,,,1,0.5674932069999841,,,,,,,,,,,,,,,,,,,,,,,,,,,,021819_p1,001,2019_Feb_18_1518,body_behavioural,3.0.3,60.000486603950385,
4,"Maria felt so guilty that she nearly gave in, but forced herself to hold her ground, knowing that this would make things much easier for both of them in the future.",3,3,,,,0,4,4,4,,,,,0,23,23,23,,,,,,,,,,,,,,,,,,,,,,,,,,,,,,,1,2.534200267000074,,,,,,,,,,,,,,,,,,,,,,,,,,,,021819_p1,001,2019_Feb_18_1518,body_behavioural,3.0.3,60.000486603950385,
4,"She gave his hand a squeeze but shook her head sadly, before turning back to her laptop and half-heartedly taking notes on the lecture which they sat through in painful silence.",3,3,,,,0,4,4,4,,,,,0,24,24,24,,,,,,,,,,,,,,,,,,,,,,,,,,,,,,,1,3.703386000000023,,,,,,,,,,,,,,,,,,,,,,,,,,,,021819_p1,001,2019_Feb_18_1518,body_behavioural,3.0.3,60.000486603950385,
4,"Finally, the professor was wrapping up, “This is what Aristotle means when he says that an animal’s or plant’s form rather than its matter is its nature. ",4,3,,,,0,4,4,4,,,,,0,25,25,25,,,,,,,,,,,,,,,,,,,,,,,,,,,,,,,9,2.3031754099999944,,,,,,,,,,,,,,,,,,,,,,,,,,,,021819_p1,001,2019_Feb_18_1518,body_behavioural,3.0.3,60.000486603950385,
4,"Alright class, that’s all for today. ",4,3,,,,0,4,4,4,,,,,0,26,26,26,,,,,,,,,,,,,,,,,,,,,,,,,,,,,,,1,1.1697565299999724,,,,,,,,,,,,,,,,,,,,,,,,,,,,021819_p1,001,2019_Feb_18_1518,body_behavioural,3.0.3,60.000486603950385,
4,"Remember the final exam is coming up next week on Tuesday on the Pre-Socratics, Plato, and Aristotle, so feel free to come by office hours to discuss if you have the inspiration.",4,3,,,,0,4,4,4,,,,,0,27,27,27,,,,,,,,,,,,,,,,,,,,,,,,,,,,,,,1,1.553141948000075,,,,,,,,,,,,,,,,,,,,,,,,,,,,021819_p1,001,2019_Feb_18_1518,body_behavioural,3.0.3,60.000486603950385,
4,"And if anyone is doing the 20 page paper in lieu of the final, that’s due next Tuesday as well.",4,3,,,,0,4,4,4,,,,,0,28,28,28,,,,,,,,,,,,,,,,,,,,,,,,,,,,,,,1,5.203350114999921,,,,,,,,,,,,,,,,,,,,,,,,,,,,021819_p1,001,2019_Feb_18_1518,body_behavioural,3.0.3,60.000486603950385,
4,"Have a good day, folks.” ",4,3,,,,0,4,4,4,,,,,0,29,29,29,,,,,,,,,,,,,,,,,,,,,,,,,,,,,,,1,0.6697593869999992,,,,,,,,,,,,,,,,,,,,,,,,,,,,021819_p1,001,2019_Feb_18_1518,body_behavioural,3.0.3,60.000486603950385,
4,"Maria and Henry packed up hurriedly, and slipped quickly out of the class before the rest of the crowd. ",4,3,,,,0,4,4,4,,,,,0,30,30,30,,,,,,,,,,,,,,,,,,,,,,,,,,,,,,,9,1.9031834500000286,,,,,,,,,,,,,,,,,,,,,,,,,,,,021819_p1,001,2019_Feb_18_1518,body_behavioural,3.0.3,60.000486603950385,
4,"They hugged outside, and both of them were crying. ",4,4,,,,0,4,4,4,,,,,0,31,31,31,,,,,,,,,,,,,,,,,,,,,,,,,,,,,,,1,3.5032425450000346,,,,,,,,,,,,,,,,,,,,,,,,,,,,021819_p1,001,2019_Feb_18_1518,body_behavioural,3.0.3,60.000486603950385,
4,"“Maria, I don’t want you to leave.",4,4,,,,0,4,4,4,,,,,0,32,32,32,,,,,,,,,,,,,,,,,,,,,,,,,,,,,,,1,0.7864612900000338,,,,,,,,,,,,,,,,,,,,,,,,,,,,021819_p1,001,2019_Feb_18_1518,body_behavioural,3.0.3,60.000486603950385,
4,I don’t want this to end. ,4,4,,,,0,4,4,4,,,,,0,33,33,33,,,,,,,,,,,,,,,,,,,,,,,,,,,,,,,1,0.6363979770000014,,,,,,,,,,,,,,,,,,,,,,,,,,,,021819_p1,001,2019_Feb_18_1518,body_behavioural,3.0.3,60.000486603950385,
4,"But if this is what you think is best, I can’t make it otherwise.” ",4,4,,,,0,4,4,4,,,,,0,34,34,34,,,,,,,,,,,,,,,,,,,,,,,,,,,,,,,1,0.750675871999988,,,,,,,,,,,,,,,,,,,,,,,,,,,,021819_p1,001,2019_Feb_18_1518,body_behavioural,3.0.3,60.000486603950385,
4,"They hugged one last time, and Maria ran off to get her things from her dorm.",4,4,,,,0,4,4,4,,,,,0,35,35,35,,,,,,,,,,,,,,,,,,,,,,,,,,,,,,,1,1.3698865170000545,,,,,,,,,,,,,,,,,,,,,,,,,,,,021819_p1,001,2019_Feb_18_1518,body_behavioural,3.0.3,60.000486603950385,
4,Henry sadly watched her go. ,4,4,,,,0,4,4,4,,,,,0,36,36,36,,,,,,,,,,,,,,,,,,,,,,,,,,,,,,,1,1.1027180669999552,,,,,,,,,,,,,,,,,,,,,,,,,,,,021819_p1,001,2019_Feb_18_1518,body_behavioural,3.0.3,60.000486603950385,
4,,,,,,,0,4,4,4,,,,,,,,,,,,,,,,,,,,,,,,,,,,,,,,,,,,,,,,,,,,,,,,,,,,,,,,,,,,,,,,,,,,021819_p1,001,2019_Feb_18_1518,body_behavioural,3.0.3,60.000486603950385,
5,,,,,,,0,5,5,5,0,0,0,0,,,,,,,,,,,,,,,,,,,,,,,,,,,,,space,1.0697287979999146,space,0.3528987250000455,space,0.43631177699990076,,,,,,,,,,,,,,,,,,,,,,,,,,,,,,021819_p1,001,2019_Feb_18_1518,body_behavioural,3.0.3,60.000486603950385,
5,"Sven and Isabel walked hurriedly from the cab into the Barcelona Airport after an incredible weekend with Isabel’s family, which had wiped away any doubts Sven had had about his decision to propose. ",1,1,,,,0,5,5,5,,,,,0,0,0,0,,,,,,,,,,,,,,,,,,,,,,,,,,,,,,,1,5.236828171999946,,,,,,,,,,,,,,,,,,,,,,,,,,,,021819_p1,001,2019_Feb_18_1518,body_behavioural,3.0.3,60.000486603950385,
5,"They were a little pressed for time, with only a little over an hour until their flight would take off to go back to the US, but they already had their online boarding passes and no checked luggage. ",1,1,,,,0,5,5,5,,,,,0,1,1,1,,,,,,,,,,,,,,,,,,,,,,,,,,,,,,,1,5.620049342000016,,,,,,,,,,,,,,,,,,,,,,,,,,,,021819_p1,001,2019_Feb_18_1518,body_behavioural,3.0.3,60.000486603950385,
5,"When Isabel stopped to rummage through her purse looking for her phone, Sven turned his back to her and took the velvet box out of his backpack, opening it to look at the ring he bought her.",1,2,,,,0,5,5,5,,,,,0,2,2,2,,,,,,,,,,,,,,,,,,,,,,,,,,,,,,,9,25.47110418200009,,,,,,,,,,,,,,,,,,,,,,,,,,,,021819_p1,001,2019_Feb_18_1518,body_behavioural,3.0.3,60.000486603950385,
5,"He had received her parents’ blessing during the trip, and he was almost giddy with excitement. ",1,2,,,,0,5,5,5,,,,,0,3,3,3,,,,,,,,,,,,,,,,,,,,,,,,,,,,,,,1,3.152891640000007,,,,,,,,,,,,,,,,,,,,,,,,,,,,021819_p1,001,2019_Feb_18_1518,body_behavioural,3.0.3,60.000486603950385,
5,"He tilted the ring backward and forward, despite having already studied it daily since he had purchased it a few weeks ago. ",1,2,,,,0,5,5,5,,,,,0,4,4,4,,,,,,,,,,,,,,,,,,,,,,,,,,,,,,,1,2.8698453069999914,,,,,,,,,,,,,,,,,,,,,,,,,,,,021819_p1,001,2019_Feb_18_1518,body_behavioural,3.0.3,60.000486603950385,
5,"It was a simple design, with a clear, white diamond on a thin silver band.",1,2,,,,0,5,5,5,,,,,0,5,5,5,,,,,,,,,,,,,,,,,,,,,,,,,,,,,,,1,0.8362032300000237,,,,,,,,,,,,,,,,,,,,,,,,,,,,021819_p1,001,2019_Feb_18_1518,body_behavioural,3.0.3,60.000486603950385,
5,"“Sven, let’s go! ” Isabel said. ",1,2,,,,0,5,5,5,,,,,0,6,6,6,,,,,,,,,,,,,,,,,,,,,,,,,,,,,,,9,1.1863483249999263,,,,,,,,,,,,,,,,,,,,,,,,,,,,021819_p1,001,2019_Feb_18_1518,body_behavioural,3.0.3,60.000486603950385,
5,Sven discretely closed the box and put it in his pocket.,1,2,,,,0,5,5,5,,,,,0,7,7,7,,,,,,,,,,,,,,,,,,,,,,,,,,,,,,,9,4.2865675399999645,,,,,,,,,,,,,,,,,,,,,,,,,,,,021819_p1,001,2019_Feb_18_1518,body_behavioural,3.0.3,60.000486603950385,
5," They entered the security line, weaving through the roped walkways to the front. ",2,2,,,,0,5,5,5,,,,,0,8,8,8,,,,,,,,,,,,,,,,,,,,,,,,,,,,,,,9,2.0530747320000273,,,,,,,,,,,,,,,,,,,,,,,,,,,,021819_p1,001,2019_Feb_18_1518,body_behavioural,3.0.3,60.000486603950385,
5,"When they were up, Isabel realized her laptop was buried somewhere in her duffle bag. ",2,2,,,,0,5,5,5,,,,,0,9,9,9,,,,,,,,,,,,,,,,,,,,,,,,,,,,,,,1,5.0199986970000054,,,,,,,,,,,,,,,,,,,,,,,,,,,,021819_p1,001,2019_Feb_18_1518,body_behavioural,3.0.3,60.000486603950385,
5,Sven had to hold the growing mound of objects she pulled from her bag until she unearthed the laptop.,2,2,,,,0,5,5,5,,,,,0,10,10,10,,,,,,,,,,,,,,,,,,,,,,,,,,,,,,,1,1.319653957000014,,,,,,,,,,,,,,,,,,,,,,,,,,,,021819_p1,001,2019_Feb_18_1518,body_behavioural,3.0.3,60.000486603950385,
5,She set it into a bin and then had to unstrap her leather boots and put everything else into the bins.,2,2,,,,0,5,5,5,,,,,0,11,11,11,,,,,,,,,,,,,,,,,,,,,,,,,,,,,,,1,1.1007640949999313,,,,,,,,,,,,,,,,,,,,,,,,,,,,021819_p1,001,2019_Feb_18_1518,body_behavioural,3.0.3,60.000486603950385,
5,"Finally, she relieved Sven of his holding duties, and he hurriedly deposited his own backpack on the belt as the people behind them glared without shame. ",2,2,,,,0,5,5,5,,,,,0,12,12,12,,,,,,,,,,,,,,,,,,,,,,,,,,,,,,,1,2.6361156770000207,,,,,,,,,,,,,,,,,,,,,,,,,,,,021819_p1,001,2019_Feb_18_1518,body_behavioural,3.0.3,60.000486603950385,
5,"Sven went into the millimeter wave scanner after Isabel, put his hands up, and the metal bars whirled around him.",2,2,,,,0,5,5,5,,,,,0,13,13,13,,,,,,,,,,,,,,,,,,,,,,,,,,,,,,,1,4.869625014999997,,,,,,,,,,,,,,,,,,,,,,,,,,,,021819_p1,001,2019_Feb_18_1518,body_behavioural,3.0.3,60.000486603950385,
5,"“Sir, please step to the side.",2,2,,,,0,5,5,5,,,,,0,14,14,14,,,,,,,,,,,,,,,,,,,,,,,,,,,,,,,1,1.1529602450000311,,,,,,,,,,,,,,,,,,,,,,,,,,,,021819_p1,001,2019_Feb_18_1518,body_behavioural,3.0.3,60.000486603950385,
5,"You need to empty your pockets,” the security guard said.",2,2,,,,0,5,5,5,,,,,0,15,15,15,,,,,,,,,,,,,,,,,,,,,,,,,,,,,,,1,2.6533716999999797,,,,,,,,,,,,,,,,,,,,,,,,,,,,021819_p1,001,2019_Feb_18_1518,body_behavioural,3.0.3,60.000486603950385,
5,"With a sinking feeling Sven realized the mistake he had made forgetting to put the ring back in his bag, as Isabel and the guard both looked at him expectantly.",2,2,,,,0,5,5,5,,,,,0,16,16,16,,,,,,,,,,,,,,,,,,,,,,,,,,,,,,,9,2.819761921999998,,,,,,,,,,,,,,,,,,,,,,,,,,,,021819_p1,001,2019_Feb_18_1518,body_behavioural,3.0.3,60.000486603950385,
5,"Sven,  deciding he would make the best of the situation, grabbed Isabel's hand as he reached into his pocket.",2,2,,,,0,5,5,5,,,,,0,17,17,17,,,,,,,,,,,,,,,,,,,,,,,,,,,,,,,1,7.403081394999958,,,,,,,,,,,,,,,,,,,,,,,,,,,,021819_p1,001,2019_Feb_18_1518,body_behavioural,3.0.3,60.000486603950385,
5,"He got down on one knee and, giggling slightly at her confused look, said, “Isabel, this isn't quite how I'd planned this, but - will you marry me?”",2,3,,,,0,5,5,5,,,,,0,18,18,18,,,,,,,,,,,,,,,,,,,,,,,,,,,,,,,1,7.686773470000048,,,,,,,,,,,,,,,,,,,,,,,,,,,,021819_p1,001,2019_Feb_18_1518,body_behavioural,3.0.3,60.000486603950385,
5,The security guard gasped.,2,3,,,,0,5,5,5,,,,,0,19,19,19,,,,,,,,,,,,,,,,,,,,,,,,,,,,,,,9,1.4507404900000438,,,,,,,,,,,,,,,,,,,,,,,,,,,,021819_p1,001,2019_Feb_18_1518,body_behavioural,3.0.3,60.000486603950385,
5,All the people who were putting their shoes back on and gathering their belongings stopped what they were doing and walked closer to the couple.,2,3,,,,0,5,5,5,,,,,0,20,20,20,,,,,,,,,,,,,,,,,,,,,,,,,,,,,,,1,11.137144941999964,,,,,,,,,,,,,,,,,,,,,,,,,,,,021819_p1,001,2019_Feb_18_1518,body_behavioural,3.0.3,60.000486603950385,
5,"Isabel was astonished, and far too shy to respond in front of the backup of passengers waiting behind them.",2,3,,,,0,5,5,5,,,,,0,21,21,21,,,,,,,,,,,,,,,,,,,,,,,,,,,,,,,1,2.1031154050000396,,,,,,,,,,,,,,,,,,,,,,,,,,,,021819_p1,001,2019_Feb_18_1518,body_behavioural,3.0.3,60.000486603950385,
5,"She attempted to stammer a response as she frantically grabbed her and Sven’s shoes, leaving Sven to retrieve their bags.",2,3,,,,0,5,5,5,,,,,0,22,22,22,,,,,,,,,,,,,,,,,,,,,,,,,,,,,,,1,6.434427417000052,,,,,,,,,,,,,,,,,,,,,,,,,,,,021819_p1,001,2019_Feb_18_1518,body_behavioural,3.0.3,60.000486603950385,
5,"Both of them slipping in their socked feet, she fled onto the concourse with Sven trying to catch up behind her.",3,3,,,,0,5,5,5,,,,,0,23,23,23,,,,,,,,,,,,,,,,,,,,,,,,,,,,,,,1,6.453220380000062,,,,,,,,,,,,,,,,,,,,,,,,,,,,021819_p1,001,2019_Feb_18_1518,body_behavioural,3.0.3,60.000486603950385,
5,"Everyone in the terminal was looking at them with confusion as Sven, holding the bags in one hand and the open ring box in the other, finally caught up to her.",3,3,,,,0,5,5,5,,,,,0,24,24,24,,,,,,,,,,,,,,,,,,,,,,,,,,,,,,,1,5.070080544999996,,,,,,,,,,,,,,,,,,,,,,,,,,,,021819_p1,001,2019_Feb_18_1518,body_behavioural,3.0.3,60.000486603950385,
5,“Isabel?”,3,3,,,,0,5,5,5,,,,,0,25,25,25,,,,,,,,,,,,,,,,,,,,,,,,,,,,,,,9,3.4363735750000615,,,,,,,,,,,,,,,,,,,,,,,,,,,,021819_p1,001,2019_Feb_18_1518,body_behavioural,3.0.3,60.000486603950385,
5,"He watched her face as she turned, trying to read her expression.",3,3,,,,0,5,5,5,,,,,0,26,26,26,,,,,,,,,,,,,,,,,,,,,,,,,,,,,,,1,4.570078800000033,,,,,,,,,,,,,,,,,,,,,,,,,,,,021819_p1,001,2019_Feb_18_1518,body_behavioural,3.0.3,60.000486603950385,
5,"Her eyes were wide, but she was smiling as she hyperventilated, “Of course yes, Sven, yes!” ",3,4,,,,0,5,5,5,,,,,0,27,27,27,,,,,,,,,,,,,,,,,,,,,,,,,,,,,,,1,3.319872905000011,,,,,,,,,,,,,,,,,,,,,,,,,,,,021819_p1,001,2019_Feb_18_1518,body_behavioural,3.0.3,60.000486603950385,
5,"They dropped their belongings and hugged, and Sven slipped the ring onto Isabel’s finger. ",3,4,,,,0,5,5,5,,,,,0,28,28,28,,,,,,,,,,,,,,,,,,,,,,,,,,,,,,,1,8.069862064999938,,,,,,,,,,,,,,,,,,,,,,,,,,,,021819_p1,001,2019_Feb_18_1518,body_behavioural,3.0.3,60.000486603950385,
5,"After getting their shoes back on, they practically skipped to the gate, filled with joy.",3,4,,,,0,5,5,5,,,,,0,29,29,29,,,,,,,,,,,,,,,,,,,,,,,,,,,,,,,1,1.4695758299999397,,,,,,,,,,,,,,,,,,,,,,,,,,,,021819_p1,001,2019_Feb_18_1518,body_behavioural,3.0.3,60.000486603950385,
5,Sven high-fived a confused shoe-shine attendant as they passed.,3,4,,,,0,5,5,5,,,,,0,30,30,30,,,,,,,,,,,,,,,,,,,,,,,,,,,,,,,1,2.153006436999931,,,,,,,,,,,,,,,,,,,,,,,,,,,,021819_p1,001,2019_Feb_18_1518,body_behavioural,3.0.3,60.000486603950385,
5,"They sat down outside their gate, having actually made good time, until the attendant called for passengers.",3,4,,,,0,5,5,5,,,,,0,31,31,31,,,,,,,,,,,,,,,,,,,,,,,,,,,,,,,1,1.753108105000024,,,,,,,,,,,,,,,,,,,,,,,,,,,,021819_p1,001,2019_Feb_18_1518,body_behavioural,3.0.3,60.000486603950385,
5,"They boarded, sitting together in first class, and had a glass of champagne to celebrate the departure into their new life together.",4,4,,,,0,5,5,5,,,,,0,32,32,32,,,,,,,,,,,,,,,,,,,,,,,,,,,,,,,1,2.4531735520000666,,,,,,,,,,,,,,,,,,,,,,,,,,,,021819_p1,001,2019_Feb_18_1518,body_behavioural,3.0.3,60.000486603950385,
5,"Some of their neighboring passengers who had witnessed the proposal congratulated them, and a woman next to them showed them that she had been live-tweeting the whole event and that it was already going viral online.",4,4,,,,0,5,5,5,,,,,0,33,33,33,,,,,,,,,,,,,,,,,,,,,,,,,,,,,,,9,3.286547270000028,,,,,,,,,,,,,,,,,,,,,,,,,,,,021819_p1,001,2019_Feb_18_1518,body_behavioural,3.0.3,60.000486603950385,
5,"Isabel slid down in her seat with her hands over her face, both embarrassed and overjoyed at the same time.
",4,4,,,,0,5,5,5,,,,,0,34,34,34,,,,,,,,,,,,,,,,,,,,,,,,,,,,,,,1,2.9509155370000144,,,,,,,,,,,,,,,,,,,,,,,,,,,,021819_p1,001,2019_Feb_18_1518,body_behavioural,3.0.3,60.000486603950385,
5,,,,,,,0,5,5,5,,,,,,,,,,,,,,,,,,,,,,,,,,,,,,,,,,,,,,,,,,,,,,,,,,,,,,,,,,,,,,,,,,,,021819_p1,001,2019_Feb_18_1518,body_behavioural,3.0.3,60.000486603950385,
6,,,,,,,0,6,6,6,0,0,0,0,,,,,,,,,,,,,,,,,,,,,,,,,,,,,space,1.1863757250000617,space,0.40317182199999024,space,0.5199163500000168,,,,,,,,,,,,,,,,,,,,,,,,,,,,,,021819_p1,001,2019_Feb_18_1518,body_behavioural,3.0.3,60.000486603950385,
6,"Thomas, dreading the conversation he was about to have, got to Annika’s Finer Diner early.",1,1,None,None,,0,6,6,6,,,,,0,0,0,0,,,,,,,,,,,,,,,,,,,,,,,,,,,,,,,1,8.020315659999937,,,,,,,,,,,,,,,,,,,,,,,,,,,,021819_p1,001,2019_Feb_18_1518,body_behavioural,3.0.3,60.000486603950385,
6,The restaurant had a kitschy charm and was reminiscent of a diner from the 70’s. ,1,1,None,None,,0,6,6,6,,,,,0,1,1,1,,,,,,,,,,,,,,,,,,,,,,,,,,,,,,,1,2.3528175250000913,,,,,,,,,,,,,,,,,,,,,,,,,,,,021819_p1,001,2019_Feb_18_1518,body_behavioural,3.0.3,60.000486603950385,
6,A bell chimed as the door swung open and Sadie entered to find Thomas deep in thought on a bench by the door.,1,1,None,None,,0,6,6,6,,,,,0,2,2,2,,,,,,,,,,,,,,,,,,,,,,,,,,,,,,,9,2.5699185019998367,,,,,,,,,,,,,,,,,,,,,,,,,,,,021819_p1,001,2019_Feb_18_1518,body_behavioural,3.0.3,60.000486603950385,
6,He jumped up and gave her a side hug. ,1,1,None,None,,0,6,6,6,,,,,0,3,3,3,,,,,,,,,,,,,,,,,,,,,,,,,,,,,,,1,2.1027570300000207,,,,,,,,,,,,,,,,,,,,,,,,,,,,021819_p1,001,2019_Feb_18_1518,body_behavioural,3.0.3,60.000486603950385,
6,"“How was your day?”, he asked.",1,1,None,None,,0,6,6,6,,,,,0,4,4,4,,,,,,,,,,,,,,,,,,,,,,,,,,,,,,,1,0.8505912349999107,,,,,,,,,,,,,,,,,,,,,,,,,,,,021819_p1,001,2019_Feb_18_1518,body_behavioural,3.0.3,60.000486603950385,
6,"She clung onto him, “It was okay.",1,1,None,None,,0,6,6,6,,,,,0,5,5,5,,,,,,,,,,,,,,,,,,,,,,,,,,,,,,,1,0.9174262679998719,,,,,,,,,,,,,,,,,,,,,,,,,,,,021819_p1,001,2019_Feb_18_1518,body_behavioural,3.0.3,60.000486603950385,
6,I missed you today.”,1,1,None,None,,0,6,6,6,,,,,0,6,6,6,,,,,,,,,,,,,,,,,,,,,,,,,,,,,,,1,0.6364235920000283,,,,,,,,,,,,,,,,,,,,,,,,,,,,021819_p1,001,2019_Feb_18_1518,body_behavioural,3.0.3,60.000486603950385,
6,He looked at the hostess coming towards them.,1,1,None,None,,0,6,6,6,,,,,0,7,7,7,,,,,,,,,,,,,,,,,,,,,,,,,,,,,,,9,1.6197477470000194,,,,,,,,,,,,,,,,,,,,,,,,,,,,021819_p1,001,2019_Feb_18_1518,body_behavioural,3.0.3,60.000486603950385,
6,"“Can we have a table in the back?”, Thomas asked.",1,1,None,None,,0,6,6,6,,,,,0,8,8,8,,,,,,,,,,,,,,,,,,,,,,,,,,,,,,,1,4.603297714999826,,,,,,,,,,,,,,,,,,,,,,,,,,,,021819_p1,001,2019_Feb_18_1518,body_behavioural,3.0.3,60.000486603950385,
6,"She shrugged and, as she loudly popped her bubblegum, replied, “Sure, honey, this way.”",1,1,9.0,None,,0,6,6,6,,,,,0,9,9,9,,,,,,,,,,,,,,,,,,,,,,,,,,,,,,,1,1.4361737670001276,,,,,,,,,,,,,,,,,,,,,,,,,,,,021819_p1,001,2019_Feb_18_1518,body_behavioural,3.0.3,60.000486603950385,
6,She led them to the back of the restaurant where there were dimly lit tables. ,2,1,None,None,,0,6,6,6,,,,,0,10,10,10,,,,,,,,,,,,,,,,,,,,,,,,,,,,,,,9,3.086441157000081,,,,,,,,,,,,,,,,,,,,,,,,,,,,021819_p1,001,2019_Feb_18_1518,body_behavioural,3.0.3,60.000486603950385,
6,"“Is this alright?”, the hostess asked.",2,1,None,None,,0,6,6,6,,,,,0,11,11,11,,,,,,,,,,,,,,,,,,,,,,,,,,,,,,,1,2.169428772999936,,,,,,,,,,,,,,,,,,,,,,,,,,,,021819_p1,001,2019_Feb_18_1518,body_behavioural,3.0.3,60.000486603950385,
6,Thomas cleared his throat and tried not to grimace at the stained fabric that lined the booth.,2,1,None,None,,0,6,6,6,,,,,0,12,12,12,,,,,,,,,,,,,,,,,,,,,,,,,,,,,,,1,2.7364987949999886,,,,,,,,,,,,,,,,,,,,,,,,,,,,021819_p1,001,2019_Feb_18_1518,body_behavioural,3.0.3,60.000486603950385,
6,“This is great.,2,1,None,None,,0,6,6,6,,,,,0,13,13,13,,,,,,,,,,,,,,,,,,,,,,,,,,,,,,,1,0.8029380650000348,,,,,,,,,,,,,,,,,,,,,,,,,,,,021819_p1,001,2019_Feb_18_1518,body_behavioural,3.0.3,60.000486603950385,
6,"Thank you,” Thomas said.",2,1,None,None,,0,6,6,6,,,,,0,14,14,14,,,,,,,,,,,,,,,,,,,,,,,,,,,,,,,1,1.0530977700000221,,,,,,,,,,,,,,,,,,,,,,,,,,,,021819_p1,001,2019_Feb_18_1518,body_behavioural,3.0.3,60.000486603950385,
6,Sadie slipped into the cushioned seat and grabbed Thomas’ hand.,2,1,None,None,,0,6,6,6,,,,,0,15,15,15,,,,,,,,,,,,,,,,,,,,,,,,,,,,,,,9,1.7841354570000476,,,,,,,,,,,,,,,,,,,,,,,,,,,,021819_p1,001,2019_Feb_18_1518,body_behavioural,3.0.3,60.000486603950385,
6,"“Tell me about your day!”, Sadie sang as Thomas sat down.",2,1,None,None,,0,6,6,6,,,,,0,16,16,16,,,,,,,,,,,,,,,,,,,,,,,,,,,,,,,1,1.3363703550000992,,,,,,,,,,,,,,,,,,,,,,,,,,,,021819_p1,001,2019_Feb_18_1518,body_behavioural,3.0.3,60.000486603950385,
6,He looked at her silently and pulled his hand slowly from hers.,2,1,None,None,,0,6,6,6,,,,,0,17,17,17,,,,,,,,,,,,,,,,,,,,,,,,,,,,,,,1,1.1840396270001747,,,,,,,,,,,,,,,,,,,,,,,,,,,,021819_p1,001,2019_Feb_18_1518,body_behavioural,3.0.3,60.000486603950385,
6,Sadie gave him a puzzled look.,2,1,None,None,,0,6,6,6,,,,,0,18,18,18,,,,,,,,,,,,,,,,,,,,,,,,,,,,,,,1,1.636107524999943,,,,,,,,,,,,,,,,,,,,,,,,,,,,021819_p1,001,2019_Feb_18_1518,body_behavioural,3.0.3,60.000486603950385,
6,Thomas looked away and took a deep breath. ,2,1,None,None,,0,6,6,6,,,,,0,19,19,19,,,,,,,,,,,,,,,,,,,,,,,,,,,,,,,1,0.853289064999899,,,,,,,,,,,,,,,,,,,,,,,,,,,,021819_p1,001,2019_Feb_18_1518,body_behavioural,3.0.3,60.000486603950385,
6,"Sadie asked, “What’s wrong?” ",2,1,None,None,,0,6,6,6,,,,,0,20,20,20,,,,,,,,,,,,,,,,,,,,,,,,,,,,,,,1,1.4864239799999268,,,,,,,,,,,,,,,,,,,,,,,,,,,,021819_p1,001,2019_Feb_18_1518,body_behavioural,3.0.3,60.000486603950385,
6,Thomas picked at his fingernails.,2,1,None,22.0,,0,6,6,6,,,,,0,21,21,21,,,,,,,,,,,,,,,,,,,,,,,,,,,,,,,1,0.9697136199999932,,,,,,,,,,,,,,,,,,,,,,,,,,,,021819_p1,001,2019_Feb_18_1518,body_behavioural,3.0.3,60.000486603950385,
6,"“Sadie, I’ve been thinking, and I need to figure out some stuff… on my own.”",2,2,None,None,,0,6,6,6,,,,,0,22,22,22,,,,,,,,,,,,,,,,,,,,,,,,,,,,,,,1,1.169758297000044,,,,,,,,,,,,,,,,,,,,,,,,,,,,021819_p1,001,2019_Feb_18_1518,body_behavioural,3.0.3,60.000486603950385,
6,Sadie’s mouth popped open for a moment.,2,2,None,None,,0,6,6,6,,,,,0,23,23,23,,,,,,,,,,,,,,,,,,,,,,,,,,,,,,,1,1.169742387000042,,,,,,,,,,,,,,,,,,,,,,,,,,,,021819_p1,001,2019_Feb_18_1518,body_behavioural,3.0.3,60.000486603950385,
6,Then she swallowed and shifted back in her seat.,2,2,None,None,,0,6,6,6,,,,,0,24,24,24,,,,,,,,,,,,,,,,,,,,,,,,,,,,,,,1,1.0696646600001714,,,,,,,,,,,,,,,,,,,,,,,,,,,,021819_p1,001,2019_Feb_18_1518,body_behavioural,3.0.3,60.000486603950385,
6,“Things have been really picking up at work.,2,2,None,None,,0,6,6,6,,,,,0,25,25,25,,,,,,,,,,,,,,,,,,,,,,,,,,,,,,,1,0.9530773500000578,,,,,,,,,,,,,,,,,,,,,,,,,,,,021819_p1,001,2019_Feb_18_1518,body_behavioural,3.0.3,60.000486603950385,
6,And I’m not sure that this is the job I want to do anymore.,2,2,None,None,,0,6,6,6,,,,,0,26,26,26,,,,,,,,,,,,,,,,,,,,,,,,,,,,,,,1,1.0674221629999465,,,,,,,,,,,,,,,,,,,,,,,,,,,,021819_p1,001,2019_Feb_18_1518,body_behavioural,3.0.3,60.000486603950385,
6,It’s been really overwhelming between working and figuring out if I should change careers.” ,2,2,17.0,None,,0,6,6,6,,,,,0,27,27,27,,,,,,,,,,,,,,,,,,,,,,,,,,,,,,,1,4.1196764450000956,,,,,,,,,,,,,,,,,,,,,,,,,,,,021819_p1,001,2019_Feb_18_1518,body_behavioural,3.0.3,60.000486603950385,
6,The waiter appeared and interrupted the speech Thomas had been practicing.,3,2,None,None,,0,6,6,6,,,,,0,28,28,28,,,,,,,,,,,,,,,,,,,,,,,,,,,,,,,9,2.3693825699999707,,,,,,,,,,,,,,,,,,,,,,,,,,,,021819_p1,001,2019_Feb_18_1518,body_behavioural,3.0.3,60.000486603950385,
6,"“Hello you two!”, the waiter said.",3,2,None,None,,0,6,6,6,,,,,0,29,29,29,,,,,,,,,,,,,,,,,,,,,,,,,,,,,,,1,0.8863951499999985,,,,,,,,,,,,,,,,,,,,,,,,,,,,021819_p1,001,2019_Feb_18_1518,body_behavioural,3.0.3,60.000486603950385,
6,“Have you decided what you would like?”,3,2,None,None,,0,6,6,6,,,,,0,30,30,30,,,,,,,,,,,,,,,,,,,,,,,,,,,,,,,1,2.869902766999985,,,,,,,,,,,,,,,,,,,,,,,,,,,,021819_p1,001,2019_Feb_18_1518,body_behavioural,3.0.3,60.000486603950385,
6,"Thomas and Sadie realized there were menus on the table, and they glanced at the lengthy list quickly.",3,2,None,None,,0,6,6,6,,,,,0,31,31,31,,,,,,,,,,,,,,,,,,,,,,,,,,,,,,,1,3.1509106050000355,,,,,,,,,,,,,,,,,,,,,,,,,,,,021819_p1,001,2019_Feb_18_1518,body_behavioural,3.0.3,60.000486603950385,
6,"There were so many strange dishes they had never heard of before, so they settled on familiar orders.",3,2,None,None,,0,6,6,6,,,,,0,32,32,32,,,,,,,,,,,,,,,,,,,,,,,,,,,,,,,1,2.317405380000082,,,,,,,,,,,,,,,,,,,,,,,,,,,,021819_p1,001,2019_Feb_18_1518,body_behavioural,3.0.3,60.000486603950385,
6,"“I’ll have a burger, no tomatoes,” Thomas said.",3,2,None,None,,0,6,6,6,,,,,0,33,33,33,,,,,,,,,,,,,,,,,,,,,,,,,,,,,,,1,1.3363875150000695,,,,,,,,,,,,,,,,,,,,,,,,,,,,021819_p1,001,2019_Feb_18_1518,body_behavioural,3.0.3,60.000486603950385,
6,"Sadie asked about the reuben, and the waiter told her it was excellent.",3,2,None,None,,0,6,6,6,,,,,0,34,34,34,,,,,,,,,,,,,,,,,,,,,,,,,,,,,,,1,2.8532933219998995,,,,,,,,,,,,,,,,,,,,,,,,,,,,021819_p1,001,2019_Feb_18_1518,body_behavioural,3.0.3,60.000486603950385,
6,"Once she agreed to get that, he walked away. ",3,2,None,None,,0,6,6,6,,,,,0,35,35,35,,,,,,,,,,,,,,,,,,,,,,,,,,,,,,,1,3.1198192100000597,,,,,,,,,,,,,,,,,,,,,,,,,,,,021819_p1,001,2019_Feb_18_1518,body_behavioural,3.0.3,60.000486603950385,
6,Sadie and Thomas looked at each other. ,3,2,None,None,,0,6,6,6,,,,,0,36,36,36,,,,,,,,,,,,,,,,,,,,,,,,,,,,,,,9,1.2863732450000498,,,,,,,,,,,,,,,,,,,,,,,,,,,,021819_p1,001,2019_Feb_18_1518,body_behavioural,3.0.3,60.000486603950385,
6,"“So what are you saying?”, Sadie asked. ",3,2,None,None,,0,6,6,6,,,,,0,37,37,37,,,,,,,,,,,,,,,,,,,,,,,,,,,,,,,1,1.4530698070000199,,,,,,,,,,,,,,,,,,,,,,,,,,,,021819_p1,001,2019_Feb_18_1518,body_behavioural,3.0.3,60.000486603950385,
6,"Thomas replied, “I want to take a break for awhile.",3,2,None,None,,0,6,6,6,,,,,0,38,38,38,,,,,,,,,,,,,,,,,,,,,,,,,,,,,,,1,1.0363463720000254,,,,,,,,,,,,,,,,,,,,,,,,,,,,021819_p1,001,2019_Feb_18_1518,body_behavioural,3.0.3,60.000486603950385,
6,"You know, have space to figure out what I’m supposed to be doing.”",3,2,None,17.0,,0,6,6,6,,,,,0,39,39,39,,,,,,,,,,,,,,,,,,,,,,,,,,,,,,,1,1.586424119999947,,,,,,,,,,,,,,,,,,,,,,,,,,,,021819_p1,001,2019_Feb_18_1518,body_behavioural,3.0.3,60.000486603950385,
6,Sadie quietly burst into tears. ,3,3,None,None,,0,6,6,6,,,,,0,40,40,40,,,,,,,,,,,,,,,,,,,,,,,,,,,,,,,1,3.503331200000048,,,,,,,,,,,,,,,,,,,,,,,,,,,,021819_p1,001,2019_Feb_18_1518,body_behavioural,3.0.3,60.000486603950385,
6,"Nevertheless, people sitting at the adjacent table looked over and quickly averted their gaze as they realized what was happening. ",3,3,None,None,,0,6,6,6,,,,,0,41,41,41,,,,,,,,,,,,,,,,,,,,,,,,,,,,,,,1,2.6027916919999825,,,,,,,,,,,,,,,,,,,,,,,,,,,,021819_p1,001,2019_Feb_18_1518,body_behavioural,3.0.3,60.000486603950385,
6,“Is this really what you want?,3,3,None,None,,0,6,6,6,,,,,0,42,42,42,,,,,,,,,,,,,,,,,,,,,,,,,,,,,,,1,0.9530532870001025,,,,,,,,,,,,,,,,,,,,,,,,,,,,021819_p1,001,2019_Feb_18_1518,body_behavioural,3.0.3,60.000486603950385,
6,I don’t understand.,3,3,None,None,,0,6,6,6,,,,,0,43,43,43,,,,,,,,,,,,,,,,,,,,,,,,,,,,,,,1,0.5863699649999035,,,,,,,,,,,,,,,,,,,,,,,,,,,,021819_p1,001,2019_Feb_18_1518,body_behavioural,3.0.3,60.000486603950385,
6,I don’t understand.,3,3,None,None,,0,6,6,6,,,,,0,44,44,44,,,,,,,,,,,,,,,,,,,,,,,,,,,,,,,1,0.4031696469999133,,,,,,,,,,,,,,,,,,,,,,,,,,,,021819_p1,001,2019_Feb_18_1518,body_behavioural,3.0.3,60.000486603950385,
6,Things were fine. ,3,3,None,None,,0,6,6,6,,,,,0,45,45,45,,,,,,,,,,,,,,,,,,,,,,,,,,,,,,,1,0.5697102619999441,,,,,,,,,,,,,,,,,,,,,,,,,,,,021819_p1,001,2019_Feb_18_1518,body_behavioural,3.0.3,60.000486603950385,
6,"We don’t have to hang out all the time, or as much as we do now.”",3,3,None,None,,0,6,6,6,,,,,0,46,46,46,,,,,,,,,,,,,,,,,,,,,,,,,,,,,,,1,1.5361770520000846,,,,,,,,,,,,,,,,,,,,,,,,,,,,021819_p1,001,2019_Feb_18_1518,body_behavioural,3.0.3,60.000486603950385,
6,Thomas chewed on his bottom lip and picked at his now bleeding hangnail. ,3,3,20.0,None,,0,6,6,6,,,,,0,47,47,47,,,,,,,,,,,,,,,,,,,,,,,,,,,,,,,1,2.119698275000019,,,,,,,,,,,,,,,,,,,,,,,,,,,,021819_p1,001,2019_Feb_18_1518,body_behavioural,3.0.3,60.000486603950385,
6,"At that moment, the waiter arrived with the burger and reuben and set them on the table.",4,3,None,None,,0,6,6,6,,,,,0,48,48,48,,,,,,,,,,,,,,,,,,,,,,,,,,,,,,,9,4.386497196999926,,,,,,,,,,,,,,,,,,,,,,,,,,,,021819_p1,001,2019_Feb_18_1518,body_behavioural,3.0.3,60.000486603950385,
6,“Is there anything else I can get for you two?,4,3,None,None,,0,6,6,6,,,,,0,49,49,49,,,,,,,,,,,,,,,,,,,,,,,,,,,,,,,1,0.8697135229999731,,,,,,,,,,,,,,,,,,,,,,,,,,,,021819_p1,001,2019_Feb_18_1518,body_behavioural,3.0.3,60.000486603950385,
6,"Will you be getting dessert tonight?”, he asked.",4,3,None,None,,0,6,6,6,,,,,0,50,50,50,,,,,,,,,,,,,,,,,,,,,,,,,,,,,,,1,1.102717451999979,,,,,,,,,,,,,,,,,,,,,,,,,,,,021819_p1,001,2019_Feb_18_1518,body_behavioural,3.0.3,60.000486603950385,
6,"“Oh no, we’re good, thanks,” Thomas said.",4,3,None,None,,0,6,6,6,,,,,0,51,51,51,,,,,,,,,,,,,,,,,,,,,,,,,,,,,,,1,0.819812469999988,,,,,,,,,,,,,,,,,,,,,,,,,,,,021819_p1,001,2019_Feb_18_1518,body_behavioural,3.0.3,60.000486603950385,
6,"Once the waiter had walked away still oblivious to the situation, Thomas sighed and said, “Sadie, I’m sorry.",4,3,None,None,,0,6,6,6,,,,,0,52,52,52,,,,,,,,,,,,,,,,,,,,,,,,,,,,,,,9,4.817658235000181,,,,,,,,,,,,,,,,,,,,,,,,,,,,021819_p1,001,2019_Feb_18_1518,body_behavioural,3.0.3,60.000486603950385,
6,"You are so great, and I love hanging out with you.",4,3,None,None,,0,6,6,6,,,,,0,53,53,53,,,,,,,,,,,,,,,,,,,,,,,,,,,,,,,1,1.2197529249999661,,,,,,,,,,,,,,,,,,,,,,,,,,,,021819_p1,001,2019_Feb_18_1518,body_behavioural,3.0.3,60.000486603950385,
6,But I need some time.,4,3,None,None,,0,6,6,6,,,,,0,54,54,54,,,,,,,,,,,,,,,,,,,,,,,,,,,,,,,1,0.5194228630000453,,,,,,,,,,,,,,,,,,,,,,,,,,,,021819_p1,001,2019_Feb_18_1518,body_behavioural,3.0.3,60.000486603950385,
6,I’m so sorry.”,4,3,None,None,,0,6,6,6,,,,,0,55,55,55,,,,,,,,,,,,,,,,,,,,,,,,,,,,,,,1,0.4530165849998866,,,,,,,,,,,,,,,,,,,,,,,,,,,,021819_p1,001,2019_Feb_18_1518,body_behavioural,3.0.3,60.000486603950385,
6,"He grabbed her hand, and she pulled it out of his.",4,3,None,None,,0,6,6,6,,,,,0,56,56,56,,,,,,,,,,,,,,,,,,,,,,,,,,,,,,,1,0.9364774999999099,,,,,,,,,,,,,,,,,,,,,,,,,,,,021819_p1,001,2019_Feb_18_1518,body_behavioural,3.0.3,60.000486603950385,
6,"“Sadie,” he said.",4,3,None,17.0,,0,6,6,6,,,,,0,57,57,57,,,,,,,,,,,,,,,,,,,,,,,,,,,,,,,1,0.8026424349998251,,,,,,,,,,,,,,,,,,,,,,,,,,,,021819_p1,001,2019_Feb_18_1518,body_behavioural,3.0.3,60.000486603950385,
6," She stood up, grabbed half of the reuben and shook it at him as she growled, “Don’t follow me, and don’t talk to me anymore!”",4,4,None,None,,0,6,6,6,,,,,0,58,58,58,,,,,,,,,,,,,,,,,,,,,,,,,,,,,,,1,2.870252556999958,,,,,,,,,,,,,,,,,,,,,,,,,,,,021819_p1,001,2019_Feb_18_1518,body_behavioural,3.0.3,60.000486603950385,
6,"Sadie's heels clacked loudly against the black and white linoleum, and the bell above the door jingled cheerfully as the door closed behind her.",4,4,None,None,,0,6,6,6,,,,,0,59,59,59,,,,,,,,,,,,,,,,,,,,,,,,,,,,,,,1,3.019796735,,,,,,,,,,,,,,,,,,,,,,,,,,,,021819_p1,001,2019_Feb_18_1518,body_behavioural,3.0.3,60.000486603950385,
6,Thomas sat there for awhile in shock at how quickly everything transpired. ,4,4,None,None,,0,6,6,6,,,,,0,60,60,60,,,,,,,,,,,,,,,,,,,,,,,,,,,,,,,1,1.5194052399999691,,,,,,,,,,,,,,,,,,,,,,,,,,,,021819_p1,001,2019_Feb_18_1518,body_behavioural,3.0.3,60.000486603950385,
6,"He grabbed his burger and took a bite of it, creating a dry and fishy taste in his mouth.",4,4,None,None,,0,6,6,6,,,,,0,61,61,61,,,,,,,,,,,,,,,,,,,,,,,,,,,,,,,9,14.653953414999933,,,,,,,,,,,,,,,,,,,,,,,,,,,,021819_p1,001,2019_Feb_18_1518,body_behavioural,3.0.3,60.000486603950385,
6,He dropped it back on his plate and wondered if the restaurant was responsible for the foul taste. ,4,4,13.0,5.0,,0,6,6,6,,,,,0,62,62,62,,,,,,,,,,,,,,,,,,,,,,,,,,,,,,,1,1.3360220049999043,,,,,,,,,,,,,,,,,,,,,,,,,,,,021819_p1,001,2019_Feb_18_1518,body_behavioural,3.0.3,60.000486603950385,
6,,,,,,,0,6,6,6,,,,,,,,,,,,,,,,,,,,,,,,,,,,,,,,,,,,,,,,,,,,,,,,,,,,,,,,,,,,,,,,,,,,021819_p1,001,2019_Feb_18_1518,body_behavioural,3.0.3,60.000486603950385,
7,,,,,,,0,7,7,7,0,0,0,0,,,,,,,,,,,,,,,,,,,,,,,,,,,,,space,0.836261014999991,space,0.5029846449999695,space,0.5363635230000909,,,,,,,,,,,,,,,,,,,,,,,,,,,,,,021819_p1,001,2019_Feb_18_1518,body_behavioural,3.0.3,60.000486603950385,
7,,,,,,,0,7,7,7,1,0,1,0,,,,,,,,,,,,,,,,,,,,,,,,,,,,,,,,,space,0.30285837699989315,,,,,,,,,,,,,,,,,,,,,,,,,,,,,,021819_p1,001,2019_Feb_18_1518,body_behavioural,3.0.3,60.000486603950385,
7,"James noticed Teresa immediately as she walked into the restaurant - or, more accurately as she attempted to walk into the restaurant. ",1,1,,,,0,7,7,7,,,,,0,0,0,0,,,,,,,,,,,,,,,,,,,,,,,,,,,,,,,1,4.620130889999928,,,,,,,,,,,,,,,,,,,,,,,,,,,,021819_p1,001,2019_Feb_18_1518,body_behavioural,3.0.3,60.000486603950385,
7,"She was typing intently on her phone and ran straight into the diner's clear, glass door with an echoing thud. ",1,1,,,,0,7,7,7,,,,,0,1,1,1,,,,,,,,,,,,,,,,,,,,,,,,,,,,,,,1,4.4532178569997996,,,,,,,,,,,,,,,,,,,,,,,,,,,,021819_p1,001,2019_Feb_18_1518,body_behavioural,3.0.3,60.000486603950385,
7,Everyone waiting around the cash register turned to see if she was okay.,1,1,,,,0,7,7,7,,,,,0,2,2,2,,,,,,,,,,,,,,,,,,,,,,,,,,,,,,,1,1.7341111119999368,,,,,,,,,,,,,,,,,,,,,,,,,,,,021819_p1,001,2019_Feb_18_1518,body_behavioural,3.0.3,60.000486603950385,
7,Teresa rubbed her head.,1,1,,,,0,7,7,7,,,,,0,3,3,3,,,,,,,,,,,,,,,,,,,,,,,,,,,,,,,1,0.7359835470001599,,,,,,,,,,,,,,,,,,,,,,,,,,,,021819_p1,001,2019_Feb_18_1518,body_behavioural,3.0.3,60.000486603950385,
7,"While being both confused and unembarrassed, she looked mostly indignant that the door had been in her way. ",1,1,,,,0,7,7,7,,,,,0,4,4,4,,,,,,,,,,,,,,,,,,,,,,,,,,,,,,,1,1.4030072349999045,,,,,,,,,,,,,,,,,,,,,,,,,,,,021819_p1,001,2019_Feb_18_1518,body_behavioural,3.0.3,60.000486603950385,
7,James found this quite charming and stole a couple glances at her until she noticed and wrinkled her eyebrows at him in suspicion. ,1,1,,,,0,7,7,7,,,,,0,5,5,5,,,,,,,,,,,,,,,,,,,,,,,,,,,,,,,1,2.903520103000119,,,,,,,,,,,,,,,,,,,,,,,,,,,,021819_p1,001,2019_Feb_18_1518,body_behavioural,3.0.3,60.000486603950385,
7,"The restaurant they were in was a cabin-themed diner with wooden booths and bar, walls covered in plaid blankets, and antler decorations. ",1,1,,,,0,7,7,7,,,,,0,6,6,6,,,,,,,,,,,,,,,,,,,,,,,,,,,,,,,9,2.1031964569999673,,,,,,,,,,,,,,,,,,,,,,,,,,,,021819_p1,001,2019_Feb_18_1518,body_behavioural,3.0.3,60.000486603950385,
7,The waiter saw that James and Teresa were both alone and motioned to both of them. ,1,1,,,,0,7,7,7,,,,,0,7,7,7,,,,,,,,,,,,,,,,,,,,,,,,,,,,,,,1,2.4865020049999202,,,,,,,,,,,,,,,,,,,,,,,,,,,,021819_p1,001,2019_Feb_18_1518,body_behavioural,3.0.3,60.000486603950385,
7,“Right this way.,2,1,,,,0,7,7,7,,,,,0,8,8,8,,,,,,,,,,,,,,,,,,,,,,,,,,,,,,,1,0.619642519999843,,,,,,,,,,,,,,,,,,,,,,,,,,,,021819_p1,001,2019_Feb_18_1518,body_behavioural,3.0.3,60.000486603950385,
7,You two don't mind sitting at the counter?” ,2,1,,,,0,7,7,7,,,,,0,9,9,9,,,,,,,,,,,,,,,,,,,,,,,,,,,,,,,1,0.9363247199999023,,,,,,,,,,,,,,,,,,,,,,,,,,,,021819_p1,001,2019_Feb_18_1518,body_behavioural,3.0.3,60.000486603950385,
7,They sat a seat apart from each other on the split tree trunk that served as a bench.,2,1,,,,0,7,7,7,,,,,0,10,10,10,,,,,,,,,,,,,,,,,,,,,,,,,,,,,,,9,7.301095354999916,,,,,,,,,,,,,,,,,,,,,,,,,,,,021819_p1,001,2019_Feb_18_1518,body_behavioural,3.0.3,60.000486603950385,
7, The waitress behind the counter gave them bright neon menus that were filled with breakfast items.,2,1,,,,0,7,7,7,,,,,0,11,11,11,,,,,,,,,,,,,,,,,,,,,,,,,,,,,,,9,19.621091066999952,,,,,,,,,,,,,,,,,,,,,,,,,,,,021819_p1,001,2019_Feb_18_1518,body_behavioural,3.0.3,60.000486603950385,
7,"Teresa quickly glanced through it, then pulled out a book and started reading it while James played with the salt and pepper shakers as he tried to think of an excuse to talk to Teresa.",2,1,,,,0,7,7,7,,,,,0,12,12,12,,,,,,,,,,,,,,,,,,,,,,,,,,,,,,,1,2.019399886999963,,,,,,,,,,,,,,,,,,,,,,,,,,,,021819_p1,001,2019_Feb_18_1518,body_behavioural,3.0.3,60.000486603950385,
7,"James eventually turned to her and asked, “Your forehead alright?”",2,2,,,,0,7,7,7,,,,,0,13,13,13,,,,,,,,,,,,,,,,,,,,,,,,,,,,,,,1,1.436259317999884,,,,,,,,,,,,,,,,,,,,,,,,,,,,021819_p1,001,2019_Feb_18_1518,body_behavioural,3.0.3,60.000486603950385,
7,She put down her book and gave him a smirk.,2,2,,,,0,7,7,7,,,,,0,14,14,14,,,,,,,,,,,,,,,,,,,,,,,,,,,,,,,1,0.9362808819998918,,,,,,,,,,,,,,,,,,,,,,,,,,,,021819_p1,001,2019_Feb_18_1518,body_behavioural,3.0.3,60.000486603950385,
7,"“Have you ever been stung by a scorpion?”, she asked him, tilting her head.",2,2,,,,0,7,7,7,,,,,0,15,15,15,,,,,,,,,,,,,,,,,,,,,,,,,,,,,,,1,1.219768649999878,,,,,,,,,,,,,,,,,,,,,,,,,,,,021819_p1,001,2019_Feb_18_1518,body_behavioural,3.0.3,60.000486603950385,
7,"“What?”, he asked confusedly.",2,2,,,,0,7,7,7,,,,,0,16,16,16,,,,,,,,,,,,,,,,,,,,,,,,,,,,,,,1,1.1361523179998585,,,,,,,,,,,,,,,,,,,,,,,,,,,,021819_p1,001,2019_Feb_18_1518,body_behavioural,3.0.3,60.000486603950385,
7, “A scorpion.”,2,2,,,,0,7,7,7,,,,,0,17,17,17,,,,,,,,,,,,,,,,,,,,,,,,,,,,,,,1,0.43626345200004835,,,,,,,,,,,,,,,,,,,,,,,,,,,,021819_p1,001,2019_Feb_18_1518,body_behavioural,3.0.3,60.000486603950385,
7,James began to worry that Teresa had possibly suffered a concussion in the door crash.,2,2,,,,0,7,7,7,,,,,0,18,18,18,,,,,,,,,,,,,,,,,,,,,,,,,,,,,,,1,1.3007445119999375,,,,,,,,,,,,,,,,,,,,,,,,,,,,021819_p1,001,2019_Feb_18_1518,body_behavioural,3.0.3,60.000486603950385,
7,"“Uh no, why?” ",2,2,,,,0,7,7,7,,,,,0,19,19,19,,,,,,,,,,,,,,,,,,,,,,,,,,,,,,,1,0.5695769799999653,,,,,,,,,,,,,,,,,,,,,,,,,,,,021819_p1,001,2019_Feb_18_1518,body_behavioural,3.0.3,60.000486603950385,
7,"“Because I’ve been stung by one, and since then, things like bumping into doors seem like pretty small potatoes.” ",2,2,,,,0,7,7,7,,,,,0,20,20,20,,,,,,,,,,,,,,,,,,,,,,,,,,,,,,,1,2.036497640000107,,,,,,,,,,,,,,,,,,,,,,,,,,,,021819_p1,001,2019_Feb_18_1518,body_behavioural,3.0.3,60.000486603950385,
7,"They carried on talking, and Teresa told him all about her encounter with a Deathstalker scorpion while she was studying abroad in Egypt.",2,2,,,,0,7,7,7,,,,,0,21,21,21,,,,,,,,,,,,,,,,,,,,,,,,,,,,,,,9,2.953650639999978,,,,,,,,,,,,,,,,,,,,,,,,,,,,021819_p1,001,2019_Feb_18_1518,body_behavioural,3.0.3,60.000486603950385,
7,"After a few minutes, the waitress behind the counter came up to them, “Alrighty, can I take you order?” ",3,3,,,,0,7,7,7,,,,,0,22,22,22,,,,,,,,,,,,,,,,,,,,,,,,,,,,,,,1,0.869724744999985,,,,,,,,,,,,,,,,,,,,,,,,,,,,021819_p1,001,2019_Feb_18_1518,body_behavioural,3.0.3,60.000486603950385,
7,"She first looked at Teresa who answered, “I’ll have a Western Omelette and a glass of milk.”",3,3,,,,0,7,7,7,,,,,0,23,23,23,,,,,,,,,,,,,,,,,,,,,,,,,,,,,,,1,1.069743340000059,,,,,,,,,,,,,,,,,,,,,,,,,,,,021819_p1,001,2019_Feb_18_1518,body_behavioural,3.0.3,60.000486603950385,
7,Then the waitress turned to James.,3,3,,,,0,7,7,7,,,,,0,24,24,24,,,,,,,,,,,,,,,,,,,,,,,,,,,,,,,1,1.3531999669999095,,,,,,,,,,,,,,,,,,,,,,,,,,,,021819_p1,001,2019_Feb_18_1518,body_behavioural,3.0.3,60.000486603950385,
7,"James said, “I’ll have the chocolate chip pancakes and a coffee.” ",3,3,,,,0,7,7,7,,,,,0,25,25,25,,,,,,,,,,,,,,,,,,,,,,,,,,,,,,,1,0.9507046200001241,,,,,,,,,,,,,,,,,,,,,,,,,,,,021819_p1,001,2019_Feb_18_1518,body_behavioural,3.0.3,60.000486603950385,
7,"“Alrighty, comin’ right up!”",3,3,,,,0,7,7,7,,,,,0,26,26,26,,,,,,,,,,,,,,,,,,,,,,,,,,,,,,,1,0.5698898220000501,,,,,,,,,,,,,,,,,,,,,,,,,,,,021819_p1,001,2019_Feb_18_1518,body_behavioural,3.0.3,60.000486603950385,
7,"They picked up their conversation, and James ended up telling Teresa about a concert he was going to later. ",3,3,,,,0,7,7,7,,,,,0,27,27,27,,,,,,,,,,,,,,,,,,,,,,,,,,,,,,,9,1.9841306250000343,,,,,,,,,,,,,,,,,,,,,,,,,,,,021819_p1,001,2019_Feb_18_1518,body_behavioural,3.0.3,60.000486603950385,
7,"He invited her to come along, promising her that the concert would be indoors and absolutely free of venomous insects.",3,3,,,,0,7,7,7,,,,,0,28,28,28,,,,,,,,,,,,,,,,,,,,,,,,,,,,,,,1,1.386361622000095,,,,,,,,,,,,,,,,,,,,,,,,,,,,021819_p1,001,2019_Feb_18_1518,body_behavioural,3.0.3,60.000486603950385,
7,"Teresa agreed, gave him her number, and they worked out that James would pick her up before the concert and drive them there.",3,3,,,,0,7,7,7,,,,,0,29,29,29,,,,,,,,,,,,,,,,,,,,,,,,,,,,,,,1,1.6031228750000537,,,,,,,,,,,,,,,,,,,,,,,,,,,,021819_p1,001,2019_Feb_18_1518,body_behavioural,3.0.3,60.000486603950385,
7,"This was not what they had expected from their solitary lunch plans and were both excited, even though Teresa was doing a much better job of hiding it than James. ",3,3,,,,0,7,7,7,,,,,0,30,30,30,,,,,,,,,,,,,,,,,,,,,,,,,,,,,,,1,3.0195712529998673,,,,,,,,,,,,,,,,,,,,,,,,,,,,021819_p1,001,2019_Feb_18_1518,body_behavioural,3.0.3,60.000486603950385,
7," After awhile,  the waitress brought out their food, and James took this opportunity to scoot closer to her on the log bench. ",4,4,,,,0,7,7,7,,,,,0,31,31,31,,,,,,,,,,,,,,,,,,,,,,,,,,,,,,,9,3.786539624999932,,,,,,,,,,,,,,,,,,,,,,,,,,,,021819_p1,001,2019_Feb_18_1518,body_behavioural,3.0.3,60.000486603950385,
7,"Teresa was happy to share the meal with James, despite their food tasting pretty bad. ",4,4,,,,0,7,7,7,,,,,0,32,32,32,,,,,,,,,,,,,,,,,,,,,,,,,,,,,,,1,1.9698082069999145,,,,,,,,,,,,,,,,,,,,,,,,,,,,021819_p1,001,2019_Feb_18_1518,body_behavioural,3.0.3,60.000486603950385,
7,"Judging by how salty the pancakes tasted, they suspected that the chef had confused the salt and sugar.",4,4,,,,0,7,7,7,,,,,0,33,33,33,,,,,,,,,,,,,,,,,,,,,,,,,,,,,,,1,1.9194828750000852,,,,,,,,,,,,,,,,,,,,,,,,,,,,021819_p1,001,2019_Feb_18_1518,body_behavioural,3.0.3,60.000486603950385,
7,"When the meal was over, they got up, hugged, and parted ways. ",4,4,,,,0,7,7,7,,,,,0,34,34,34,,,,,,,,,,,,,,,,,,,,,,,,,,,,,,,1,1.7030985799999598,,,,,,,,,,,,,,,,,,,,,,,,,,,,021819_p1,001,2019_Feb_18_1518,body_behavioural,3.0.3,60.000486603950385,
7,"James said,“I have to run, got to get to work.",4,4,,,,0,7,7,7,,,,,0,35,35,35,,,,,,,,,,,,,,,,,,,,,,,,,,,,,,,1,0.8031398220000483,,,,,,,,,,,,,,,,,,,,,,,,,,,,021819_p1,001,2019_Feb_18_1518,body_behavioural,3.0.3,60.000486603950385,
7,See you tonight!”,4,4,,,,0,7,7,7,,,,,0,36,36,36,,,,,,,,,,,,,,,,,,,,,,,,,,,,,,,1,0.4697069219998866,,,,,,,,,,,,,,,,,,,,,,,,,,,,021819_p1,001,2019_Feb_18_1518,body_behavioural,3.0.3,60.000486603950385,
7,"Teresa smiled and walked towards the door without looking, and almost ran into the door again. ",4,4,,,,0,7,7,7,,,,,0,37,37,37,,,,,,,,,,,,,,,,,,,,,,,,,,,,,,,1,2.303128615000105,,,,,,,,,,,,,,,,,,,,,,,,,,,,021819_p1,001,2019_Feb_18_1518,body_behavioural,3.0.3,60.000486603950385,
7,They both laughed and smiled once more goodbye. ,4,4,,,,0,7,7,7,,,,,0,38,38,38,,,,,,,,,,,,,,,,,,,,,,,,,,,,,,,1,1.2530878019999818,,,,,,,,,,,,,,,,,,,,,,,,,,,,021819_p1,001,2019_Feb_18_1518,body_behavioural,3.0.3,60.000486603950385,
7,,,,,,,0,7,7,7,,,,,,,,,,,,,,,,,,,,,,,,,,,,,,,,,,,,,,,,,,,,,,,,,,,,,,,,,,,,,,,,,,,,021819_p1,001,2019_Feb_18_1518,body_behavioural,3.0.3,60.000486603950385,
,,,,,,,,,,,,,,,,,,,,,,,,,,,,,,,,,,,,,,,,,,,,,,,,,,,1194.175307965,space,10.320366584999874,,,,,,,,,,,,,,,,,,,,,,,,,021819_p1,001,2019_Feb_18_1518,body_behavioural,3.0.3,60.000486603950385,
,,,,,,The next task in the experiment is to recall each story to the best of your ability.,,,,,,,,,,,,,0,0,0,0,,,,,,,,,,,,,,,,,,,,,,,,,,,,,,,,space,4.136655783000151,,,,,,,,,,,,,,,,,,,,,,,021819_p1,001,2019_Feb_18_1518,body_behavioural,3.0.3,60.000486603950385,
,,,,,,"You will be presented with the story title, names, the images, and a blank text box for each story.",,,,,,,,,,,,,0,1,1,1,,,,,,,,,,,,,,,,,,,,,,,,,,,,,,,,space,87.50925765700003,,,,,,,,,,,,,,,,,,,,,,,021819_p1,001,2019_Feb_18_1518,body_behavioural,3.0.3,60.000486603950385,
,,,,,,Describe the story with as many details as you can remember in the space provided. ,,,,,,,,,,,,,0,2,2,2,,,,,,,,,,,,,,,,,,,,,,,,,,,,,,,,space,1.9527805220000118,,,,,,,,,,,,,,,,,,,,,,,021819_p1,001,2019_Feb_18_1518,body_behavioural,3.0.3,60.000486603950385,
,,,,,,"When you are finished recalling one story, to move onto the next one hit ‘return’. ",,,,,,,,,,,,,0,3,3,3,,,,,,,,,,,,,,,,,,,,,,,,,,,,,,,,space,1.8363020249998954,,,,,,,,,,,,,,,,,,,,,,,021819_p1,001,2019_Feb_18_1518,body_behavioural,3.0.3,60.000486603950385,
,,,,,,There is no time limit for your responses. ,,,,,,,,,,,,,0,4,4,4,,,,,,,,,,,,,,,,,,,,,,,,,,,,,,,,space,1.4009900849998758,,,,,,,,,,,,,,,,,,,,,,,021819_p1,001,2019_Feb_18_1518,body_behavioural,3.0.3,60.000486603950385,
0,,,,,,,,,,,,,,,,,,,,,,,0,0,0,0,,,,,,,,,,,,,,,,,,,,,,,,,,,,,,space,0.5861017850002099,"Ms bianchi and ms morrison meet in a store. one of them is trying to sell the other cheese. the first one is hesitant to buy the cheese because it will be expensive and not neccesarily a good purchase considering the selection they already have . they go over to the cheese section and look at what is there already. the one selling the cheese promises they can start out small buying only a limited amount of the cheese and then see how the cheese sells and how complimentary products sell as well. the woman buying agrees and says it would a great addition to their european cheese collection. earlier in the story one of the women picks up cheese to buy it , now they go to the checkout line and pay for it; she pays only in coins. they leave happily.  ",,,,,,,,,,,,,,,,,,,,021819_p1,001,2019_Feb_18_1518,body_behavioural,3.0.3,60.000486603950385,
1,,,,,,,,,,,,,,,,,,,,,,,0,1,1,1,,,,,,,,,,,,,,,,,,,,,,,,,,,,,,space,1.2029900130000897,"Jeff and william are meeting at the airport after having met the night before. it happens to be that one of them is a wine salesmen for the region, and was worried he was going to travel back without any sales, but he was happily surprised when he was able to meet right before he was going to take off.  they agree to some deal, and then they walk together toward the gate and he calls his boss and tells him a deal was made",,,,,,,,,,,,,,,,,,,,021819_p1,001,2019_Feb_18_1518,body_behavioural,3.0.3,60.000486603950385,
2,,,,,,,,,,,,,,,,,,,,,,,0,2,2,2,,,,,,,,,,,,,,,,,,,,,,,,,,,,,,space,0.6864801149999948,"These two meet in class about mummies. leon feels as though he has met ariana somewhere when he first sees her. he eventually decides to pass her a note asking about where he might have met her. she says that maybe its her twin, jokingly, and then they proceed to pass notes the entire class. they eventually decide to meet up -- he will pick her up -- after class, later at 6. ",,,,,,,,,,,,,,,,,,,,021819_p1,001,2019_Feb_18_1518,body_behavioural,3.0.3,60.000486603950385,
3,,,,,,,,,,,,,,,,,,,,,,,0,3,3,3,,,,,,,,,,,,,,,,,,,,,,,,,,,,,,space,0.6030574420001358,"Alex and chloe are going shopping together, and alex has a plan to propose to chloe. they are going through the aisles, and alex is really nauseous because hes so anxious. she looks at him a number of times asking if hes okay. at some point he pulls out the ring while she wasnt looking, and then puts the ring back. then they eventually go to the checkout. she asks him again whats wrong. he says  -nothing- and then proceeds to glance over to his friends and her friends waiting after the register. he then gets down on one knee and proposes. then all her friends come close and start videoing as do other customers at the store as she answers yes. they eventually finish checking out of the store, and walk out happily",,,,,,,,,,,,,,,,,,,,021819_p1,001,2019_Feb_18_1518,body_behavioural,3.0.3,60.000486603950385,
4,,,,,,,,,,,,,,,,,,,,,,,0,4,4,4,,,,,,,,,,,,,,,,,,,,,,,,,,,,,,space,0.602893437000148,"Maria wants to break up with henry but she is worried this will be the last oppurtunity. they come into class where they are learning about the ancient greeks and aristotle, and they sit it the back. slowly maria starts to break to henry the news that she thinks that she cant do long distance, and this has to be it. he starts to cry and is clearly upset asking her if they could make it work somehow. she says that she knows it will be tough but this is how it has to be. at the end they leave class, and outside they give each other a big last hug as they walk away from each other .",,,,,,,,,,,,,,,,,,,,021819_p1,001,2019_Feb_18_1518,body_behavioural,3.0.3,60.000486603950385,
5,,,,,,,,,,,,,,,,,,,,,,,0,5,5,5,,,,,,,,,,,,,,,,,,,,,,,,,,,,,,space,0.9863834369998585,,,,,,,,,,,,,,,,,,,,,021819_p1,001,2019_Feb_18_1518,body_behavioural,3.0.3,60.000486603950385,
6,,,,,,,,,,,,,,,,,,,,,,,0,6,6,6,,,,,,,,,,,,,,,,,,,,,,,,,,,,,,space,38.45531014499966,Sadie walks into the bar and bumps her head on the door as she walks in. thomas realizes and thinks it was funny. the waiter eventually seats them next to each other. they start talking and sadie tells thomas about the time she was stung by a scorpion in egypt and that since then other painful things are nothing to her. this was in response to thomas asking if shes okay. they talk for awhile and then... ,,,,,,,,,,,,,,,,,,,,021819_p1,001,2019_Feb_18_1518,body_behavioural,3.0.3,60.000486603950385,
7,,,,,,,,,,,,,,,,,,,,,,,0,7,7,7,,,,,,,,,,,,,,,,,,,,,,,,,,,,,,space,0.6863923920000161,"Thomas is waiting for his girlfriend at the restaurant. she eventually comes and they sit in the back of the restaurant, and they proceed to talk. she asks him how he is, and it seems to her as if something is wrong. eventually he starts to say about how his job is really changing and hes not sure what he wants. the waiter comes and interrupts them in the middle asking what they want to eat. he gets a burger without tomatoes and she gets something else. thomas then proceeds to tell her that he needs space and time to think about everything and that he wants a break. she asks whats wrong because it seemed like everything was going okay. the waiter comes back with the foood and asks if they want desert. they say no. she then starts to get angry and storms out of the restaurant. thomas felt confused about how the evening went, not expecting what happened.",,,,,,,,,,,,,,,,,,,,021819_p1,001,2019_Feb_18_1518,body_behavioural,3.0.3,60.000486603950385,
,,,,,,,,,,,,,,,,,,,,,,,,,,,,,,,,,,,,,,,,,,,,,,,,,,,,,,,,,,,2844.2858713650003,space,7.403513995000139,,,,,,,,,,,,,,,,,021819_p1,001,2019_Feb_18_1518,body_behavioural,3.0.3,60.000486603950385,
,,,,,,The next part of the task is to answer 8 questions about each story.,,,,,,,,,,,,,,,,,,,,,0,0,0,0,,,,,,,,,,,,,,,,,,,,,,,,,,,,,,,,space,3.936598521999713,,,,,,,,,,,,,,,021819_p1,001,2019_Feb_18_1518,body_behavioural,3.0.3,60.000486603950385,
,,,,,,Some of the questions are not related to the perspective you were asked to assume.,,,,,,,,,,,,,,,,,,,,,0,1,1,1,,,,,,,,,,,,,,,,,,,,,,,,,,,,,,,,space,11.251460805000079,,,,,,,,,,,,,,,021819_p1,001,2019_Feb_18_1518,body_behavioural,3.0.3,60.000486603950385,
,,,,,,"We realize that we did not tell you to think of these questions during the story, but do your best to answer them.",,,,,,,,,,,,,,,,,,,,,0,2,2,2,,,,,,,,,,,,,,,,,,,,,,,,,,,,,,,,space,5.203325797999696,,,,,,,,,,,,,,,021819_p1,001,2019_Feb_18_1518,body_behavioural,3.0.3,60.000486603950385,
,,,,,,"When you have finished typing your answer, hit ‘return’ to submit your answer and move onto the next question. ",,,,,,,,,,,,,,,,,,,,,0,3,3,3,,,,,,,,,,,,,,,,,,,,,,,,,,,,,,,,space,3.937058529999831,,,,,,,,,,,,,,,021819_p1,001,2019_Feb_18_1518,body_behavioural,3.0.3,60.000486603950385,
0,,,,,,,,,,,,,,,,,,,,,,,,,,,,,,,0,0,0,0,,,,,,,,,,,,,,,,,,,,,,,,"They pay with coins... pennies i believe, and i think it was six dollars",,,,,,space,0.9673881899998378,Cheese sales and store manager,primed first,The sale of new cheese products ... i think about 1000 dollars,Originally hesitance but then acceptance,The store agrees to a trial run carrying the cheese,,They check out the cheeses,Unknown,"They pay with coins... pennies i believe, and i think it was six dollars",,,,021819_p1,001,2019_Feb_18_1518,body_behavioural,3.0.3,60.000486603950385,
1,,,,,,,,,,,,,,,,,,,,,,,,,,,,,,,0,1,1,1,,,,,,,,,,,,,,,,,,,,,,,,They reach a deal and both parties leave happy,,,,,,space,1.4026834599999347,They have ample time,primed first,They have to take off of their shoes and everything on them thats metal,They are happy that they made a deal,Dont remember,"Wine sales, airport management",New wine selection for the airport,Affirmative,They reach a deal and both parties leave happy,,,,021819_p1,001,2019_Feb_18_1518,body_behavioural,3.0.3,60.000486603950385,
2,,,,,,,,,,,,,,,,,,,,,,,,,,,,,,,0,2,2,2,,,,,,,,,,,,,,,,,,,,,,,,They leave together when class ends,,,,,,space,1.053070143000241,Long and dark,non-primed first,Mummies,They learn why ancient egyptians had mummies,Dont remember,Leon notices ariana first because he thinks he remembers her from somewhere,He passes her a note,Leon proposes taking ariana to dinner,They leave together when class ends,,,,021819_p1,001,2019_Feb_18_1518,body_behavioural,3.0.3,60.000486603950385,
3,,,,,,,,,,,,,,,,,,,,,,,,,,,,,,,0,3,3,3,,,,,,,,,,,,,,,,,,,,,,,,Dont remember,,,,,,space,1.0364187949999177,He is super anxious,non-primed first,Dont remember,All the friends meet them immediately after he proposes,Everyone at the supermarket and all their friends,Dont remember,Dont remember,Dont remember,Dont remember,,,,021819_p1,001,2019_Feb_18_1518,body_behavioural,3.0.3,60.000486603950385,
