count,storyText,locationEvent,socialEvent,locationEventSize,socialEventSize,instructText,trials.thisRepN,trials.thisTrialN,trials.thisN,trials.thisIndex,trials_7.thisRepN,trials_7.thisTrialN,trials_7.thisN,trials_7.thisIndex,trials_2.thisRepN,trials_2.thisTrialN,trials_2.thisN,trials_2.thisIndex,trials_3.thisRepN,trials_3.thisTrialN,trials_3.thisN,trials_3.thisIndex,trials_4.thisRepN,trials_4.thisTrialN,trials_4.thisN,trials_4.thisIndex,trials_5.thisRepN,trials_5.thisTrialN,trials_5.thisN,trials_5.thisIndex,trials_6.thisRepN,trials_6.thisTrialN,trials_6.thisN,trials_6.thisIndex,trials_8.thisRepN,trials_8.thisTrialN,trials_8.thisN,trials_8.thisIndex,order of stories,order of perspectives,participant 2 order - stories,participant 2 order  - schemas types,key_resp_8.keys,key_resp_8.rt,key_resp_5.keys,key_resp_5.rt,key_resp_7.keys,key_resp_7.rt,story_presses.keys,story_presses.rt,story time,key_resp_6.keys,key_resp_6.rt,key_resp_2.keys,key_resp_2.rt,key_resp_10.keys,key_resp_10.rt,recall,recall time,key_resp_12.keys,key_resp_12.rt,key_resp_3.keys,key_resp_3.rt,key_resp_11.keys,key_resp_11.rt,question1_answer,order of question,question2_answer,question3_answer,question4_answer,question5_answer,question6_answer,question7_answer,question8_answer,questions time,key_resp_13.keys,key_resp_13.rt,participant,session,date,expName,psychopyVersion,frameRate,
0,,,,,,,0,0,0,0,0,0,0,0,,,,,,,,,,,,,,,,,,,,,,,,,[11 34 43 21 33 12 22 44 41 14 42 23 31 24 32 13],"['Location' 'Location' 'Location' 'Social' 'Social' 'Social' 'Location'
 'Social' 'Social' 'Location' 'Location' 'Location' 'Location' 'Social'
 'Social' 'Social']",[41 14 42 23 31 24 32 13],"['Social' 'Location' 'Location' 'Location' 'Location' 'Social' 'Social'
 'Social']",space,28.27473805000045,space,2.469718512002146,space,2.986471691998304,,,,,,,,,,,,,,,,,,,,,,,,,,,,,,022519_p2,001,2019_Feb_25_1415,body_behavioural,3.0.4,59.99814377583122,
0,"Thomas, dreading the conversation he was about to have, got to Annika’s Finer Diner early.",1,1,None,None,,0,0,0,0,,,,,0,0,0,0,,,,,,,,,,,,,,,,,,,,,,,,,,,,,,,9,24.138126463003573,,,,,,,,,,,,,,,,,,,,,,,,,,,,022519_p2,001,2019_Feb_25_1415,body_behavioural,3.0.4,59.99814377583122,
0,The restaurant had a kitschy charm and was reminiscent of a diner from the 70’s. ,1,1,None,None,,0,0,0,0,,,,,0,1,1,1,,,,,,,,,,,,,,,,,,,,,,,,,,,,,,,9,4.969960580005136,,,,,,,,,,,,,,,,,,,,,,,,,,,,022519_p2,001,2019_Feb_25_1415,body_behavioural,3.0.4,59.99814377583122,
0,A bell chimed as the door swung open and Sadie entered to find Thomas deep in thought on a bench by the door.,1,1,None,None,,0,0,0,0,,,,,0,2,2,2,,,,,,,,,,,,,,,,,,,,,,,,,,,,,,,1,5.167659784994612,,,,,,,,,,,,,,,,,,,,,,,,,,,,022519_p2,001,2019_Feb_25_1415,body_behavioural,3.0.4,59.99814377583122,
0,He jumped up and gave her a side hug. ,1,1,None,None,,0,0,0,0,,,,,0,3,3,3,,,,,,,,,,,,,,,,,,,,,,,,,,,,,,,1,5.020059562004462,,,,,,,,,,,,,,,,,,,,,,,,,,,,022519_p2,001,2019_Feb_25_1415,body_behavioural,3.0.4,59.99814377583122,
0,"“How was your day?”, he asked.",1,1,None,None,,0,0,0,0,,,,,0,4,4,4,,,,,,,,,,,,,,,,,,,,,,,,,,,,,,,1,1.7698627049976494,,,,,,,,,,,,,,,,,,,,,,,,,,,,022519_p2,001,2019_Feb_25_1415,body_behavioural,3.0.4,59.99814377583122,
0,"She clung onto him, “It was okay.",1,1,None,None,,0,0,0,0,,,,,0,5,5,5,,,,,,,,,,,,,,,,,,,,,,,,,,,,,,,1,1.3366651280011865,,,,,,,,,,,,,,,,,,,,,,,,,,,,022519_p2,001,2019_Feb_25_1415,body_behavioural,3.0.4,59.99814377583122,
0,I missed you today.”,1,1,None,None,,0,0,0,0,,,,,0,6,6,6,,,,,,,,,,,,,,,,,,,,,,,,,,,,,,,1,1.6859885800004122,,,,,,,,,,,,,,,,,,,,,,,,,,,,022519_p2,001,2019_Feb_25_1415,body_behavioural,3.0.4,59.99814377583122,
0,He looked at the hostess coming towards them.,1,1,None,None,,0,0,0,0,,,,,0,7,7,7,,,,,,,,,,,,,,,,,,,,,,,,,,,,,,,9,2.5005260150064714,,,,,,,,,,,,,,,,,,,,,,,,,,,,022519_p2,001,2019_Feb_25_1415,body_behavioural,3.0.4,59.99814377583122,
0,"“Can we have a table in the back?”, Thomas asked.",1,1,None,None,,0,0,0,0,,,,,0,8,8,8,,,,,,,,,,,,,,,,,,,,,,,,,,,,,,,1,6.503345728000568,,,,,,,,,,,,,,,,,,,,,,,,,,,,022519_p2,001,2019_Feb_25_1415,body_behavioural,3.0.4,59.99814377583122,
0,"She shrugged and, as she loudly popped her bubblegum, replied, “Sure, honey, this way.”",1,1,9.0,None,,0,0,0,0,,,,,0,9,9,9,,,,,,,,,,,,,,,,,,,,,,,,,,,,,,,1,4.084301354996569,,,,,,,,,,,,,,,,,,,,,,,,,,,,022519_p2,001,2019_Feb_25_1415,body_behavioural,3.0.4,59.99814377583122,
0,She led them to the back of the restaurant where there were dimly lit tables. ,2,1,None,None,,0,0,0,0,,,,,0,10,10,10,,,,,,,,,,,,,,,,,,,,,,,,,,,,,,,1,6.070414278001408,,,,,,,,,,,,,,,,,,,,,,,,,,,,022519_p2,001,2019_Feb_25_1415,body_behavioural,3.0.4,59.99814377583122,
0,"“Is this alright?”, the hostess asked.",2,1,None,None,,0,0,0,0,,,,,0,11,11,11,,,,,,,,,,,,,,,,,,,,,,,,,,,,,,,1,1.286241051995603,,,,,,,,,,,,,,,,,,,,,,,,,,,,022519_p2,001,2019_Feb_25_1415,body_behavioural,3.0.4,59.99814377583122,
0,Thomas cleared his throat and tried not to grimace at the stained fabric that lined the booth.,2,1,None,None,,0,0,0,0,,,,,0,12,12,12,,,,,,,,,,,,,,,,,,,,,,,,,,,,,,,1,4.553596457000822,,,,,,,,,,,,,,,,,,,,,,,,,,,,022519_p2,001,2019_Feb_25_1415,body_behavioural,3.0.4,59.99814377583122,
0,“This is great.,2,1,None,None,,0,0,0,0,,,,,0,13,13,13,,,,,,,,,,,,,,,,,,,,,,,,,,,,,,,1,0.7697174799977802,,,,,,,,,,,,,,,,,,,,,,,,,,,,022519_p2,001,2019_Feb_25_1415,body_behavioural,3.0.4,59.99814377583122,
0,"Thank you,” Thomas said.",2,1,None,None,,0,0,0,0,,,,,0,14,14,14,,,,,,,,,,,,,,,,,,,,,,,,,,,,,,,1,0.6697640680067707,,,,,,,,,,,,,,,,,,,,,,,,,,,,022519_p2,001,2019_Feb_25_1415,body_behavioural,3.0.4,59.99814377583122,
0,Sadie slipped into the cushioned seat and grabbed Thomas’ hand.,2,1,None,None,,0,0,0,0,,,,,0,15,15,15,,,,,,,,,,,,,,,,,,,,,,,,,,,,,,,9,6.453487639999366,,,,,,,,,,,,,,,,,,,,,,,,,,,,022519_p2,001,2019_Feb_25_1415,body_behavioural,3.0.4,59.99814377583122,
0,"“Tell me about your day!”, Sadie sang as Thomas sat down.",2,1,None,None,,0,0,0,0,,,,,0,16,16,16,,,,,,,,,,,,,,,,,,,,,,,,,,,,,,,1,6.219883195000875,,,,,,,,,,,,,,,,,,,,,,,,,,,,022519_p2,001,2019_Feb_25_1415,body_behavioural,3.0.4,59.99814377583122,
0,He looked at her silently and pulled his hand slowly from hers.,2,1,None,None,,0,0,0,0,,,,,0,17,17,17,,,,,,,,,,,,,,,,,,,,,,,,,,,,,,,1,2.853214378003031,,,,,,,,,,,,,,,,,,,,,,,,,,,,022519_p2,001,2019_Feb_25_1415,body_behavioural,3.0.4,59.99814377583122,
0,Sadie gave him a puzzled look.,2,1,None,None,,0,0,0,0,,,,,0,18,18,18,,,,,,,,,,,,,,,,,,,,,,,,,,,,,,,1,2.0172098249968258,,,,,,,,,,,,,,,,,,,,,,,,,,,,022519_p2,001,2019_Feb_25_1415,body_behavioural,3.0.4,59.99814377583122,
0,Thomas looked away and took a deep breath. ,2,1,None,None,,0,0,0,0,,,,,0,19,19,19,,,,,,,,,,,,,,,,,,,,,,,,,,,,,,,1,2.919507229998999,,,,,,,,,,,,,,,,,,,,,,,,,,,,022519_p2,001,2019_Feb_25_1415,body_behavioural,3.0.4,59.99814377583122,
0,"Sadie asked, “What’s wrong?” ",2,1,None,None,,0,0,0,0,,,,,0,20,20,20,,,,,,,,,,,,,,,,,,,,,,,,,,,,,,,1,3.13645336299669,,,,,,,,,,,,,,,,,,,,,,,,,,,,022519_p2,001,2019_Feb_25_1415,body_behavioural,3.0.4,59.99814377583122,
0,Thomas picked at his fingernails.,2,1,None,22.0,,0,0,0,0,,,,,0,21,21,21,,,,,,,,,,,,,,,,,,,,,,,,,,,,,,,1,2.253162244996929,,,,,,,,,,,,,,,,,,,,,,,,,,,,022519_p2,001,2019_Feb_25_1415,body_behavioural,3.0.4,59.99814377583122,
0,"“Sadie, I’ve been thinking, and I need to figure out some stuff… on my own.”",2,2,None,None,,0,0,0,0,,,,,0,22,22,22,,,,,,,,,,,,,,,,,,,,,,,,,,,,,,,9,7.153080798001611,,,,,,,,,,,,,,,,,,,,,,,,,,,,022519_p2,001,2019_Feb_25_1415,body_behavioural,3.0.4,59.99814377583122,
0,Sadie’s mouth popped open for a moment.,2,2,None,None,,0,0,0,0,,,,,0,23,23,23,,,,,,,,,,,,,,,,,,,,,,,,,,,,,,,1,1.7840150279953377,,,,,,,,,,,,,,,,,,,,,,,,,,,,022519_p2,001,2019_Feb_25_1415,body_behavioural,3.0.4,59.99814377583122,
0,Then she swallowed and shifted back in her seat.,2,2,None,None,,0,0,0,0,,,,,0,24,24,24,,,,,,,,,,,,,,,,,,,,,,,,,,,,,,,1,3.1366318250002223,,,,,,,,,,,,,,,,,,,,,,,,,,,,022519_p2,001,2019_Feb_25_1415,body_behavioural,3.0.4,59.99814377583122,
0,“Things have been really picking up at work.,2,2,None,None,,0,0,0,0,,,,,0,25,25,25,,,,,,,,,,,,,,,,,,,,,,,,,,,,,,,1,5.317637940002896,,,,,,,,,,,,,,,,,,,,,,,,,,,,022519_p2,001,2019_Feb_25_1415,body_behavioural,3.0.4,59.99814377583122,
0,And I’m not sure that this is the job I want to do anymore.,2,2,None,None,,0,0,0,0,,,,,0,26,26,26,,,,,,,,,,,,,,,,,,,,,,,,,,,,,,,1,2.369634128001053,,,,,,,,,,,,,,,,,,,,,,,,,,,,022519_p2,001,2019_Feb_25_1415,body_behavioural,3.0.4,59.99814377583122,
0,It’s been really overwhelming between working and figuring out if I should change careers.” ,2,2,17.0,None,,0,0,0,0,,,,,0,27,27,27,,,,,,,,,,,,,,,,,,,,,,,,,,,,,,,1,3.9199777500034543,,,,,,,,,,,,,,,,,,,,,,,,,,,,022519_p2,001,2019_Feb_25_1415,body_behavioural,3.0.4,59.99814377583122,
0,The waiter appeared and interrupted the speech Thomas had been practicing.,3,2,None,None,,0,0,0,0,,,,,0,28,28,28,,,,,,,,,,,,,,,,,,,,,,,,,,,,,,,9,2.8032065630031866,,,,,,,,,,,,,,,,,,,,,,,,,,,,022519_p2,001,2019_Feb_25_1415,body_behavioural,3.0.4,59.99814377583122,
0,"“Hello you two!”, the waiter said.",3,2,None,None,,0,0,0,0,,,,,0,29,29,29,,,,,,,,,,,,,,,,,,,,,,,,,,,,,,,1,2.1674808000025223,,,,,,,,,,,,,,,,,,,,,,,,,,,,022519_p2,001,2019_Feb_25_1415,body_behavioural,3.0.4,59.99814377583122,
0,“Have you decided what you would like?”,3,2,None,None,,0,0,0,0,,,,,0,30,30,30,,,,,,,,,,,,,,,,,,,,,,,,,,,,,,,1,0.750639339996269,,,,,,,,,,,,,,,,,,,,,,,,,,,,022519_p2,001,2019_Feb_25_1415,body_behavioural,3.0.4,59.99814377583122,
0,"Thomas and Sadie realized there were menus on the table, and they glanced at the lengthy list quickly.",3,2,None,None,,0,0,0,0,,,,,0,31,31,31,,,,,,,,,,,,,,,,,,,,,,,,,,,,,,,1,6.386718157998985,,,,,,,,,,,,,,,,,,,,,,,,,,,,022519_p2,001,2019_Feb_25_1415,body_behavioural,3.0.4,59.99814377583122,
0,"There were so many strange dishes they had never heard of before, so they settled on familiar orders.",3,2,None,None,,0,0,0,0,,,,,0,32,32,32,,,,,,,,,,,,,,,,,,,,,,,,,,,,,,,1,4.51746804999857,,,,,,,,,,,,,,,,,,,,,,,,,,,,022519_p2,001,2019_Feb_25_1415,body_behavioural,3.0.4,59.99814377583122,
0,"“I’ll have a burger, no tomatoes,” Thomas said.",3,2,None,None,,0,0,0,0,,,,,0,33,33,33,,,,,,,,,,,,,,,,,,,,,,,,,,,,,,,1,4.700888780003879,,,,,,,,,,,,,,,,,,,,,,,,,,,,022519_p2,001,2019_Feb_25_1415,body_behavioural,3.0.4,59.99814377583122,
0,"Sadie asked about the reuben, and the waiter told her it was excellent.",3,2,None,None,,0,0,0,0,,,,,0,34,34,34,,,,,,,,,,,,,,,,,,,,,,,,,,,,,,,1,5.353612773003988,,,,,,,,,,,,,,,,,,,,,,,,,,,,022519_p2,001,2019_Feb_25_1415,body_behavioural,3.0.4,59.99814377583122,
0,"Once she agreed to get that, he walked away. ",3,2,None,None,,0,0,0,0,,,,,0,35,35,35,,,,,,,,,,,,,,,,,,,,,,,,,,,,,,,1,3.936245825003425,,,,,,,,,,,,,,,,,,,,,,,,,,,,022519_p2,001,2019_Feb_25_1415,body_behavioural,3.0.4,59.99814377583122,
0,Sadie and Thomas looked at each other. ,3,2,None,None,,0,0,0,0,,,,,0,36,36,36,,,,,,,,,,,,,,,,,,,,,,,,,,,,,,,9,1.769763160002185,,,,,,,,,,,,,,,,,,,,,,,,,,,,022519_p2,001,2019_Feb_25_1415,body_behavioural,3.0.4,59.99814377583122,
0,"“So what are you saying?”, Sadie asked. ",3,2,None,None,,0,0,0,0,,,,,0,37,37,37,,,,,,,,,,,,,,,,,,,,,,,,,,,,,,,1,2.819562363001751,,,,,,,,,,,,,,,,,,,,,,,,,,,,022519_p2,001,2019_Feb_25_1415,body_behavioural,3.0.4,59.99814377583122,
0,"Thomas replied, “I want to take a break for awhile.",3,2,None,None,,0,0,0,0,,,,,0,38,38,38,,,,,,,,,,,,,,,,,,,,,,,,,,,,,,,1,12.587705115001881,,,,,,,,,,,,,,,,,,,,,,,,,,,,022519_p2,001,2019_Feb_25_1415,body_behavioural,3.0.4,59.99814377583122,
0,"You know, have space to figure out what I’m supposed to be doing.”",3,2,None,17.0,,0,0,0,0,,,,,0,39,39,39,,,,,,,,,,,,,,,,,,,,,,,,,,,,,,,1,1.7363967599958414,,,,,,,,,,,,,,,,,,,,,,,,,,,,022519_p2,001,2019_Feb_25_1415,body_behavioural,3.0.4,59.99814377583122,
0,Sadie quietly burst into tears. ,3,3,None,None,,0,0,0,0,,,,,0,40,40,40,,,,,,,,,,,,,,,,,,,,,,,,,,,,,,,9,2.5532834749974427,,,,,,,,,,,,,,,,,,,,,,,,,,,,022519_p2,001,2019_Feb_25_1415,body_behavioural,3.0.4,59.99814377583122,
0,"Nevertheless, people sitting at the adjacent table looked over and quickly averted their gaze as they realized what was happening. ",3,3,None,None,,0,0,0,0,,,,,0,41,41,41,,,,,,,,,,,,,,,,,,,,,,,,,,,,,,,9,8.37020060299983,,,,,,,,,,,,,,,,,,,,,,,,,,,,022519_p2,001,2019_Feb_25_1415,body_behavioural,3.0.4,59.99814377583122,
0,“Is this really what you want?,3,3,None,None,,0,0,0,0,,,,,0,42,42,42,,,,,,,,,,,,,,,,,,,,,,,,,,,,,,,9,2.136509322997881,,,,,,,,,,,,,,,,,,,,,,,,,,,,022519_p2,001,2019_Feb_25_1415,body_behavioural,3.0.4,59.99814377583122,
0,I don’t understand.,3,3,None,None,,0,0,0,0,,,,,0,43,43,43,,,,,,,,,,,,,,,,,,,,,,,,,,,,,,,1,1.2504911680007353,,,,,,,,,,,,,,,,,,,,,,,,,,,,022519_p2,001,2019_Feb_25_1415,body_behavioural,3.0.4,59.99814377583122,
0,I don’t understand.,3,3,None,None,,0,0,0,0,,,,,0,44,44,44,,,,,,,,,,,,,,,,,,,,,,,,,,,,,,,1,0.9504595280013746,,,,,,,,,,,,,,,,,,,,,,,,,,,,022519_p2,001,2019_Feb_25_1415,body_behavioural,3.0.4,59.99814377583122,
0,Things were fine. ,3,3,None,None,,0,0,0,0,,,,,0,45,45,45,,,,,,,,,,,,,,,,,,,,,,,,,,,,,,,1,0.6363483149980311,,,,,,,,,,,,,,,,,,,,,,,,,,,,022519_p2,001,2019_Feb_25_1415,body_behavioural,3.0.4,59.99814377583122,
0,"We don’t have to hang out all the time, or as much as we do now.”",3,3,None,None,,0,0,0,0,,,,,0,46,46,46,,,,,,,,,,,,,,,,,,,,,,,,,,,,,,,1,2.517544481997902,,,,,,,,,,,,,,,,,,,,,,,,,,,,022519_p2,001,2019_Feb_25_1415,body_behavioural,3.0.4,59.99814377583122,
0,Thomas chewed on his bottom lip and picked at his now bleeding hangnail. ,3,3,20.0,None,,0,0,0,0,,,,,0,47,47,47,,,,,,,,,,,,,,,,,,,,,,,,,,,,,,,9,6.386779100001149,,,,,,,,,,,,,,,,,,,,,,,,,,,,022519_p2,001,2019_Feb_25_1415,body_behavioural,3.0.4,59.99814377583122,
0,"At that moment, the waiter arrived with the burger and reuben and set them on the table.",4,3,None,None,,0,0,0,0,,,,,0,48,48,48,,,,,,,,,,,,,,,,,,,,,,,,,,,,,,,9,3.603003872995032,,,,,,,,,,,,,,,,,,,,,,,,,,,,022519_p2,001,2019_Feb_25_1415,body_behavioural,3.0.4,59.99814377583122,
0,“Is there anything else I can get for you two?,4,3,None,None,,0,0,0,0,,,,,0,49,49,49,,,,,,,,,,,,,,,,,,,,,,,,,,,,,,,1,1.553128250001464,,,,,,,,,,,,,,,,,,,,,,,,,,,,022519_p2,001,2019_Feb_25_1415,body_behavioural,3.0.4,59.99814377583122,
0,"Will you be getting dessert tonight?”, he asked.",4,3,None,None,,0,0,0,0,,,,,0,50,50,50,,,,,,,,,,,,,,,,,,,,,,,,,,,,,,,1,1.4533509350003442,,,,,,,,,,,,,,,,,,,,,,,,,,,,022519_p2,001,2019_Feb_25_1415,body_behavioural,3.0.4,59.99814377583122,
0,"“Oh no, we’re good, thanks,” Thomas said.",4,3,None,None,,0,0,0,0,,,,,0,51,51,51,,,,,,,,,,,,,,,,,,,,,,,,,,,,,,,1,6.720216164998419,,,,,,,,,,,,,,,,,,,,,,,,,,,,022519_p2,001,2019_Feb_25_1415,body_behavioural,3.0.4,59.99814377583122,
0,"Once the waiter had walked away still oblivious to the situation, Thomas sighed and said, “Sadie, I’m sorry.",4,3,None,None,,0,0,0,0,,,,,0,52,52,52,,,,,,,,,,,,,,,,,,,,,,,,,,,,,,,9,8.636856060002174,,,,,,,,,,,,,,,,,,,,,,,,,,,,022519_p2,001,2019_Feb_25_1415,body_behavioural,3.0.4,59.99814377583122,
0,"You are so great, and I love hanging out with you.",4,3,None,None,,0,0,0,0,,,,,0,53,53,53,,,,,,,,,,,,,,,,,,,,,,,,,,,,,,,1,1.6697455499961507,,,,,,,,,,,,,,,,,,,,,,,,,,,,022519_p2,001,2019_Feb_25_1415,body_behavioural,3.0.4,59.99814377583122,
0,But I need some time.,4,3,None,None,,0,0,0,0,,,,,0,54,54,54,,,,,,,,,,,,,,,,,,,,,,,,,,,,,,,1,0.7864728970016586,,,,,,,,,,,,,,,,,,,,,,,,,,,,022519_p2,001,2019_Feb_25_1415,body_behavioural,3.0.4,59.99814377583122,
0,I’m so sorry.”,4,3,None,None,,0,0,0,0,,,,,0,55,55,55,,,,,,,,,,,,,,,,,,,,,,,,,,,,,,,1,0.5006251550003071,,,,,,,,,,,,,,,,,,,,,,,,,,,,022519_p2,001,2019_Feb_25_1415,body_behavioural,3.0.4,59.99814377583122,
0,"He grabbed her hand, and she pulled it out of his.",4,3,None,None,,0,0,0,0,,,,,0,56,56,56,,,,,,,,,,,,,,,,,,,,,,,,,,,,,,,1,2.469848560001992,,,,,,,,,,,,,,,,,,,,,,,,,,,,022519_p2,001,2019_Feb_25_1415,body_behavioural,3.0.4,59.99814377583122,
0,"“Sadie,” he said.",4,3,None,17.0,,0,0,0,0,,,,,0,57,57,57,,,,,,,,,,,,,,,,,,,,,,,,,,,,,,,1,0.5694410799987963,,,,,,,,,,,,,,,,,,,,,,,,,,,,022519_p2,001,2019_Feb_25_1415,body_behavioural,3.0.4,59.99814377583122,
0," She stood up, grabbed half of the reuben and shook it at him as she growled, “Don’t follow me, and don’t talk to me anymore!”",4,4,None,None,,0,0,0,0,,,,,0,58,58,58,,,,,,,,,,,,,,,,,,,,,,,,,,,,,,,9,6.670185994997155,,,,,,,,,,,,,,,,,,,,,,,,,,,,022519_p2,001,2019_Feb_25_1415,body_behavioural,3.0.4,59.99814377583122,
0,"Sadie's heels clacked loudly against the black and white linoleum, and the bell above the door jingled cheerfully as the door closed behind her.",4,4,None,None,,0,0,0,0,,,,,0,59,59,59,,,,,,,,,,,,,,,,,,,,,,,,,,,,,,,1,6.203407094995782,,,,,,,,,,,,,,,,,,,,,,,,,,,,022519_p2,001,2019_Feb_25_1415,body_behavioural,3.0.4,59.99814377583122,
0,Thomas sat there for awhile in shock at how quickly everything transpired. ,4,4,None,None,,0,0,0,0,,,,,0,60,60,60,,,,,,,,,,,,,,,,,,,,,,,,,,,,,,,9,4.537098605003848,,,,,,,,,,,,,,,,,,,,,,,,,,,,022519_p2,001,2019_Feb_25_1415,body_behavioural,3.0.4,59.99814377583122,
0,"He grabbed his burger and took a bite of it, creating a dry and fishy taste in his mouth.",4,4,None,None,,0,0,0,0,,,,,0,61,61,61,,,,,,,,,,,,,,,,,,,,,,,,,,,,,,,1,5.0867228229981265,,,,,,,,,,,,,,,,,,,,,,,,,,,,022519_p2,001,2019_Feb_25_1415,body_behavioural,3.0.4,59.99814377583122,
0,He dropped it back on his plate and wondered if the restaurant was responsible for the foul taste. ,4,4,13.0,5.0,,0,0,0,0,,,,,0,62,62,62,,,,,,,,,,,,,,,,,,,,,,,,,,,,,,,1,5.003262210004323,,,,,,,,,,,,,,,,,,,,,,,,,,,,022519_p2,001,2019_Feb_25_1415,body_behavioural,3.0.4,59.99814377583122,
0,,,,,,,0,0,0,0,,,,,,,,,,,,,,,,,,,,,,,,,,,,,,,,,,,,,,,,,,,,,,,,,,,,,,,,,,,,,,,,,,,,022519_p2,001,2019_Feb_25_1415,body_behavioural,3.0.4,59.99814377583122,
1,,,,,,,0,1,1,1,0,0,0,0,,,,,,,,,,,,,,,,,,,,,,,,,,,,,space,1.36975713299762,space,1.269683200000145,space,1.7864827949961182,,,,,,,,,,,,,,,,,,,,,,,,,,,,,,022519_p2,001,2019_Feb_25_1415,body_behavioural,3.0.4,59.99814377583122,
1,Charlie saw Alma as they walked into class and he motioned for her to come sit in the back next to him: they had business to discuss.,1,1,,,,0,1,1,1,,,,,0,0,0,0,,,,,,,,,,,,,,,,,,,,,,,,,,,,,,,9,10.470543296993128,,,,,,,,,,,,,,,,,,,,,,,,,,,,022519_p2,001,2019_Feb_25_1415,body_behavioural,3.0.4,59.99814377583122,
1,Charlie and Alma were both economics students with entrepreneurial bents.,1,1,,,,0,1,1,1,,,,,0,1,1,1,,,,,,,,,,,,,,,,,,,,,,,,,,,,,,,1,3.053063574996486,,,,,,,,,,,,,,,,,,,,,,,,,,,,022519_p2,001,2019_Feb_25_1415,body_behavioural,3.0.4,59.99814377583122,
1,They were also both very busy and in the same class.,1,1,,,,0,1,1,1,,,,,0,2,2,2,,,,,,,,,,,,,,,,,,,,,,,,,,,,,,,1,2.10324774000037,,,,,,,,,,,,,,,,,,,,,,,,,,,,022519_p2,001,2019_Feb_25_1415,body_behavioural,3.0.4,59.99814377583122,
1,"After talking at a party, Charlie had discovered that Alma was looking for financing for her web development company.",1,1,,,,0,1,1,1,,,,,0,3,3,3,,,,,,,,,,,,,,,,,,,,,,,,,,,,,,,9,6.103413515003922,,,,,,,,,,,,,,,,,,,,,,,,,,,,022519_p2,001,2019_Feb_25_1415,body_behavioural,3.0.4,59.99814377583122,
1,It was serendipitous because he had been talking with other members of his venture capital group about making an investment. ,1,1,,,,0,1,1,1,,,,,0,4,4,4,,,,,,,,,,,,,,,,,,,,,,,,,,,,,,,1,2.4697282429988263,,,,,,,,,,,,,,,,,,,,,,,,,,,,022519_p2,001,2019_Feb_25_1415,body_behavioural,3.0.4,59.99814377583122,
1,"His financial group had come to a decision that morning about Alma’s idea, and he didn't want to wait until after class to discuss the proposal with her. ",1,1,,,,0,1,1,1,,,,,0,5,5,5,,,,,,,,,,,,,,,,,,,,,,,,,,,,,,,1,7.669956997000554,,,,,,,,,,,,,,,,,,,,,,,,,,,,022519_p2,001,2019_Feb_25_1415,body_behavioural,3.0.4,59.99814377583122,
1,"The class was in a large auditorium with small, foldable desks on the side of each cushioned chair. ",1,1,,,,0,1,1,1,,,,,0,6,6,6,,,,,,,,,,,,,,,,,,,,,,,,,,,,,,,9,3.1698909629994887,,,,,,,,,,,,,,,,,,,,,,,,,,,,022519_p2,001,2019_Feb_25_1415,body_behavioural,3.0.4,59.99814377583122,
1,"There were large windows on both sides of the hall, and they could see the first flurries of a winter storm starting outside. ",1,1,,,,0,1,1,1,,,,,0,7,7,7,,,,,,,,,,,,,,,,,,,,,,,,,,,,,,,9,2.1198884030018235,,,,,,,,,,,,,,,,,,,,,,,,,,,,022519_p2,001,2019_Feb_25_1415,body_behavioural,3.0.4,59.99814377583122,
1,"“Here we are at Lecture Seven already in History of the Eternal City,” said the professor. ",2,1,,,,0,1,1,1,,,,,0,8,8,8,,,,,,,,,,,,,,,,,,,,,,,,,,,,,,,9,7.853212428002735,,,,,,,,,,,,,,,,,,,,,,,,,,,,022519_p2,001,2019_Feb_25_1415,body_behavioural,3.0.4,59.99814377583122,
1,“We're going to talk today about the age of the first Roman emperor: Augustus.” ,2,1,,,,0,1,1,1,,,,,0,9,9,9,,,,,,,,,,,,,,,,,,,,,,,,,,,,,,,1,2.0866417850047583,,,,,,,,,,,,,,,,,,,,,,,,,,,,022519_p2,001,2019_Feb_25_1415,body_behavioural,3.0.4,59.99814377583122,
1,"She went into some recap of the last lecture, and Charlie took this as an opportunity to start talking to Alma.",2,1,,,,0,1,1,1,,,,,0,10,10,10,,,,,,,,,,,,,,,,,,,,,,,,,,,,,,,1,7.836755288000859,,,,,,,,,,,,,,,,,,,,,,,,,,,,022519_p2,001,2019_Feb_25_1415,body_behavioural,3.0.4,59.99814377583122,
1,"“Okay so I’ve been thinking about your startup idea, and I have talked about it with my fellow investors.",2,2,,,,0,1,1,1,,,,,0,11,11,11,,,,,,,,,,,,,,,,,,,,,,,,,,,,,,,1,2.719415993000439,,,,,,,,,,,,,,,,,,,,,,,,,,,,022519_p2,001,2019_Feb_25_1415,body_behavioural,3.0.4,59.99814377583122,
1,We’d like to invest half of what you originally suggested.,2,2,,,,0,1,1,1,,,,,0,12,12,12,,,,,,,,,,,,,,,,,,,,,,,,,,,,,,,1,2.4031953400044586,,,,,,,,,,,,,,,,,,,,,,,,,,,,022519_p2,001,2019_Feb_25_1415,body_behavioural,3.0.4,59.99814377583122,
1,"Rather than $30,000, we start with $15,000.",2,2,,,,0,1,1,1,,,,,0,13,13,13,,,,,,,,,,,,,,,,,,,,,,,,,,,,,,,1,1.6508046650051256,,,,,,,,,,,,,,,,,,,,,,,,,,,,022519_p2,001,2019_Feb_25_1415,body_behavioural,3.0.4,59.99814377583122,
1,We would see how the company does and then invest the other half later.” ,2,2,,,,0,1,1,1,,,,,0,14,14,14,,,,,,,,,,,,,,,,,,,,,,,,,,,,,,,1,2.936267159995623,,,,,,,,,,,,,,,,,,,,,,,,,,,,022519_p2,001,2019_Feb_25_1415,body_behavioural,3.0.4,59.99814377583122,
1,"Alma, tapping her pen on her notebook, narrowed her eyes and pursed her lips.",2,2,,,,0,1,1,1,,,,,0,15,15,15,,,,,,,,,,,,,,,,,,,,,,,,,,,,,,,9,3.2531639000008,,,,,,,,,,,,,,,,,,,,,,,,,,,,022519_p2,001,2019_Feb_25_1415,body_behavioural,3.0.4,59.99814377583122,
1,She turned back to the lecture as she considered this.,2,2,,,,0,1,1,1,,,,,0,16,16,16,,,,,,,,,,,,,,,,,,,,,,,,,,,,,,,1,4.4865541480030515,,,,,,,,,,,,,,,,,,,,,,,,,,,,022519_p2,001,2019_Feb_25_1415,body_behavioural,3.0.4,59.99814377583122,
1,"The professor was going on: “The senate had conferred upon him the title of Augustus the sacred and revered one, the restorer of traditional values, the city’s new religious leader, the restorer of temples. ",3,2,,,,0,1,1,1,,,,,0,17,17,17,,,,,,,,,,,,,,,,,,,,,,,,,,,,,,,9,2.769932240000344,,,,,,,,,,,,,,,,,,,,,,,,,,,,022519_p2,001,2019_Feb_25_1415,body_behavioural,3.0.4,59.99814377583122,
1,"Augustus also sought to beautify Rome, make it into a new Athens, and dispel the criticisms of Rome as disorganized and ugly.”",3,2,,,,0,1,1,1,,,,,0,18,18,18,,,,,,,,,,,,,,,,,,,,,,,,,,,,,,,1,3.986739510000916,,,,,,,,,,,,,,,,,,,,,,,,,,,,022519_p2,001,2019_Feb_25_1415,body_behavioural,3.0.4,59.99814377583122,
1,"Alma turned back to Charlie and offered her rebuttal, “I don’t know about that: it’s not going to be possible to implement our ideas effectively unless the project is fully funded. ",3,3,,,,0,1,1,1,,,,,0,19,19,19,,,,,,,,,,,,,,,,,,,,,,,,,,,,,,,9,7.5032892230010475,,,,,,,,,,,,,,,,,,,,,,,,,,,,022519_p2,001,2019_Feb_25_1415,body_behavioural,3.0.4,59.99814377583122,
1,We would have to find other investors and that would set us back in our timeline. ,3,3,,,,0,1,1,1,,,,,0,20,20,20,,,,,,,,,,,,,,,,,,,,,,,,,,,,,,,1,1.4697119480042602,,,,,,,,,,,,,,,,,,,,,,,,,,,,022519_p2,001,2019_Feb_25_1415,body_behavioural,3.0.4,59.99814377583122,
1,"Our profit projections assumed we'd be starting relatively soon, not months down the line.” ",3,3,,,,0,1,1,1,,,,,0,21,21,21,,,,,,,,,,,,,,,,,,,,,,,,,,,,,,,1,6.10336332800216,,,,,,,,,,,,,,,,,,,,,,,,,,,,022519_p2,001,2019_Feb_25_1415,body_behavioural,3.0.4,59.99814377583122,
1,They whispered back and forth during the whole class in order to work out a compromise. ,3,3,,,,0,1,1,1,,,,,0,22,22,22,,,,,,,,,,,,,,,,,,,,,,,,,,,,,,,1,3.636539448001713,,,,,,,,,,,,,,,,,,,,,,,,,,,,022519_p2,001,2019_Feb_25_1415,body_behavioural,3.0.4,59.99814377583122,
1,"Finally, the class ended, and the professor dismissed the students with a reminder that the midterm paper was due on Thursday and that they should email their papers to the TA.",4,3,,,,0,1,1,1,,,,,0,23,23,23,,,,,,,,,,,,,,,,,,,,,,,,,,,,,,,9,1.6530004029991687,,,,,,,,,,,,,,,,,,,,,,,,,,,,022519_p2,001,2019_Feb_25_1415,body_behavioural,3.0.4,59.99814377583122,
1,"Everyone, except Charlie and Alma, packed up their things and headed out of the lecture hall to get to their next class. ",4,3,,,,0,1,1,1,,,,,0,24,24,24,,,,,,,,,,,,,,,,,,,,,,,,,,,,,,,1,3.81985358500242,,,,,,,,,,,,,,,,,,,,,,,,,,,,022519_p2,001,2019_Feb_25_1415,body_behavioural,3.0.4,59.99814377583122,
1,"“Alright, so we’ll have the $30,000 wired to you by tomorrow,” Charlie said. ",4,4,,,,0,1,1,1,,,,,0,25,25,25,,,,,,,,,,,,,,,,,,,,,,,,,,,,,,,9,2.8532679449999705,,,,,,,,,,,,,,,,,,,,,,,,,,,,022519_p2,001,2019_Feb_25_1415,body_behavioural,3.0.4,59.99814377583122,
1,"This wasn't ideal for Charlie, but Alma had refused to budge, and his investment group had told him they were willing to pay the full amount if necessary. ",4,4,,,,0,1,1,1,,,,,0,26,26,26,,,,,,,,,,,,,,,,,,,,,,,,,,,,,,,1,5.103364082999178,,,,,,,,,,,,,,,,,,,,,,,,,,,,022519_p2,001,2019_Feb_25_1415,body_behavioural,3.0.4,59.99814377583122,
1,"They shook hands, walked out of the now-empty lecture hall, and made plans to sign the official paperwork the next day.",4,4,,,,0,1,1,1,,,,,0,27,27,27,,,,,,,,,,,,,,,,,,,,,,,,,,,,,,,1,5.634420049995242,,,,,,,,,,,,,,,,,,,,,,,,,,,,022519_p2,001,2019_Feb_25_1415,body_behavioural,3.0.4,59.99814377583122,
1,,,,,,,0,1,1,1,,,,,,,,,,,,,,,,,,,,,,,,,,,,,,,,,,,,,,,,,,,,,,,,,,,,,,,,,,,,,,,,,,,,022519_p2,001,2019_Feb_25_1415,body_behavioural,3.0.4,59.99814377583122,
2,,,,,,,0,2,2,2,0,0,0,0,,,,,,,,,,,,,,,,,,,,,,,,,,,,,space,0.9363950779952575,space,1.519502017996274,space,2.670248080001329,,,,,,,,,,,,,,,,,,,,,,,,,,,,,,022519_p2,001,2019_Feb_25_1415,body_behavioural,3.0.4,59.99814377583122,
2,,,,,,,0,2,2,2,1,0,1,0,,,,,,,,,,,,,,,,,,,,,,,,,,,,,,,,,space,2.0007725079995,,,,,,,,,,,,,,,,,,,,,,,,,,,,,,022519_p2,001,2019_Feb_25_1415,body_behavioural,3.0.4,59.99814377583122,
2,"Simon and Carina noticed each other as they walked into the grocery store at the same time, their carts nearly colliding as they squeezed into the entrance.",1,1,,,,0,2,2,2,,,,,0,0,0,0,,,,,,,,,,,,,,,,,,,,,,,,,,,,,,,9,7.004269043995009,,,,,,,,,,,,,,,,,,,,,,,,,,,,022519_p2,001,2019_Feb_25_1415,body_behavioural,3.0.4,59.99814377583122,
2,"They were both new to the Boston area, and this was their first time in this store. ",1,1,,,,0,2,2,2,,,,,0,1,1,1,,,,,,,,,,,,,,,,,,,,,,,,,,,,,,,9,2.734166362999531,,,,,,,,,,,,,,,,,,,,,,,,,,,,022519_p2,001,2019_Feb_25_1415,body_behavioural,3.0.4,59.99814377583122,
2,"It kind of looked like a large warehouse, with high unfurnished ceilings, industrial lights, and large packages of food. ",1,1,,,,0,2,2,2,,,,,0,2,2,2,,,,,,,,,,,,,,,,,,,,,,,,,,,,,,,1,3.7198842100042384,,,,,,,,,,,,,,,,,,,,,,,,,,,,022519_p2,001,2019_Feb_25_1415,body_behavioural,3.0.4,59.99814377583122,
2,"They went off along separate routes, but soon ended up back together in the meat section. ",2,1,,,,0,2,2,2,,,,,0,3,3,3,,,,,,,,,,,,,,,,,,,,,,,,,,,,,,,9,9.61849539999821,,,,,,,,,,,,,,,,,,,,,,,,,,,,022519_p2,001,2019_Feb_25_1415,body_behavioural,3.0.4,59.99814377583122,
2,"They were both preparing for barbecues, so they were looking over the same cuts of meat. ",2,1,,,,0,2,2,2,,,,,0,4,4,4,,,,,,,,,,,,,,,,,,,,,,,,,,,,,,,1,3.501023825003358,,,,,,,,,,,,,,,,,,,,,,,,,,,,022519_p2,001,2019_Feb_25_1415,body_behavioural,3.0.4,59.99814377583122,
2,"Simon really wanted to talk to Carina, and Carina really wanted to say something to Simon, but they felt embarrassed striking up a conversation with a stranger.",2,1,,,,0,2,2,2,,,,,0,5,5,5,,,,,,,,,,,,,,,,,,,,,,,,,,,,,,,9,7.6041306409970275,,,,,,,,,,,,,,,,,,,,,,,,,,,,022519_p2,001,2019_Feb_25_1415,body_behavioural,3.0.4,59.99814377583122,
2,"Carina suddenly turned to Simon and, pointing at a Cornish hen, asked, “Isn’t this meat cute?”",2,2,,,,0,2,2,2,,,,,0,6,6,6,,,,,,,,,,,,,,,,,,,,,,,,,,,,,,,1,4.853478053002618,,,,,,,,,,,,,,,,,,,,,,,,,,,,022519_p2,001,2019_Feb_25_1415,body_behavioural,3.0.4,59.99814377583122,
2,"He laughed, and said, “It is very cute.",2,2,,,,0,2,2,2,,,,,0,7,7,7,,,,,,,,,,,,,,,,,,,,,,,,,,,,,,,1,3.8361873979956727,,,,,,,,,,,,,,,,,,,,,,,,,,,,022519_p2,001,2019_Feb_25_1415,body_behavioural,3.0.4,59.99814377583122,
2,"Probably the younger brother of this guy,” and he picked up a regular-sized chicken.",2,2,,,,0,2,2,2,,,,,0,8,8,8,,,,,,,,,,,,,,,,,,,,,,,,,,,,,,,1,3.3365601519981283,,,,,,,,,,,,,,,,,,,,,,,,,,,,022519_p2,001,2019_Feb_25_1415,body_behavioural,3.0.4,59.99814377583122,
2,"“Unlucky family,” she responded. ",2,2,,,,0,2,2,2,,,,,0,9,9,9,,,,,,,,,,,,,,,,,,,,,,,,,,,,,,,1,1.6865141880043666,,,,,,,,,,,,,,,,,,,,,,,,,,,,022519_p2,001,2019_Feb_25_1415,body_behavioural,3.0.4,59.99814377583122,
2,They continued to chat as they picked out their groceries.,2,2,,,,0,2,2,2,,,,,0,10,10,10,,,,,,,,,,,,,,,,,,,,,,,,,,,,,,,1,2.1700374349966296,,,,,,,,,,,,,,,,,,,,,,,,,,,,022519_p2,001,2019_Feb_25_1415,body_behavioural,3.0.4,59.99814377583122,
2,"Simon helped Carina pick out the best ribs and his personal favorite barbeque sauce, and she helped him gather the  peppers, onions, and spices for a vegetable kabob she recommended.",2,2,,,,0,2,2,2,,,,,0,11,11,11,,,,,,,,,,,,,,,,,,,,,,,,,,,,,,,9,4.7538802069975645,,,,,,,,,,,,,,,,,,,,,,,,,,,,022519_p2,001,2019_Feb_25_1415,body_behavioural,3.0.4,59.99814377583122,
2,"When they were both finished shopping, they went to the checkout area.",3,2,,,,0,2,2,2,,,,,0,12,12,12,,,,,,,,,,,,,,,,,,,,,,,,,,,,,,,9,3.518382895999821,,,,,,,,,,,,,,,,,,,,,,,,,,,,022519_p2,001,2019_Feb_25_1415,body_behavioural,3.0.4,59.99814377583122,
2,"Simon was disappointed to see that the lines were short, since he had been hoping for an excuse to spend more time with Carina.",3,2,,,,0,2,2,2,,,,,0,13,13,13,,,,,,,,,,,,,,,,,,,,,,,,,,,,,,,1,5.636917267998797,,,,,,,,,,,,,,,,,,,,,,,,,,,,022519_p2,001,2019_Feb_25_1415,body_behavioural,3.0.4,59.99814377583122,
2,"They had real chemistry, and both of them could definitely see a future together despite having just met.",3,2,,,,0,2,2,2,,,,,0,14,14,14,,,,,,,,,,,,,,,,,,,,,,,,,,,,,,,9,9.170341199998802,,,,,,,,,,,,,,,,,,,,,,,,,,,,022519_p2,001,2019_Feb_25_1415,body_behavioural,3.0.4,59.99814377583122,
2,"“So you haven’t been around the city much?”, Simon asked. ",3,2,,,,0,2,2,2,,,,,0,15,15,15,,,,,,,,,,,,,,,,,,,,,,,,,,,,,,,9,2.2698238880038843,,,,,,,,,,,,,,,,,,,,,,,,,,,,022519_p2,001,2019_Feb_25_1415,body_behavioural,3.0.4,59.99814377583122,
2,"“No, not really.",3,2,,,,0,2,2,2,,,,,0,16,16,16,,,,,,,,,,,,,,,,,,,,,,,,,,,,,,,1,0.7530628230015282,,,,,,,,,,,,,,,,,,,,,,,,,,,,022519_p2,001,2019_Feb_25_1415,body_behavioural,3.0.4,59.99814377583122,
2,I’ve mainly been working and setting up my apartment.”,3,2,,,,0,2,2,2,,,,,0,17,17,17,,,,,,,,,,,,,,,,,,,,,,,,,,,,,,,1,1.819548448002024,,,,,,,,,,,,,,,,,,,,,,,,,,,,022519_p2,001,2019_Feb_25_1415,body_behavioural,3.0.4,59.99814377583122,
2,"Simon asked her, “Ok well, if you’d like I could pick you up next weekend, and we could go around Harvard Square and get dinner.",3,3,,,,0,2,2,2,,,,,0,18,18,18,,,,,,,,,,,,,,,,,,,,,,,,,,,,,,,1,8.437001361999137,,,,,,,,,,,,,,,,,,,,,,,,,,,,022519_p2,001,2019_Feb_25_1415,body_behavioural,3.0.4,59.99814377583122,
2,"There are a lot of great places around there, and it’s really nice during the summer.",3,3,,,,0,2,2,2,,,,,0,19,19,19,,,,,,,,,,,,,,,,,,,,,,,,,,,,,,,1,1.6031431649971637,,,,,,,,,,,,,,,,,,,,,,,,,,,,022519_p2,001,2019_Feb_25_1415,body_behavioural,3.0.4,59.99814377583122,
2,The Harvard campus is also beautiful.” ,3,3,,,,0,2,2,2,,,,,0,20,20,20,,,,,,,,,,,,,,,,,,,,,,,,,,,,,,,1,1.0838419780047843,,,,,,,,,,,,,,,,,,,,,,,,,,,,022519_p2,001,2019_Feb_25_1415,body_behavioural,3.0.4,59.99814377583122,
2,"Carina smiled, “I’d love to: that sounds great!”",3,3,,,,0,2,2,2,,,,,0,21,21,21,,,,,,,,,,,,,,,,,,,,,,,,,,,,,,,1,1.185967344994424,,,,,,,,,,,,,,,,,,,,,,,,,,,,022519_p2,001,2019_Feb_25_1415,body_behavioural,3.0.4,59.99814377583122,
2,"She quickly entered her number in his phone, since they only had to wait a couple minutes in line.",3,3,,,,0,2,2,2,,,,,0,22,22,22,,,,,,,,,,,,,,,,,,,,,,,,,,,,,,,1,3.2365966299985303,,,,,,,,,,,,,,,,,,,,,,,,,,,,022519_p2,001,2019_Feb_25_1415,body_behavioural,3.0.4,59.99814377583122,
2,Then it was her turn to check out with the cashier. ,4,3,,,,0,2,2,2,,,,,0,23,23,23,,,,,,,,,,,,,,,,,,,,,,,,,,,,,,,9,2.4698111149991746,,,,,,,,,,,,,,,,,,,,,,,,,,,,022519_p2,001,2019_Feb_25_1415,body_behavioural,3.0.4,59.99814377583122,
2,"Simon, wanting to make a gesture of his affection, lifted up the divider on the conveyor belt and said to the cashier, “Actually these are together.",4,3,,,,0,2,2,2,,,,,0,24,24,24,,,,,,,,,,,,,,,,,,,,,,,,,,,,,,,9,12.270411113000591,,,,,,,,,,,,,,,,,,,,,,,,,,,,022519_p2,001,2019_Feb_25_1415,body_behavioural,3.0.4,59.99814377583122,
2,"Carina, I’ve got it.",4,3,,,,0,2,2,2,,,,,0,25,25,25,,,,,,,,,,,,,,,,,,,,,,,,,,,,,,,1,2.4531091899989406,,,,,,,,,,,,,,,,,,,,,,,,,,,,022519_p2,001,2019_Feb_25_1415,body_behavioural,3.0.4,59.99814377583122,
2,This was kind-of a date today.”,4,3,,,,0,2,2,2,,,,,0,26,26,26,,,,,,,,,,,,,,,,,,,,,,,,,,,,,,,1,2.9864740279954276,,,,,,,,,,,,,,,,,,,,,,,,,,,,022519_p2,001,2019_Feb_25_1415,body_behavioural,3.0.4,59.99814377583122,
2,Carina blushed and laughed; she thought this was ridiculous but also very sweet. ,4,3,,,,0,2,2,2,,,,,0,27,27,27,,,,,,,,,,,,,,,,,,,,,,,,,,,,,,,1,3.1032131899992237,,,,,,,,,,,,,,,,,,,,,,,,,,,,022519_p2,001,2019_Feb_25_1415,body_behavioural,3.0.4,59.99814377583122,
2,"The cashier rolled her eyes when they weren’t looking, and she scanned the rest of his items. ",4,3,,,,0,2,2,2,,,,,0,28,28,28,,,,,,,,,,,,,,,,,,,,,,,,,,,,,,,9,6.120226722996449,,,,,,,,,,,,,,,,,,,,,,,,,,,,022519_p2,001,2019_Feb_25_1415,body_behavioural,3.0.4,59.99814377583122,
2,"The total came to $120, and he paid with his credit card.",4,3,,,,0,2,2,2,,,,,0,29,29,29,,,,,,,,,,,,,,,,,,,,,,,,,,,,,,,1,5.020117003004998,,,,,,,,,,,,,,,,,,,,,,,,,,,,022519_p2,001,2019_Feb_25_1415,body_behavioural,3.0.4,59.99814377583122,
2,"Carina thanked him, and they took the groceries and walked out.",4,3,,,,0,2,2,2,,,,,0,30,30,30,,,,,,,,,,,,,,,,,,,,,,,,,,,,,,,1,2.634146737997071,,,,,,,,,,,,,,,,,,,,,,,,,,,,022519_p2,001,2019_Feb_25_1415,body_behavioural,3.0.4,59.99814377583122,
2,"As they were walking towards the exit, Carina reluctantly said goodbye since she was running late for the barbeque she was hosting that afternoon.",4,4,,,,0,2,2,2,,,,,0,31,31,31,,,,,,,,,,,,,,,,,,,,,,,,,,,,,,,1,8.753587104998587,,,,,,,,,,,,,,,,,,,,,,,,,,,,022519_p2,001,2019_Feb_25_1415,body_behavioural,3.0.4,59.99814377583122,
2,"They hugged and parted ways, stealing glances at each other as they both walked back to their cars.",4,4,,,,0,2,2,2,,,,,0,32,32,32,,,,,,,,,,,,,,,,,,,,,,,,,,,,,,,1,7.920327102998272,,,,,,,,,,,,,,,,,,,,,,,,,,,,022519_p2,001,2019_Feb_25_1415,body_behavioural,3.0.4,59.99814377583122,
2,,,,,,,0,2,2,2,,,,,,,,,,,,,,,,,,,,,,,,,,,,,,,,,,,,,,,,,,,,,,,,,,,,,,,,,,,,,,,,,,,,022519_p2,001,2019_Feb_25_1415,body_behavioural,3.0.4,59.99814377583122,
3,,,,,,,0,3,3,3,0,0,0,0,,,,,,,,,,,,,,,,,,,,,,,,,,,,,space,0.8698411320001469,space,0.7507246850000229,space,0.9864943699940341,,,,,,,,,,,,,,,,,,,,,,,,,,,,,,022519_p2,001,2019_Feb_25_1415,body_behavioural,3.0.4,59.99814377583122,
3,"Alvira and Senna walked into the restaurant hand in sweaty hand with quite different expectations: Senna was going to propose tonight, and Alvira had no idea.",1,1,None,None,,0,3,3,3,,,,,0,0,0,0,,,,,,,,,,,,,,,,,,,,,,,,,,,,,,,9,22.18762418300321,,,,,,,,,,,,,,,,,,,,,,,,,,,,022519_p2,001,2019_Feb_25_1415,body_behavioural,3.0.4,59.99814377583122,
3,"He took a deep breath, trying to calm his nerves as worst case scenarios ran through his mind. ",1,1,None,None,,0,3,3,3,,,,,0,1,1,1,,,,,,,,,,,,,,,,,,,,,,,,,,,,,,,1,7.2036141100034,,,,,,,,,,,,,,,,,,,,,,,,,,,,022519_p2,001,2019_Feb_25_1415,body_behavioural,3.0.4,59.99814377583122,
3,The entrance of the restaurant was dazzling; chandeliers spread their warm light onto the delicate place settings of all the tables filled with guests dressed to the nines. ,1,1,None,None,,0,3,3,3,,,,,0,2,2,2,,,,,,,,,,,,,,,,,,,,,,,,,,,,,,,9,2.067621775000589,,,,,,,,,,,,,,,,,,,,,,,,,,,,022519_p2,001,2019_Feb_25_1415,body_behavioural,3.0.4,59.99814377583122,
3,"Through the floor-to-ceiling arched windows of the back wall, they saw the sun setting onto the Pacific ocean.",1,1,None,None,,0,3,3,3,,,,,0,3,3,3,,,,,,,,,,,,,,,,,,,,,,,,,,,,,,,1,1.8028340079981717,,,,,,,,,,,,,,,,,,,,,,,,,,,,022519_p2,001,2019_Feb_25_1415,body_behavioural,3.0.4,59.99814377583122,
3,"This was surely one of the best restaurants on the west coast, situated right on the beach.",1,1,None,None,,0,3,3,3,,,,,0,4,4,4,,,,,,,,,,,,,,,,,,,,,,,,,,,,,,,1,2.0197335229968303,,,,,,,,,,,,,,,,,,,,,,,,,,,,022519_p2,001,2019_Feb_25_1415,body_behavioural,3.0.4,59.99814377583122,
3,"Senna gave his name to the host, who quickly located their reservation with an almost comically wide customer-service smile.",1,1,7.0,None,,0,3,3,3,,,,,0,5,5,5,,,,,,,,,,,,,,,,,,,,,,,,,,,,,,,9,6.320101980003528,,,,,,,,,,,,,,,,,,,,,,,,,,,,022519_p2,001,2019_Feb_25_1415,body_behavioural,3.0.4,59.99814377583122,
3,He led them to a table right by the window.,2,1,None,None,,0,3,3,3,,,,,0,6,6,6,,,,,,,,,,,,,,,,,,,,,,,,,,,,,,,1,3.6865859530007583,,,,,,,,,,,,,,,,,,,,,,,,,,,,022519_p2,001,2019_Feb_25_1415,body_behavioural,3.0.4,59.99814377583122,
3,"He brought out some very small menus, with a short list of the celebrity chef's carefully selected daily dishes written in a loopy, cursive font unadorned by any mention of prices.",2,1,None,9.0,,0,3,3,3,,,,,0,7,7,7,,,,,,,,,,,,,,,,,,,,,,,,,,,,,,,1,7.086800518001837,,,,,,,,,,,,,,,,,,,,,,,,,,,,022519_p2,001,2019_Feb_25_1415,body_behavioural,3.0.4,59.99814377583122,
3,Senna slipped off to the bathroom to check to make sure the ring was in order.,2,2,None,None,,0,3,3,3,,,,,0,8,8,8,,,,,,,,,,,,,,,,,,,,,,,,,,,,,,,9,3.90293076299713,,,,,,,,,,,,,,,,,,,,,,,,,,,,022519_p2,001,2019_Feb_25_1415,body_behavioural,3.0.4,59.99814377583122,
3,"The ring contained a canary diamond that had been in his grandmother’s wedding ring, and it was a brilliant stone that was accentuated by the small white diamonds encircling it.",2,2,None,None,,0,3,3,3,,,,,0,9,9,9,,,,,,,,,,,,,,,,,,,,,,,,,,,,,,,9,10.453745685001195,,,,,,,,,,,,,,,,,,,,,,,,,,,,022519_p2,001,2019_Feb_25_1415,body_behavioural,3.0.4,59.99814377583122,
3,"He walked back to the table after handing the small, velvet box to a waiter at the front podium.",2,2,6.0,None,,0,3,3,3,,,,,0,10,10,10,,,,,,,,,,,,,,,,,,,,,,,,,,,,,,,9,2.602883268002188,,,,,,,,,,,,,,,,,,,,,,,,,,,,022519_p2,001,2019_Feb_25_1415,body_behavioural,3.0.4,59.99814377583122,
3,He came back just as their waiter was approaching the table to get their order.,3,2,None,None,,0,3,3,3,,,,,0,11,11,11,,,,,,,,,,,,,,,,,,,,,,,,,,,,,,,1,3.184190194995608,,,,,,,,,,,,,,,,,,,,,,,,,,,,022519_p2,001,2019_Feb_25_1415,body_behavioural,3.0.4,59.99814377583122,
3,"Senna ordered the oysters with garlic-parmesan sauce, and Alvira ordered the sauteed sea scallops with caramelized apples. ",3,2,None,None,,0,3,3,3,,,,,0,12,12,12,,,,,,,,,,,,,,,,,,,,,,,,,,,,,,,1,8.136444684998423,,,,,,,,,,,,,,,,,,,,,,,,,,,,022519_p2,001,2019_Feb_25_1415,body_behavioural,3.0.4,59.99814377583122,
3,"“Excellent choices,” the waiter said with a subsequent brisk spin away from the table.",3,2,None,None,,0,3,3,3,,,,,0,13,13,13,,,,,,,,,,,,,,,,,,,,,,,,,,,,,,,1,4.236134573002346,,,,,,,,,,,,,,,,,,,,,,,,,,,,022519_p2,001,2019_Feb_25_1415,body_behavioural,3.0.4,59.99814377583122,
3,"“What a beautiful place, Senna. ",3,2,None,None,,0,3,3,3,,,,,0,14,14,14,,,,,,,,,,,,,,,,,,,,,,,,,,,,,,,9,1.9530160080030328,,,,,,,,,,,,,,,,,,,,,,,,,,,,022519_p2,001,2019_Feb_25_1415,body_behavioural,3.0.4,59.99814377583122,
3,"Really this is too much just to celebrate the first tomatoes I grew in the garden, like, this is absurd,” Alvira said.",3,2,None,None,,0,3,3,3,,,,,0,15,15,15,,,,,,,,,,,,,,,,,,,,,,,,,,,,,,,1,6.567784828002914,,,,,,,,,,,,,,,,,,,,,,,,,,,,022519_p2,001,2019_Feb_25_1415,body_behavioural,3.0.4,59.99814377583122,
3,"Senna laughed and said, “No, those were really the best tomatoes I’ve ever had. ",3,2,None,None,,0,3,3,3,,,,,0,16,16,16,,,,,,,,,,,,,,,,,,,,,,,,,,,,,,,1,4.186516263005615,,,,,,,,,,,,,,,,,,,,,,,,,,,,022519_p2,001,2019_Feb_25_1415,body_behavioural,3.0.4,59.99814377583122,
3,We had to celebrate.” ,3,2,None,None,,0,3,3,3,,,,,0,17,17,17,,,,,,,,,,,,,,,,,,,,,,,,,,,,,,,1,1.1200759249986731,,,,,,,,,,,,,,,,,,,,,,,,,,,,022519_p2,001,2019_Feb_25_1415,body_behavioural,3.0.4,59.99814377583122,
3,"They talked and laughed as the sun sank below the horizon, and the glow from the ocean was replaced by the glow from the chandeliers.",3,2,8.0,None,,0,3,3,3,,,,,0,18,18,18,,,,,,,,,,,,,,,,,,,,,,,,,,,,,,,9,6.786755174995051,,,,,,,,,,,,,,,,,,,,,,,,,,,,022519_p2,001,2019_Feb_25_1415,body_behavioural,3.0.4,59.99814377583122,
3,"The waiter eventually returned with their meals, and everything was even more delicious than they had expected, especially the oysters, which Senna said tasted like the ocean. ",4,2,None,None,,0,3,3,3,,,,,0,19,19,19,,,,,,,,,,,,,,,,,,,,,,,,,,,,,,,1,3.3699241199938115,,,,,,,,,,,,,,,,,,,,,,,,,,,,022519_p2,001,2019_Feb_25_1415,body_behavioural,3.0.4,59.99814377583122,
3,Then he paused and looked at Alvira meaningfully. ,4,2,None,None,,0,3,3,3,,,,,0,20,20,20,,,,,,,,,,,,,,,,,,,,,,,,,,,,,,,9,6.586418712999148,,,,,,,,,,,,,,,,,,,,,,,,,,,,022519_p2,001,2019_Feb_25_1415,body_behavioural,3.0.4,59.99814377583122,
3, “It’s really been the best three years of my life with you.,4,2,None,None,,0,3,3,3,,,,,0,21,21,21,,,,,,,,,,,,,,,,,,,,,,,,,,,,,,,1,5.251120405002439,,,,,,,,,,,,,,,,,,,,,,,,,,,,022519_p2,001,2019_Feb_25_1415,body_behavioural,3.0.4,59.99814377583122,
3,"I couldn’t imagine it any other way, and I don’t want to.",4,2,None,None,,0,3,3,3,,,,,0,22,22,22,,,,,,,,,,,,,,,,,,,,,,,,,,,,,,,1,1.1534359249999397,,,,,,,,,,,,,,,,,,,,,,,,,,,,022519_p2,001,2019_Feb_25_1415,body_behavioural,3.0.4,59.99814377583122,
3,"I really want to spend the rest of my years eating garden tomatoes, whatever it is, with you.” ",4,2,None,None,,0,3,3,3,,,,,0,23,23,23,,,,,,,,,,,,,,,,,,,,,,,,,,,,,,,1,2.9865900080039864,,,,,,,,,,,,,,,,,,,,,,,,,,,,022519_p2,001,2019_Feb_25_1415,body_behavioural,3.0.4,59.99814377583122,
3,"Alvira smiled, “I want the same with you too, Senna.” ",4,2,None,17.0,,0,3,3,3,,,,,0,24,24,24,,,,,,,,,,,,,,,,,,,,,,,,,,,,,,,1,2.6199428949985304,,,,,,,,,,,,,,,,,,,,,,,,,,,,022519_p2,001,2019_Feb_25_1415,body_behavioural,3.0.4,59.99814377583122,
3,"Senna nodded at the waiter who had been watching attentively, and he quickly strode over to place a small, elegant cake topped with the ring in front of Alvira. ",4,3,None,None,,0,3,3,3,,,,,0,25,25,25,,,,,,,,,,,,,,,,,,,,,,,,,,,,,,,9,9.184678548001102,,,,,,,,,,,,,,,,,,,,,,,,,,,,022519_p2,001,2019_Feb_25_1415,body_behavioural,3.0.4,59.99814377583122,
3,Her eyes widened in shock when she realized what she was looking at.,4,3,None,None,,0,3,3,3,,,,,0,26,26,26,,,,,,,,,,,,,,,,,,,,,,,,,,,,,,,1,4.38664733999758,,,,,,,,,,,,,,,,,,,,,,,,,,,,022519_p2,001,2019_Feb_25_1415,body_behavioural,3.0.4,59.99814377583122,
3,"“Alvira, will you marry me? ",4,3,None,None,,0,3,3,3,,,,,0,27,27,27,,,,,,,,,,,,,,,,,,,,,,,,,,,,,,,1,5.1699447730061365,,,,,,,,,,,,,,,,,,,,,,,,,,,,022519_p2,001,2019_Feb_25_1415,body_behavioural,3.0.4,59.99814377583122,
3,"I love you, and I will never stop loving you.” ",4,3,None,None,,0,3,3,3,,,,,0,28,28,28,,,,,,,,,,,,,,,,,,,,,,,,,,,,,,,1,1.067440879996866,,,,,,,,,,,,,,,,,,,,,,,,,,,,022519_p2,001,2019_Feb_25_1415,body_behavioural,3.0.4,59.99814377583122,
3,Alvira started to cry.,4,3,None,None,,0,3,3,3,,,,,0,29,29,29,,,,,,,,,,,,,,,,,,,,,,,,,,,,,,,1,1.2530887830071151,,,,,,,,,,,,,,,,,,,,,,,,,,,,022519_p2,001,2019_Feb_25_1415,body_behavioural,3.0.4,59.99814377583122,
3,"The room became silent, and everyone turned to their table. ",4,3,None,5.0,,0,3,3,3,,,,,0,30,30,30,,,,,,,,,,,,,,,,,,,,,,,,,,,,,,,1,1.8864022499983548,,,,,,,,,,,,,,,,,,,,,,,,,,,,022519_p2,001,2019_Feb_25_1415,body_behavioural,3.0.4,59.99814377583122,
3,"“Yes, of course, yes!” she shouted as she wiped away tears.",4,4,None,None,,0,3,3,3,,,,,0,31,31,31,,,,,,,,,,,,,,,,,,,,,,,,,,,,,,,1,0.6498654469978646,,,,,,,,,,,,,,,,,,,,,,,,,,,,022519_p2,001,2019_Feb_25_1415,body_behavioural,3.0.4,59.99814377583122,
3,The neighboring tables exploded in applause.,4,4,None,None,,0,3,3,3,,,,,0,32,32,32,,,,,,,,,,,,,,,,,,,,,,,,,,,,,,,1,1.8200597199975164,,,,,,,,,,,,,,,,,,,,,,,,,,,,022519_p2,001,2019_Feb_25_1415,body_behavioural,3.0.4,59.99814377583122,
3,The waiter returned with a bottle of champagne and popped it. ,4,4,None,None,,0,3,3,3,,,,,0,33,33,33,,,,,,,,,,,,,,,,,,,,,,,,,,,,,,,9,3.2199306299953605,,,,,,,,,,,,,,,,,,,,,,,,,,,,022519_p2,001,2019_Feb_25_1415,body_behavioural,3.0.4,59.99814377583122,
3,"All of this went unnoticed by Senna and Alvira as they looked into each others’ eyes, and he slipped the ring onto her finger. ",4,4,None,None,,0,3,3,3,,,,,0,34,34,34,,,,,,,,,,,,,,,,,,,,,,,,,,,,,,,9,4.286547390001942,,,,,,,,,,,,,,,,,,,,,,,,,,,,022519_p2,001,2019_Feb_25_1415,body_behavioural,3.0.4,59.99814377583122,
3,"She held up her hand to admire it, and her glittering tears of joy matched the shine from her ring.   
",4,4,17.0,5.0,,0,3,3,3,,,,,0,35,35,35,,,,,,,,,,,,,,,,,,,,,,,,,,,,,,,1,2.3865010929948767,,,,,,,,,,,,,,,,,,,,,,,,,,,,022519_p2,001,2019_Feb_25_1415,body_behavioural,3.0.4,59.99814377583122,
3,,,,,,,0,3,3,3,,,,,,,,,,,,,,,,,,,,,,,,,,,,,,,,,,,,,,,,,,,,,,,,,,,,,,,,,,,,,,,,,,,,022519_p2,001,2019_Feb_25_1415,body_behavioural,3.0.4,59.99814377583122,
4,,,,,,,0,4,4,4,0,0,0,0,,,,,,,,,,,,,,,,,,,,,,,,,,,,,space,0.903019689998473,space,1.20292332500685,space,2.3365759950029314,,,,,,,,,,,,,,,,,,,,,,,,,,,,,,022519_p2,001,2019_Feb_25_1415,body_behavioural,3.0.4,59.99814377583122,
4,,,,,,,0,4,4,4,1,0,1,0,,,,,,,,,,,,,,,,,,,,,,,,,,,,,,,,,space,1.4363687279983424,,,,,,,,,,,,,,,,,,,,,,,,,,,,,,022519_p2,001,2019_Feb_25_1415,body_behavioural,3.0.4,59.99814377583122,
4,,,,,,,0,4,4,4,2,0,2,0,,,,,,,,,,,,,,,,,,,,,,,,,,,,,,,,,space,0.5688537600071868,,,,,,,,,,,,,,,,,,,,,,,,,,,,,,022519_p2,001,2019_Feb_25_1415,body_behavioural,3.0.4,59.99814377583122,
4,"Ms. Bianchi and Ms. Morrison walked into the grocery store at the same time, and, after a moment of mutual recognition, greeted each other and shook hands.",1,1,,,,0,4,4,4,,,,,0,0,0,0,,,,,,,,,,,,,,,,,,,,,,,,,,,,,,,9,6.703615014994284,,,,,,,,,,,,,,,,,,,,,,,,,,,,022519_p2,001,2019_Feb_25_1415,body_behavioural,3.0.4,59.99814377583122,
4,"“Thank you again for inviting me here to discuss my business proposal,” said Ms. Bianchi, “And it’s a pleasure to be out of the office.” ",1,1,,,,0,4,4,4,,,,,0,1,1,1,,,,,,,,,,,,,,,,,,,,,,,,,,,,,,,1,4.653136203000031,,,,,,,,,,,,,,,,,,,,,,,,,,,,022519_p2,001,2019_Feb_25_1415,body_behavioural,3.0.4,59.99814377583122,
4,"As a salesperson for an Italian cheese company that was trying to expand its outreach to more mainstream grocery stores, this meeting could be a big break for her.",1,1,,,,0,4,4,4,,,,,0,2,2,2,,,,,,,,,,,,,,,,,,,,,,,,,,,,,,,1,7.753505585002131,,,,,,,,,,,,,,,,,,,,,,,,,,,,022519_p2,001,2019_Feb_25_1415,body_behavioural,3.0.4,59.99814377583122,
4,"Her sales target, Ms. Morrison,  who had a reputation for being a bit quirky, was a corporate buyer for a large chain grocery store. ",1,1,,,,0,4,4,4,,,,,0,3,3,3,,,,,,,,,,,,,,,,,,,,,,,,,,,,,,,9,3.486587020001025,,,,,,,,,,,,,,,,,,,,,,,,,,,,022519_p2,001,2019_Feb_25_1415,body_behavioural,3.0.4,59.99814377583122,
4,"She was known for doing things unconventionally: for example, she said that she liked to make deals with suppliers in the place where the products were sold- “to keep their minds focused on what’s important.” ",1,1,,,,0,4,4,4,,,,,0,4,4,4,,,,,,,,,,,,,,,,,,,,,,,,,,,,,,,1,1.4031423829947016,,,,,,,,,,,,,,,,,,,,,,,,,,,,022519_p2,001,2019_Feb_25_1415,body_behavioural,3.0.4,59.99814377583122,
4,"They chatted a little in the front of the grocery store, which was surrounded by pumpkins and halloween decorations set up in special displays for the holiday season.",1,1,,,,0,4,4,4,,,,,0,5,5,5,,,,,,,,,,,,,,,,,,,,,,,,,,,,,,,9,1.117470624994894,,,,,,,,,,,,,,,,,,,,,,,,,,,,022519_p2,001,2019_Feb_25_1415,body_behavioural,3.0.4,59.99814377583122,
4,"Ms. Bianchi and Ms. Morrison walked to the cheese section, and Ms. Morrison picked up a block of parmesan.",2,1,,,,0,4,4,4,,,,,0,6,6,6,,,,,,,,,,,,,,,,,,,,,,,,,,,,,,,9,3.3033070230012527,,,,,,,,,,,,,,,,,,,,,,,,,,,,022519_p2,001,2019_Feb_25_1415,body_behavioural,3.0.4,59.99814377583122,
4,“We have quite a selection here.,2,1,,,,0,4,4,4,,,,,0,7,7,7,,,,,,,,,,,,,,,,,,,,,,,,,,,,,,,1,1.1196697499981383,,,,,,,,,,,,,,,,,,,,,,,,,,,,022519_p2,001,2019_Feb_25_1415,body_behavioural,3.0.4,59.99814377583122,
4,I don’t know that it needs an additional section for more gourmet cheeses.” ,2,1,,,,0,4,4,4,,,,,0,8,8,8,,,,,,,,,,,,,,,,,,,,,,,,,,,,,,,1,2.0030982379976194,,,,,,,,,,,,,,,,,,,,,,,,,,,,022519_p2,001,2019_Feb_25_1415,body_behavioural,3.0.4,59.99814377583122,
4,"Ms. Bianchi's confidence faltered for a minute at this remark, but then she launched into her prepared pitch.",2,1,,,,0,4,4,4,,,,,0,9,9,9,,,,,,,,,,,,,,,,,,,,,,,,,,,,,,,1,6.536458484995819,,,,,,,,,,,,,,,,,,,,,,,,,,,,022519_p2,001,2019_Feb_25_1415,body_behavioural,3.0.4,59.99814377583122,
4," “Ms. Morrison, I think you would agree that selling food is more than just providing variety, but also about providing the highest quality.",2,2,,,,0,4,4,4,,,,,0,10,10,10,,,,,,,,,,,,,,,,,,,,,,,,,,,,,,,9,4.136625234998064,,,,,,,,,,,,,,,,,,,,,,,,,,,,022519_p2,001,2019_Feb_25_1415,body_behavioural,3.0.4,59.99814377583122,
4,"You don’t have cheeses made in America that are like ours, it is true.",2,2,,,,0,4,4,4,,,,,0,11,11,11,,,,,,,,,,,,,,,,,,,,,,,,,,,,,,,1,2.4530020150050404,,,,,,,,,,,,,,,,,,,,,,,,,,,,022519_p2,001,2019_Feb_25_1415,body_behavioural,3.0.4,59.99814377583122,
4,Your store could be providing American consumers with a dimension in taste that they've never known before with our product.,2,2,,,,0,4,4,4,,,,,0,12,12,12,,,,,,,,,,,,,,,,,,,,,,,,,,,,,,,1,4.86972872500337,,,,,,,,,,,,,,,,,,,,,,,,,,,,022519_p2,001,2019_Feb_25_1415,body_behavioural,3.0.4,59.99814377583122,
4,"I propose that you give it a shot, buy $1000 worth of cheese products for a few stores, and see how the sales increase not only in our cheeses but also in products related to cheeses: crackers, jams, olives. ",2,2,,,,0,4,4,4,,,,,0,13,13,13,,,,,,,,,,,,,,,,,,,,,,,,,,,,,,,9,12.537115077997441,,,,,,,,,,,,,,,,,,,,,,,,,,,,022519_p2,001,2019_Feb_25_1415,body_behavioural,3.0.4,59.99814377583122,
4,"The availability of a finer product leads to the appreciation of the product, and your consumers will start to consume in a new, more profitable way.”",2,2,,,,0,4,4,4,,,,,0,14,14,14,,,,,,,,,,,,,,,,,,,,,,,,,,,,,,,1,1.98636031299975,,,,,,,,,,,,,,,,,,,,,,,,,,,,022519_p2,001,2019_Feb_25_1415,body_behavioural,3.0.4,59.99814377583122,
4,"Ms. Bianchi picked up a box of crackers by the cheese section, and said, “Here, I will buy these, and we can try some of our cheeses that I've brought with me.”",2,2,,,,0,4,4,4,,,,,0,15,15,15,,,,,,,,,,,,,,,,,,,,,,,,,,,,,,,1,10.670438282999385,,,,,,,,,,,,,,,,,,,,,,,,,,,,022519_p2,001,2019_Feb_25_1415,body_behavioural,3.0.4,59.99814377583122,
4,"Ms. Morrison, who was thinking, nodded in agreement and said, “That sounds like a great idea.",2,2,,,,0,4,4,4,,,,,0,16,16,16,,,,,,,,,,,,,,,,,,,,,,,,,,,,,,,1,2.8865661800009548,,,,,,,,,,,,,,,,,,,,,,,,,,,,022519_p2,001,2019_Feb_25_1415,body_behavioural,3.0.4,59.99814377583122,
4,"Let’s head to check out, and those crackers are on me.” ",2,2,,,,0,4,4,4,,,,,0,17,17,17,,,,,,,,,,,,,,,,,,,,,,,,,,,,,,,1,0.7840167300018948,,,,,,,,,,,,,,,,,,,,,,,,,,,,022519_p2,001,2019_Feb_25_1415,body_behavioural,3.0.4,59.99814377583122,
4,They walked over to the checkout area.,3,2,,,,0,4,4,4,,,,,0,18,18,18,,,,,,,,,,,,,,,,,,,,,,,,,,,,,,,9,2.069776650001586,,,,,,,,,,,,,,,,,,,,,,,,,,,,022519_p2,001,2019_Feb_25_1415,body_behavioural,3.0.4,59.99814377583122,
4,"There was a very long line, and it was very busy in the checkout area as people were stocking up for Halloween parties and trick-or-treating. ",3,2,,,,0,4,4,4,,,,,0,19,19,19,,,,,,,,,,,,,,,,,,,,,,,,,,,,,,,1,2.2032349849978345,,,,,,,,,,,,,,,,,,,,,,,,,,,,022519_p2,001,2019_Feb_25_1415,body_behavioural,3.0.4,59.99814377583122,
4,"Since they had almost a 10 minute wait in line, Ms. Bianchi handed a sheet with printed graphs to Ms. Morrison the increase in profits that several other stores had seen after starting to carry their products.",3,2,,,,0,4,4,4,,,,,0,20,20,20,,,,,,,,,,,,,,,,,,,,,,,,,,,,,,,9,11.120074563004891,,,,,,,,,,,,,,,,,,,,,,,,,,,,022519_p2,001,2019_Feb_25_1415,body_behavioural,3.0.4,59.99814377583122,
4,"Eventually, Ms. Morrison replied, “You know what, I think you've convinced me that this could work. ",3,3,,,,0,4,4,4,,,,,0,21,21,21,,,,,,,,,,,,,,,,,,,,,,,,,,,,,,,1,2.169772014996852,,,,,,,,,,,,,,,,,,,,,,,,,,,,022519_p2,001,2019_Feb_25_1415,body_behavioural,3.0.4,59.99814377583122,
4,We've been trying to find a way to add a little European cachet to our stores.,3,3,,,,0,4,4,4,,,,,0,22,22,22,,,,,,,,,,,,,,,,,,,,,,,,,,,,,,,1,2.636484823000501,,,,,,,,,,,,,,,,,,,,,,,,,,,,022519_p2,001,2019_Feb_25_1415,body_behavioural,3.0.4,59.99814377583122,
4,There's still a problem though - I'm worried we'll be paying out the nose for the import taxes.,3,3,,,,0,4,4,4,,,,,0,23,23,23,,,,,,,,,,,,,,,,,,,,,,,,,,,,,,,1,3.1030862179977703,,,,,,,,,,,,,,,,,,,,,,,,,,,,022519_p2,001,2019_Feb_25_1415,body_behavioural,3.0.4,59.99814377583122,
4,Is that the case?",3,3,,,,0,4,4,4,,,,,0,24,24,24,,,,,,,,,,,,,,,,,,,,,,,,,,,,,,,1,0.7361300999982632,,,,,,,,,,,,,,,,,,,,,,,,,,,,022519_p2,001,2019_Feb_25_1415,body_behavioural,3.0.4,59.99814377583122,
4,"It was Ms. Morrison’s turn to checkout, and the two businesswomen continued to talk back and forth as she did so. ",4,3,,,,0,4,4,4,,,,,0,25,25,25,,,,,,,,,,,,,,,,,,,,,,,,,,,,,,,1,9.036724577999848,,,,,,,,,,,,,,,,,,,,,,,,,,,,022519_p2,001,2019_Feb_25_1415,body_behavioural,3.0.4,59.99814377583122,
4,"The cashier scanned the crackers, and Ms. Bianchi watched in amusement as Ms. Morrison paid the $6 price entirely in quarters from a wallet bulging with change.",4,3,,,,0,4,4,4,,,,,0,26,26,26,,,,,,,,,,,,,,,,,,,,,,,,,,,,,,,9,5.103331532001903,,,,,,,,,,,,,,,,,,,,,,,,,,,,022519_p2,001,2019_Feb_25_1415,body_behavioural,3.0.4,59.99814377583122,
4,"They shortly came to an agreement and would have enough cheese shipments, $5000 worth, to different stores to qualify for a subsidized import tax. ",4,4,,,,0,4,4,4,,,,,0,27,27,27,,,,,,,,,,,,,,,,,,,,,,,,,,,,,,,9,6.486531392998586,,,,,,,,,,,,,,,,,,,,,,,,,,,,022519_p2,001,2019_Feb_25_1415,body_behavioural,3.0.4,59.99814377583122,
4,"Ms. Bianchi retrieved some of her samples from her car, and they toasted their new deal with crackers topped with fresh mozzarella. ",4,4,,,,0,4,4,4,,,,,0,28,28,28,,,,,,,,,,,,,,,,,,,,,,,,,,,,,,,9,2.9868731379974633,,,,,,,,,,,,,,,,,,,,,,,,,,,,022519_p2,001,2019_Feb_25_1415,body_behavioural,3.0.4,59.99814377583122,
4,,,,,,,0,4,4,4,,,,,,,,,,,,,,,,,,,,,,,,,,,,,,,,,,,,,,,,,,,,,,,,,,,,,,,,,,,,,,,,,,,,022519_p2,001,2019_Feb_25_1415,body_behavioural,3.0.4,59.99814377583122,
5,,,,,,,0,5,5,5,0,0,0,0,,,,,,,,,,,,,,,,,,,,,,,,,,,,,space,0.8199358150013722,space,0.4863120000009076,space,1.40304556999763,,,,,,,,,,,,,,,,,,,,,,,,,,,,,,022519_p2,001,2019_Feb_25_1415,body_behavioural,3.0.4,59.99814377583122,
5,,,,,,,0,5,5,5,1,0,1,0,,,,,,,,,,,,,,,,,,,,,,,,,,,,,,,,,space,0.8196050179976737,,,,,,,,,,,,,,,,,,,,,,,,,,,,,,022519_p2,001,2019_Feb_25_1415,body_behavioural,3.0.4,59.99814377583122,
5,,,,,,,0,5,5,5,2,0,2,0,,,,,,,,,,,,,,,,,,,,,,,,,,,,,,,,,space,0.5694421000007424,,,,,,,,,,,,,,,,,,,,,,,,,,,,,,022519_p2,001,2019_Feb_25_1415,body_behavioural,3.0.4,59.99814377583122,
5,"It didn’t help the situation that Calvin and Jessie were running late to the airport, since Jessie had already been fuming at Calvin and preparing to end things with him.",1,1,,,,0,5,5,5,,,,,0,0,0,0,,,,,,,,,,,,,,,,,,,,,,,,,,,,,,,9,8.503333872999065,,,,,,,,,,,,,,,,,,,,,,,,,,,,022519_p2,001,2019_Feb_25_1415,body_behavioural,3.0.4,59.99814377583122,
5,"Upon arriving, they had only 45 minutes until their international flight would depart from Jamaica for the US.",1,1,,,,0,5,5,5,,,,,0,1,1,1,,,,,,,,,,,,,,,,,,,,,,,,,,,,,,,1,6.319767937995493,,,,,,,,,,,,,,,,,,,,,,,,,,,,022519_p2,001,2019_Feb_25_1415,body_behavioural,3.0.4,59.99814377583122,
5,It had been a tough vacation for them.,1,1,,,,0,5,5,5,,,,,0,2,2,2,,,,,,,,,,,,,,,,,,,,,,,,,,,,,,,9,3.053180697999778,,,,,,,,,,,,,,,,,,,,,,,,,,,,022519_p2,001,2019_Feb_25_1415,body_behavioural,3.0.4,59.99814377583122,
5,"Jessie had really had it with Calvin’s constant ramblings about the same excruciatingly boring golfing and work stories, which he insisted on repeating to her regardless of how little interest she showed.",1,1,,,,0,5,5,5,,,,,0,3,3,3,,,,,,,,,,,,,,,,,,,,,,,,,,,,,,,1,8.886496672996145,,,,,,,,,,,,,,,,,,,,,,,,,,,,022519_p2,001,2019_Feb_25_1415,body_behavioural,3.0.4,59.99814377583122,
5,"Calvin knew that Jessie was upset, but wasn't sure what to do besides attempting to carry on as normal and tell stories that took up the silence. ",1,1,,,,0,5,5,5,,,,,0,4,4,4,,,,,,,,,,,,,,,,,,,,,,,,,,,,,,,1,8.686508067999966,,,,,,,,,,,,,,,,,,,,,,,,,,,,022519_p2,001,2019_Feb_25_1415,body_behavioural,3.0.4,59.99814377583122,
5,"The security line was luckily very short, and once the online boarding passes were scanned they were ushered quickly through the metal detector, not having to take off their shoes or remove the liquids from their bags.",2,1,,,,0,5,5,5,,,,,0,5,5,5,,,,,,,,,,,,,,,,,,,,,,,,,,,,,,,9,3.970182418001059,,,,,,,,,,,,,,,,,,,,,,,,,,,,022519_p2,001,2019_Feb_25_1415,body_behavioural,3.0.4,59.99814377583122,
5,"“The infrastructure of this airport is really quite poor," said Calvin as they waited for their bags to emerge from the x-ray machine.",2,1,,,,0,5,5,5,,,,,0,6,6,6,,,,,,,,,,,,,,,,,,,,,,,,,,,,,,,9,7.051121517994034,,,,,,,,,,,,,,,,,,,,,,,,,,,,022519_p2,001,2019_Feb_25_1415,body_behavioural,3.0.4,59.99814377583122,
5,“I really could've hidden something in my shoes quite easily.” ,2,1,,,,0,5,5,5,,,,,0,7,7,7,,,,,,,,,,,,,,,,,,,,,,,,,,,,,,,1,3.5864686099957908,,,,,,,,,,,,,,,,,,,,,,,,,,,,022519_p2,001,2019_Feb_25_1415,body_behavioural,3.0.4,59.99814377583122,
5,"Jessie, exasperated at his need to broadcast his every inner thought, scowled at the conveyor belt.",2,1,,,,0,5,5,5,,,,,0,8,8,8,,,,,,,,,,,,,,,,,,,,,,,,,,,,,,,1,5.186894327998743,,,,,,,,,,,,,,,,,,,,,,,,,,,,022519_p2,001,2019_Feb_25_1415,body_behavioural,3.0.4,59.99814377583122,
5,"“What?”, he asked.",2,1,,,,0,5,5,5,,,,,0,9,9,9,,,,,,,,,,,,,,,,,,,,,,,,,,,,,,,1,1.450004517006164,,,,,,,,,,,,,,,,,,,,,,,,,,,,022519_p2,001,2019_Feb_25_1415,body_behavioural,3.0.4,59.99814377583122,
5,She balled up her fists and turned to face him.,2,1,,,,0,5,5,5,,,,,0,10,10,10,,,,,,,,,,,,,,,,,,,,,,,,,,,,,,,1,2.9864650149975205,,,,,,,,,,,,,,,,,,,,,,,,,,,,022519_p2,001,2019_Feb_25_1415,body_behavioural,3.0.4,59.99814377583122,
5,"“Calvin, I really don’t think I can do this anymore.",2,2,,,,0,5,5,5,,,,,0,11,11,11,,,,,,,,,,,,,,,,,,,,,,,,,,,,,,,9,2.153154118001112,,,,,,,,,,,,,,,,,,,,,,,,,,,,022519_p2,001,2019_Feb_25_1415,body_behavioural,3.0.4,59.99814377583122,
5,I think it’s best that once we get to the States we part ways for good.” ,2,2,,,,0,5,5,5,,,,,0,12,12,12,,,,,,,,,,,,,,,,,,,,,,,,,,,,,,,1,5.953352702999837,,,,,,,,,,,,,,,,,,,,,,,,,,,,022519_p2,001,2019_Feb_25_1415,body_behavioural,3.0.4,59.99814377583122,
5,Calvin said nothing as he grabbed his bag and quickly walked away.,2,2,,,,0,5,5,5,,,,,0,13,13,13,,,,,,,,,,,,,,,,,,,,,,,,,,,,,,,1,5.434501730000193,,,,,,,,,,,,,,,,,,,,,,,,,,,,022519_p2,001,2019_Feb_25_1415,body_behavioural,3.0.4,59.99814377583122,
5,"Jessie trailed behind him as they made their way quickly toward their gate, shouting at his back in hopes of getting a response.",3,2,,,,0,5,5,5,,,,,0,14,14,14,,,,,,,,,,,,,,,,,,,,,,,,,,,,,,,1,4.619999394999468,,,,,,,,,,,,,,,,,,,,,,,,,,,,022519_p2,001,2019_Feb_25_1415,body_behavioural,3.0.4,59.99814377583122,
5,“So now you have nothing to say?,3,2,,,,0,5,5,5,,,,,0,15,15,15,,,,,,,,,,,,,,,,,,,,,,,,,,,,,,,9,1.6197344829997746,,,,,,,,,,,,,,,,,,,,,,,,,,,,022519_p2,001,2019_Feb_25_1415,body_behavioural,3.0.4,59.99814377583122,
5,"Every time we talk, you are just looking for a way to steer the conversation back into your stories.”",3,2,,,,0,5,5,5,,,,,0,16,16,16,,,,,,,,,,,,,,,,,,,,,,,,,,,,,,,1,2.9034001720065135,,,,,,,,,,,,,,,,,,,,,,,,,,,,022519_p2,001,2019_Feb_25_1415,body_behavioural,3.0.4,59.99814377583122,
5,"Calvin didn't slow his pace, gritting his teeth and staring straight ahead. ",3,2,,,,0,5,5,5,,,,,0,17,17,17,,,,,,,,,,,,,,,,,,,,,,,,,,,,,,,1,4.103304017997289,,,,,,,,,,,,,,,,,,,,,,,,,,,,022519_p2,001,2019_Feb_25_1415,body_behavioural,3.0.4,59.99814377583122,
5,He was very frustrated that he had been trying to appease Jessie this whole time and this was how she responded. ,3,2,,,,0,5,5,5,,,,,0,18,18,18,,,,,,,,,,,,,,,,,,,,,,,,,,,,,,,1,6.920213669996883,,,,,,,,,,,,,,,,,,,,,,,,,,,,022519_p2,001,2019_Feb_25_1415,body_behavioural,3.0.4,59.99814377583122,
5,The silence was punctuated only by the rapid rhythmic clacking of their suitcase wheels over the tile floor as they continued power-walking through the terminal. ,3,2,,,,0,5,5,5,,,,,0,19,19,19,,,,,,,,,,,,,,,,,,,,,,,,,,,,,,,1,4.453188332998252,,,,,,,,,,,,,,,,,,,,,,,,,,,,022519_p2,001,2019_Feb_25_1415,body_behavioural,3.0.4,59.99814377583122,
5,"“Well?” Jessie said, and Calvin finally turned to her.",3,2,,,,0,5,5,5,,,,,0,20,20,20,,,,,,,,,,,,,,,,,,,,,,,,,,,,,,,9,2.9864568170014536,,,,,,,,,,,,,,,,,,,,,,,,,,,,022519_p2,001,2019_Feb_25_1415,body_behavioural,3.0.4,59.99814377583122,
5,"“Well, Jessie, this makes perfect sense. ",3,3,,,,0,5,5,5,,,,,0,21,21,21,,,,,,,,,,,,,,,,,,,,,,,,,,,,,,,1,1.9508158450043993,,,,,,,,,,,,,,,,,,,,,,,,,,,,022519_p2,001,2019_Feb_25_1415,body_behavioural,3.0.4,59.99814377583122,
5,"If you feel this way, then I don’t want to keep boring you, and I agree, let’s part ways once we make it back.",3,3,,,,0,5,5,5,,,,,0,22,22,22,,,,,,,,,,,,,,,,,,,,,,,,,,,,,,,1,6.50117121799849,,,,,,,,,,,,,,,,,,,,,,,,,,,,022519_p2,001,2019_Feb_25_1415,body_behavioural,3.0.4,59.99814377583122,
5,You should’ve spoken up about my apparent intolerability before you decided to plan this vacation.”,3,3,,,,0,5,5,5,,,,,0,23,23,23,,,,,,,,,,,,,,,,,,,,,,,,,,,,,,,9,4.75298142000247,,,,,,,,,,,,,,,,,,,,,,,,,,,,022519_p2,001,2019_Feb_25_1415,body_behavioural,3.0.4,59.99814377583122,
5,"He was clearly hurt, but thought it was pointless to argue. ",3,3,,,,0,5,5,5,,,,,0,24,24,24,,,,,,,,,,,,,,,,,,,,,,,,,,,,,,,1,2.917492870001297,,,,,,,,,,,,,,,,,,,,,,,,,,,,022519_p2,001,2019_Feb_25_1415,body_behavioural,3.0.4,59.99814377583122,
5,"They finally made it to the gate, just as they heard the final call for passengers boarding their flight.",3,3,,,,0,5,5,5,,,,,0,25,25,25,,,,,,,,,,,,,,,,,,,,,,,,,,,,,,,1,3.867957229995227,,,,,,,,,,,,,,,,,,,,,,,,,,,,022519_p2,001,2019_Feb_25_1415,body_behavioural,3.0.4,59.99814377583122,
5,"They scanned their tickets, and the annoyed flight attendant shooed them onto the jet bridge and then closed the door behind them.",4,3,,,,0,5,5,5,,,,,0,26,26,26,,,,,,,,,,,,,,,,,,,,,,,,,,,,,,,1,8.37016330199549,,,,,,,,,,,,,,,,,,,,,,,,,,,,022519_p2,001,2019_Feb_25_1415,body_behavioural,3.0.4,59.99814377583122,
5,"Luckily, they had forgotten to arrange seats next to each other on the flight back.",4,3,,,,0,5,5,5,,,,,0,27,27,27,,,,,,,,,,,,,,,,,,,,,,,,,,,,,,,9,4.57001380300062,,,,,,,,,,,,,,,,,,,,,,,,,,,,022519_p2,001,2019_Feb_25_1415,body_behavioural,3.0.4,59.99814377583122,
5,"They both had first-class tickets, but Jessie was headed for seat 1B while Calvin's seat was 4F. ",4,3,,,,0,5,5,5,,,,,0,28,28,28,,,,,,,,,,,,,,,,,,,,,,,,,,,,,,,1,6.170044041995425,,,,,,,,,,,,,,,,,,,,,,,,,,,,022519_p2,001,2019_Feb_25_1415,body_behavioural,3.0.4,59.99814377583122,
5,"Before Jessie sat down, she took a deep breath and then awkwardly shook Calvin’s hand, mumbling, “Well, have a nice flight.” ",4,4,,,,0,5,5,5,,,,,0,29,29,29,,,,,,,,,,,,,,,,,,,,,,,,,,,,,,,9,3.9029244749981444,,,,,,,,,,,,,,,,,,,,,,,,,,,,022519_p2,001,2019_Feb_25_1415,body_behavioural,3.0.4,59.99814377583122,
5,He laughed in disbelief and walked to his window seat three rows back to get ready for takeoff.,4,4,,,,0,5,5,5,,,,,0,30,30,30,,,,,,,,,,,,,,,,,,,,,,,,,,,,,,,1,4.003286405000836,,,,,,,,,,,,,,,,,,,,,,,,,,,,022519_p2,001,2019_Feb_25_1415,body_behavioural,3.0.4,59.99814377583122,
5,Both were upset but glad that they would have this flight to mull things over and recenter. ,4,4,,,,0,5,5,5,,,,,0,31,31,31,,,,,,,,,,,,,,,,,,,,,,,,,,,,,,,1,9.687232278003648,,,,,,,,,,,,,,,,,,,,,,,,,,,,022519_p2,001,2019_Feb_25_1415,body_behavioural,3.0.4,59.99814377583122,
5,,,,,,,0,5,5,5,,,,,,,,,,,,,,,,,,,,,,,,,,,,,,,,,,,,,,,,,,,,,,,,,,,,,,,,,,,,,,,,,,,,022519_p2,001,2019_Feb_25_1415,body_behavioural,3.0.4,59.99814377583122,
6,,,,,,,0,6,6,6,0,0,0,0,,,,,,,,,,,,,,,,,,,,,,,,,,,,,space,0.6363106099961442,space,0.9871226199975354,space,0.7864527450001333,,,,,,,,,,,,,,,,,,,,,,,,,,,,,,022519_p2,001,2019_Feb_25_1415,body_behavioural,3.0.4,59.99814377583122,
6,"Sven and Isabel walked hurriedly from the cab into the Barcelona Airport after an incredible weekend with Isabel’s family, which had wiped away any doubts Sven had had about his decision to propose. ",1,1,,,,0,6,6,6,,,,,0,0,0,0,,,,,,,,,,,,,,,,,,,,,,,,,,,,,,,9,12.753912545005733,,,,,,,,,,,,,,,,,,,,,,,,,,,,022519_p2,001,2019_Feb_25_1415,body_behavioural,3.0.4,59.99814377583122,
6,"They were a little pressed for time, with only a little over an hour until their flight would take off to go back to the US, but they already had their online boarding passes and no checked luggage. ",1,1,,,,0,6,6,6,,,,,0,1,1,1,,,,,,,,,,,,,,,,,,,,,,,,,,,,,,,9,5.153114305001509,,,,,,,,,,,,,,,,,,,,,,,,,,,,022519_p2,001,2019_Feb_25_1415,body_behavioural,3.0.4,59.99814377583122,
6,"When Isabel stopped to rummage through her purse looking for her phone, Sven turned his back to her and took the velvet box out of his backpack, opening it to look at the ring he bought her.",1,2,,,,0,6,6,6,,,,,0,2,2,2,,,,,,,,,,,,,,,,,,,,,,,,,,,,,,,9,10.053563542998745,,,,,,,,,,,,,,,,,,,,,,,,,,,,022519_p2,001,2019_Feb_25_1415,body_behavioural,3.0.4,59.99814377583122,
6,"He had received her parents’ blessing during the trip, and he was almost giddy with excitement. ",1,2,,,,0,6,6,6,,,,,0,3,3,3,,,,,,,,,,,,,,,,,,,,,,,,,,,,,,,9,5.186639068000659,,,,,,,,,,,,,,,,,,,,,,,,,,,,022519_p2,001,2019_Feb_25_1415,body_behavioural,3.0.4,59.99814377583122,
6,"He tilted the ring backward and forward, despite having already studied it daily since he had purchased it a few weeks ago. ",1,2,,,,0,6,6,6,,,,,0,4,4,4,,,,,,,,,,,,,,,,,,,,,,,,,,,,,,,1,5.736680660003913,,,,,,,,,,,,,,,,,,,,,,,,,,,,022519_p2,001,2019_Feb_25_1415,body_behavioural,3.0.4,59.99814377583122,
6,"It was a simple design, with a clear, white diamond on a thin silver band.",1,2,,,,0,6,6,6,,,,,0,5,5,5,,,,,,,,,,,,,,,,,,,,,,,,,,,,,,,1,2.469791935000103,,,,,,,,,,,,,,,,,,,,,,,,,,,,022519_p2,001,2019_Feb_25_1415,body_behavioural,3.0.4,59.99814377583122,
6,"“Sven, let’s go! ” Isabel said. ",1,2,,,,0,6,6,6,,,,,0,6,6,6,,,,,,,,,,,,,,,,,,,,,,,,,,,,,,,9,2.0031171930022538,,,,,,,,,,,,,,,,,,,,,,,,,,,,022519_p2,001,2019_Feb_25_1415,body_behavioural,3.0.4,59.99814377583122,
6,Sven discretely closed the box and put it in his pocket.,1,2,,,,0,6,6,6,,,,,0,7,7,7,,,,,,,,,,,,,,,,,,,,,,,,,,,,,,,1,1.7531834230030654,,,,,,,,,,,,,,,,,,,,,,,,,,,,022519_p2,001,2019_Feb_25_1415,body_behavioural,3.0.4,59.99814377583122,
6," They entered the security line, weaving through the roped walkways to the front. ",2,2,,,,0,6,6,6,,,,,0,8,8,8,,,,,,,,,,,,,,,,,,,,,,,,,,,,,,,9,1.9027336349972757,,,,,,,,,,,,,,,,,,,,,,,,,,,,022519_p2,001,2019_Feb_25_1415,body_behavioural,3.0.4,59.99814377583122,
6,"When they were up, Isabel realized her laptop was buried somewhere in her duffle bag. ",2,2,,,,0,6,6,6,,,,,0,9,9,9,,,,,,,,,,,,,,,,,,,,,,,,,,,,,,,1,4.06967818299745,,,,,,,,,,,,,,,,,,,,,,,,,,,,022519_p2,001,2019_Feb_25_1415,body_behavioural,3.0.4,59.99814377583122,
6,Sven had to hold the growing mound of objects she pulled from her bag until she unearthed the laptop.,2,2,,,,0,6,6,6,,,,,0,10,10,10,,,,,,,,,,,,,,,,,,,,,,,,,,,,,,,1,6.120035824998922,,,,,,,,,,,,,,,,,,,,,,,,,,,,022519_p2,001,2019_Feb_25_1415,body_behavioural,3.0.4,59.99814377583122,
6,She set it into a bin and then had to unstrap her leather boots and put everything else into the bins.,2,2,,,,0,6,6,6,,,,,0,11,11,11,,,,,,,,,,,,,,,,,,,,,,,,,,,,,,,1,4.517657098003838,,,,,,,,,,,,,,,,,,,,,,,,,,,,022519_p2,001,2019_Feb_25_1415,body_behavioural,3.0.4,59.99814377583122,
6,"Finally, she relieved Sven of his holding duties, and he hurriedly deposited his own backpack on the belt as the people behind them glared without shame. ",2,2,,,,0,6,6,6,,,,,0,12,12,12,,,,,,,,,,,,,,,,,,,,,,,,,,,,,,,9,3.4032599169950117,,,,,,,,,,,,,,,,,,,,,,,,,,,,022519_p2,001,2019_Feb_25_1415,body_behavioural,3.0.4,59.99814377583122,
6,"Sven went into the millimeter wave scanner after Isabel, put his hands up, and the metal bars whirled around him.",2,2,,,,0,6,6,6,,,,,0,13,13,13,,,,,,,,,,,,,,,,,,,,,,,,,,,,,,,9,6.936758108000504,,,,,,,,,,,,,,,,,,,,,,,,,,,,022519_p2,001,2019_Feb_25_1415,body_behavioural,3.0.4,59.99814377583122,
6,"“Sir, please step to the side.",2,2,,,,0,6,6,6,,,,,0,14,14,14,,,,,,,,,,,,,,,,,,,,,,,,,,,,,,,1,1.703355730001931,,,,,,,,,,,,,,,,,,,,,,,,,,,,022519_p2,001,2019_Feb_25_1415,body_behavioural,3.0.4,59.99814377583122,
6,"You need to empty your pockets,” the security guard said.",2,2,,,,0,6,6,6,,,,,0,15,15,15,,,,,,,,,,,,,,,,,,,,,,,,,,,,,,,1,2.652905844995985,,,,,,,,,,,,,,,,,,,,,,,,,,,,022519_p2,001,2019_Feb_25_1415,body_behavioural,3.0.4,59.99814377583122,
6,"With a sinking feeling Sven realized the mistake he had made forgetting to put the ring back in his bag, as Isabel and the guard both looked at him expectantly.",2,2,,,,0,6,6,6,,,,,0,16,16,16,,,,,,,,,,,,,,,,,,,,,,,,,,,,,,,1,8.084541398005967,,,,,,,,,,,,,,,,,,,,,,,,,,,,022519_p2,001,2019_Feb_25_1415,body_behavioural,3.0.4,59.99814377583122,
6,"Sven,  deciding he would make the best of the situation, grabbed Isabel's hand as he reached into his pocket.",2,2,,,,0,6,6,6,,,,,0,17,17,17,,,,,,,,,,,,,,,,,,,,,,,,,,,,,,,9,8.370301809998637,,,,,,,,,,,,,,,,,,,,,,,,,,,,022519_p2,001,2019_Feb_25_1415,body_behavioural,3.0.4,59.99814377583122,
6,"He got down on one knee and, giggling slightly at her confused look, said, “Isabel, this isn't quite how I'd planned this, but - will you marry me?”",2,3,,,,0,6,6,6,,,,,0,18,18,18,,,,,,,,,,,,,,,,,,,,,,,,,,,,,,,1,3.186500395000621,,,,,,,,,,,,,,,,,,,,,,,,,,,,022519_p2,001,2019_Feb_25_1415,body_behavioural,3.0.4,59.99814377583122,
6,The security guard gasped.,2,3,,,,0,6,6,6,,,,,0,19,19,19,,,,,,,,,,,,,,,,,,,,,,,,,,,,,,,1,1.8198463650041958,,,,,,,,,,,,,,,,,,,,,,,,,,,,022519_p2,001,2019_Feb_25_1415,body_behavioural,3.0.4,59.99814377583122,
6,All the people who were putting their shoes back on and gathering their belongings stopped what they were doing and walked closer to the couple.,2,3,,,,0,6,6,6,,,,,0,20,20,20,,,,,,,,,,,,,,,,,,,,,,,,,,,,,,,1,5.636753232996853,,,,,,,,,,,,,,,,,,,,,,,,,,,,022519_p2,001,2019_Feb_25_1415,body_behavioural,3.0.4,59.99814377583122,
6,"Isabel was astonished, and far too shy to respond in front of the backup of passengers waiting behind them.",2,3,,,,0,6,6,6,,,,,0,21,21,21,,,,,,,,,,,,,,,,,,,,,,,,,,,,,,,1,4.451207565005461,,,,,,,,,,,,,,,,,,,,,,,,,,,,022519_p2,001,2019_Feb_25_1415,body_behavioural,3.0.4,59.99814377583122,
6,"She attempted to stammer a response as she frantically grabbed her and Sven’s shoes, leaving Sven to retrieve their bags.",2,3,,,,0,6,6,6,,,,,0,22,22,22,,,,,,,,,,,,,,,,,,,,,,,,,,,,,,,9,6.403680340001301,,,,,,,,,,,,,,,,,,,,,,,,,,,,022519_p2,001,2019_Feb_25_1415,body_behavioural,3.0.4,59.99814377583122,
6,"Both of them slipping in their socked feet, she fled onto the concourse with Sven trying to catch up behind her.",3,3,,,,0,6,6,6,,,,,0,23,23,23,,,,,,,,,,,,,,,,,,,,,,,,,,,,,,,1,5.653320088000328,,,,,,,,,,,,,,,,,,,,,,,,,,,,022519_p2,001,2019_Feb_25_1415,body_behavioural,3.0.4,59.99814377583122,
6,"Everyone in the terminal was looking at them with confusion as Sven, holding the bags in one hand and the open ring box in the other, finally caught up to her.",3,3,,,,0,6,6,6,,,,,0,24,24,24,,,,,,,,,,,,,,,,,,,,,,,,,,,,,,,1,3.3365446500029066,,,,,,,,,,,,,,,,,,,,,,,,,,,,022519_p2,001,2019_Feb_25_1415,body_behavioural,3.0.4,59.99814377583122,
6,“Isabel?”,3,3,,,,0,6,6,6,,,,,0,25,25,25,,,,,,,,,,,,,,,,,,,,,,,,,,,,,,,9,1.0696737830003258,,,,,,,,,,,,,,,,,,,,,,,,,,,,022519_p2,001,2019_Feb_25_1415,body_behavioural,3.0.4,59.99814377583122,
6,"He watched her face as she turned, trying to read her expression.",3,3,,,,0,6,6,6,,,,,0,26,26,26,,,,,,,,,,,,,,,,,,,,,,,,,,,,,,,1,2.519797188004304,,,,,,,,,,,,,,,,,,,,,,,,,,,,022519_p2,001,2019_Feb_25_1415,body_behavioural,3.0.4,59.99814377583122,
6,"Her eyes were wide, but she was smiling as she hyperventilated, “Of course yes, Sven, yes!” ",3,4,,,,0,6,6,6,,,,,0,27,27,27,,,,,,,,,,,,,,,,,,,,,,,,,,,,,,,1,7.603559695002332,,,,,,,,,,,,,,,,,,,,,,,,,,,,022519_p2,001,2019_Feb_25_1415,body_behavioural,3.0.4,59.99814377583122,
6,"They dropped their belongings and hugged, and Sven slipped the ring onto Isabel’s finger. ",3,4,,,,0,6,6,6,,,,,0,28,28,28,,,,,,,,,,,,,,,,,,,,,,,,,,,,,,,9,2.0202608199979295,,,,,,,,,,,,,,,,,,,,,,,,,,,,022519_p2,001,2019_Feb_25_1415,body_behavioural,3.0.4,59.99814377583122,
6,"After getting their shoes back on, they practically skipped to the gate, filled with joy.",3,4,,,,0,6,6,6,,,,,0,29,29,29,,,,,,,,,,,,,,,,,,,,,,,,,,,,,,,9,4.270111410005484,,,,,,,,,,,,,,,,,,,,,,,,,,,,022519_p2,001,2019_Feb_25_1415,body_behavioural,3.0.4,59.99814377583122,
6,Sven high-fived a confused shoe-shine attendant as they passed.,3,4,,,,0,6,6,6,,,,,0,30,30,30,,,,,,,,,,,,,,,,,,,,,,,,,,,,,,,1,4.300923839997267,,,,,,,,,,,,,,,,,,,,,,,,,,,,022519_p2,001,2019_Feb_25_1415,body_behavioural,3.0.4,59.99814377583122,
6,"They sat down outside their gate, having actually made good time, until the attendant called for passengers.",3,4,,,,0,6,6,6,,,,,0,31,31,31,,,,,,,,,,,,,,,,,,,,,,,,,,,,,,,9,5.384365728001285,,,,,,,,,,,,,,,,,,,,,,,,,,,,022519_p2,001,2019_Feb_25_1415,body_behavioural,3.0.4,59.99814377583122,
6,"They boarded, sitting together in first class, and had a glass of champagne to celebrate the departure into their new life together.",4,4,,,,0,6,6,6,,,,,0,32,32,32,,,,,,,,,,,,,,,,,,,,,,,,,,,,,,,1,1.0193457700006547,,,,,,,,,,,,,,,,,,,,,,,,,,,,022519_p2,001,2019_Feb_25_1415,body_behavioural,3.0.4,59.99814377583122,
6,"Some of their neighboring passengers who had witnessed the proposal congratulated them, and a woman next to them showed them that she had been live-tweeting the whole event and that it was already going viral online.",4,4,,,,0,6,6,6,,,,,0,33,33,33,,,,,,,,,,,,,,,,,,,,,,,,,,,,,,,9,11.90389472500101,,,,,,,,,,,,,,,,,,,,,,,,,,,,022519_p2,001,2019_Feb_25_1415,body_behavioural,3.0.4,59.99814377583122,
6,"Isabel slid down in her seat with her hands over her face, both embarrassed and overjoyed at the same time.
",4,4,,,,0,6,6,6,,,,,0,34,34,34,,,,,,,,,,,,,,,,,,,,,,,,,,,,,,,1,5.202965265001694,,,,,,,,,,,,,,,,,,,,,,,,,,,,022519_p2,001,2019_Feb_25_1415,body_behavioural,3.0.4,59.99814377583122,
6,,,,,,,0,6,6,6,,,,,,,,,,,,,,,,,,,,,,,,,,,,,,,,,,,,,,,,,,,,,,,,,,,,,,,,,,,,,,,,,,,,022519_p2,001,2019_Feb_25_1415,body_behavioural,3.0.4,59.99814377583122,
7,,,,,,,0,7,7,7,0,0,0,0,,,,,,,,,,,,,,,,,,,,,,,,,,,,,space,1.1529793900044751,space,0.4697318480029935,space,0.46997838000243064,,,,,,,,,,,,,,,,,,,,,,,,,,,,,,022519_p2,001,2019_Feb_25_1415,body_behavioural,3.0.4,59.99814377583122,
7,"Leon and  Ariana hurried into the classroom at the same time, and Leon did a double-take when he saw her. ",1,1,,,,0,7,7,7,,,,,0,0,0,0,,,,,,,,,,,,,,,,,,,,,,,,,,,,,,,9,10.784749153004668,,,,,,,,,,,,,,,,,,,,,,,,,,,,022519_p2,001,2019_Feb_25_1415,body_behavioural,3.0.4,59.99814377583122,
7,"This was his first day after transferring to this university, and he had assumed that he wouldn’t know anyone on campus, but he couldn't shake the nagging feeling  that he had seen her somewhere before. ",1,1,,,,0,7,7,7,,,,,0,1,1,1,,,,,,,,,,,,,,,,,,,,,,,,,,,,,,,9,6.501109049997467,,,,,,,,,,,,,,,,,,,,,,,,,,,,022519_p2,001,2019_Feb_25_1415,body_behavioural,3.0.4,59.99814377583122,
7,"They were both a bit late, so they quickly slid into seats next to each other in the back of the small classroom.",1,1,,,,0,7,7,7,,,,,0,2,2,2,,,,,,,,,,,,,,,,,,,,,,,,,,,,,,,9,3.5694499399978667,,,,,,,,,,,,,,,,,,,,,,,,,,,,022519_p2,001,2019_Feb_25_1415,body_behavioural,3.0.4,59.99814377583122,
7,"This room was usually used for small meetings, but had been rearranged with the table pushed to the side and chairs set up in rows to face the projector screen. ",1,1,,,,0,7,7,7,,,,,0,3,3,3,,,,,,,,,,,,,,,,,,,,,,,,,,,,,,,1,6.117731282996829,,,,,,,,,,,,,,,,,,,,,,,,,,,,022519_p2,001,2019_Feb_25_1415,body_behavioural,3.0.4,59.99814377583122,
7,"There were no windows in the room, since they were down in the sub-basement of the history department.",1,1,,,,0,7,7,7,,,,,0,4,4,4,,,,,,,,,,,,,,,,,,,,,,,,,,,,,,,1,5.403674068002147,,,,,,,,,,,,,,,,,,,,,,,,,,,,022519_p2,001,2019_Feb_25_1415,body_behavioural,3.0.4,59.99814377583122,
7,"Leon, trying to figure out where he had seen her before, could not stop looking over at Ariana.",1,1,,,,0,7,7,7,,,,,0,5,5,5,,,,,,,,,,,,,,,,,,,,,,,,,,,,,,,9,1.9527052199991886,,,,,,,,,,,,,,,,,,,,,,,,,,,,022519_p2,001,2019_Feb_25_1415,body_behavioural,3.0.4,59.99814377583122,
7,Ariana was oblivious to Leon’s gaze and was only focused on getting ready for class. ,1,1,,,,0,7,7,7,,,,,0,6,6,6,,,,,,,,,,,,,,,,,,,,,,,,,,,,,,,1,3.136445263000496,,,,,,,,,,,,,,,,,,,,,,,,,,,,022519_p2,001,2019_Feb_25_1415,body_behavioural,3.0.4,59.99814377583122,
7,"“Good afternoon class,” the professor began.",2,1,,,,0,7,7,7,,,,,0,7,7,7,,,,,,,,,,,,,,,,,,,,,,,,,,,,,,,9,1.236077108005702,,,,,,,,,,,,,,,,,,,,,,,,,,,,022519_p2,001,2019_Feb_25_1415,body_behavioural,3.0.4,59.99814377583122,
7,“Welcome to Egyptian Cultural Studies. ,2,1,,,,0,7,7,7,,,,,0,8,8,8,,,,,,,,,,,,,,,,,,,,,,,,,,,,,,,1,0.7369405880017439,,,,,,,,,,,,,,,,,,,,,,,,,,,,022519_p2,001,2019_Feb_25_1415,body_behavioural,3.0.4,59.99814377583122,
7,"Today we will be talking about mummification, one of the most famous and often misunderstood customs in ancient Egyptian society.”",2,1,,,,0,7,7,7,,,,,0,9,9,9,,,,,,,,,,,,,,,,,,,,,,,,,,,,,,,1,0.8529470529974787,,,,,,,,,,,,,,,,,,,,,,,,,,,,022519_p2,001,2019_Feb_25_1415,body_behavioural,3.0.4,59.99814377583122,
7,Leon pulled out his notebook and tried to concentrate on the class.,2,1,,,,0,7,7,7,,,,,0,10,10,10,,,,,,,,,,,,,,,,,,,,,,,,,,,,,,,1,3.1200797080018674,,,,,,,,,,,,,,,,,,,,,,,,,,,,022519_p2,001,2019_Feb_25_1415,body_behavioural,3.0.4,59.99814377583122,
7,Within a few minutes though he found his attention wandering back to Ariana.,2,1,,,,0,7,7,7,,,,,0,11,11,11,,,,,,,,,,,,,,,,,,,,,,,,,,,,,,,9,2.2698424529953627,,,,,,,,,,,,,,,,,,,,,,,,,,,,022519_p2,001,2019_Feb_25_1415,body_behavioural,3.0.4,59.99814377583122,
7,"He decided to do something about his hunch so he ripped off a corner of a page in his notebook, wrote a note, and set it on her desk.",2,1,,,,0,7,7,7,,,,,0,12,12,12,,,,,,,,,,,,,,,,,,,,,,,,,,,,,,,9,4.769855730002746,,,,,,,,,,,,,,,,,,,,,,,,,,,,022519_p2,001,2019_Feb_25_1415,body_behavioural,3.0.4,59.99814377583122,
7,"“Hi, sorry to distract you from mummies, but you look really familiar," it read.",2,2,,,,0,7,7,7,,,,,0,13,13,13,,,,,,,,,,,,,,,,,,,,,,,,,,,,,,,1,3.7866198849951616,,,,,,,,,,,,,,,,,,,,,,,,,,,,022519_p2,001,2019_Feb_25_1415,body_behavioural,3.0.4,59.99814377583122,
7,It continued: “Do I know you from somewhere?”,2,2,,,,0,7,7,7,,,,,0,14,14,14,,,,,,,,,,,,,,,,,,,,,,,,,,,,,,,1,1.0530980080002337,,,,,,,,,,,,,,,,,,,,,,,,,,,,022519_p2,001,2019_Feb_25_1415,body_behavioural,3.0.4,59.99814377583122,
7,"She looked at the note with surprise, and then turned to notice Leon for the first time. ",2,2,,,,0,7,7,7,,,,,0,15,15,15,,,,,,,,,,,,,,,,,,,,,,,,,,,,,,,1,2.784141919997637,,,,,,,,,,,,,,,,,,,,,,,,,,,,022519_p2,001,2019_Feb_25_1415,body_behavioural,3.0.4,59.99814377583122,
7,"She instantly liked him when she saw him; he had very soft eyes and sharp features, a combination that made him seem  trustworthy and genuine.",2,2,,,,0,7,7,7,,,,,0,16,16,16,,,,,,,,,,,,,,,,,,,,,,,,,,,,,,,9,30.87189727500663,,,,,,,,,,,,,,,,,,,,,,,,,,,,022519_p2,001,2019_Feb_25_1415,body_behavioural,3.0.4,59.99814377583122,
7,He smiled at her and she flashed him a smile back.,2,2,,,,0,7,7,7,,,,,0,17,17,17,,,,,,,,,,,,,,,,,,,,,,,,,,,,,,,1,1.7197598750062753,,,,,,,,,,,,,,,,,,,,,,,,,,,,022519_p2,001,2019_Feb_25_1415,body_behavioural,3.0.4,59.99814377583122,
7,Then she turned the note over to the back and started to write a reply.,2,2,,,,0,7,7,7,,,,,0,18,18,18,,,,,,,,,,,,,,,,,,,,,,,,,,,,,,,9,1.9693132399988826,,,,,,,,,,,,,,,,,,,,,,,,,,,,022519_p2,001,2019_Feb_25_1415,body_behavioural,3.0.4,59.99814377583122,
7,"Meanwhile the professor continued, “One may well question why the ancient Egyptians spent so much time and effort on their funerary practices.",3,2,,,,0,7,7,7,,,,,0,19,19,19,,,,,,,,,,,,,,,,,,,,,,,,,,,,,,,9,1.967469497998536,,,,,,,,,,,,,,,,,,,,,,,,,,,,022519_p2,001,2019_Feb_25_1415,body_behavioural,3.0.4,59.99814377583122,
7,"Not only was the mummification process itself a complicated affair, but there were also elaborate rituals before, during, and after death.",3,2,,,,0,7,7,7,,,,,0,20,20,20,,,,,,,,,,,,,,,,,,,,,,,,,,,,,,,1,1.3529946700000437,,,,,,,,,,,,,,,,,,,,,,,,,,,,022519_p2,001,2019_Feb_25_1415,body_behavioural,3.0.4,59.99814377583122,
7,The practice required teams of experts with years of training and took a total of 70 days to complete.” ,3,2,,,,0,7,7,7,,,,,0,21,21,21,,,,,,,,,,,,,,,,,,,,,,,,,,,,,,,1,0.953071257994452,,,,,,,,,,,,,,,,,,,,,,,,,,,,022519_p2,001,2019_Feb_25_1415,body_behavioural,3.0.4,59.99814377583122,
7,"Ariana passed the note back to Leon, and she had replied, “No, but maybe my twin and I were separated at birth.”",3,2,,,,0,7,7,7,,,,,0,22,22,22,,,,,,,,,,,,,,,,,,,,,,,,,,,,,,,9,2.7699075679993257,,,,,,,,,,,,,,,,,,,,,,,,,,,,022519_p2,001,2019_Feb_25_1415,body_behavioural,3.0.4,59.99814377583122,
7,They passed notes back and forth the whole class like they were back in high school.,3,2,,,,0,7,7,7,,,,,0,23,23,23,,,,,,,,,,,,,,,,,,,,,,,,,,,,,,,1,2.2532203100054176,,,,,,,,,,,,,,,,,,,,,,,,,,,,022519_p2,001,2019_Feb_25_1415,body_behavioural,3.0.4,59.99814377583122,
7,"Near the end of the lecture, Leon wrote, “Would you like to go to dinner tonight?” ",3,3,,,,0,7,7,7,,,,,0,24,24,24,,,,,,,,,,,,,,,,,,,,,,,,,,,,,,,9,5.686730125002214,,,,,,,,,,,,,,,,,,,,,,,,,,,,022519_p2,001,2019_Feb_25_1415,body_behavioural,3.0.4,59.99814377583122,
7,"Ariana read the note, and looked at him and nodded her head",3,3,,,,0,7,7,7,,,,,0,25,25,25,,,,,,,,,,,,,,,,,,,,,,,,,,,,,,,1,1.1196952600002987,,,,,,,,,,,,,,,,,,,,,,,,,,,,022519_p2,001,2019_Feb_25_1415,body_behavioural,3.0.4,59.99814377583122,
7,"She wrote back on the slip of paper, “Pick me up at 6 in front of Patton Hall.”",3,3,,,,0,7,7,7,,,,,0,26,26,26,,,,,,,,,,,,,,,,,,,,,,,,,,,,,,,1,2.7197880829990027,,,,,,,,,,,,,,,,,,,,,,,,,,,,022519_p2,001,2019_Feb_25_1415,body_behavioural,3.0.4,59.99814377583122,
7,Then the professor ended the lecture and announced to the class that they would have their first quiz next class on Friday on mummification. ,4,3,,,,0,7,7,7,,,,,0,27,27,27,,,,,,,,,,,,,,,,,,,,,,,,,,,,,,,9,3.003327899998112,,,,,,,,,,,,,,,,,,,,,,,,,,,,022519_p2,001,2019_Feb_25_1415,body_behavioural,3.0.4,59.99814377583122,
7,"Everyone packed up and started heading out, as well as Sophie and Leon.",4,3,,,,0,7,7,7,,,,,0,28,28,28,,,,,,,,,,,,,,,,,,,,,,,,,,,,,,,1,4.953165990002162,,,,,,,,,,,,,,,,,,,,,,,,,,,,022519_p2,001,2019_Feb_25_1415,body_behavioural,3.0.4,59.99814377583122,
7,"They approached each other smiling, and Leon said, “Well it was great to meet you, again, or maybe not again, but regardless it was great to meet you.” ",4,3,,,,0,7,7,7,,,,,0,29,29,29,,,,,,,,,,,,,,,,,,,,,,,,,,,,,,,9,4.686714760005998,,,,,,,,,,,,,,,,,,,,,,,,,,,,022519_p2,001,2019_Feb_25_1415,body_behavioural,3.0.4,59.99814377583122,
7,"She replied, “Yes, it was.",4,4,,,,0,7,7,7,,,,,0,30,30,30,,,,,,,,,,,,,,,,,,,,,,,,,,,,,,,1,1.7841399820026709,,,,,,,,,,,,,,,,,,,,,,,,,,,,022519_p2,001,2019_Feb_25_1415,body_behavioural,3.0.4,59.99814377583122,
7,"I have to run to my next class, but I’ll see you later tonight.” ",4,4,,,,0,7,7,7,,,,,0,31,31,31,,,,,,,,,,,,,,,,,,,,,,,,,,,,,,,1,2.536707512997964,,,,,,,,,,,,,,,,,,,,,,,,,,,,022519_p2,001,2019_Feb_25_1415,body_behavioural,3.0.4,59.99814377583122,
7,"She waved as they parted ways outside of the door of the classroom, and Leon was still trying to figure out where he had seen her before as he watched her go. ",4,4,,,,0,7,7,7,,,,,0,32,32,32,,,,,,,,,,,,,,,,,,,,,,,,,,,,,,,9,4.01999243300088,,,,,,,,,,,,,,,,,,,,,,,,,,,,022519_p2,001,2019_Feb_25_1415,body_behavioural,3.0.4,59.99814377583122,
7,,,,,,,0,7,7,7,,,,,,,,,,,,,,,,,,,,,,,,,,,,,,,,,,,,,,,,,,,,,,,,,,,,,,,,,,,,,,,,,,,,022519_p2,001,2019_Feb_25_1415,body_behavioural,3.0.4,59.99814377583122,
,,,,,,,,,,,,,,,,,,,,,,,,,,,,,,,,,,,,,,,,,,,,,,,,,,,1556.4209272209991,space,1.0030824580026092,,,,,,,,,,,,,,,,,,,,,,,,,022519_p2,001,2019_Feb_25_1415,body_behavioural,3.0.4,59.99814377583122,
,,,,,,The next task in the experiment is to recall each story to the best of your ability.,,,,,,,,,,,,,0,0,0,0,,,,,,,,,,,,,,,,,,,,,,,,,,,,,,,,space,4.536592200005543,,,,,,,,,,,,,,,,,,,,,,,022519_p2,001,2019_Feb_25_1415,body_behavioural,3.0.4,59.99814377583122,
,,,,,,"You will be presented with the story title, names, the images, and a blank text box for each story.",,,,,,,,,,,,,0,1,1,1,,,,,,,,,,,,,,,,,,,,,,,,,,,,,,,,space,2.2196961320005357,,,,,,,,,,,,,,,,,,,,,,,022519_p2,001,2019_Feb_25_1415,body_behavioural,3.0.4,59.99814377583122,
,,,,,,Describe the story with as many details as you can remember in the space provided. ,,,,,,,,,,,,,0,2,2,2,,,,,,,,,,,,,,,,,,,,,,,,,,,,,,,,space,2.867600523000874,,,,,,,,,,,,,,,,,,,,,,,022519_p2,001,2019_Feb_25_1415,body_behavioural,3.0.4,59.99814377583122,
,,,,,,"When you are finished recalling one story, to move onto the next one hit ‘return’. ",,,,,,,,,,,,,0,3,3,3,,,,,,,,,,,,,,,,,,,,,,,,,,,,,,,,space,2.0860999900032766,,,,,,,,,,,,,,,,,,,,,,,022519_p2,001,2019_Feb_25_1415,body_behavioural,3.0.4,59.99814377583122,
,,,,,,There is a 5 minute time limit to make your response. ,,,,,,,,,,,,,0,4,4,4,,,,,,,,,,,,,,,,,,,,,,,,,,,,,,,,space,1.8697452029955457,,,,,,,,,,,,,,,,,,,,,,,022519_p2,001,2019_Feb_25_1415,body_behavioural,3.0.4,59.99814377583122,
0,,,,,,,,,,,,,,,,,,,,,,,0,0,0,0,,,,,,,,,,,,,,,,,,,,,,,,,,,,,,space,0.6009379520037328,"Thomas and sadie go to a dishevelled restaurant. thomas breaks up with sadie; she did not see it coming. thomas had ordered a burger with no tomatoes and sadie had ordered a ruben. as she leaves the restaurant, a bell rings on the door. she is still holding half of the ruben sandwhich, which she had waves in thomas' face before exiting. thomas' bite of burger doesn't task so good and he eventually leaves too.",,,,,,,,,,,,,,,,,,,,022519_p2,001,2019_Feb_25_1415,body_behavioural,3.0.4,59.99814377583122,
1,,,,,,,,,,,,,,,,,,,,,,,0,1,1,1,,,,,,,,,,,,,,,,,,,,,,,,,,,,,,space,1.3363768019989948,"Alma and charlie share a class together. once the professor begins lecturning, charlie quietly approaches alma, suggesting his financial group sponser her web development. he tried to short end her, offering only 50percent of what she asked for, but she doesn't back down and eventually gets charlie to agree to funding the project in its entirety.",,,,,,,,,,,,,,,,,,,,022519_p2,001,2019_Feb_25_1415,body_behavioural,3.0.4,59.99814377583122,
2,,,,,,,,,,,,,,,,,,,,,,,0,2,2,2,,,,,,,,,,,,,,,,,,,,,,,,,,,,,,space,0.9030180280024069,"Simon and carina bump into each other at the super market upon entering. they eventually corss paths again at the meat section. they are both shoping for cuts for barbeque's. at first they're scared to approach each other, but carina makes a joke about one type of meat, which simon resondes to. they start talking as they finish up shopping and get in the short check out line. they quickly exchange numbers, and simon ends up buying carina's groceries for her. as they leave the market, they glance at each other, clearly excited about their potential futures together. ",,,,,,,,,,,,,,,,,,,,022519_p2,001,2019_Feb_25_1415,body_behavioural,3.0.4,59.99814377583122,
3,,,,,,,,,,,,,,,,,,,,,,,0,3,3,3,,,,,,,,,,,,,,,,,,,,,,,,,,,,,,space,1.119645038001181,"Senna and alvira go to a very nice restaurant together. alvira is planning on proposing. alvira goes to the bathroom to take another look at the ring, and once he gets back to the table they order their food. one of them orders oysteres with garlic and paremesan and the other orders scallops. senna thinks they are there to celebrate the fuitfull harvest of her tomatoes, but she is mistaken. alvira signals at the waiter who brings a cake to the table with a ring on top. senna says yes to the proposal.",,,,,,,,,,,,,,,,,,,,022519_p2,001,2019_Feb_25_1415,body_behavioural,3.0.4,59.99814377583122,
4,,,,,,,,,,,,,,,,,,,,,,,0,4,4,4,,,,,,,,,,,,,,,,,,,,,,,,,,,,,,space,0.8196787999986554,"One is  a market owner, the other owns a line of cheeses. one is trying to get the other to buy a lot of her cheese to sell at her retail stores. one suggests she gives it a try by buying $1000 worth of cheese, but the other is concerned with paying for taxes. eventualy one agrees to try selling the other's product in her store.",,,,,,,,,,,,,,,,,,,,022519_p2,001,2019_Feb_25_1415,body_behavioural,3.0.4,59.99814377583122,
5,,,,,,,,,,,,,,,,,,,,,,,0,5,5,5,,,,,,,,,,,,,,,,,,,,,,,,,,,,,,space,0.5840475500008324,"Calvin and jessie had been on a very tense vacation. jessie was fed up with calvin's extremely long, rambling, boring stories about golf and other stuff she doesn't care about, but calvin was just trying to fill the silence. at the airport security line, calvin makes  a remark about the infrastructure of the airport which drives jessie over the edge. she snaps at calvin, suggesting they end things. calvin stomps off to the gate, where he agrees it is time for them to part ways. they are both sitting in first class, but not next to each other, and they are both grateful to have that time on the plane to ruminate their situations. ",,,,,,,,,,,,,,,,,,,,022519_p2,001,2019_Feb_25_1415,body_behavioural,3.0.4,59.99814377583122,
6,,,,,,,,,,,,,,,,,,,,,,,0,6,6,6,,,,,,,,,,,,,,,,,,,,,,,,,,,,,,space,1.0530833299999358,"Sven had gotten the blessing from isabel's parents to marry her on their trip to visit them in spain. at the airport, isabel has to take her laptop out of her duffell bag which is burried under all her stuff. when it's sven's turn to go through the checkpoint, the metal detecting alarm goes off, and he realizes he had forgotten to take the ring out of his pocket and put it in his bag. so, he grabs isabels hand and proposes right there in the security area. she runs off quickly, and when he catches up to her she is teary as she exclaims yes. on the plane people congradulate them and one woman even says that she had been live tweeting the whole thing and it's bound to go viral. isabel is embarrassed by this, but still very happy.",,,,,,,,,,,,,,,,,,,,022519_p2,001,2019_Feb_25_1415,body_behavioural,3.0.4,59.99814377583122,
7,,,,,,,,,,,,,,,,,,,,,,,0,7,7,7,,,,,,,,,,,,,,,,,,,,,,,,,,,,,,space,0.6697016499965684,"Leon does a double take as he spots ariana enter a classroom. they both go inside the classroom, which is small and wasn't always used as a classroom space. as the lecturer begins talking about mummies and egyptian history, leon writes a note to ariana saying she looks very familiar. they pass notes back and forth throughout the duration of the course. at the end of class, the professor announces that there will be a quiz at the end of the week. leon and ariana has decided via notes to go to dinner that night, and as they leave the class they say that it was nice to meet, or even re-meet, each other and that they're looking forward to dinner. ",,,,,,,,,,,,,,,,,,,,022519_p2,001,2019_Feb_25_1415,body_behavioural,3.0.4,59.99814377583122,
,,,,,,,,,,,,,,,,,,,,,,,,,,,,,,,,,,,,,,,,,,,,,,,,,,,,,,,,,,,2625.041435842999,space,1.1530638050026027,,,,,,,,,,,,,,,,,022519_p2,001,2019_Feb_25_1415,body_behavioural,3.0.4,59.99814377583122,
,,,,,,The next part of the task is to answer 8 questions about each story.,,,,,,,,,,,,,,,,,,,,,0,0,0,0,,,,,,,,,,,,,,,,,,,,,,,,,,,,,,,,space,2.0366843989977497,,,,,,,,,,,,,,,022519_p2,001,2019_Feb_25_1415,body_behavioural,3.0.4,59.99814377583122,
,,,,,,Some of the questions are not related to the perspective you were asked to assume.,,,,,,,,,,,,,,,,,,,,,0,1,1,1,,,,,,,,,,,,,,,,,,,,,,,,,,,,,,,,space,2.4368768600033945,,,,,,,,,,,,,,,022519_p2,001,2019_Feb_25_1415,body_behavioural,3.0.4,59.99814377583122,
,,,,,,"We realize that we did not tell you to think of these questions during the story, but do your best to answer them.",,,,,,,,,,,,,,,,,,,,,0,2,2,2,,,,,,,,,,,,,,,,,,,,,,,,,,,,,,,,space,3.2031178399993223,,,,,,,,,,,,,,,022519_p2,001,2019_Feb_25_1415,body_behavioural,3.0.4,59.99814377583122,
,,,,,,"When you have finished typing your answer, hit ‘return’ to submit your answer and move onto the next question. ",,,,,,,,,,,,,,,,,,,,,0,3,3,3,,,,,,,,,,,,,,,,,,,,,,,,,,,,,,,,space,3.052798005002842,,,,,,,,,,,,,,,022519_p2,001,2019_Feb_25_1415,body_behavioural,3.0.4,59.99814377583122,
0,,,,,,,,,,,,,,,,,,,,,,,,,,,,,,,0,0,0,0,,,,,,,,,,,,,,,,,,,,,,,,Not veyr much,,,,,,space,1.119764565002697,Nervous,non-primed first,He needs space and is overwhlemed with work,Badly,No,Not wellcolon kind of gross,Lengthy,Burger no tomatoes and ruben,Not veyr much,,,,022519_p2,001,2019_Feb_25_1415,body_behavioural,3.0.4,59.99814377583122,
1,,,,,,,,,,,,,,,,,,,,,,,,,,,,,,,0,1,1,1,,,,,,,,,,,,,,,,,,,,,,,,Unsure,,,,,,space,1.0861437749990728,Finance and web design ,non-primed first,Financing a web design and around $4000,Disagreement,They settle on the full amount to fund the project,Very big ,Unsure ,Unsure,Unsure,,,,022519_p2,001,2019_Feb_25_1415,body_behavioural,3.0.4,59.99814377583122,
2,,,,,,,,,,,,,,,,,,,,,,,,,,,,,,,0,2,2,2,,,,,,,,,,,,,,,,,,,,,,,,"120, credit card",,,,,,space,0.8363817450008355,"They bump carts upon entering, not sure who noticed who first",non-primed first,Carina makes a joke about a meat cut,"Simon, propose dinner",They leave at the same time and go to barbeques,Unsure,Meat,Not long ,"120, credit card",,,,022519_p2,001,2019_Feb_25_1415,body_behavioural,3.0.4,59.99814377583122,
3,,,,,,,,,,,,,,,,,,,,,,,,,,,,,,,0,3,3,3,,,,,,,,,,,,,,,,,,,,,,,,Enjoy it very much,,,,,,space,1.2030648679938167,Nervous,primed first,"Elaborate, was his grandmothers",Waiter,The restaurant goers,Elegantly,Sea food,"Oysters w sauce, sea scallops",Enjoy it very much,,,,022519_p2,001,2019_Feb_25_1415,body_behavioural,3.0.4,59.99814377583122,
4,,,,,,,,,,,,,,,,,,,,,,,,,,,,,,,0,4,4,4,,,,,,,,,,,,,,,,,,,,,,,,Unsure,,,,,,space,0.736435145001451,Cheese,primed first,"Cheese, $1000",Yes,Unsure,Unsure,Cheese ,Unsure,Unsure,,,,022519_p2,001,2019_Feb_25_1415,body_behavioural,3.0.4,59.99814377583122,
5,,,,,,,,,,,,,,,,,,,,,,,,,,,,,,,0,5,5,5,,,,,,,,,,,,,,,,,,,,,,,,First class,,,,,,space,0.7362248370045563,"Angry, fed up ",primed first,She can't deal with the way calvin speaks to her anymore,Passive agressive ,No ,Not much ,"Metal detector, take off sheos",Angry,First class,,,,022519_p2,001,2019_Feb_25_1415,body_behavioural,3.0.4,59.99814377583122,
6,,,,,,,,,,,,,,,,,,,,,,,,,,,,,,,0,6,6,6,,,,,,,,,,,,,,,,,,,,,,,,First class,,,,,,space,0.7363670350023312,Happy ,non-primed first,Simple,No,Airport security area people,Plenty of time,Take out laptops,Very happy,First class,,,,022519_p2,001,2019_Feb_25_1415,body_behavioural,3.0.4,59.99814377583122,
7,,,,,,,,,,,,,,,,,,,,,,,,,,,,,,,0,7,7,7,,,,,,,,,,,,,,,,,,,,,,,,Unsure,,,,,,space,0.7531180050063995,Small ,non-primed first,"Egyptian history, mummies",Mummification,That friday ,Leon notices first because he thought he recognized ariana,Via notes in class,Lean suggests dinner that night,Unsure,,,,022519_p2,001,2019_Feb_25_1415,body_behavioural,3.0.4,59.99814377583122,
,,,,,,,,,,,,,,,,,,,,,,,,,,,,,,,,,,,,,,,,,,,,,,,,,,,,,,,,,,,,,,,,,,,,,,,,,,,3083.389761823004,space,0.6363911150037893,022519_p2,001,2019_Feb_25_1415,body_behavioural,3.0.4,59.99814377583122,
,,,,,,,,,,,,,,,,,,,,,,,,,,,,,,,,,,,0,0,0,0,,,,,,,,,,,,,,,,,,,,,,,,,,,,,,,,,,,,,,,,022519_p2,001,2019_Feb_25_1415,body_behavioural,3.0.4,59.99814377583122,
,,,,,,,,,,,,,,,,,,,,,,,,,,,,,,,,,,,1,0,1,0,,,,,,,,,,,,,,,,,,,,,,,,,,,,,,,,,,,,,,,,022519_p2,001,2019_Feb_25_1415,body_behavioural,3.0.4,59.99814377583122,
,,,,,,,,,,,,,,,,,,,,,,,,,,,,,,,,,,,2,0,2,0,,,,,,,,,,,,,,,,,,,,,,,,,,,,,,,,,,,,,,,,022519_p2,001,2019_Feb_25_1415,body_behavioural,3.0.4,59.99814377583122,
,,,,,,,,,,,,,,,,,,,,,,,,,,,,,,,,,,,3,0,3,0,,,,,,,,,,,,,,,,,,,,,,,,,,,,,,,,,,,,,,,,022519_p2,001,2019_Feb_25_1415,body_behavioural,3.0.4,59.99814377583122,
,,,,,,,,,,,,,,,,,,,,,,,,,,,,,,,,,,,4,0,4,0,,,,,,,,,,,,,,,,,,,,,,,,,,,,,,,,,,,,,,,,022519_p2,001,2019_Feb_25_1415,body_behavioural,3.0.4,59.99814377583122,
