count,storyText,locationEvent,socialEvent,locationEventSize,socialEventSize,instructText,trials.thisRepN,trials.thisTrialN,trials.thisN,trials.thisIndex,trials_7.thisRepN,trials_7.thisTrialN,trials_7.thisN,trials_7.thisIndex,trials_2.thisRepN,trials_2.thisTrialN,trials_2.thisN,trials_2.thisIndex,trials_3.thisRepN,trials_3.thisTrialN,trials_3.thisN,trials_3.thisIndex,trials_4.thisRepN,trials_4.thisTrialN,trials_4.thisN,trials_4.thisIndex,order of stories,order of perspectives,participant 2 order - stories,participant 2 order  - schemas types,key_resp_8.keys,key_resp_8.rt,key_resp_5.keys,key_resp_5.rt,key_resp_7.keys,key_resp_7.rt,story_presses.keys,story_presses.rt,story time,key_resp_6.keys,key_resp_6.rt,key_resp_2.keys,key_resp_2.rt,key_resp_10.keys,key_resp_10.rt,recall,participant,session,date,expName,psychopyVersion,frameRate,,,,,,,,,,,,,,,,,,,,,,,,,,,,
0,,,,,,,0,0,0,0,0,0,0,0,,,,,,,,,,,,,[33 32 41 23 14 22 44 11 31 13 21 24 34 42 43 12],"['Social' 'Location' 'Social' 'Location' 'Social' 'Social' 'Location'
 'Location' 'Social' 'Location' 'Location' 'Social' 'Location' 'Location'
 'Social' 'Social']",[31 13 21 24 34 42 43 12],"['Social' 'Location' 'Location' 'Social' 'Location' 'Location' 'Social'
 'Social']",space,18.605389321000985,space,1.0038354019998224,space,1.4032633120004903,,,,,,,,,,,022719_p1,1,2019_Feb_27_1214,body_behavioural,3.0.4,59.91687599967098,,,,,,,,,,,,,,,,,,,,,,,,,,,,
0,,,,,,,0,0,0,0,1,0,1,0,,,,,,,,,,,,,,,,,,,,,space,0.48605934000079287,,,,,,,,,,,022719_p1,1,2019_Feb_27_1214,body_behavioural,3.0.4,59.91687599967098,,,,,,,,,,,,,,,,,,,,,,,,,,,,
0,,,,,,,0,0,0,0,2,0,2,0,,,,,,,,,,,,,,,,,,,,,space,0.4196553599977051,,,,,,,,,,,022719_p1,1,2019_Feb_27_1214,body_behavioural,3.0.4,59.91687599967098,,,,,,,,,,,,,,,,,,,,,,,,,,,,
0,,,,,,,0,0,0,0,3,0,3,0,,,,,,,,,,,,,,,,,,,,,space,0.433912339998642,,,,,,,,,,,022719_p1,1,2019_Feb_27_1214,body_behavioural,3.0.4,59.91687599967098,,,,,,,,,,,,,,,,,,,,,,,,,,,,
0,,,,,,,0,0,0,0,4,0,4,0,,,,,,,,,,,,,,,,,,,,,space,0.31915239699810627,,,,,,,,,,,022719_p1,1,2019_Feb_27_1214,body_behavioural,3.0.4,59.91687599967098,,,,,,,,,,,,,,,,,,,,,,,,,,,,
0,"Ms. Bianchi and Ms. Morrison walked into the grocery store at the same time, and, after a moment of mutual recognition, greeted each other and shook hands.",1,1,,,,0,0,0,0,,,,,0,0,0,0,,,,,,,,,,,,,,,,,,,1,20.285471215000143,,,,,,,,,022719_p1,1,2019_Feb_27_1214,body_behavioural,3.0.4,59.91687599967098,,,,,,,,,,,,,,,,,,,,,,,,,,,,
0,"“Thank you again for inviting me here to discuss my business proposal,” said Ms. Bianchi, “And it’s a pleasure to be out of the office.” ",1,1,,,,0,0,0,0,,,,,0,1,1,1,,,,,,,,,,,,,,,,,,,1,2.63617877499928,,,,,,,,,022719_p1,1,2019_Feb_27_1214,body_behavioural,3.0.4,59.91687599967098,,,,,,,,,,,,,,,,,,,,,,,,,,,,
0,"As a salesperson for an Italian cheese company that was trying to expand its outreach to more mainstream grocery stores, this meeting could be a big break for her.",1,1,,,,0,0,0,0,,,,,0,2,2,2,,,,,,,,,,,,,,,,,,,1,3.8175685120004346,,,,,,,,,022719_p1,1,2019_Feb_27_1214,body_behavioural,3.0.4,59.91687599967098,,,,,,,,,,,,,,,,,,,,,,,,,,,,
0,"Her sales target, Ms. Morrison,  who had a reputation for being a bit quirky, was a corporate buyer for a large chain grocery store. ",1,1,,,,0,0,0,0,,,,,0,3,3,3,,,,,,,,,,,,,,,,,,,1,3.167517015001067,,,,,,,,,022719_p1,1,2019_Feb_27_1214,body_behavioural,3.0.4,59.91687599967098,,,,,,,,,,,,,,,,,,,,,,,,,,,,
0,"She was known for doing things unconventionally: for example, she said that she liked to make deals with suppliers in the place where the products were sold- “to keep their minds focused on what’s important.” ",1,1,,,,0,0,0,0,,,,,0,4,4,4,,,,,,,,,,,,,,,,,,,1,4.670029955002974,,,,,,,,,022719_p1,1,2019_Feb_27_1214,body_behavioural,3.0.4,59.91687599967098,,,,,,,,,,,,,,,,,,,,,,,,,,,,
0,"They chatted a little in the front of the grocery store, which was surrounded by pumpkins and halloween decorations set up in special displays for the holiday season.",1,1,,,,0,0,0,0,,,,,0,5,5,5,,,,,,,,,,,,,,,,,,,1,7.45401504199981,,,,,,,,,022719_p1,1,2019_Feb_27_1214,body_behavioural,3.0.4,59.91687599967098,,,,,,,,,,,,,,,,,,,,,,,,,,,,
0,"Ms. Bianchi and Ms. Morrison walked to the cheese section, and Ms. Morrison picked up a block of parmesan.",2,1,,,,0,0,0,0,,,,,0,6,6,6,,,,,,,,,,,,,,,,,,,1,1.8508277369983261,,,,,,,,,022719_p1,1,2019_Feb_27_1214,body_behavioural,3.0.4,59.91687599967098,,,,,,,,,,,,,,,,,,,,,,,,,,,,
0,“We have quite a selection here.,2,1,,,,0,0,0,0,,,,,0,7,7,7,,,,,,,,,,,,,,,,,,,9,9.969893482997577,,,,,,,,,022719_p1,1,2019_Feb_27_1214,body_behavioural,3.0.4,59.91687599967098,,,,,,,,,,,,,,,,,,,,,,,,,,,,
0,I don’t know that it needs an additional section for more gourmet cheeses.” ,2,1,,,,0,0,0,0,,,,,0,8,8,8,,,,,,,,,,,,,,,,,,,1,2.9206487250012287,,,,,,,,,022719_p1,1,2019_Feb_27_1214,body_behavioural,3.0.4,59.91687599967098,,,,,,,,,,,,,,,,,,,,,,,,,,,,
0,"Ms. Bianchi's confidence faltered for a minute at this remark, but then she launched into her prepared pitch.",2,1,,,,0,0,0,0,,,,,0,9,9,9,,,,,,,,,,,,,,,,,,,1,4.934311921999324,,,,,,,,,022719_p1,1,2019_Feb_27_1214,body_behavioural,3.0.4,59.91687599967098,,,,,,,,,,,,,,,,,,,,,,,,,,,,
0," “Ms. Morrison, I think you would agree that selling food is more than just providing variety, but also about providing the highest quality.",2,2,,,,0,0,0,0,,,,,0,10,10,10,,,,,,,,,,,,,,,,,,,1,2.7868088370014448,,,,,,,,,022719_p1,1,2019_Feb_27_1214,body_behavioural,3.0.4,59.91687599967098,,,,,,,,,,,,,,,,,,,,,,,,,,,,
0,"You don’t have cheeses made in America that are like ours, it is true.",2,2,,,,0,0,0,0,,,,,0,11,11,11,,,,,,,,,,,,,,,,,,,1,1.5031172149974736,,,,,,,,,022719_p1,1,2019_Feb_27_1214,body_behavioural,3.0.4,59.91687599967098,,,,,,,,,,,,,,,,,,,,,,,,,,,,
0,Your store could be providing American consumers with a dimension in taste that they've never known before with our product.,2,2,,,,0,0,0,0,,,,,0,12,12,12,,,,,,,,,,,,,,,,,,,1,3.136291971997707,,,,,,,,,022719_p1,1,2019_Feb_27_1214,body_behavioural,3.0.4,59.91687599967098,,,,,,,,,,,,,,,,,,,,,,,,,,,,
0,"I propose that you give it a shot, buy $1000 worth of cheese products for a few stores, and see how the sales increase not only in our cheeses but also in products related to cheeses: crackers, jams, olives.",2,2,,,,0,0,0,0,,,,,0,13,13,13,,,,,,,,,,,,,,,,,,,1,1.2530052249967412,,,,,,,,,022719_p1,1,2019_Feb_27_1214,body_behavioural,3.0.4,59.91687599967098,,,,,,,,,,,,,,,,,,,,,,,,,,,,
0,"The availability of a finer product leads to the appreciation of the product, and your consumers will start to consume in a new, more profitable way.”",2,2,,,,0,0,0,0,,,,,0,14,14,14,,,,,,,,,,,,,,,,,,,1,1.7531163149978966,,,,,,,,,022719_p1,1,2019_Feb_27_1214,body_behavioural,3.0.4,59.91687599967098,,,,,,,,,,,,,,,,,,,,,,,,,,,,
0,"Ms. Bianchi picked up a box of crackers by the cheese section, and said, “Here, I will buy these, and we can try some of our cheeses that I've brought with me.”",2,2,,,,0,0,0,0,,,,,0,15,15,15,,,,,,,,,,,,,,,,,,,1,2.9031508919979387,,,,,,,,,022719_p1,1,2019_Feb_27_1214,body_behavioural,3.0.4,59.91687599967098,,,,,,,,,,,,,,,,,,,,,,,,,,,,
0,"Ms. Morrison, who was thinking, nodded in agreement and said, “That sounds like a great idea.",2,2,,,,0,0,0,0,,,,,0,16,16,16,,,,,,,,,,,,,,,,,,,1,1.4365523870001198,,,,,,,,,022719_p1,1,2019_Feb_27_1214,body_behavioural,3.0.4,59.91687599967098,,,,,,,,,,,,,,,,,,,,,,,,,,,,
0,"Let’s head to check out, and those crackers are on me.” ",2,2,,,,0,0,0,0,,,,,0,17,17,17,,,,,,,,,,,,,,,,,,,1,7.336777529999381,,,,,,,,,022719_p1,1,2019_Feb_27_1214,body_behavioural,3.0.4,59.91687599967098,,,,,,,,,,,,,,,,,,,,,,,,,,,,
0,They walked over to the checkout area.,3,2,,,,0,0,0,0,,,,,0,18,18,18,,,,,,,,,,,,,,,,,,,9,1.670659514998988,,,,,,,,,022719_p1,1,2019_Feb_27_1214,body_behavioural,3.0.4,59.91687599967098,,,,,,,,,,,,,,,,,,,,,,,,,,,,
0,"There was a very long line, and it was very busy in the checkout area as people were stocking up for Halloween parties and trick-or-treating. ",3,2,,,,0,0,0,0,,,,,0,19,19,19,,,,,,,,,,,,,,,,,,,1,1.1363299369986635,,,,,,,,,022719_p1,1,2019_Feb_27_1214,body_behavioural,3.0.4,59.91687599967098,,,,,,,,,,,,,,,,,,,,,,,,,,,,
0,"Since they had almost a 10 minute wait in line, Ms. Bianchi handed a sheet with printed graphs to Ms. Morrison the increase in profits that several other stores had seen after starting to carry their products.",3,2,,,,0,0,0,0,,,,,0,20,20,20,,,,,,,,,,,,,,,,,,,1,6.3530446519980615,,,,,,,,,022719_p1,1,2019_Feb_27_1214,body_behavioural,3.0.4,59.91687599967098,,,,,,,,,,,,,,,,,,,,,,,,,,,,
0,"Eventually, Ms. Morrison replied, “You know what, I think you've convinced me that this could work. ",3,3,,,,0,0,0,0,,,,,0,21,21,21,,,,,,,,,,,,,,,,,,,1,1.052664975002699,,,,,,,,,022719_p1,1,2019_Feb_27_1214,body_behavioural,3.0.4,59.91687599967098,,,,,,,,,,,,,,,,,,,,,,,,,,,,
0,We've been trying to find a way to add a little European cachet to our stores.,3,3,,,,0,0,0,0,,,,,0,22,22,22,,,,,,,,,,,,,,,,,,,1,0.8028607100022782,,,,,,,,,022719_p1,1,2019_Feb_27_1214,body_behavioural,3.0.4,59.91687599967098,,,,,,,,,,,,,,,,,,,,,,,,,,,,
0,There's still a problem though - I'm worried we'll be paying out the nose for the import taxes.,3,3,,,,0,0,0,0,,,,,0,23,23,23,,,,,,,,,,,,,,,,,,,1,0.769949239998823,,,,,,,,,022719_p1,1,2019_Feb_27_1214,body_behavioural,3.0.4,59.91687599967098,,,,,,,,,,,,,,,,,,,,,,,,,,,,
0,"Is that the case?""",3,3,,,,0,0,0,0,,,,,0,24,24,24,,,,,,,,,,,,,,,,,,,1,0.8673488200001884,,,,,,,,,022719_p1,1,2019_Feb_27_1214,body_behavioural,3.0.4,59.91687599967098,,,,,,,,,,,,,,,,,,,,,,,,,,,,
0,"It was Ms. Morrison’s turn to checkout, and the two businesswomen continued to talk back and forth as she did so. ",4,3,,,,0,0,0,0,,,,,0,25,25,25,,,,,,,,,,,,,,,,,,,1,1.4364282900023682,,,,,,,,,022719_p1,1,2019_Feb_27_1214,body_behavioural,3.0.4,59.91687599967098,,,,,,,,,,,,,,,,,,,,,,,,,,,,
0,"The cashier scanned the crackers, and Ms. Bianchi watched in amusement as Ms. Morrison paid the $6 price entirely in quarters from a wallet bulging with change.",4,3,,,,0,0,0,0,,,,,0,26,26,26,,,,,,,,,,,,,,,,,,,1,5.0342409149998275,,,,,,,,,022719_p1,1,2019_Feb_27_1214,body_behavioural,3.0.4,59.91687599967098,,,,,,,,,,,,,,,,,,,,,,,,,,,,
0,"They shortly came to an agreement and would have enough cheese shipments, $5000 worth, to different stores to qualify for a subsidized import tax.",4,4,,,,0,0,0,0,,,,,0,27,27,27,,,,,,,,,,,,,,,,,,,1,11.070848908002517,,,,,,,,,022719_p1,1,2019_Feb_27_1214,body_behavioural,3.0.4,59.91687599967098,,,,,,,,,,,,,,,,,,,,,,,,,,,,
0,"Ms. Bianchi retrieved some of her samples from her car, and they toasted their new deal with crackers topped with fresh mozzarella. ",4,4,,,,0,0,0,0,,,,,0,28,28,28,,,,,,,,,,,,,,,,,,,1,6.253521352002281,,,,,,,,,022719_p1,1,2019_Feb_27_1214,body_behavioural,3.0.4,59.91687599967098,,,,,,,,,,,,,,,,,,,,,,,,,,,,
0,,,,,,,0,0,0,0,,,,,,,,,,,,,,,,,,,,,,,,,,,,,,,,,,,,,022719_p1,1,2019_Feb_27_1214,body_behavioural,3.0.4,59.91687599967098,,,,,,,,,,,,,,,,,,,,,,,,,,,,
1,,,,,,,0,1,1,1,0,0,0,0,,,,,,,,,,,,,,,,,space,2.819892349998554,space,0.5196960600005696,space,0.7858347750006942,,,,,,,,,,,022719_p1,1,2019_Feb_27_1214,body_behavioural,3.0.4,59.91687599967098,,,,,,,,,,,,,,,,,,,,,,,,,,,,
1,"Jeff, hoping that today would be a pivotal day for his new business, had only been waiting inside the doors of the airport for a few minutes when he saw William and eagerly waved him over. ",1,1,,,,0,1,1,1,,,,,0,0,0,0,,,,,,,,,,,,,,,,,,,1,2.4196124150003016,,,,,,,,,022719_p1,1,2019_Feb_27_1214,body_behavioural,3.0.4,59.91687599967098,,,,,,,,,,,,,,,,,,,,,,,,,,,,
1,"Jeff, checking his watch, was pleased to see that the two of them had two hours to discuss business before their flights left Boston.",1,1,,,,0,1,1,1,,,,,0,1,1,1,,,,,,,,,,,,,,,,,,,1,0.7339718849980272,,,,,,,,,022719_p1,1,2019_Feb_27_1214,body_behavioural,3.0.4,59.91687599967098,,,,,,,,,,,,,,,,,,,,,,,,,,,,
1,The two had met the night before in line for the bathroom at a local bar. ,1,1,,,,0,1,1,1,,,,,0,2,2,2,,,,,,,,,,,,,,,,,,,1,3.2343298849991697,,,,,,,,,022719_p1,1,2019_Feb_27_1214,body_behavioural,3.0.4,59.91687599967098,,,,,,,,,,,,,,,,,,,,,,,,,,,,
1,Jeff had delivered some surprisingly-detailed complaints to William about the wine selection.,1,1,,,,0,1,1,1,,,,,0,3,3,3,,,,,,,,,,,,,,,,,,,1,3.66959189499903,,,,,,,,,022719_p1,1,2019_Feb_27_1214,body_behavioural,3.0.4,59.91687599967098,,,,,,,,,,,,,,,,,,,,,,,,,,,,
1,They quickly learned about each other that Jeff was a representative for wine vineyards in the Northeast and William was a wine buyer for corporate events.,1,1,,,,0,1,1,1,,,,,0,4,4,4,,,,,,,,,,,,,,,,,,,1,2.98653408500104,,,,,,,,,022719_p1,1,2019_Feb_27_1214,body_behavioural,3.0.4,59.91687599967098,,,,,,,,,,,,,,,,,,,,,,,,,,,,
1,"Since they both had flights out of Boston at the same time, they had agreed to meet at the airport and talk about potentially doing business. ",1,1,,,,0,1,1,1,,,,,0,5,5,5,,,,,,,,,,,,,,,,,,,1,5.101175120002154,,,,,,,,,022719_p1,1,2019_Feb_27_1214,body_behavioural,3.0.4,59.91687599967098,,,,,,,,,,,,,,,,,,,,,,,,,,,,
1,"They headed to security together, pleased to find that the line was not so long, and they chatted a little as they were waiting. ",2,1,,,,0,1,1,1,,,,,0,6,6,6,,,,,,,,,,,,,,,,,,,1,2.1698492299983627,,,,,,,,,022719_p1,1,2019_Feb_27_1214,body_behavioural,3.0.4,59.91687599967098,,,,,,,,,,,,,,,,,,,,,,,,,,,,
1,"“It’s crazy that we met last night,” William said, “I am flying out right now to meet my boss, and was worried that I was going to show up empty handed without any local retailer prepared.” ",2,1,,,,0,1,1,1,,,,,0,7,7,7,,,,,,,,,,,,,,,,,,,9,2.5864790870000434,,,,,,,,,022719_p1,1,2019_Feb_27_1214,body_behavioural,3.0.4,59.91687599967098,,,,,,,,,,,,,,,,,,,,,,,,,,,,
1,"“I know, what are the chances, right?” Jeff said.",2,1,,,,0,1,1,1,,,,,0,8,8,8,,,,,,,,,,,,,,,,,,,1,1.6697598020000441,,,,,,,,,022719_p1,1,2019_Feb_27_1214,body_behavioural,3.0.4,59.91687599967098,,,,,,,,,,,,,,,,,,,,,,,,,,,,
1,"William laughed and said, “I’m glad our shared complaining can come in handy.",2,1,,,,0,1,1,1,,,,,0,9,9,9,,,,,,,,,,,,,,,,,,,1,1.3526876569994783,,,,,,,,,022719_p1,1,2019_Feb_27_1214,body_behavioural,3.0.4,59.91687599967098,,,,,,,,,,,,,,,,,,,,,,,,,,,,
1,"I know this is fast, but I'd like to get right down to specifics.",2,2,,,,0,1,1,1,,,,,0,10,10,10,,,,,,,,,,,,,,,,,,,1,1.4865052219975041,,,,,,,,,022719_p1,1,2019_Feb_27_1214,body_behavioural,3.0.4,59.91687599967098,,,,,,,,,,,,,,,,,,,,,,,,,,,,
1,I'd like to order a couple of sample shipments from you and present them to our corporate buyers.,2,2,,,,0,1,1,1,,,,,0,11,11,11,,,,,,,,,,,,,,,,,,,1,2.103867628000444,,,,,,,,,022719_p1,1,2019_Feb_27_1214,body_behavioural,3.0.4,59.91687599967098,,,,,,,,,,,,,,,,,,,,,,,,,,,,
1,"Typically we expect to get these kinds of samples at a deep discount, at least half-off the label price.",2,2,,,,0,1,1,1,,,,,0,12,12,12,,,,,,,,,,,,,,,,,,,1,1.8200559920005617,,,,,,,,,022719_p1,1,2019_Feb_27_1214,body_behavioural,3.0.4,59.91687599967098,,,,,,,,,,,,,,,,,,,,,,,,,,,,
1,"This is nothing, okay, compared to what you will be making if one of these buyers makes a contract.",2,2,,,,0,1,1,1,,,,,0,13,13,13,,,,,,,,,,,,,,,,,,,1,3.068292129002657,,,,,,,,,022719_p1,1,2019_Feb_27_1214,body_behavioural,3.0.4,59.91687599967098,,,,,,,,,,,,,,,,,,,,,,,,,,,,
1,So I propose that you send us $600 worth of wine shipments for a price of $300.”,2,2,,,,0,1,1,1,,,,,0,14,14,14,,,,,,,,,,,,,,,,,,,1,1.2867446870004642,,,,,,,,,022719_p1,1,2019_Feb_27_1214,body_behavioural,3.0.4,59.91687599967098,,,,,,,,,,,,,,,,,,,,,,,,,,,,
1,"When it was their turn to go through the metal detector, they took off their shoes and pulled out their laptops.",2,2,,,,0,1,1,1,,,,,0,15,15,15,,,,,,,,,,,,,,,,,,,1,3.1696991229982814,,,,,,,,,022719_p1,1,2019_Feb_27_1214,body_behavioural,3.0.4,59.91687599967098,,,,,,,,,,,,,,,,,,,,,,,,,,,,
1,"Jeff mulled over the offer, nodding noncommittally to William's pitch as they proceeded through the metal detector and retrieved their belongings.",2,2,,,,0,1,1,1,,,,,0,16,16,16,,,,,,,,,,,,,,,,,,,1,1.6363828619978449,,,,,,,,,022719_p1,1,2019_Feb_27_1214,body_behavioural,3.0.4,59.91687599967098,,,,,,,,,,,,,,,,,,,,,,,,,,,,
1,"They began to walk through the concourse, and William handed some printed spreadsheets to Jeff as they navigated toward their gates at the end of the terminal.",3,2,,,,0,1,1,1,,,,,0,17,17,17,,,,,,,,,,,,,,,,,,,1,2.403210337000928,,,,,,,,,022719_p1,1,2019_Feb_27_1214,body_behavioural,3.0.4,59.91687599967098,,,,,,,,,,,,,,,,,,,,,,,,,,,,
1,"Jeff, weaving through the crowds of travelers, squinted at William's rosy projections of the number of bottles he could be able to purchase in the future.",3,2,,,,0,1,1,1,,,,,0,18,18,18,,,,,,,,,,,,,,,,,,,1,3.451011772998754,,,,,,,,,022719_p1,1,2019_Feb_27_1214,body_behavioural,3.0.4,59.91687599967098,,,,,,,,,,,,,,,,,,,,,,,,,,,,
1,"Finally Jeff said, “I don’t know, we’re not coming from corporate vineyards, so gambling with sample shipments is the kind of risk we can’t necessarily make. ",3,3,,,,0,1,1,1,,,,,0,19,19,19,,,,,,,,,,,,,,,,,,,1,2.9700356169996667,,,,,,,,,022719_p1,1,2019_Feb_27_1214,body_behavioural,3.0.4,59.91687599967098,,,,,,,,,,,,,,,,,,,,,,,,,,,,
1,"These corporate purchases would have to be huge and practically guaranteed, to offset the loss from selling sample shipments at this price.”",3,3,,,,0,1,1,1,,,,,0,20,20,20,,,,,,,,,,,,,,,,,,,1,2.5537722970002505,,,,,,,,,022719_p1,1,2019_Feb_27_1214,body_behavioural,3.0.4,59.91687599967098,,,,,,,,,,,,,,,,,,,,,,,,,,,,
1,"They walked to the gates very slowly, barely registering the hubbub of the airport since they were so caught up in figuring out this deal before their flights left.",3,3,,,,0,1,1,1,,,,,0,21,21,21,,,,,,,,,,,,,,,,,,,1,27.388213731999713,,,,,,,,,022719_p1,1,2019_Feb_27_1214,body_behavioural,3.0.4,59.91687599967098,,,,,,,,,,,,,,,,,,,,,,,,,,,,
1,"At the end of their long walk, they got to Jeff’s gate first, which had begun boarding passengers.",3,3,,,,0,1,1,1,,,,,0,22,22,22,,,,,,,,,,,,,,,,,,,1,2.135953642999084,,,,,,,,,022719_p1,1,2019_Feb_27_1214,body_behavioural,3.0.4,59.91687599967098,,,,,,,,,,,,,,,,,,,,,,,,,,,,
1,"In these last minutes, William and Jeff agreed on a compromise rate on the sample shipment, paying $400 for a $600 shipment, and they finalized the deal with a handshake.",3,4,,,,0,1,1,1,,,,,0,23,23,23,,,,,,,,,,,,,,,,,,,9,0.9032525350012293,,,,,,,,,022719_p1,1,2019_Feb_27_1214,body_behavioural,3.0.4,59.91687599967098,,,,,,,,,,,,,,,,,,,,,,,,,,,,
1,"“Well, what a tremendous pleasure to do business with you and to have all this work out,” William said.",3,4,,,,0,1,1,1,,,,,0,24,24,24,,,,,,,,,,,,,,,,,,,1,2.152793705001386,,,,,,,,,022719_p1,1,2019_Feb_27_1214,body_behavioural,3.0.4,59.91687599967098,,,,,,,,,,,,,,,,,,,,,,,,,,,,
1,"Jeff nodded enthusiastically, and responded, “Likewise, this has been great.  ",3,4,,,,0,1,1,1,,,,,0,25,25,25,,,,,,,,,,,,,,,,,,,1,1.9698210200003814,,,,,,,,,022719_p1,1,2019_Feb_27_1214,body_behavioural,3.0.4,59.91687599967098,,,,,,,,,,,,,,,,,,,,,,,,,,,,
1,I'll let you get to your gate.,3,4,,,,0,1,1,1,,,,,0,26,26,26,,,,,,,,,,,,,,,,,,,1,1.3862168749983539,,,,,,,,,022719_p1,1,2019_Feb_27_1214,body_behavioural,3.0.4,59.91687599967098,,,,,,,,,,,,,,,,,,,,,,,,,,,,
1,"Once we’re both back on the ground, we can get all the shipments in the books.”",3,4,,,,0,1,1,1,,,,,0,27,27,27,,,,,,,,,,,,,,,,,,,1,1.3541875169976265,,,,,,,,,022719_p1,1,2019_Feb_27_1214,body_behavioural,3.0.4,59.91687599967098,,,,,,,,,,,,,,,,,,,,,,,,,,,,
1,They parted with a wave as Jeff scanned his boarding pass at the gate. ,3,4,,,,0,1,1,1,,,,,0,28,28,28,,,,,,,,,,,,,,,,,,,1,1.3204704750023666,,,,,,,,,022719_p1,1,2019_Feb_27_1214,body_behavioural,3.0.4,59.91687599967098,,,,,,,,,,,,,,,,,,,,,,,,,,,,
1,He walked onto the plane and sat down in his aisle seat in the business class section.,4,4,,,,0,1,1,1,,,,,0,29,29,29,,,,,,,,,,,,,,,,,,,9,2.903133602001617,,,,,,,,,022719_p1,1,2019_Feb_27_1214,body_behavioural,3.0.4,59.91687599967098,,,,,,,,,,,,,,,,,,,,,,,,,,,,
1,He typed out a quick email on his phone letting the rest of his team know the good news. ,4,4,,,,0,1,1,1,,,,,0,30,30,30,,,,,,,,,,,,,,,,,,,1,1.7526265999986208,,,,,,,,,022719_p1,1,2019_Feb_27_1214,body_behavioural,3.0.4,59.91687599967098,,,,,,,,,,,,,,,,,,,,,,,,,,,,
1,"When the flight attendant came by, he ordered a glass of champagne to celebrate.",4,4,,,,0,1,1,1,,,,,0,31,31,31,,,,,,,,,,,,,,,,,,,1,1.5864775650006777,,,,,,,,,022719_p1,1,2019_Feb_27_1214,body_behavioural,3.0.4,59.91687599967098,,,,,,,,,,,,,,,,,,,,,,,,,,,,
1,,,,,,,0,1,1,1,,,,,,,,,,,,,,,,,,,,,,,,,,,,,,,,,,,,,022719_p1,1,2019_Feb_27_1214,body_behavioural,3.0.4,59.91687599967098,,,,,,,,,,,,,,,,,,,,,,,,,,,,
2,,,,,,,0,2,2,2,0,0,0,0,,,,,,,,,,,,,,,,,space,1.3027879399996891,space,0.6363213769982394,space,0.9535273670007882,,,,,,,,,,,022719_p1,1,2019_Feb_27_1214,body_behavioural,3.0.4,59.91687599967098,,,,,,,,,,,,,,,,,,,,,,,,,,,,
2,"James noticed Teresa immediately as she walked into the restaurant - or, more accurately as she attempted to walk into the restaurant. ",1,1,,,,0,2,2,2,,,,,0,0,0,0,,,,,,,,,,,,,,,,,,,1,10.820566699996562,,,,,,,,,022719_p1,1,2019_Feb_27_1214,body_behavioural,3.0.4,59.91687599967098,,,,,,,,,,,,,,,,,,,,,,,,,,,,
2,"She was typing intently on her phone and ran straight into the diner's clear, glass door with an echoing thud. ",1,1,,,,0,2,2,2,,,,,0,1,1,1,,,,,,,,,,,,,,,,,,,1,6.51993982500062,,,,,,,,,022719_p1,1,2019_Feb_27_1214,body_behavioural,3.0.4,59.91687599967098,,,,,,,,,,,,,,,,,,,,,,,,,,,,
2,Everyone waiting around the cash register turned to see if she was okay.,1,1,,,,0,2,2,2,,,,,0,2,2,2,,,,,,,,,,,,,,,,,,,1,3.1528168769982585,,,,,,,,,022719_p1,1,2019_Feb_27_1214,body_behavioural,3.0.4,59.91687599967098,,,,,,,,,,,,,,,,,,,,,,,,,,,,
2,Teresa rubbed her head.,1,1,,,,0,2,2,2,,,,,0,3,3,3,,,,,,,,,,,,,,,,,,,1,0.853340368001227,,,,,,,,,022719_p1,1,2019_Feb_27_1214,body_behavioural,3.0.4,59.91687599967098,,,,,,,,,,,,,,,,,,,,,,,,,,,,
2,"While being both confused and unembarrassed, she looked mostly indignant that the door had been in her way. ",1,1,,,,0,2,2,2,,,,,0,4,4,4,,,,,,,,,,,,,,,,,,,1,6.886929008000152,,,,,,,,,022719_p1,1,2019_Feb_27_1214,body_behavioural,3.0.4,59.91687599967098,,,,,,,,,,,,,,,,,,,,,,,,,,,,
2,James found this quite charming and stole a couple glances at her until she noticed and wrinkled her eyebrows at him in suspicion. ,1,1,,,,0,2,2,2,,,,,0,5,5,5,,,,,,,,,,,,,,,,,,,1,4.486307474999194,,,,,,,,,022719_p1,1,2019_Feb_27_1214,body_behavioural,3.0.4,59.91687599967098,,,,,,,,,,,,,,,,,,,,,,,,,,,,
2,"The restaurant they were in was a cabin-themed diner with wooden booths and bar, walls covered in plaid blankets, and antler decorations. ",1,1,,,,0,2,2,2,,,,,0,6,6,6,,,,,,,,,,,,,,,,,,,1,4.836637641998095,,,,,,,,,022719_p1,1,2019_Feb_27_1214,body_behavioural,3.0.4,59.91687599967098,,,,,,,,,,,,,,,,,,,,,,,,,,,,
2,The waiter saw that James and Teresa were both alone and motioned to both of them. ,1,1,,,,0,2,2,2,,,,,0,7,7,7,,,,,,,,,,,,,,,,,,,1,1.6028479369997513,,,,,,,,,022719_p1,1,2019_Feb_27_1214,body_behavioural,3.0.4,59.91687599967098,,,,,,,,,,,,,,,,,,,,,,,,,,,,
2,“Right this way.,2,1,,,,0,2,2,2,,,,,0,8,8,8,,,,,,,,,,,,,,,,,,,9,1.3197917549987324,,,,,,,,,022719_p1,1,2019_Feb_27_1214,body_behavioural,3.0.4,59.91687599967098,,,,,,,,,,,,,,,,,,,,,,,,,,,,
2,You two don't mind sitting at the counter?” ,2,1,,,,0,2,2,2,,,,,0,9,9,9,,,,,,,,,,,,,,,,,,,1,2.019924500000343,,,,,,,,,022719_p1,1,2019_Feb_27_1214,body_behavioural,3.0.4,59.91687599967098,,,,,,,,,,,,,,,,,,,,,,,,,,,,
2,They sat a seat apart from each other on the split tree trunk that served as a bench.,2,1,,,,0,2,2,2,,,,,0,10,10,10,,,,,,,,,,,,,,,,,,,1,2.8508270700003777,,,,,,,,,022719_p1,1,2019_Feb_27_1214,body_behavioural,3.0.4,59.91687599967098,,,,,,,,,,,,,,,,,,,,,,,,,,,,
2, The waitress behind the counter gave them bright neon menus that were filled with breakfast items.,2,1,,,,0,2,2,2,,,,,0,11,11,11,,,,,,,,,,,,,,,,,,,1,3.3367238649989304,,,,,,,,,022719_p1,1,2019_Feb_27_1214,body_behavioural,3.0.4,59.91687599967098,,,,,,,,,,,,,,,,,,,,,,,,,,,,
2,"Teresa quickly glanced through it, then pulled out a book and started reading it while James played with the salt and pepper shakers as he tried to think of an excuse to talk to Teresa.",2,1,,,,0,2,2,2,,,,,0,12,12,12,,,,,,,,,,,,,,,,,,,1,7.36974179200115,,,,,,,,,022719_p1,1,2019_Feb_27_1214,body_behavioural,3.0.4,59.91687599967098,,,,,,,,,,,,,,,,,,,,,,,,,,,,
2,"James eventually turned to her and asked, “Your forehead alright?”",2,2,,,,0,2,2,2,,,,,0,13,13,13,,,,,,,,,,,,,,,,,,,1,3.2698362470000575,,,,,,,,,022719_p1,1,2019_Feb_27_1214,body_behavioural,3.0.4,59.91687599967098,,,,,,,,,,,,,,,,,,,,,,,,,,,,
2,She put down her book and gave him a smirk.,2,2,,,,0,2,2,2,,,,,0,14,14,14,,,,,,,,,,,,,,,,,,,1,1.7697407449995808,,,,,,,,,022719_p1,1,2019_Feb_27_1214,body_behavioural,3.0.4,59.91687599967098,,,,,,,,,,,,,,,,,,,,,,,,,,,,
2,"“Have you ever been stung by a scorpion?”, she asked him, tilting her head.",2,2,,,,0,2,2,2,,,,,0,15,15,15,,,,,,,,,,,,,,,,,,,1,2.686560614998598,,,,,,,,,022719_p1,1,2019_Feb_27_1214,body_behavioural,3.0.4,59.91687599967098,,,,,,,,,,,,,,,,,,,,,,,,,,,,
2,"“What?”, he asked confusedly.",2,2,,,,0,2,2,2,,,,,0,16,16,16,,,,,,,,,,,,,,,,,,,1,0.7697296419974009,,,,,,,,,022719_p1,1,2019_Feb_27_1214,body_behavioural,3.0.4,59.91687599967098,,,,,,,,,,,,,,,,,,,,,,,,,,,,
2, “A scorpion.”,2,2,,,,0,2,2,2,,,,,0,17,17,17,,,,,,,,,,,,,,,,,,,1,0.7197675149982388,,,,,,,,,022719_p1,1,2019_Feb_27_1214,body_behavioural,3.0.4,59.91687599967098,,,,,,,,,,,,,,,,,,,,,,,,,,,,
2,James began to worry that Teresa had possibly suffered a concussion in the door crash.,2,2,,,,0,2,2,2,,,,,0,18,18,18,,,,,,,,,,,,,,,,,,,1,1.8860167919992818,,,,,,,,,022719_p1,1,2019_Feb_27_1214,body_behavioural,3.0.4,59.91687599967098,,,,,,,,,,,,,,,,,,,,,,,,,,,,
2,"“Uh no, why?” ",2,2,,,,0,2,2,2,,,,,0,19,19,19,,,,,,,,,,,,,,,,,,,1,0.4840974449980422,,,,,,,,,022719_p1,1,2019_Feb_27_1214,body_behavioural,3.0.4,59.91687599967098,,,,,,,,,,,,,,,,,,,,,,,,,,,,
2,"“Because I’ve been stung by one, and since then, things like bumping into doors seem like pretty small potatoes.” ",2,2,,,,0,2,2,2,,,,,0,20,20,20,,,,,,,,,,,,,,,,,,,1,3.603001736999431,,,,,,,,,022719_p1,1,2019_Feb_27_1214,body_behavioural,3.0.4,59.91687599967098,,,,,,,,,,,,,,,,,,,,,,,,,,,,
2,"They carried on talking, and Teresa told him all about her encounter with a Deathstalker scorpion while she was studying abroad in Egypt.",2,2,,,,0,2,2,2,,,,,0,21,21,21,,,,,,,,,,,,,,,,,,,9,4.869827081998665,,,,,,,,,022719_p1,1,2019_Feb_27_1214,body_behavioural,3.0.4,59.91687599967098,,,,,,,,,,,,,,,,,,,,,,,,,,,,
2,"After a few minutes, the waitress behind the counter came up to them, “Alrighty, can I take you order?” ",3,3,,,,0,2,2,2,,,,,0,22,22,22,,,,,,,,,,,,,,,,,,,1,1.4363283269995009,,,,,,,,,022719_p1,1,2019_Feb_27_1214,body_behavioural,3.0.4,59.91687599967098,,,,,,,,,,,,,,,,,,,,,,,,,,,,
2,"She first looked at Teresa who answered, “I’ll have a Western Omelette and a glass of milk.”",3,3,,,,0,2,2,2,,,,,0,23,23,23,,,,,,,,,,,,,,,,,,,1,2.8532779269989987,,,,,,,,,022719_p1,1,2019_Feb_27_1214,body_behavioural,3.0.4,59.91687599967098,,,,,,,,,,,,,,,,,,,,,,,,,,,,
2,Then the waitress turned to James.,3,3,,,,0,2,2,2,,,,,0,24,24,24,,,,,,,,,,,,,,,,,,,1,1.5531768100008776,,,,,,,,,022719_p1,1,2019_Feb_27_1214,body_behavioural,3.0.4,59.91687599967098,,,,,,,,,,,,,,,,,,,,,,,,,,,,
2,"James said, “I’ll have the chocolate chip pancakes and a coffee.” ",3,3,,,,0,2,2,2,,,,,0,25,25,25,,,,,,,,,,,,,,,,,,,1,1.5031668299998273,,,,,,,,,022719_p1,1,2019_Feb_27_1214,body_behavioural,3.0.4,59.91687599967098,,,,,,,,,,,,,,,,,,,,,,,,,,,,
2,"“Alrighty, comin’ right up!”",3,3,,,,0,2,2,2,,,,,0,26,26,26,,,,,,,,,,,,,,,,,,,1,0.7865787750015443,,,,,,,,,022719_p1,1,2019_Feb_27_1214,body_behavioural,3.0.4,59.91687599967098,,,,,,,,,,,,,,,,,,,,,,,,,,,,
2,"They picked up their conversation, and James ended up telling Teresa about a concert he was going to later. ",3,3,,,,0,2,2,2,,,,,0,27,27,27,,,,,,,,,,,,,,,,,,,9,2.403158662000351,,,,,,,,,022719_p1,1,2019_Feb_27_1214,body_behavioural,3.0.4,59.91687599967098,,,,,,,,,,,,,,,,,,,,,,,,,,,,
2,"He invited her to come along, promising her that the concert would be indoors and absolutely free of venomous insects.",3,3,,,,0,2,2,2,,,,,0,28,28,28,,,,,,,,,,,,,,,,,,,1,1.7862181099990266,,,,,,,,,022719_p1,1,2019_Feb_27_1214,body_behavioural,3.0.4,59.91687599967098,,,,,,,,,,,,,,,,,,,,,,,,,,,,
2,"Teresa agreed, gave him her number, and they worked out that James would pick her up before the concert and drive them there.",3,3,,,,0,2,2,2,,,,,0,29,29,29,,,,,,,,,,,,,,,,,,,1,1.1864981899998384,,,,,,,,,022719_p1,1,2019_Feb_27_1214,body_behavioural,3.0.4,59.91687599967098,,,,,,,,,,,,,,,,,,,,,,,,,,,,
2,"This was not what they had expected from their solitary lunch plans and were both excited, even though Teresa was doing a much better job of hiding it than James. ",3,3,,,,0,2,2,2,,,,,0,30,30,30,,,,,,,,,,,,,,,,,,,1,7.48699890500211,,,,,,,,,022719_p1,1,2019_Feb_27_1214,body_behavioural,3.0.4,59.91687599967098,,,,,,,,,,,,,,,,,,,,,,,,,,,,
2," After awhile,  the waitress brought out their food, and James took this opportunity to scoot closer to her on the log bench. ",4,4,,,,0,2,2,2,,,,,0,31,31,31,,,,,,,,,,,,,,,,,,,1,3.0694751600021846,,,,,,,,,022719_p1,1,2019_Feb_27_1214,body_behavioural,3.0.4,59.91687599967098,,,,,,,,,,,,,,,,,,,,,,,,,,,,
2,"Teresa was happy to share the meal with James, despite their food tasting pretty bad. ",4,4,,,,0,2,2,2,,,,,0,32,32,32,,,,,,,,,,,,,,,,,,,1,3.03427555700182,,,,,,,,,022719_p1,1,2019_Feb_27_1214,body_behavioural,3.0.4,59.91687599967098,,,,,,,,,,,,,,,,,,,,,,,,,,,,
2,"Judging by how salty the pancakes tasted, they suspected that the chef had confused the salt and sugar.",4,4,,,,0,2,2,2,,,,,0,33,33,33,,,,,,,,,,,,,,,,,,,1,3.3202114199993957,,,,,,,,,022719_p1,1,2019_Feb_27_1214,body_behavioural,3.0.4,59.91687599967098,,,,,,,,,,,,,,,,,,,,,,,,,,,,
2,"When the meal was over, they got up, hugged, and parted ways. ",4,4,,,,0,2,2,2,,,,,0,34,34,34,,,,,,,,,,,,,,,,,,,1,1.7039075610009604,,,,,,,,,022719_p1,1,2019_Feb_27_1214,body_behavioural,3.0.4,59.91687599967098,,,,,,,,,,,,,,,,,,,,,,,,,,,,
2,"James said,“I have to run, got to get to work.",4,4,,,,0,2,2,2,,,,,0,35,35,35,,,,,,,,,,,,,,,,,,,1,1.703143654998712,,,,,,,,,022719_p1,1,2019_Feb_27_1214,body_behavioural,3.0.4,59.91687599967098,,,,,,,,,,,,,,,,,,,,,,,,,,,,
2,See you tonight!”,4,4,,,,0,2,2,2,,,,,0,36,36,36,,,,,,,,,,,,,,,,,,,9,1.7008437020012934,,,,,,,,,022719_p1,1,2019_Feb_27_1214,body_behavioural,3.0.4,59.91687599967098,,,,,,,,,,,,,,,,,,,,,,,,,,,,
2,"Teresa smiled and walked towards the door without looking, and almost ran into the door again. ",4,4,,,,0,2,2,2,,,,,0,37,37,37,,,,,,,,,,,,,,,,,,,1,3.819964185000572,,,,,,,,,022719_p1,1,2019_Feb_27_1214,body_behavioural,3.0.4,59.91687599967098,,,,,,,,,,,,,,,,,,,,,,,,,,,,
2,They both laughed and smiled once more goodbye. ,4,4,,,,0,2,2,2,,,,,0,38,38,38,,,,,,,,,,,,,,,,,,,1,0.9027813749999041,,,,,,,,,022719_p1,1,2019_Feb_27_1214,body_behavioural,3.0.4,59.91687599967098,,,,,,,,,,,,,,,,,,,,,,,,,,,,
2,,,,,,,0,2,2,2,,,,,,,,,,,,,,,,,,,,,,,,,,,,,,,,,,,,,022719_p1,1,2019_Feb_27_1214,body_behavioural,3.0.4,59.91687599967098,,,,,,,,,,,,,,,,,,,,,,,,,,,,
3,,,,,,,0,3,3,3,0,0,0,0,,,,,,,,,,,,,,,,,space,1.2691646669991314,space,1.1698210419999668,space,0.6362083799976972,,,,,,,,,,,022719_p1,1,2019_Feb_27_1214,body_behavioural,3.0.4,59.91687599967098,,,,,,,,,,,,,,,,,,,,,,,,,,,,
3,"Alex was a distracted, sweaty mess as he walked into the grocery store with Chloe; he was hoping that she wouldn't suspect that he was about to propose.",1,1,,,,0,3,3,3,,,,,0,0,0,0,,,,,,,,,,,,,,,,,,,1,16.937435326999548,,,,,,,,,022719_p1,1,2019_Feb_27_1214,body_behavioural,3.0.4,59.91687599967098,,,,,,,,,,,,,,,,,,,,,,,,,,,,
3,"The grocery store was brightly lit; this was one of the nicest grocery stores in Atlanta, and sunlight poured in through the glass walls.",1,1,,,,0,3,3,3,,,,,0,1,1,1,,,,,,,,,,,,,,,,,,,1,1.8863315650014556,,,,,,,,,022719_p1,1,2019_Feb_27_1214,body_behavioural,3.0.4,59.91687599967098,,,,,,,,,,,,,,,,,,,,,,,,,,,,
3,"The atmosphere was also bright because tomorrow was Thanksgiving, and most shoppers had carts piled high with turkey, stuffing, and pies.",1,1,,,,0,3,3,3,,,,,0,2,2,2,,,,,,,,,,,,,,,,,,,1,3.119766970001365,,,,,,,,,022719_p1,1,2019_Feb_27_1214,body_behavioural,3.0.4,59.91687599967098,,,,,,,,,,,,,,,,,,,,,,,,,,,,
3,Alex wanted to propose to Chloe here because he knew she would not suspect it at all. ,1,1,,,,0,3,3,3,,,,,0,3,3,3,,,,,,,,,,,,,,,,,,,1,3.419601680001506,,,,,,,,,022719_p1,1,2019_Feb_27_1214,body_behavioural,3.0.4,59.91687599967098,,,,,,,,,,,,,,,,,,,,,,,,,,,,
3,"Chloe loved surprises, and Alex loved the look on Chloe’s face when she was surprised. ",1,1,,,,0,3,3,3,,,,,0,4,4,4,,,,,,,,,,,,,,,,,,,1,1.8365731969970511,,,,,,,,,022719_p1,1,2019_Feb_27_1214,body_behavioural,3.0.4,59.91687599967098,,,,,,,,,,,,,,,,,,,,,,,,,,,,
3,"“Alex, we need to get some cranberry sauce, so let’s go there first.” ",2,1,,,,0,3,3,3,,,,,0,5,5,5,,,,,,,,,,,,,,,,,,,9,3.1532667620012944,,,,,,,,,022719_p1,1,2019_Feb_27_1214,body_behavioural,3.0.4,59.91687599967098,,,,,,,,,,,,,,,,,,,,,,,,,,,,
3,She led the way to the section of the store that held the canned foods. ,2,1,,,,0,3,3,3,,,,,0,6,6,6,,,,,,,,,,,,,,,,,,,1,2.50301884199871,,,,,,,,,022719_p1,1,2019_Feb_27_1214,body_behavioural,3.0.4,59.91687599967098,,,,,,,,,,,,,,,,,,,,,,,,,,,,
3,Alex looked like he was going to throw up. ,2,1,,,,0,3,3,3,,,,,0,7,7,7,,,,,,,,,,,,,,,,,,,1,2.053096550000191,,,,,,,,,022719_p1,1,2019_Feb_27_1214,body_behavioural,3.0.4,59.91687599967098,,,,,,,,,,,,,,,,,,,,,,,,,,,,
3,"As they were walking there, Chloe asked him, “Is everything okay, dear?”",2,1,,,,0,3,3,3,,,,,0,8,8,8,,,,,,,,,,,,,,,,,,,1,1.3030384550002054,,,,,,,,,022719_p1,1,2019_Feb_27_1214,body_behavioural,3.0.4,59.91687599967098,,,,,,,,,,,,,,,,,,,,,,,,,,,,
3,"“Oh yeah, for sure,” he said, unconvincingly. ",2,1,,,,0,3,3,3,,,,,0,9,9,9,,,,,,,,,,,,,,,,,,,1,2.8685598250012845,,,,,,,,,022719_p1,1,2019_Feb_27_1214,body_behavioural,3.0.4,59.91687599967098,,,,,,,,,,,,,,,,,,,,,,,,,,,,
3,"She chuckled, “Alright, whatever you say.” ",2,1,,,,0,3,3,3,,,,,0,10,10,10,,,,,,,,,,,,,,,,,,,1,1.120527631999721,,,,,,,,,022719_p1,1,2019_Feb_27_1214,body_behavioural,3.0.4,59.91687599967098,,,,,,,,,,,,,,,,,,,,,,,,,,,,
3,"She was mulling over the different cans of cranberry sauce, and Alex knew she would be a while.",2,1,,,,0,3,3,3,,,,,0,11,11,11,,,,,,,,,,,,,,,,,,,1,2.6862982899983763,,,,,,,,,022719_p1,1,2019_Feb_27_1214,body_behavioural,3.0.4,59.91687599967098,,,,,,,,,,,,,,,,,,,,,,,,,,,,
3,He turned his back to her and pulled out the ring.,2,2,,,,0,3,3,3,,,,,0,12,12,12,,,,,,,,,,,,,,,,,,,1,1.1028519220017188,,,,,,,,,022719_p1,1,2019_Feb_27_1214,body_behavioural,3.0.4,59.91687599967098,,,,,,,,,,,,,,,,,,,,,,,,,,,,
3,He had been saving up for this for a while. ,2,2,,,,0,3,3,3,,,,,0,13,13,13,,,,,,,,,,,,,,,,,,,1,0.8531101670014323,,,,,,,,,022719_p1,1,2019_Feb_27_1214,body_behavioural,3.0.4,59.91687599967098,,,,,,,,,,,,,,,,,,,,,,,,,,,,
3,The ring had three large diamonds with smaller ones encircling each one: all of them sparkled in the light streaming in from the windows. ,2,2,,,,0,3,3,3,,,,,0,14,14,14,,,,,,,,,,,,,,,,,,,1,3.9367955819980125,,,,,,,,,022719_p1,1,2019_Feb_27_1214,body_behavioural,3.0.4,59.91687599967098,,,,,,,,,,,,,,,,,,,,,,,,,,,,
3,"“Alex?”, Chloe said suspiciously. ",2,2,,,,0,3,3,3,,,,,0,15,15,15,,,,,,,,,,,,,,,,,,,1,1.4197666149993893,,,,,,,,,022719_p1,1,2019_Feb_27_1214,body_behavioural,3.0.4,59.91687599967098,,,,,,,,,,,,,,,,,,,,,,,,,,,,
3,He closed the box and whipped around. “Yes?”,2,2,,,,0,3,3,3,,,,,0,16,16,16,,,,,,,,,,,,,,,,,,,1,2.067450981998263,,,,,,,,,022719_p1,1,2019_Feb_27_1214,body_behavioural,3.0.4,59.91687599967098,,,,,,,,,,,,,,,,,,,,,,,,,,,,
3,“Do we need anything else?”,2,2,,,,0,3,3,3,,,,,0,17,17,17,,,,,,,,,,,,,,,,,,,1,2.153125764998549,,,,,,,,,022719_p1,1,2019_Feb_27_1214,body_behavioural,3.0.4,59.91687599967098,,,,,,,,,,,,,,,,,,,,,,,,,,,,
3,"“Yeah I don’t know, honey.” ",2,2,,,,0,3,3,3,,,,,0,18,18,18,,,,,,,,,,,,,,,,,,,1,0.8530665569996927,,,,,,,,,022719_p1,1,2019_Feb_27_1214,body_behavioural,3.0.4,59.91687599967098,,,,,,,,,,,,,,,,,,,,,,,,,,,,
3,They went to the checkout and waited in a long line.,3,2,,,,0,3,3,3,,,,,0,19,19,19,,,,,,,,,,,,,,,,,,,9,1.6363195320009254,,,,,,,,,022719_p1,1,2019_Feb_27_1214,body_behavioural,3.0.4,59.91687599967098,,,,,,,,,,,,,,,,,,,,,,,,,,,,
3,Alex was staring intensely off into the distance. ,3,2,,,,0,3,3,3,,,,,0,20,20,20,,,,,,,,,,,,,,,,,,,1,0.9863903199984634,,,,,,,,,022719_p1,1,2019_Feb_27_1214,body_behavioural,3.0.4,59.91687599967098,,,,,,,,,,,,,,,,,,,,,,,,,,,,
3,Chloe was watching him trying to decide whether he looked scared or confused. ,3,2,,,,0,3,3,3,,,,,0,21,21,21,,,,,,,,,,,,,,,,,,,1,2.4860546919990156,,,,,,,,,022719_p1,1,2019_Feb_27_1214,body_behavioural,3.0.4,59.91687599967098,,,,,,,,,,,,,,,,,,,,,,,,,,,,
3,Alex looked over at their friends who were waiting by the entrance of the grocery store.,3,2,,,,0,3,3,3,,,,,0,22,22,22,,,,,,,,,,,,,,,,,,,1,2.8007856199983507,,,,,,,,,022719_p1,1,2019_Feb_27_1214,body_behavioural,3.0.4,59.91687599967098,,,,,,,,,,,,,,,,,,,,,,,,,,,,
3,They got the message and walked over slowly. ,3,2,,,,0,3,3,3,,,,,0,23,23,23,,,,,,,,,,,,,,,,,,,1,2.019503927000187,,,,,,,,,022719_p1,1,2019_Feb_27_1214,body_behavioural,3.0.4,59.91687599967098,,,,,,,,,,,,,,,,,,,,,,,,,,,,
3,"“Honey,” he said to get her attention, “Look, Chloe, I love you so much and I want to be with you forever, I can’t imagine a day without you.”",3,2,,,,0,3,3,3,,,,,0,24,24,24,,,,,,,,,,,,,,,,,,,1,1.919969376998779,,,,,,,,,022719_p1,1,2019_Feb_27_1214,body_behavioural,3.0.4,59.91687599967098,,,,,,,,,,,,,,,,,,,,,,,,,,,,
3,"“Awww, Alex, me too.”",3,2,,,,0,3,3,3,,,,,0,25,25,25,,,,,,,,,,,,,,,,,,,1,0.7528088749968447,,,,,,,,,022719_p1,1,2019_Feb_27_1214,body_behavioural,3.0.4,59.91687599967098,,,,,,,,,,,,,,,,,,,,,,,,,,,,
3,"Alex got down on one knee, and Chloe gasped. ",3,3,,,,0,3,3,3,,,,,0,26,26,26,,,,,,,,,,,,,,,,,,,1,1.1196312619977107,,,,,,,,,022719_p1,1,2019_Feb_27_1214,body_behavioural,3.0.4,59.91687599967098,,,,,,,,,,,,,,,,,,,,,,,,,,,,
3,"“I am serious, Chloe. Will you marry me?”",3,3,,,,0,3,3,3,,,,,0,27,27,27,,,,,,,,,,,,,,,,,,,1,1.4198789649999526,,,,,,,,,022719_p1,1,2019_Feb_27_1214,body_behavioural,3.0.4,59.91687599967098,,,,,,,,,,,,,,,,,,,,,,,,,,,,
3,"The people in line around them realized what was happening, stepped back, and started taking pictures.",3,3,,,,0,3,3,3,,,,,0,28,28,28,,,,,,,,,,,,,,,,,,,1,6.1015705300014815,,,,,,,,,022719_p1,1,2019_Feb_27_1214,body_behavioural,3.0.4,59.91687599967098,,,,,,,,,,,,,,,,,,,,,,,,,,,,
3,Their friends were no longer trying to hide and were videotaping and taking pictures too. ,3,3,,,,0,3,3,3,,,,,0,29,29,29,,,,,,,,,,,,,,,,,,,1,2.337610615999438,,,,,,,,,022719_p1,1,2019_Feb_27_1214,body_behavioural,3.0.4,59.91687599967098,,,,,,,,,,,,,,,,,,,,,,,,,,,,
3,Chloe looked around and laughed. ,3,3,,,,0,3,3,3,,,,,0,30,30,30,,,,,,,,,,,,,,,,,,,1,0.8031164620006166,,,,,,,,,022719_p1,1,2019_Feb_27_1214,body_behavioural,3.0.4,59.91687599967098,,,,,,,,,,,,,,,,,,,,,,,,,,,,
3,"“Yes!” she shouted, and jumped to embrace Alex in a hug. ",3,4,,,,0,3,3,3,,,,,0,31,31,31,,,,,,,,,,,,,,,,,,,1,1.3864550799989956,,,,,,,,,022719_p1,1,2019_Feb_27_1214,body_behavioural,3.0.4,59.91687599967098,,,,,,,,,,,,,,,,,,,,,,,,,,,,
3,Everyone in line clapped and cheered. ,3,4,,,,0,3,3,3,,,,,0,32,32,32,,,,,,,,,,,,,,,,,,,1,0.6349526589983725,,,,,,,,,022719_p1,1,2019_Feb_27_1214,body_behavioural,3.0.4,59.91687599967098,,,,,,,,,,,,,,,,,,,,,,,,,,,,
3,"Alex put the ring on Chloe’s finger, who was nearly spinning in excitement.",3,4,,,,0,3,3,3,,,,,0,33,33,33,,,,,,,,,,,,,,,,,,,1,1.536591864998627,,,,,,,,,022719_p1,1,2019_Feb_27_1214,body_behavioural,3.0.4,59.91687599967098,,,,,,,,,,,,,,,,,,,,,,,,,,,,
3,"“I love it, oh my gosh, it’s so glittery!",3,4,,,,0,3,3,3,,,,,0,34,34,34,,,,,,,,,,,,,,,,,,,1,0.5864222800009884,,,,,,,,,022719_p1,1,2019_Feb_27_1214,body_behavioural,3.0.4,59.91687599967098,,,,,,,,,,,,,,,,,,,,,,,,,,,,
3,Look at this!” she said as she shoved her hand in a stranger’s face.,3,4,,,,0,3,3,3,,,,,0,35,35,35,,,,,,,,,,,,,,,,,,,1,2.1841470319996006,,,,,,,,,022719_p1,1,2019_Feb_27_1214,body_behavioural,3.0.4,59.91687599967098,,,,,,,,,,,,,,,,,,,,,,,,,,,,
3,Her friends came over and hugged them.,3,4,,,,0,3,3,3,,,,,0,36,36,36,,,,,,,,,,,,,,,,,,,1,2.086507983000047,,,,,,,,,022719_p1,1,2019_Feb_27_1214,body_behavioural,3.0.4,59.91687599967098,,,,,,,,,,,,,,,,,,,,,,,,,,,,
3,The other people let them move up to the front of the checkout line. ,3,4,,,,0,3,3,3,,,,,0,37,37,37,,,,,,,,,,,,,,,,,,,1,2.036448262002523,,,,,,,,,022719_p1,1,2019_Feb_27_1214,body_behavioural,3.0.4,59.91687599967098,,,,,,,,,,,,,,,,,,,,,,,,,,,,
3,The cashier congratulated them and scanned their cranberry sauce. ,4,4,,,,0,3,3,3,,,,,0,38,38,38,,,,,,,,,,,,,,,,,,,1,1.1868124819993682,,,,,,,,,022719_p1,1,2019_Feb_27_1214,body_behavioural,3.0.4,59.91687599967098,,,,,,,,,,,,,,,,,,,,,,,,,,,,
3,The total came to $4 and Chloe paid in cash while getting distracted and staring at the ring as she pulled out the bills.,4,4,,,,0,3,3,3,,,,,0,39,39,39,,,,,,,,,,,,,,,,,,,1,5.593821682999987,,,,,,,,,022719_p1,1,2019_Feb_27_1214,body_behavioural,3.0.4,59.91687599967098,,,,,,,,,,,,,,,,,,,,,,,,,,,,
3,"Alex grabbed the cans, and they walked out with their friends bunched around them. ",4,4,,,,0,3,3,3,,,,,0,40,40,40,,,,,,,,,,,,,,,,,,,9,2.3366999700010638,,,,,,,,,022719_p1,1,2019_Feb_27_1214,body_behavioural,3.0.4,59.91687599967098,,,,,,,,,,,,,,,,,,,,,,,,,,,,
3,,,,,,,0,3,3,3,,,,,,,,,,,,,,,,,,,,,,,,,,,,,,,,,,,,,022719_p1,1,2019_Feb_27_1214,body_behavioural,3.0.4,59.91687599967098,,,,,,,,,,,,,,,,,,,,,,,,,,,,
4,,,,,,,0,4,4,4,0,0,0,0,,,,,,,,,,,,,,,,,space,0.7874136909995286,space,0.48745541500102263,space,0.7036304770008428,,,,,,,,,,,022719_p1,1,2019_Feb_27_1214,body_behavioural,3.0.4,59.91687599967098,,,,,,,,,,,,,,,,,,,,,,,,,,,,
4,"Maria walked into lecture beside Henry, and she was mentally rehearsing what she should say to break up with him.",1,1,,,,0,4,4,4,,,,,0,0,0,0,,,,,,,,,,,,,,,,,,,1,15.037640001999534,,,,,,,,,022719_p1,1,2019_Feb_27_1214,body_behavioural,3.0.4,59.91687599967098,,,,,,,,,,,,,,,,,,,,,,,,,,,,
4,"She had been putting it off with a growing sense of dread, and now this lecture was the last chance before she had to leave campus. ",1,1,,,,0,4,4,4,,,,,0,1,1,1,,,,,,,,,,,,,,,,,,,1,3.4209231800014095,,,,,,,,,022719_p1,1,2019_Feb_27_1214,body_behavioural,3.0.4,59.91687599967098,,,,,,,,,,,,,,,,,,,,,,,,,,,,
4,"The lecture hall was large, with a stage for the lecturer in the front of the room, and tiered seats that stretched up in 15 stacked rows.",1,1,,,,0,4,4,4,,,,,0,2,2,2,,,,,,,,,,,,,,,,,,,1,12.437463375001244,,,,,,,,,022719_p1,1,2019_Feb_27_1214,body_behavioural,3.0.4,59.91687599967098,,,,,,,,,,,,,,,,,,,,,,,,,,,,
4,"The clock struck 3 pm, and Maria and Henry slid into neighboring seats near the back of the room.",1,1,,,,0,4,4,4,,,,,0,3,3,3,,,,,,,,,,,,,,,,,,,1,1.2032186670003284,,,,,,,,,022719_p1,1,2019_Feb_27_1214,body_behavioural,3.0.4,59.91687599967098,,,,,,,,,,,,,,,,,,,,,,,,,,,,
4,"“Good afternoon, everybody,” said the professor, fiddling to connect his laptop with the projector.",2,1,,,,0,4,4,4,,,,,0,4,4,4,,,,,,,,,,,,,,,,,,,1,3.267574505000084,,,,,,,,,022719_p1,1,2019_Feb_27_1214,body_behavioural,3.0.4,59.91687599967098,,,,,,,,,,,,,,,,,,,,,,,,,,,,
4,“Welcome to week 4 of Intro to Ancient Philosophy.,2,1,,,,0,4,4,4,,,,,0,5,5,5,,,,,,,,,,,,,,,,,,,1,0.7025699370024086,,,,,,,,,022719_p1,1,2019_Feb_27_1214,body_behavioural,3.0.4,59.91687599967098,,,,,,,,,,,,,,,,,,,,,,,,,,,,
4,Today we are going to continue our lecture on Aristotelian Philosophy.”,2,1,,,,0,4,4,4,,,,,0,6,6,6,,,,,,,,,,,,,,,,,,,9,2.036549707001541,,,,,,,,,022719_p1,1,2019_Feb_27_1214,body_behavioural,3.0.4,59.91687599967098,,,,,,,,,,,,,,,,,,,,,,,,,,,,
4,Everyone in class pulled out their notebooks and settled in their seats as the slides appeared on the large front screens.,2,1,,,,0,4,4,4,,,,,0,7,7,7,,,,,,,,,,,,,,,,,,,1,1.4365647900012846,,,,,,,,,022719_p1,1,2019_Feb_27_1214,body_behavioural,3.0.4,59.91687599967098,,,,,,,,,,,,,,,,,,,,,,,,,,,,
4,"“Henry,” Maria whispered.",2,1,,,,0,4,4,4,,,,,0,8,8,8,,,,,,,,,,,,,,,,,,,1,0.8528674400004093,,,,,,,,,022719_p1,1,2019_Feb_27_1214,body_behavioural,3.0.4,59.91687599967098,,,,,,,,,,,,,,,,,,,,,,,,,,,,
4,"“Hmm?” he replied, distracted.",2,1,,,,0,4,4,4,,,,,0,9,9,9,,,,,,,,,,,,,,,,,,,1,0.5694131800009927,,,,,,,,,022719_p1,1,2019_Feb_27_1214,body_behavioural,3.0.4,59.91687599967098,,,,,,,,,,,,,,,,,,,,,,,,,,,,
4,"“Henry, I need to tell you something really important, and I don’t know when else I’ll have a chance to do it,” she said.",2,1,,,,0,4,4,4,,,,,0,10,10,10,,,,,,,,,,,,,,,,,,,1,1.0696886879995873,,,,,,,,,022719_p1,1,2019_Feb_27_1214,body_behavioural,3.0.4,59.91687599967098,,,,,,,,,,,,,,,,,,,,,,,,,,,,
4,"“Okay, what's up?”, he said, tilting his head close to her. ",2,1,,,,0,4,4,4,,,,,0,11,11,11,,,,,,,,,,,,,,,,,,,1,1.8363483949979127,,,,,,,,,022719_p1,1,2019_Feb_27_1214,body_behavioural,3.0.4,59.91687599967098,,,,,,,,,,,,,,,,,,,,,,,,,,,,
4," “Henry, I don’t think I can do long distance.",2,2,,,,0,4,4,4,,,,,0,12,12,12,,,,,,,,,,,,,,,,,,,1,1.1197366649976175,,,,,,,,,022719_p1,1,2019_Feb_27_1214,body_behavioural,3.0.4,59.91687599967098,,,,,,,,,,,,,,,,,,,,,,,,,,,,
4,"I think what we have here is great, but I think it will be really hard when we are so far apart for such an extended period.",2,2,,,,0,4,4,4,,,,,0,13,13,13,,,,,,,,,,,,,,,,,,,1,2.403080701998988,,,,,,,,,022719_p1,1,2019_Feb_27_1214,body_behavioural,3.0.4,59.91687599967098,,,,,,,,,,,,,,,,,,,,,,,,,,,,
4,"I’m sorry I’m telling you now in lecture, but I'm out of time, and it’s taken me awhile to come to this decision.",2,2,,,,0,4,4,4,,,,,0,14,14,14,,,,,,,,,,,,,,,,,,,9,3.60318440699848,,,,,,,,,022719_p1,1,2019_Feb_27_1214,body_behavioural,3.0.4,59.91687599967098,,,,,,,,,,,,,,,,,,,,,,,,,,,,
4,"I really think this is best, and who knows what will happen when I get back from my study abroad.” ",2,2,,,,0,4,4,4,,,,,0,15,15,15,,,,,,,,,,,,,,,,,,,1,1.1840461669999058,,,,,,,,,022719_p1,1,2019_Feb_27_1214,body_behavioural,3.0.4,59.91687599967098,,,,,,,,,,,,,,,,,,,,,,,,,,,,
4,"While Henry tried to think of what to say, he and Maria stared unlistening at the professor as he started the lecture, “First we will talk about Aristotle’s work, The Categories, which is about the kinds, or categories, of things that there are.",3,2,,,,0,4,4,4,,,,,0,16,16,16,,,,,,,,,,,,,,,,,,,1,11.937169816999813,,,,,,,,,022719_p1,1,2019_Feb_27_1214,body_behavioural,3.0.4,59.91687599967098,,,,,,,,,,,,,,,,,,,,,,,,,,,,
4,"In fact, our term category comes from this Aristotelian context.” ",3,2,,,,0,4,4,4,,,,,0,17,17,17,,,,,,,,,,,,,,,,,,,1,1.8366664050008694,,,,,,,,,022719_p1,1,2019_Feb_27_1214,body_behavioural,3.0.4,59.91687599967098,,,,,,,,,,,,,,,,,,,,,,,,,,,,
4,"Henry felt horrible, like the wind had just been knocked out of him.",3,2,,,,0,4,4,4,,,,,0,18,18,18,,,,,,,,,,,,,,,,,,,1,1.2360181199983344,,,,,,,,,022719_p1,1,2019_Feb_27_1214,body_behavioural,3.0.4,59.91687599967098,,,,,,,,,,,,,,,,,,,,,,,,,,,,
4,"A few tears started to fall down his cheeks as he whispered back, “Maria, I think we can make it work.",3,3,,,,0,4,4,4,,,,,0,19,19,19,,,,,,,,,,,,,,,,,,,1,2.2532375419978052,,,,,,,,,022719_p1,1,2019_Feb_27_1214,body_behavioural,3.0.4,59.91687599967098,,,,,,,,,,,,,,,,,,,,,,,,,,,,
4,I’ll come visit you.,3,3,,,,0,4,4,4,,,,,0,20,20,20,,,,,,,,,,,,,,,,,,,1,0.536440384999878,,,,,,,,,022719_p1,1,2019_Feb_27_1214,body_behavioural,3.0.4,59.91687599967098,,,,,,,,,,,,,,,,,,,,,,,,,,,,
4,It will be fine.,3,3,,,,0,4,4,4,,,,,0,21,21,21,,,,,,,,,,,,,,,,,,,1,0.4030758450026042,,,,,,,,,022719_p1,1,2019_Feb_27_1214,body_behavioural,3.0.4,59.91687599967098,,,,,,,,,,,,,,,,,,,,,,,,,,,,
4,I don’t want to break up.”,3,3,,,,0,4,4,4,,,,,0,22,22,22,,,,,,,,,,,,,,,,,,,1,0.5025212649998139,,,,,,,,,022719_p1,1,2019_Feb_27_1214,body_behavioural,3.0.4,59.91687599967098,,,,,,,,,,,,,,,,,,,,,,,,,,,,
4,"Maria felt so guilty that she nearly gave in, but forced herself to hold her ground, knowing that this would make things much easier for both of them in the future.",3,3,,,,0,4,4,4,,,,,0,23,23,23,,,,,,,,,,,,,,,,,,,1,4.687055670001428,,,,,,,,,022719_p1,1,2019_Feb_27_1214,body_behavioural,3.0.4,59.91687599967098,,,,,,,,,,,,,,,,,,,,,,,,,,,,
4,"She gave his hand a squeeze but shook her head sadly, before turning back to her laptop and half-heartedly taking notes on the lecture which they sat through in painful silence.",3,3,,,,0,4,4,4,,,,,0,24,24,24,,,,,,,,,,,,,,,,,,,1,5.336956947001454,,,,,,,,,022719_p1,1,2019_Feb_27_1214,body_behavioural,3.0.4,59.91687599967098,,,,,,,,,,,,,,,,,,,,,,,,,,,,
4,"Finally, the professor was wrapping up, “This is what Aristotle means when he says that an animal’s or plant’s form rather than its matter is its nature. ",4,3,,,,0,4,4,4,,,,,0,25,25,25,,,,,,,,,,,,,,,,,,,1,6.286835060000158,,,,,,,,,022719_p1,1,2019_Feb_27_1214,body_behavioural,3.0.4,59.91687599967098,,,,,,,,,,,,,,,,,,,,,,,,,,,,
4,"Alright class, that’s all for today. ",4,3,,,,0,4,4,4,,,,,0,26,26,26,,,,,,,,,,,,,,,,,,,9,2.3695787450014905,,,,,,,,,022719_p1,1,2019_Feb_27_1214,body_behavioural,3.0.4,59.91687599967098,,,,,,,,,,,,,,,,,,,,,,,,,,,,
4,"Remember the final exam is coming up next week on Tuesday on the Pre-Socratics, Plato, and Aristotle, so feel free to come by office hours to discuss if you have the inspiration.",4,3,,,,0,4,4,4,,,,,0,27,27,27,,,,,,,,,,,,,,,,,,,1,2.636599101999309,,,,,,,,,022719_p1,1,2019_Feb_27_1214,body_behavioural,3.0.4,59.91687599967098,,,,,,,,,,,,,,,,,,,,,,,,,,,,
4,"And if anyone is doing the 20 page paper in lieu of the final, that’s due next Tuesday as well.",4,3,,,,0,4,4,4,,,,,0,28,28,28,,,,,,,,,,,,,,,,,,,1,2.6198148199982825,,,,,,,,,022719_p1,1,2019_Feb_27_1214,body_behavioural,3.0.4,59.91687599967098,,,,,,,,,,,,,,,,,,,,,,,,,,,,
4,"Have a good day, folks.” ",4,3,,,,0,4,4,4,,,,,0,29,29,29,,,,,,,,,,,,,,,,,,,9,1.1864782449993072,,,,,,,,,022719_p1,1,2019_Feb_27_1214,body_behavioural,3.0.4,59.91687599967098,,,,,,,,,,,,,,,,,,,,,,,,,,,,
4,"Maria and Henry packed up hurriedly, and slipped quickly out of the class before the rest of the crowd. ",4,3,,,,0,4,4,4,,,,,0,30,30,30,,,,,,,,,,,,,,,,,,,1,2.1031660400003602,,,,,,,,,022719_p1,1,2019_Feb_27_1214,body_behavioural,3.0.4,59.91687599967098,,,,,,,,,,,,,,,,,,,,,,,,,,,,
4,"They hugged outside, and both of them were crying. ",4,4,,,,0,4,4,4,,,,,0,31,31,31,,,,,,,,,,,,,,,,,,,1,1.1363779669991345,,,,,,,,,022719_p1,1,2019_Feb_27_1214,body_behavioural,3.0.4,59.91687599967098,,,,,,,,,,,,,,,,,,,,,,,,,,,,
4,"“Maria, I don’t want you to leave.",4,4,,,,0,4,4,4,,,,,0,32,32,32,,,,,,,,,,,,,,,,,,,1,0.7364794670029369,,,,,,,,,022719_p1,1,2019_Feb_27_1214,body_behavioural,3.0.4,59.91687599967098,,,,,,,,,,,,,,,,,,,,,,,,,,,,
4,I don’t want this to end. ,4,4,,,,0,4,4,4,,,,,0,33,33,33,,,,,,,,,,,,,,,,,,,1,2.0693243599998823,,,,,,,,,022719_p1,1,2019_Feb_27_1214,body_behavioural,3.0.4,59.91687599967098,,,,,,,,,,,,,,,,,,,,,,,,,,,,
4,"But if this is what you think is best, I can’t make it otherwise.” ",4,4,,,,0,4,4,4,,,,,0,34,34,34,,,,,,,,,,,,,,,,,,,1,1.2698881999967853,,,,,,,,,022719_p1,1,2019_Feb_27_1214,body_behavioural,3.0.4,59.91687599967098,,,,,,,,,,,,,,,,,,,,,,,,,,,,
4,"They hugged one last time, and Maria ran off to get her things from her dorm.",4,4,,,,0,4,4,4,,,,,0,35,35,35,,,,,,,,,,,,,,,,,,,9,2.0530788699979894,,,,,,,,,022719_p1,1,2019_Feb_27_1214,body_behavioural,3.0.4,59.91687599967098,,,,,,,,,,,,,,,,,,,,,,,,,,,,
4,Henry sadly watched her go. ,4,4,,,,0,4,4,4,,,,,0,36,36,36,,,,,,,,,,,,,,,,,,,1,0.9864483020028274,,,,,,,,,022719_p1,1,2019_Feb_27_1214,body_behavioural,3.0.4,59.91687599967098,,,,,,,,,,,,,,,,,,,,,,,,,,,,
4,,,,,,,0,4,4,4,,,,,,,,,,,,,,,,,,,,,,,,,,,,,,,,,,,,,022719_p1,1,2019_Feb_27_1214,body_behavioural,3.0.4,59.91687599967098,,,,,,,,,,,,,,,,,,,,,,,,,,,,
5,,,,,,,0,5,5,5,0,0,0,0,,,,,,,,,,,,,,,,,space,0.8358685300008801,space,0.4026894499984337,space,0.40291525700013153,,,,,,,,,,,022719_p1,1,2019_Feb_27_1214,body_behavioural,3.0.4,59.91687599967098,,,,,,,,,,,,,,,,,,,,,,,,,,,,
5,"Sven and Isabel walked hurriedly from the cab into the Barcelona Airport after an incredible weekend with Isabel’s family, which had wiped away any doubts Sven had had about his decision to propose. ",1,1,,,,0,5,5,5,,,,,0,0,0,0,,,,,,,,,,,,,,,,,,,1,13.338986465001653,,,,,,,,,022719_p1,1,2019_Feb_27_1214,body_behavioural,3.0.4,59.91687599967098,,,,,,,,,,,,,,,,,,,,,,,,,,,,
5,"They were a little pressed for time, with only a little over an hour until their flight would take off to go back to the US, but they already had their online boarding passes and no checked luggage. ",1,1,,,,0,5,5,5,,,,,0,1,1,1,,,,,,,,,,,,,,,,,,,1,8.007210109997686,,,,,,,,,022719_p1,1,2019_Feb_27_1214,body_behavioural,3.0.4,59.91687599967098,,,,,,,,,,,,,,,,,,,,,,,,,,,,
5,"When Isabel stopped to rummage through her purse looking for her phone, Sven turned his back to her and took the velvet box out of his backpack, opening it to look at the ring he bought her.",1,2,,,,0,5,5,5,,,,,0,2,2,2,,,,,,,,,,,,,,,,,,,1,6.971848140001384,,,,,,,,,022719_p1,1,2019_Feb_27_1214,body_behavioural,3.0.4,59.91687599967098,,,,,,,,,,,,,,,,,,,,,,,,,,,,
5,"He had received her parents’ blessing during the trip, and he was almost giddy with excitement. ",1,2,,,,0,5,5,5,,,,,0,3,3,3,,,,,,,,,,,,,,,,,,,1,3.1887058749998687,,,,,,,,,022719_p1,1,2019_Feb_27_1214,body_behavioural,3.0.4,59.91687599967098,,,,,,,,,,,,,,,,,,,,,,,,,,,,
5,"He tilted the ring backward and forward, despite having already studied it daily since he had purchased it a few weeks ago. ",1,2,,,,0,5,5,5,,,,,0,4,4,4,,,,,,,,,,,,,,,,,,,1,6.405407120000746,,,,,,,,,022719_p1,1,2019_Feb_27_1214,body_behavioural,3.0.4,59.91687599967098,,,,,,,,,,,,,,,,,,,,,,,,,,,,
5,"It was a simple design, with a clear, white diamond on a thin silver band.",1,2,,,,0,5,5,5,,,,,0,5,5,5,,,,,,,,,,,,,,,,,,,1,1.6057573099969886,,,,,,,,,022719_p1,1,2019_Feb_27_1214,body_behavioural,3.0.4,59.91687599967098,,,,,,,,,,,,,,,,,,,,,,,,,,,,
5,"“Sven, let’s go! ” Isabel said. ",1,2,,,,0,5,5,5,,,,,0,6,6,6,,,,,,,,,,,,,,,,,,,1,1.4549169199999596,,,,,,,,,022719_p1,1,2019_Feb_27_1214,body_behavioural,3.0.4,59.91687599967098,,,,,,,,,,,,,,,,,,,,,,,,,,,,
5,Sven discretely closed the box and put it in his pocket.,1,2,,,,0,5,5,5,,,,,0,7,7,7,,,,,,,,,,,,,,,,,,,1,1.0176842149994627,,,,,,,,,022719_p1,1,2019_Feb_27_1214,body_behavioural,3.0.4,59.91687599967098,,,,,,,,,,,,,,,,,,,,,,,,,,,,
5," They entered the security line, weaving through the roped walkways to the front. ",2,2,,,,0,5,5,5,,,,,0,8,8,8,,,,,,,,,,,,,,,,,,,1,2.005282559999614,,,,,,,,,022719_p1,1,2019_Feb_27_1214,body_behavioural,3.0.4,59.91687599967098,,,,,,,,,,,,,,,,,,,,,,,,,,,,
5,"When they were up, Isabel realized her laptop was buried somewhere in her duffle bag. ",2,2,,,,0,5,5,5,,,,,0,9,9,9,,,,,,,,,,,,,,,,,,,1,2.084390624997468,,,,,,,,,022719_p1,1,2019_Feb_27_1214,body_behavioural,3.0.4,59.91687599967098,,,,,,,,,,,,,,,,,,,,,,,,,,,,
5,Sven had to hold the growing mound of objects she pulled from her bag until she unearthed the laptop.,2,2,,,,0,5,5,5,,,,,0,10,10,10,,,,,,,,,,,,,,,,,,,1,1.305204149997735,,,,,,,,,022719_p1,1,2019_Feb_27_1214,body_behavioural,3.0.4,59.91687599967098,,,,,,,,,,,,,,,,,,,,,,,,,,,,
5,She set it into a bin and then had to unstrap her leather boots and put everything else into the bins.,2,2,,,,0,5,5,5,,,,,0,11,11,11,,,,,,,,,,,,,,,,,,,1,4.738689674999478,,,,,,,,,022719_p1,1,2019_Feb_27_1214,body_behavioural,3.0.4,59.91687599967098,,,,,,,,,,,,,,,,,,,,,,,,,,,,
5,"Finally, she relieved Sven of his holding duties, and he hurriedly deposited his own backpack on the belt as the people behind them glared without shame. ",2,2,,,,0,5,5,5,,,,,0,12,12,12,,,,,,,,,,,,,,,,,,,1,6.505798124999274,,,,,,,,,022719_p1,1,2019_Feb_27_1214,body_behavioural,3.0.4,59.91687599967098,,,,,,,,,,,,,,,,,,,,,,,,,,,,
5,"Sven went into the millimeter wave scanner after Isabel, put his hands up, and the metal bars whirled around him.",2,2,,,,0,5,5,5,,,,,0,13,13,13,,,,,,,,,,,,,,,,,,,1,1.9388436250010272,,,,,,,,,022719_p1,1,2019_Feb_27_1214,body_behavioural,3.0.4,59.91687599967098,,,,,,,,,,,,,,,,,,,,,,,,,,,,
5,"“Sir, please step to the side.",2,2,,,,0,5,5,5,,,,,0,14,14,14,,,,,,,,,,,,,,,,,,,1,0.7345143200000166,,,,,,,,,022719_p1,1,2019_Feb_27_1214,body_behavioural,3.0.4,59.91687599967098,,,,,,,,,,,,,,,,,,,,,,,,,,,,
5,"You need to empty your pockets,” the security guard said.",2,2,,,,0,5,5,5,,,,,0,15,15,15,,,,,,,,,,,,,,,,,,,1,1.0052106250004726,,,,,,,,,022719_p1,1,2019_Feb_27_1214,body_behavioural,3.0.4,59.91687599967098,,,,,,,,,,,,,,,,,,,,,,,,,,,,
5,"With a sinking feeling Sven realized the mistake he had made forgetting to put the ring back in his bag, as Isabel and the guard both looked at him expectantly.",2,2,,,,0,5,5,5,,,,,0,16,16,16,,,,,,,,,,,,,,,,,,,1,3.1219359499991697,,,,,,,,,022719_p1,1,2019_Feb_27_1214,body_behavioural,3.0.4,59.91687599967098,,,,,,,,,,,,,,,,,,,,,,,,,,,,
5,"Sven,  deciding he would make the best of the situation, grabbed Isabel's hand as he reached into his pocket.",2,2,,,,0,5,5,5,,,,,0,17,17,17,,,,,,,,,,,,,,,,,,,1,2.288624045002507,,,,,,,,,022719_p1,1,2019_Feb_27_1214,body_behavioural,3.0.4,59.91687599967098,,,,,,,,,,,,,,,,,,,,,,,,,,,,
5,"He got down on one knee and, giggling slightly at her confused look, said, “Isabel, this isn't quite how I'd planned this, but - will you marry me?”",2,3,,,,0,5,5,5,,,,,0,18,18,18,,,,,,,,,,,,,,,,,,,9,1.85582146500019,,,,,,,,,022719_p1,1,2019_Feb_27_1214,body_behavioural,3.0.4,59.91687599967098,,,,,,,,,,,,,,,,,,,,,,,,,,,,
5,The security guard gasped.,2,3,,,,0,5,5,5,,,,,0,19,19,19,,,,,,,,,,,,,,,,,,,1,1.7176309550013684,,,,,,,,,022719_p1,1,2019_Feb_27_1214,body_behavioural,3.0.4,59.91687599967098,,,,,,,,,,,,,,,,,,,,,,,,,,,,
5,All the people who were putting their shoes back on and gathering their belongings stopped what they were doing and walked closer to the couple.,2,3,,,,0,5,5,5,,,,,0,20,20,20,,,,,,,,,,,,,,,,,,,1,2.451408815002651,,,,,,,,,022719_p1,1,2019_Feb_27_1214,body_behavioural,3.0.4,59.91687599967098,,,,,,,,,,,,,,,,,,,,,,,,,,,,
5,"Isabel was astonished, and far too shy to respond in front of the backup of passengers waiting behind them.",2,3,,,,0,5,5,5,,,,,0,21,21,21,,,,,,,,,,,,,,,,,,,1,4.022616489997745,,,,,,,,,022719_p1,1,2019_Feb_27_1214,body_behavioural,3.0.4,59.91687599967098,,,,,,,,,,,,,,,,,,,,,,,,,,,,
5,"She attempted to stammer a response as she frantically grabbed her and Sven’s shoes, leaving Sven to retrieve their bags.",2,3,,,,0,5,5,5,,,,,0,22,22,22,,,,,,,,,,,,,,,,,,,1,2.338458529997297,,,,,,,,,022719_p1,1,2019_Feb_27_1214,body_behavioural,3.0.4,59.91687599967098,,,,,,,,,,,,,,,,,,,,,,,,,,,,
5,"Both of them slipping in their socked feet, she fled onto the concourse with Sven trying to catch up behind her.",3,3,,,,0,5,5,5,,,,,0,23,23,23,,,,,,,,,,,,,,,,,,,1,2.7386082650009484,,,,,,,,,022719_p1,1,2019_Feb_27_1214,body_behavioural,3.0.4,59.91687599967098,,,,,,,,,,,,,,,,,,,,,,,,,,,,
5,"Everyone in the terminal was looking at them with confusion as Sven, holding the bags in one hand and the open ring box in the other, finally caught up to her.",3,3,,,,0,5,5,5,,,,,0,24,24,24,,,,,,,,,,,,,,,,,,,1,2.1511405349992856,,,,,,,,,022719_p1,1,2019_Feb_27_1214,body_behavioural,3.0.4,59.91687599967098,,,,,,,,,,,,,,,,,,,,,,,,,,,,
5,“Isabel?”,3,3,,,,0,5,5,5,,,,,0,25,25,25,,,,,,,,,,,,,,,,,,,1,0.6049752100007026,,,,,,,,,022719_p1,1,2019_Feb_27_1214,body_behavioural,3.0.4,59.91687599967098,,,,,,,,,,,,,,,,,,,,,,,,,,,,
5,"He watched her face as she turned, trying to read her expression.",3,3,,,,0,5,5,5,,,,,0,26,26,26,,,,,,,,,,,,,,,,,,,1,1.10116379000101,,,,,,,,,022719_p1,1,2019_Feb_27_1214,body_behavioural,3.0.4,59.91687599967098,,,,,,,,,,,,,,,,,,,,,,,,,,,,
5,"Her eyes were wide, but she was smiling as she hyperventilated, “Of course yes, Sven, yes!” ",3,4,,,,0,5,5,5,,,,,0,27,27,27,,,,,,,,,,,,,,,,,,,9,3.2552082399997744,,,,,,,,,022719_p1,1,2019_Feb_27_1214,body_behavioural,3.0.4,59.91687599967098,,,,,,,,,,,,,,,,,,,,,,,,,,,,
5,"They dropped their belongings and hugged, and Sven slipped the ring onto Isabel’s finger. ",3,4,,,,0,5,5,5,,,,,0,28,28,28,,,,,,,,,,,,,,,,,,,1,1.62166121500195,,,,,,,,,022719_p1,1,2019_Feb_27_1214,body_behavioural,3.0.4,59.91687599967098,,,,,,,,,,,,,,,,,,,,,,,,,,,,
5,"After getting their shoes back on, they practically skipped to the gate, filled with joy.",3,4,,,,0,5,5,5,,,,,0,29,29,29,,,,,,,,,,,,,,,,,,,1,4.584731595001358,,,,,,,,,022719_p1,1,2019_Feb_27_1214,body_behavioural,3.0.4,59.91687599967098,,,,,,,,,,,,,,,,,,,,,,,,,,,,
5,Sven high-fived a confused shoe-shine attendant as they passed.,3,4,,,,0,5,5,5,,,,,0,30,30,30,,,,,,,,,,,,,,,,,,,1,1.8054457350008306,,,,,,,,,022719_p1,1,2019_Feb_27_1214,body_behavioural,3.0.4,59.91687599967098,,,,,,,,,,,,,,,,,,,,,,,,,,,,
5,"They sat down outside their gate, having actually made good time, until the attendant called for passengers.",3,4,,,,0,5,5,5,,,,,0,31,31,31,,,,,,,,,,,,,,,,,,,1,2.871818744999473,,,,,,,,,022719_p1,1,2019_Feb_27_1214,body_behavioural,3.0.4,59.91687599967098,,,,,,,,,,,,,,,,,,,,,,,,,,,,
5,"They boarded, sitting together in first class, and had a glass of champagne to celebrate the departure into their new life together.",4,4,,,,0,5,5,5,,,,,0,32,32,32,,,,,,,,,,,,,,,,,,,9,2.9555129549989942,,,,,,,,,022719_p1,1,2019_Feb_27_1214,body_behavioural,3.0.4,59.91687599967098,,,,,,,,,,,,,,,,,,,,,,,,,,,,
5,"Some of their neighboring passengers who had witnessed the proposal congratulated them, and a woman next to them showed them that she had been live-tweeting the whole event and that it was already going viral online.",4,4,,,,0,5,5,5,,,,,0,33,33,33,,,,,,,,,,,,,,,,,,,1,3.2060420499983593,,,,,,,,,022719_p1,1,2019_Feb_27_1214,body_behavioural,3.0.4,59.91687599967098,,,,,,,,,,,,,,,,,,,,,,,,,,,,
5,"Isabel slid down in her seat with her hands over her face, both embarrassed and overjoyed at the same time.
",4,4,,,,0,5,5,5,,,,,0,34,34,34,,,,,,,,,,,,,,,,,,,1,1.6883854799998517,,,,,,,,,022719_p1,1,2019_Feb_27_1214,body_behavioural,3.0.4,59.91687599967098,,,,,,,,,,,,,,,,,,,,,,,,,,,,
5,,,,,,,0,5,5,5,,,,,,,,,,,,,,,,,,,,,,,,,,,,,,,,,,,,,022719_p1,1,2019_Feb_27_1214,body_behavioural,3.0.4,59.91687599967098,,,,,,,,,,,,,,,,,,,,,,,,,,,,
6,,,,,,,0,6,6,6,0,0,0,0,,,,,,,,,,,,,,,,,space,0.8047849299982772,space,0.47154218000287074,space,0.5549779599969042,,,,,,,,,,,022719_p1,1,2019_Feb_27_1214,body_behavioural,3.0.4,59.91687599967098,,,,,,,,,,,,,,,,,,,,,,,,,,,,
6,,,,,,,0,6,6,6,1,0,1,0,,,,,,,,,,,,,,,,,,,,,space,0.6176362450023589,,,,,,,,,,,022719_p1,1,2019_Feb_27_1214,body_behavioural,3.0.4,59.91687599967098,,,,,,,,,,,,,,,,,,,,,,,,,,,,
6,,,,,,,0,6,6,6,2,0,2,0,,,,,,,,,,,,,,,,,,,,,space,0.4213737799982482,,,,,,,,,,,022719_p1,1,2019_Feb_27_1214,body_behavioural,3.0.4,59.91687599967098,,,,,,,,,,,,,,,,,,,,,,,,,,,,
6,,,,,,,0,6,6,6,3,0,3,0,,,,,,,,,,,,,,,,,,,,,space,0.37154119000115315,,,,,,,,,,,022719_p1,1,2019_Feb_27_1214,body_behavioural,3.0.4,59.91687599967098,,,,,,,,,,,,,,,,,,,,,,,,,,,,
6,"Leon and  Ariana hurried into the classroom at the same time, and Leon did a double-take when he saw her. ",1,1,,,,0,6,6,6,,,,,0,0,0,0,,,,,,,,,,,,,,,,,,,1,13.489787714999693,,,,,,,,,022719_p1,1,2019_Feb_27_1214,body_behavioural,3.0.4,59.91687599967098,,,,,,,,,,,,,,,,,,,,,,,,,,,,
6,"This was his first day after transferring to this university, and he had assumed that he wouldn’t know anyone on campus, but he couldn't shake the nagging feeling  that he had seen her somewhere before. ",1,1,,,,0,6,6,6,,,,,0,1,1,1,,,,,,,,,,,,,,,,,,,1,7.834820134998154,,,,,,,,,022719_p1,1,2019_Feb_27_1214,body_behavioural,3.0.4,59.91687599967098,,,,,,,,,,,,,,,,,,,,,,,,,,,,
6,"They were both a bit late, so they quickly slid into seats next to each other in the back of the small classroom.",1,1,,,,0,6,6,6,,,,,0,2,2,2,,,,,,,,,,,,,,,,,,,1,2.30507054500049,,,,,,,,,022719_p1,1,2019_Feb_27_1214,body_behavioural,3.0.4,59.91687599967098,,,,,,,,,,,,,,,,,,,,,,,,,,,,
6,"This room was usually used for small meetings, but had been rearranged with the table pushed to the side and chairs set up in rows to face the projector screen. ",1,1,,,,0,6,6,6,,,,,0,3,3,3,,,,,,,,,,,,,,,,,,,1,6.2053413550020196,,,,,,,,,022719_p1,1,2019_Feb_27_1214,body_behavioural,3.0.4,59.91687599967098,,,,,,,,,,,,,,,,,,,,,,,,,,,,
6,"There were no windows in the room, since they were down in the sub-basement of the history department.",1,1,,,,0,6,6,6,,,,,0,4,4,4,,,,,,,,,,,,,,,,,,,1,1.7052599799972086,,,,,,,,,022719_p1,1,2019_Feb_27_1214,body_behavioural,3.0.4,59.91687599967098,,,,,,,,,,,,,,,,,,,,,,,,,,,,
6,"Leon, trying to figure out where he had seen her before, could not stop looking over at Ariana.",1,1,,,,0,6,6,6,,,,,0,5,5,5,,,,,,,,,,,,,,,,,,,1,1.3557984200015198,,,,,,,,,022719_p1,1,2019_Feb_27_1214,body_behavioural,3.0.4,59.91687599967098,,,,,,,,,,,,,,,,,,,,,,,,,,,,
6,Ariana was oblivious to Leon’s gaze and was only focused on getting ready for class. ,1,1,,,,0,6,6,6,,,,,0,6,6,6,,,,,,,,,,,,,,,,,,,1,2.1218397049997293,,,,,,,,,022719_p1,1,2019_Feb_27_1214,body_behavioural,3.0.4,59.91687599967098,,,,,,,,,,,,,,,,,,,,,,,,,,,,
6,"“Good afternoon class,” the professor began.",2,1,,,,0,6,6,6,,,,,0,7,7,7,,,,,,,,,,,,,,,,,,,9,1.1677137899969239,,,,,,,,,022719_p1,1,2019_Feb_27_1214,body_behavioural,3.0.4,59.91687599967098,,,,,,,,,,,,,,,,,,,,,,,,,,,,
6,“Welcome to Egyptian Cultural Studies. ,2,1,,,,0,6,6,6,,,,,0,8,8,8,,,,,,,,,,,,,,,,,,,1,3.0845665950000694,,,,,,,,,022719_p1,1,2019_Feb_27_1214,body_behavioural,3.0.4,59.91687599967098,,,,,,,,,,,,,,,,,,,,,,,,,,,,
6,"Today we will be talking about mummification, one of the most famous and often misunderstood customs in ancient Egyptian society.”",2,1,,,,0,6,6,6,,,,,0,9,9,9,,,,,,,,,,,,,,,,,,,1,2.605179140002292,,,,,,,,,022719_p1,1,2019_Feb_27_1214,body_behavioural,3.0.4,59.91687599967098,,,,,,,,,,,,,,,,,,,,,,,,,,,,
6,Leon pulled out his notebook and tried to concentrate on the class.,2,1,,,,0,6,6,6,,,,,0,10,10,10,,,,,,,,,,,,,,,,,,,1,1.0176546650000091,,,,,,,,,022719_p1,1,2019_Feb_27_1214,body_behavioural,3.0.4,59.91687599967098,,,,,,,,,,,,,,,,,,,,,,,,,,,,
6,Within a few minutes though he found his attention wandering back to Ariana.,2,1,,,,0,6,6,6,,,,,0,11,11,11,,,,,,,,,,,,,,,,,,,1,1.1716451449974556,,,,,,,,,022719_p1,1,2019_Feb_27_1214,body_behavioural,3.0.4,59.91687599967098,,,,,,,,,,,,,,,,,,,,,,,,,,,,
6,"He decided to do something about his hunch so he ripped off a corner of a page in his notebook, wrote a note, and set it on her desk.",2,1,,,,0,6,6,6,,,,,0,12,12,12,,,,,,,,,,,,,,,,,,,1,2.8053743700002087,,,,,,,,,022719_p1,1,2019_Feb_27_1214,body_behavioural,3.0.4,59.91687599967098,,,,,,,,,,,,,,,,,,,,,,,,,,,,
6,"“Hi, sorry to distract you from mummies, but you look really familiar, it read.""",2,2,,,,0,6,6,6,,,,,0,13,13,13,,,,,,,,,,,,,,,,,,,1,1.6054357849970984,,,,,,,,,022719_p1,1,2019_Feb_27_1214,body_behavioural,3.0.4,59.91687599967098,,,,,,,,,,,,,,,,,,,,,,,,,,,,
6,It continued: “Do I know you from somewhere?”,2,2,,,,0,6,6,6,,,,,0,14,14,14,,,,,,,,,,,,,,,,,,,1,0.8052202650032996,,,,,,,,,022719_p1,1,2019_Feb_27_1214,body_behavioural,3.0.4,59.91687599967098,,,,,,,,,,,,,,,,,,,,,,,,,,,,
6,"She looked at the note with surprise, and then turned to notice Leon for the first time. ",2,2,,,,0,6,6,6,,,,,0,15,15,15,,,,,,,,,,,,,,,,,,,1,1.3882681899995077,,,,,,,,,022719_p1,1,2019_Feb_27_1214,body_behavioural,3.0.4,59.91687599967098,,,,,,,,,,,,,,,,,,,,,,,,,,,,
6,"She instantly liked him when she saw him; he had very soft eyes and sharp features, a combination that made him seem  trustworthy and genuine.",2,2,,,,0,6,6,6,,,,,0,16,16,16,,,,,,,,,,,,,,,,,,,1,14.65584768500048,,,,,,,,,022719_p1,1,2019_Feb_27_1214,body_behavioural,3.0.4,59.91687599967098,,,,,,,,,,,,,,,,,,,,,,,,,,,,
6,He smiled at her and she flashed him a smile back.,2,2,,,,0,6,6,6,,,,,0,17,17,17,,,,,,,,,,,,,,,,,,,1,1.7217435450002085,,,,,,,,,022719_p1,1,2019_Feb_27_1214,body_behavioural,3.0.4,59.91687599967098,,,,,,,,,,,,,,,,,,,,,,,,,,,,
6,Then she turned the note over to the back and started to write a reply.,2,2,,,,0,6,6,6,,,,,0,18,18,18,,,,,,,,,,,,,,,,,,,9,1.5550705599998764,,,,,,,,,022719_p1,1,2019_Feb_27_1214,body_behavioural,3.0.4,59.91687599967098,,,,,,,,,,,,,,,,,,,,,,,,,,,,
6,"Meanwhile the professor continued, “One may well question why the ancient Egyptians spent so much time and effort on their funerary practices.",3,2,,,,0,6,6,6,,,,,0,19,19,19,,,,,,,,,,,,,,,,,,,1,2.905346434999956,,,,,,,,,022719_p1,1,2019_Feb_27_1214,body_behavioural,3.0.4,59.91687599967098,,,,,,,,,,,,,,,,,,,,,,,,,,,,
6,"Not only was the mummification process itself a complicated affair, but there were also elaborate rituals before, during, and after death.",3,2,,,,0,6,6,6,,,,,0,20,20,20,,,,,,,,,,,,,,,,,,,1,2.0381882450019475,,,,,,,,,022719_p1,1,2019_Feb_27_1214,body_behavioural,3.0.4,59.91687599967098,,,,,,,,,,,,,,,,,,,,,,,,,,,,
6,The practice required teams of experts with years of training and took a total of 70 days to complete.”,3,2,,,,0,6,6,6,,,,,0,21,21,21,,,,,,,,,,,,,,,,,,,1,0.9343752649983799,,,,,,,,,022719_p1,1,2019_Feb_27_1214,body_behavioural,3.0.4,59.91687599967098,,,,,,,,,,,,,,,,,,,,,,,,,,,,
6,"Ariana passed the note back to Leon, and she had replied, “No, but maybe my twin and I were separated at birth.”",3,2,,,,0,6,6,6,,,,,0,22,22,22,,,,,,,,,,,,,,,,,,,1,2.2719560750010714,,,,,,,,,022719_p1,1,2019_Feb_27_1214,body_behavioural,3.0.4,59.91687599967098,,,,,,,,,,,,,,,,,,,,,,,,,,,,
6,They passed notes back and forth the whole class like they were back in high school.,3,2,,,,0,6,6,6,,,,,0,23,23,23,,,,,,,,,,,,,,,,,,,1,1.0218679700010398,,,,,,,,,022719_p1,1,2019_Feb_27_1214,body_behavioural,3.0.4,59.91687599967098,,,,,,,,,,,,,,,,,,,,,,,,,,,,
6,"Near the end of the lecture, Leon wrote, “Would you like to go to dinner tonight?” ",3,3,,,,0,6,6,6,,,,,0,24,24,24,,,,,,,,,,,,,,,,,,,1,1.1217426199982583,,,,,,,,,022719_p1,1,2019_Feb_27_1214,body_behavioural,3.0.4,59.91687599967098,,,,,,,,,,,,,,,,,,,,,,,,,,,,
6,"Ariana read the note, and looked at him and nodded her head",3,3,,,,0,6,6,6,,,,,0,25,25,25,,,,,,,,,,,,,,,,,,,1,0.8551828849995218,,,,,,,,,022719_p1,1,2019_Feb_27_1214,body_behavioural,3.0.4,59.91687599967098,,,,,,,,,,,,,,,,,,,,,,,,,,,,
6,"She wrote back on the slip of paper, “Pick me up at 6 in front of Patton Hall.”",3,3,,,,0,6,6,6,,,,,0,26,26,26,,,,,,,,,,,,,,,,,,,1,2.455295659998228,,,,,,,,,022719_p1,1,2019_Feb_27_1214,body_behavioural,3.0.4,59.91687599967098,,,,,,,,,,,,,,,,,,,,,,,,,,,,
6,Then the professor ended the lecture and announced to the class that they would have their first quiz next class on Friday on mummification. ,4,3,,,,0,6,6,6,,,,,0,27,27,27,,,,,,,,,,,,,,,,,,,1,2.9385011150006903,,,,,,,,,022719_p1,1,2019_Feb_27_1214,body_behavioural,3.0.4,59.91687599967098,,,,,,,,,,,,,,,,,,,,,,,,,,,,
6,"Everyone packed up and started heading out, as well as Sophie and Leon.",4,3,,,,0,6,6,6,,,,,0,28,28,28,,,,,,,,,,,,,,,,,,,1,0.9385277049987053,,,,,,,,,022719_p1,1,2019_Feb_27_1214,body_behavioural,3.0.4,59.91687599967098,,,,,,,,,,,,,,,,,,,,,,,,,,,,
6,"They approached each other smiling, and Leon said, “Well it was great to meet you, again, or maybe not again, but regardless it was great to meet you.” ",4,3,,,,0,6,6,6,,,,,0,29,29,29,,,,,,,,,,,,,,,,,,,1,4.1512244650002685,,,,,,,,,022719_p1,1,2019_Feb_27_1214,body_behavioural,3.0.4,59.91687599967098,,,,,,,,,,,,,,,,,,,,,,,,,,,,
6,"She replied, “Yes, it was.",4,4,,,,0,6,6,6,,,,,0,30,30,30,,,,,,,,,,,,,,,,,,,1,0.6549755699998059,,,,,,,,,022719_p1,1,2019_Feb_27_1214,body_behavioural,3.0.4,59.91687599967098,,,,,,,,,,,,,,,,,,,,,,,,,,,,
6,"I have to run to my next class, but I’ll see you later tonight.” ",4,4,,,,0,6,6,6,,,,,0,31,31,31,,,,,,,,,,,,,,,,,,,1,1.3883763949997956,,,,,,,,,022719_p1,1,2019_Feb_27_1214,body_behavioural,3.0.4,59.91687599967098,,,,,,,,,,,,,,,,,,,,,,,,,,,,
6,"She waved as they parted ways outside of the door of the classroom, and Leon was still trying to figure out where he had seen her before as he watched her go. ",4,4,,,,0,6,6,6,,,,,0,32,32,32,,,,,,,,,,,,,,,,,,,1,2.851197764997778,,,,,,,,,022719_p1,1,2019_Feb_27_1214,body_behavioural,3.0.4,59.91687599967098,,,,,,,,,,,,,,,,,,,,,,,,,,,,
6,,,,,,,0,6,6,6,,,,,,,,,,,,,,,,,,,,,,,,,,,,,,,,,,,,,022719_p1,1,2019_Feb_27_1214,body_behavioural,3.0.4,59.91687599967098,,,,,,,,,,,,,,,,,,,,,,,,,,,,
7,,,,,,,0,7,7,7,0,0,0,0,,,,,,,,,,,,,,,,,space,2.5010654750003596,space,0.6550417250000464,space,0.5714923949999502,,,,,,,,,,,022719_p1,1,2019_Feb_27_1214,body_behavioural,3.0.4,59.91687599967098,,,,,,,,,,,,,,,,,,,,,,,,,,,,
7,"Thomas, dreading the conversation he was about to have, got to Annika’s Finer Diner early.",1,1,None,None,,0,7,7,7,,,,,0,0,0,0,,,,,,,,,,,,,,,,,,,1,7.955812285003049,,,,,,,,,022719_p1,1,2019_Feb_27_1214,body_behavioural,3.0.4,59.91687599967098,,,,,,,,,,,,,,,,,,,,,,,,,,,,
7,The restaurant had a kitschy charm and was reminiscent of a diner from the 70’s.,1,1,None,None,,0,7,7,7,,,,,0,1,1,1,,,,,,,,,,,,,,,,,,,1,3.9064325999970606,,,,,,,,,022719_p1,1,2019_Feb_27_1214,body_behavioural,3.0.4,59.91687599967098,,,,,,,,,,,,,,,,,,,,,,,,,,,,
7,A bell chimed as the door swung open and Sadie entered to find Thomas deep in thought on a bench by the door.,1,1,None,None,,0,7,7,7,,,,,0,2,2,2,,,,,,,,,,,,,,,,,,,1,6.621941125002195,,,,,,,,,022719_p1,1,2019_Feb_27_1214,body_behavioural,3.0.4,59.91687599967098,,,,,,,,,,,,,,,,,,,,,,,,,,,,
7,He jumped up and gave her a side hug. ,1,1,None,None,,0,7,7,7,,,,,0,3,3,3,,,,,,,,,,,,,,,,,,,1,1.9550113900004362,,,,,,,,,022719_p1,1,2019_Feb_27_1214,body_behavioural,3.0.4,59.91687599967098,,,,,,,,,,,,,,,,,,,,,,,,,,,,
7,"“How was your day?”, he asked.",1,1,None,None,,0,7,7,7,,,,,0,4,4,4,,,,,,,,,,,,,,,,,,,1,1.601026175001607,,,,,,,,,022719_p1,1,2019_Feb_27_1214,body_behavioural,3.0.4,59.91687599967098,,,,,,,,,,,,,,,,,,,,,,,,,,,,
7,"She clung onto him, “It was okay.",1,1,None,None,,0,7,7,7,,,,,0,5,5,5,,,,,,,,,,,,,,,,,,,1,0.9551766900003713,,,,,,,,,022719_p1,1,2019_Feb_27_1214,body_behavioural,3.0.4,59.91687599967098,,,,,,,,,,,,,,,,,,,,,,,,,,,,
7,I missed you today.”,1,1,None,None,,0,7,7,7,,,,,0,6,6,6,,,,,,,,,,,,,,,,,,,1,0.6219570350003778,,,,,,,,,022719_p1,1,2019_Feb_27_1214,body_behavioural,3.0.4,59.91687599967098,,,,,,,,,,,,,,,,,,,,,,,,,,,,
7,He looked at the hostess coming towards them.,1,1,None,None,,0,7,7,7,,,,,0,7,7,7,,,,,,,,,,,,,,,,,,,1,1.4549866249981278,,,,,,,,,022719_p1,1,2019_Feb_27_1214,body_behavioural,3.0.4,59.91687599967098,,,,,,,,,,,,,,,,,,,,,,,,,,,,
7,"“Can we have a table in the back?”, Thomas asked.",1,1,None,None,,0,7,7,7,,,,,0,8,8,8,,,,,,,,,,,,,,,,,,,1,1.055718120001984,,,,,,,,,022719_p1,1,2019_Feb_27_1214,body_behavioural,3.0.4,59.91687599967098,,,,,,,,,,,,,,,,,,,,,,,,,,,,
7,"She shrugged and, as she loudly popped her bubblegum, replied, “Sure, honey, this way.”",1,1,9,None,,0,7,7,7,,,,,0,9,9,9,,,,,,,,,,,,,,,,,,,1,1.2719267850006872,,,,,,,,,022719_p1,1,2019_Feb_27_1214,body_behavioural,3.0.4,59.91687599967098,,,,,,,,,,,,,,,,,,,,,,,,,,,,
7,She led them to the back of the restaurant where there were dimly lit tables. ,2,1,None,None,,0,7,7,7,,,,,0,10,10,10,,,,,,,,,,,,,,,,,,,1,0.9719065299977956,,,,,,,,,022719_p1,1,2019_Feb_27_1214,body_behavioural,3.0.4,59.91687599967098,,,,,,,,,,,,,,,,,,,,,,,,,,,,
7,"“Is this alright?”, the hostess asked.",2,1,None,None,,0,7,7,7,,,,,0,11,11,11,,,,,,,,,,,,,,,,,,,1,1.0882944650002173,,,,,,,,,022719_p1,1,2019_Feb_27_1214,body_behavioural,3.0.4,59.91687599967098,,,,,,,,,,,,,,,,,,,,,,,,,,,,
7,Thomas cleared his throat and tried not to grimace at the stained fabric that lined the booth.,2,1,None,None,,0,7,7,7,,,,,0,12,12,12,,,,,,,,,,,,,,,,,,,1,4.06778486499752,,,,,,,,,022719_p1,1,2019_Feb_27_1214,body_behavioural,3.0.4,59.91687599967098,,,,,,,,,,,,,,,,,,,,,,,,,,,,
7,“This is great.,2,1,None,None,,0,7,7,7,,,,,0,13,13,13,,,,,,,,,,,,,,,,,,,1,1.5190865599979588,,,,,,,,,022719_p1,1,2019_Feb_27_1214,body_behavioural,3.0.4,59.91687599967098,,,,,,,,,,,,,,,,,,,,,,,,,,,,
7,"Thank you,” Thomas said.",2,1,None,None,,0,7,7,7,,,,,0,14,14,14,,,,,,,,,,,,,,,,,,,1,0.6549494950013468,,,,,,,,,022719_p1,1,2019_Feb_27_1214,body_behavioural,3.0.4,59.91687599967098,,,,,,,,,,,,,,,,,,,,,,,,,,,,
7,Sadie slipped into the cushioned seat and grabbed Thomas’ hand.,2,1,None,None,,0,7,7,7,,,,,0,15,15,15,,,,,,,,,,,,,,,,,,,9,4.1054427700000815,,,,,,,,,022719_p1,1,2019_Feb_27_1214,body_behavioural,3.0.4,59.91687599967098,,,,,,,,,,,,,,,,,,,,,,,,,,,,
7,"“Tell me about your day!”, Sadie sang as Thomas sat down.",2,1,None,None,,0,7,7,7,,,,,0,16,16,16,,,,,,,,,,,,,,,,,,,1,0.9550256300026376,,,,,,,,,022719_p1,1,2019_Feb_27_1214,body_behavioural,3.0.4,59.91687599967098,,,,,,,,,,,,,,,,,,,,,,,,,,,,
7,He looked at her silently and pulled his hand slowly from hers.,2,1,None,None,,0,7,7,7,,,,,0,17,17,17,,,,,,,,,,,,,,,,,,,1,2.471813939999265,,,,,,,,,022719_p1,1,2019_Feb_27_1214,body_behavioural,3.0.4,59.91687599967098,,,,,,,,,,,,,,,,,,,,,,,,,,,,
7,Sadie gave him a puzzled look.,2,1,None,None,,0,7,7,7,,,,,0,18,18,18,,,,,,,,,,,,,,,,,,,1,0.571824540002126,,,,,,,,,022719_p1,1,2019_Feb_27_1214,body_behavioural,3.0.4,59.91687599967098,,,,,,,,,,,,,,,,,,,,,,,,,,,,
7,Thomas looked away and took a deep breath. ,2,1,None,None,,0,7,7,7,,,,,0,19,19,19,,,,,,,,,,,,,,,,,,,1,0.6845006399998965,,,,,,,,,022719_p1,1,2019_Feb_27_1214,body_behavioural,3.0.4,59.91687599967098,,,,,,,,,,,,,,,,,,,,,,,,,,,,
7,"Sadie asked, “What’s wrong?” ",2,1,None,None,,0,7,7,7,,,,,0,20,20,20,,,,,,,,,,,,,,,,,,,1,0.5382894499998656,,,,,,,,,022719_p1,1,2019_Feb_27_1214,body_behavioural,3.0.4,59.91687599967098,,,,,,,,,,,,,,,,,,,,,,,,,,,,
7,Thomas picked at his fingernails.,2,1,None,22,,0,7,7,7,,,,,0,21,21,21,,,,,,,,,,,,,,,,,,,1,0.7549910099987756,,,,,,,,,022719_p1,1,2019_Feb_27_1214,body_behavioural,3.0.4,59.91687599967098,,,,,,,,,,,,,,,,,,,,,,,,,,,,
7,"“Sadie, I’ve been thinking, and I need to figure out some stuff… on my own.”",2,2,None,None,,0,7,7,7,,,,,0,22,22,22,,,,,,,,,,,,,,,,,,,1,1.3884787150018383,,,,,,,,,022719_p1,1,2019_Feb_27_1214,body_behavioural,3.0.4,59.91687599967098,,,,,,,,,,,,,,,,,,,,,,,,,,,,
7,Sadie’s mouth popped open for a moment.,2,2,None,None,,0,7,7,7,,,,,0,23,23,23,,,,,,,,,,,,,,,,,,,1,0.6718366249988321,,,,,,,,,022719_p1,1,2019_Feb_27_1214,body_behavioural,3.0.4,59.91687599967098,,,,,,,,,,,,,,,,,,,,,,,,,,,,
7,Then she swallowed and shifted back in her seat.,2,2,None,None,,0,7,7,7,,,,,0,24,24,24,,,,,,,,,,,,,,,,,,,1,1.5344422849993862,,,,,,,,,022719_p1,1,2019_Feb_27_1214,body_behavioural,3.0.4,59.91687599967098,,,,,,,,,,,,,,,,,,,,,,,,,,,,
7,“Things have been really picking up at work.,2,2,None,None,,0,7,7,7,,,,,0,25,25,25,,,,,,,,,,,,,,,,,,,1,3.5678748299978906,,,,,,,,,022719_p1,1,2019_Feb_27_1214,body_behavioural,3.0.4,59.91687599967098,,,,,,,,,,,,,,,,,,,,,,,,,,,,
7,And I’m not sure that this is the job I want to do anymore.,2,2,None,None,,0,7,7,7,,,,,0,26,26,26,,,,,,,,,,,,,,,,,,,1,3.4723304200015264,,,,,,,,,022719_p1,1,2019_Feb_27_1214,body_behavioural,3.0.4,59.91687599967098,,,,,,,,,,,,,,,,,,,,,,,,,,,,
7,It’s been really overwhelming between working and figuring out if I should change careers.” ,2,2,17,None,,0,7,7,7,,,,,0,27,27,27,,,,,,,,,,,,,,,,,,,1,2.571758254998713,,,,,,,,,022719_p1,1,2019_Feb_27_1214,body_behavioural,3.0.4,59.91687599967098,,,,,,,,,,,,,,,,,,,,,,,,,,,,
7,The waiter appeared and interrupted the speech Thomas had been practicing.,3,2,None,None,,0,7,7,7,,,,,0,28,28,28,,,,,,,,,,,,,,,,,,,1,4.955687609999586,,,,,,,,,022719_p1,1,2019_Feb_27_1214,body_behavioural,3.0.4,59.91687599967098,,,,,,,,,,,,,,,,,,,,,,,,,,,,
7,"“Hello you two!”, the waiter said.",3,2,None,None,,0,7,7,7,,,,,0,29,29,29,,,,,,,,,,,,,,,,,,,1,0.6510303800023394,,,,,,,,,022719_p1,1,2019_Feb_27_1214,body_behavioural,3.0.4,59.91687599967098,,,,,,,,,,,,,,,,,,,,,,,,,,,,
7,“Have you decided what you would like?”,3,2,None,None,,0,7,7,7,,,,,0,30,30,30,,,,,,,,,,,,,,,,,,,1,0.5218899049978063,,,,,,,,,022719_p1,1,2019_Feb_27_1214,body_behavioural,3.0.4,59.91687599967098,,,,,,,,,,,,,,,,,,,,,,,,,,,,
7,"Thomas and Sadie realized there were menus on the table, and they glanced at the lengthy list quickly.",3,2,None,None,,0,7,7,7,,,,,0,31,31,31,,,,,,,,,,,,,,,,,,,1,1.9051906100030465,,,,,,,,,022719_p1,1,2019_Feb_27_1214,body_behavioural,3.0.4,59.91687599967098,,,,,,,,,,,,,,,,,,,,,,,,,,,,
7,"There were so many strange dishes they had never heard of before, so they settled on familiar orders.",3,2,None,None,,0,7,7,7,,,,,0,32,32,32,,,,,,,,,,,,,,,,,,,1,1.7676788800017675,,,,,,,,,022719_p1,1,2019_Feb_27_1214,body_behavioural,3.0.4,59.91687599967098,,,,,,,,,,,,,,,,,,,,,,,,,,,,
7,"“I’ll have a burger, no tomatoes,” Thomas said.",3,2,None,None,,0,7,7,7,,,,,0,33,33,33,,,,,,,,,,,,,,,,,,,1,1.1676689800005988,,,,,,,,,022719_p1,1,2019_Feb_27_1214,body_behavioural,3.0.4,59.91687599967098,,,,,,,,,,,,,,,,,,,,,,,,,,,,
7,"Sadie asked about the reuben, and the waiter told her it was excellent.",3,2,None,None,,0,7,7,7,,,,,0,34,34,34,,,,,,,,,,,,,,,,,,,1,1.4716185799989034,,,,,,,,,022719_p1,1,2019_Feb_27_1214,body_behavioural,3.0.4,59.91687599967098,,,,,,,,,,,,,,,,,,,,,,,,,,,,
7,"Once she agreed to get that, he walked away. ",3,2,None,None,,0,7,7,7,,,,,0,35,35,35,,,,,,,,,,,,,,,,,,,9,1.3550016049994156,,,,,,,,,022719_p1,1,2019_Feb_27_1214,body_behavioural,3.0.4,59.91687599967098,,,,,,,,,,,,,,,,,,,,,,,,,,,,
7,Sadie and Thomas looked at each other. ,3,2,None,None,,0,7,7,7,,,,,0,36,36,36,,,,,,,,,,,,,,,,,,,9,0.13858297999831848,,,,,,,,,022719_p1,1,2019_Feb_27_1214,body_behavioural,3.0.4,59.91687599967098,,,,,,,,,,,,,,,,,,,,,,,,,,,,
7,"“So what are you saying?”, Sadie asked. ",3,2,None,None,,0,7,7,7,,,,,0,37,37,37,,,,,,,,,,,,,,,,,,,1,1.255248040000879,,,,,,,,,022719_p1,1,2019_Feb_27_1214,body_behavioural,3.0.4,59.91687599967098,,,,,,,,,,,,,,,,,,,,,,,,,,,,
7,"Thomas replied, “I want to take a break for awhile.",3,2,None,None,,0,7,7,7,,,,,0,38,38,38,,,,,,,,,,,,,,,,,,,1,1.0383708600020327,,,,,,,,,022719_p1,1,2019_Feb_27_1214,body_behavioural,3.0.4,59.91687599967098,,,,,,,,,,,,,,,,,,,,,,,,,,,,
7,"You know, have space to figure out what I’m supposed to be doing.”",3,2,None,17,,0,7,7,7,,,,,0,39,39,39,,,,,,,,,,,,,,,,,,,1,1.1009791450014745,,,,,,,,,022719_p1,1,2019_Feb_27_1214,body_behavioural,3.0.4,59.91687599967098,,,,,,,,,,,,,,,,,,,,,,,,,,,,
7,Sadie quietly burst into tears. ,3,3,None,None,,0,7,7,7,,,,,0,40,40,40,,,,,,,,,,,,,,,,,,,1,1.3383086899993941,,,,,,,,,022719_p1,1,2019_Feb_27_1214,body_behavioural,3.0.4,59.91687599967098,,,,,,,,,,,,,,,,,,,,,,,,,,,,
7,"Nevertheless, people sitting at the adjacent table looked over and quickly averted their gaze as they realized what was happening. ",3,3,None,None,,0,7,7,7,,,,,0,41,41,41,,,,,,,,,,,,,,,,,,,1,1.8883018850028748,,,,,,,,,022719_p1,1,2019_Feb_27_1214,body_behavioural,3.0.4,59.91687599967098,,,,,,,,,,,,,,,,,,,,,,,,,,,,
7,“Is this really what you want?,3,3,None,None,,0,7,7,7,,,,,0,42,42,42,,,,,,,,,,,,,,,,,,,1,0.6716339500017057,,,,,,,,,022719_p1,1,2019_Feb_27_1214,body_behavioural,3.0.4,59.91687599967098,,,,,,,,,,,,,,,,,,,,,,,,,,,,
7,I don’t understand.,3,3,None,None,,0,7,7,7,,,,,0,43,43,43,,,,,,,,,,,,,,,,,,,1,0.4549666749990138,,,,,,,,,022719_p1,1,2019_Feb_27_1214,body_behavioural,3.0.4,59.91687599967098,,,,,,,,,,,,,,,,,,,,,,,,,,,,
7,I don’t understand.,3,3,None,None,,0,7,7,7,,,,,0,44,44,44,,,,,,,,,,,,,,,,,,,1,0.505153585003427,,,,,,,,,022719_p1,1,2019_Feb_27_1214,body_behavioural,3.0.4,59.91687599967098,,,,,,,,,,,,,,,,,,,,,,,,,,,,
7,Things were fine. ,3,3,None,None,,0,7,7,7,,,,,0,45,45,45,,,,,,,,,,,,,,,,,,,1,1.167838559998927,,,,,,,,,022719_p1,1,2019_Feb_27_1214,body_behavioural,3.0.4,59.91687599967098,,,,,,,,,,,,,,,,,,,,,,,,,,,,
7,"We don’t have to hang out all the time, or as much as we do now.”",3,3,None,None,,0,7,7,7,,,,,0,46,46,46,,,,,,,,,,,,,,,,,,,1,2.9884518250000838,,,,,,,,,022719_p1,1,2019_Feb_27_1214,body_behavioural,3.0.4,59.91687599967098,,,,,,,,,,,,,,,,,,,,,,,,,,,,
7,Thomas chewed on his bottom lip and picked at his now bleeding hangnail. ,3,3,20,None,,0,7,7,7,,,,,0,47,47,47,,,,,,,,,,,,,,,,,,,1,3.171795465001196,,,,,,,,,022719_p1,1,2019_Feb_27_1214,body_behavioural,3.0.4,59.91687599967098,,,,,,,,,,,,,,,,,,,,,,,,,,,,
7,"At that moment, the waiter arrived with the burger and reuben and set them on the table.",4,3,None,None,,0,7,7,7,,,,,0,48,48,48,,,,,,,,,,,,,,,,,,,9,4.972178715001064,,,,,,,,,022719_p1,1,2019_Feb_27_1214,body_behavioural,3.0.4,59.91687599967098,,,,,,,,,,,,,,,,,,,,,,,,,,,,
7,“Is there anything else I can get for you two?,4,3,None,None,,0,7,7,7,,,,,0,49,49,49,,,,,,,,,,,,,,,,,,,1,0.6548744249994343,,,,,,,,,022719_p1,1,2019_Feb_27_1214,body_behavioural,3.0.4,59.91687599967098,,,,,,,,,,,,,,,,,,,,,,,,,,,,
7,"Will you be getting dessert tonight?”, he asked.",4,3,None,None,,0,7,7,7,,,,,0,50,50,50,,,,,,,,,,,,,,,,,,,1,0.7049533999997948,,,,,,,,,022719_p1,1,2019_Feb_27_1214,body_behavioural,3.0.4,59.91687599967098,,,,,,,,,,,,,,,,,,,,,,,,,,,,
7,"“Oh no, we’re good, thanks,” Thomas said.",4,3,None,None,,0,7,7,7,,,,,0,51,51,51,,,,,,,,,,,,,,,,,,,1,0.655270315000962,,,,,,,,,022719_p1,1,2019_Feb_27_1214,body_behavioural,3.0.4,59.91687599967098,,,,,,,,,,,,,,,,,,,,,,,,,,,,
7,"Once the waiter had walked away still oblivious to the situation, Thomas sighed and said, “Sadie, I’m sorry.",4,3,None,None,,0,7,7,7,,,,,0,52,52,52,,,,,,,,,,,,,,,,,,,1,2.2550812349982152,,,,,,,,,022719_p1,1,2019_Feb_27_1214,body_behavioural,3.0.4,59.91687599967098,,,,,,,,,,,,,,,,,,,,,,,,,,,,
7,"You are so great, and I love hanging out with you.",4,3,None,None,,0,7,7,7,,,,,0,53,53,53,,,,,,,,,,,,,,,,,,,1,0.8384475249986281,,,,,,,,,022719_p1,1,2019_Feb_27_1214,body_behavioural,3.0.4,59.91687599967098,,,,,,,,,,,,,,,,,,,,,,,,,,,,
7,But I need some time.,4,3,None,None,,0,7,7,7,,,,,0,54,54,54,,,,,,,,,,,,,,,,,,,1,0.6676879199985706,,,,,,,,,022719_p1,1,2019_Feb_27_1214,body_behavioural,3.0.4,59.91687599967098,,,,,,,,,,,,,,,,,,,,,,,,,,,,
7,I’m so sorry.”,4,3,None,None,,0,7,7,7,,,,,0,55,55,55,,,,,,,,,,,,,,,,,,,1,0.4383375249999517,,,,,,,,,022719_p1,1,2019_Feb_27_1214,body_behavioural,3.0.4,59.91687599967098,,,,,,,,,,,,,,,,,,,,,,,,,,,,
7,"He grabbed her hand, and she pulled it out of his.",4,3,None,None,,0,7,7,7,,,,,0,56,56,56,,,,,,,,,,,,,,,,,,,1,2.0844413550003082,,,,,,,,,022719_p1,1,2019_Feb_27_1214,body_behavioural,3.0.4,59.91687599967098,,,,,,,,,,,,,,,,,,,,,,,,,,,,
7,"“Sadie,” he said.",4,3,None,17,,0,7,7,7,,,,,0,57,57,57,,,,,,,,,,,,,,,,,,,1,0.4881985549982346,,,,,,,,,022719_p1,1,2019_Feb_27_1214,body_behavioural,3.0.4,59.91687599967098,,,,,,,,,,,,,,,,,,,,,,,,,,,,
7," She stood up, grabbed half of the reuben and shook it at him as she growled, “Don’t follow me, and don’t talk to me anymore!”",4,4,None,None,,0,7,7,7,,,,,0,58,58,58,,,,,,,,,,,,,,,,,,,1,1.6510698199999752,,,,,,,,,022719_p1,1,2019_Feb_27_1214,body_behavioural,3.0.4,59.91687599967098,,,,,,,,,,,,,,,,,,,,,,,,,,,,
7,"Sadie's heels clacked loudly against the black and white linoleum, and the bell above the door jingled cheerfully as the door closed behind her.",4,4,None,None,,0,7,7,7,,,,,0,59,59,59,,,,,,,,,,,,,,,,,,,1,4.23858435999864,,,,,,,,,022719_p1,1,2019_Feb_27_1214,body_behavioural,3.0.4,59.91687599967098,,,,,,,,,,,,,,,,,,,,,,,,,,,,
7,Thomas sat there for awhile in shock at how quickly everything transpired. ,4,4,None,None,,0,7,7,7,,,,,0,60,60,60,,,,,,,,,,,,,,,,,,,1,1.5550627550001082,,,,,,,,,022719_p1,1,2019_Feb_27_1214,body_behavioural,3.0.4,59.91687599967098,,,,,,,,,,,,,,,,,,,,,,,,,,,,
7,"He grabbed his burger and took a bite of it, creating a dry and fishy taste in his mouth.",4,4,None,None,,0,7,7,7,,,,,0,61,61,61,,,,,,,,,,,,,,,,,,,1,3.121927525000501,,,,,,,,,022719_p1,1,2019_Feb_27_1214,body_behavioural,3.0.4,59.91687599967098,,,,,,,,,,,,,,,,,,,,,,,,,,,,
7,He dropped it back on his plate and wondered if the restaurant was responsible for the foul taste. ,4,4,13,5,,0,7,7,7,,,,,0,62,62,62,,,,,,,,,,,,,,,,,,,1,1.4177621399976488,,,,,,,,,022719_p1,1,2019_Feb_27_1214,body_behavioural,3.0.4,59.91687599967098,,,,,,,,,,,,,,,,,,,,,,,,,,,,
7,,,,,,,0,7,7,7,,,,,,,,,,,,,,,,,,,,,,,,,,,,,,,,,,,,,022719_p1,1,2019_Feb_27_1214,body_behavioural,3.0.4,59.91687599967098,,,,,,,,,,,,,,,,,,,,,,,,,,,,
8,,,,,,,0,8,8,8,0,0,0,0,,,,,,,,,,,,,,,,,space,1.2715145149995806,space,0.7048641549990862,space,0.7011410749983042,,,,,,,,,,,022719_p1,1,2019_Feb_27_1214,body_behavioural,3.0.4,59.91687599967098,,,,,,,,,,,,,,,,,,,,,,,,,,,,
8,Mr. Shelton and Mr. Gordon shook hands inside the foyer of the restaurant: lunch today was about big business. ,1,1,,,,0,8,8,8,,,,,0,0,0,0,,,,,,,,,,,,,,,,,,,1,8.01811304000148,,,,,,,,,022719_p1,1,2019_Feb_27_1214,body_behavioural,3.0.4,59.91687599967098,,,,,,,,,,,,,,,,,,,,,,,,,,,,
8,Mr. Shelton and Mr. Gordon both were CEOs of airplane manufacturing companies.,1,1,,,,0,8,8,8,,,,,0,1,1,1,,,,,,,,,,,,,,,,,,,1,1.6389347099975566,,,,,,,,,022719_p1,1,2019_Feb_27_1214,body_behavioural,3.0.4,59.91687599967098,,,,,,,,,,,,,,,,,,,,,,,,,,,,
8,"Mr. Shelton was in charge of a larger, well-established company and had been in the aviation business for decades, whereas Mr. Gordon led a smaller but technologically-advanced company that was projected to disrupt the airplane manufacturing market. ",1,1,,,,0,8,8,8,,,,,0,2,2,2,,,,,,,,,,,,,,,,,,,1,2.605079199998727,,,,,,,,,022719_p1,1,2019_Feb_27_1214,body_behavioural,3.0.4,59.91687599967098,,,,,,,,,,,,,,,,,,,,,,,,,,,,
8,"The restaurant they chose to meet at was old and fancy with high ceilings, dark wood paneling, and crystal chandeliers.",1,1,,,,0,8,8,8,,,,,0,3,3,3,,,,,,,,,,,,,,,,,,,1,1.6344769749994157,,,,,,,,,022719_p1,1,2019_Feb_27_1214,body_behavioural,3.0.4,59.91687599967098,,,,,,,,,,,,,,,,,,,,,,,,,,,,
8,"The waitress led them to their table in the back, and they settled into a private table in the corner by the fireplace. ",2,1,,,,0,8,8,8,,,,,0,4,4,4,,,,,,,,,,,,,,,,,,,1,0.8049083400001109,,,,,,,,,022719_p1,1,2019_Feb_27_1214,body_behavioural,3.0.4,59.91687599967098,,,,,,,,,,,,,,,,,,,,,,,,,,,,
8,The waitress brought out the menus and they broke the ice with some small talk.,2,1,,,,0,8,8,8,,,,,0,5,5,5,,,,,,,,,,,,,,,,,,,None,,,,,,,,,,022719_p1,1,2019_Feb_27_1214,body_behavioural,3.0.4,59.91687599967098,,,,,,,,,,,,,,,,,,,,,,,,,,,,
8,,,,,,,0,8,8,8,,,,,,,,,,,,,,,,,,,,,,,,,,,,,,,,,,,,,022719_p1,1,2019_Feb_27_1214,body_behavioural,3.0.4,59.91687599967098,,,,,,,,,,,,,,,,,,,,,,,,,,,,
9,,,,,,,0,9,9,9,0,0,0,0,,,,,,,,,,,,,,,,,space,1.871603960000357,None,,space,1.3053146550009842,,,,,,,,,,,022719_p1,1,2019_Feb_27_1214,body_behavioural,3.0.4,59.91687599967098,,,,,,,,,,,,,,,,,,,,,,,,,,,,
9,The grocery store was not the place Emmanuella and Liam wanted to be at the moment considering they had been fighting beforehand to the point where Emmanuella was thinking of breaking up with Liam.,1,1,,,,0,9,9,9,,,,,0,0,0,0,,,,,,,,,,,,,,,,,,,None,,,,,,,,,,022719_p1,1,2019_Feb_27_1214,body_behavioural,3.0.4,59.91687599967098,,,,,,,,,,,,,,,,,,,,,,,,,,,,
9,,,,,,,0,9,9,9,,,,,,,,,,,,,,,,,,,,,,,,,,,,,,,,,,,,,022719_p1,1,2019_Feb_27_1214,body_behavioural,3.0.4,59.91687599967098,,,,,,,,,,,,,,,,,,,,,,,,,,,,
,,,,,,,,,,,,,,,,,,,,,,,,,,,,,,,,,,,,,,,1345.0716602850007,space,4.071753845000785,,,,,,022719_p1,1,2019_Feb_27_1214,body_behavioural,3.0.4,59.91687599967098,,,,,,,,,,,,,,,,,,,,,,,,,,,,
,,,,,,The next task in the experiment is to recall each story to the best of your ability.,,,,,,,,,,,,,0,0,0,0,,,,,,,,,,,,,,,,,,,,space,2.0718598600033147,,,,022719_p1,1,2019_Feb_27_1214,body_behavioural,3.0.4,59.91687599967098,,,,,,,,,,,,,,,,,,,,,,,,,,,,
,,,,,,"You will be presented with the story title, names, the images, and a blank text box for each story.",,,,,,,,,,,,,0,1,1,1,,,,,,,,,,,,,,,,,,,,space,2.621618925000803,,,,022719_p1,1,2019_Feb_27_1214,body_behavioural,3.0.4,59.91687599967098,,,,,,,,,,,,,,,,,,,,,,,,,,,,
,,,,,,Describe the story with as many details as you can remember in the space provided. ,,,,,,,,,,,,,0,2,2,2,,,,,,,,,,,,,,,,,,,,space,1.6549380749966076,,,,022719_p1,1,2019_Feb_27_1214,body_behavioural,3.0.4,59.91687599967098,,,,,,,,,,,,,,,,,,,,,,,,,,,,
,,,,,,"When you are finished recalling one story, to move onto the next one hit ‘return’. ",,,,,,,,,,,,,0,3,3,3,,,,,,,,,,,,,,,,,,,,space,1.571620279999479,,,,022719_p1,1,2019_Feb_27_1214,body_behavioural,3.0.4,59.91687599967098,,,,,,,,,,,,,,,,,,,,,,,,,,,,
,,,,,,There is a 5 minute time limit to make your response.,,,,,,,,,,,,,0,4,4,4,,,,,,,,,,,,,,,,,,,,space,1.0885307049975381,,,,022719_p1,1,2019_Feb_27_1214,body_behavioural,3.0.4,59.91687599967098,,,,,,,,,,,,,,,,,,,,,,,,,,,,
0,,,,,,,,,,,,,,,,,,,,,,,0,0,0,0,,,,,,,,,,,,,,,,,,space,0.5510280149974278,"Two business women are in a grocery store conducting a business meeting, and walk over to the parmesean cheese section to negotiate terms on one buying $3000 worth of product from the other. as the go into the line to finalize their terms, they then leave the grocery store afterwards.",022719_p1,1,2019_Feb_27_1214,body_behavioural,3.0.4,59.91687599967098,,,,,,,,,,,,,,,,,,,,,,,,,,,,
1,,,,,,,,,,,,,,,,,,,,,,,0,1,1,1,,,,,,,,,,,,,,,,,,space,1.1018035000015516,Two men negotiate a business deal in the airport. they discuss the terms in the security line and as they walk through the crowd of people in the airport terminal. afterwards one of them celebrates his success of the deal when he gets seated on the plane.,022719_p1,1,2019_Feb_27_1214,body_behavioural,3.0.4,59.91687599967098,,,,,,,,,,,,,,,,,,,,,,,,,,,,
2,,,,,,,,,,,,,,,,,,,,,,,0,2,2,2,,,,,,,,,,,,,,,,,,space,0.6382315349983401,"Teresa walks into a door, james finds it endearing, and the waiter gets them a table together. teresa explains how she was stung by a scorpion on the forehead, and that is what is causing her to constantly bump into things. she orders milk and some sort of food, and he gets chocolate chip pancakes and coffee, where the chef confused the sugar with salt so the pancakes taste pretty gross. he also invites her to a concert and so they have a date set up for that evening before they part ways.",022719_p1,1,2019_Feb_27_1214,body_behavioural,3.0.4,59.91687599967098,,,,,,,,,,,,,,,,,,,,,,,,,,,,
3,,,,,,,,,,,,,,,,,,,,,,,0,3,3,3,,,,,,,,,,,,,,,,,,space,0.5048216600007436,"Alex is planning to propose to chloe, and as she is buying cranberry sauce at the grocery store with him since its thanksgiving, he is about to propose but decides not to. she is aware of how nervous he is acting, but does not know why. once in the line, he proposes as his friends start to walk over to get a better look. she says yes, the customers allow her to cut to the front of the line. the sauce was $4, and the ring had 3 big diamonds with smaller ones around it",022719_p1,1,2019_Feb_27_1214,body_behavioural,3.0.4,59.91687599967098,,,,,,,,,,,,,,,,,,,,,,,,,,,,
4,,,,,,,,,,,,,,,,,,,,,,,0,4,4,4,,,,,,,,,,,,,,,,,,space,0.33435065999947255,"Whilst in a lecture about aristotle's the categories, maria tells henry that she wants to break up with him, since she cannot do a long distance relationship. henry and her both stare at the lecture for a bit. he starts to cry a bit, then starts to say how he thinks they can do a long distance relationship. maria, feeling guilty, almost gives in but stands her ground and says that they have to break up. class ends and the hug and cry together outside. backslash",022719_p1,1,2019_Feb_27_1214,body_behavioural,3.0.4,59.91687599967098,,,,,,,,,,,,,,,,,,,,,,,,,,,,
5,,,,,,,,,,,,,,,,,,,,,,,0,5,5,5,,,,,,,,,,,,,,,,,,space,1.0548140899991267,"Sven and isabel are in the airport leaving spain after a trip. he got permission from her parents to marry her, and is very excited. he has the diamond ring in his pocket. as they get through airport security, isabel takes her laptop out of her bag and puts it in the tray. sven is so excited he doesnt realize the ring will go off on the metal detector, and as he is asked by the security officer to step aside, he suddenly proposes to isabel. she runs towards the gate, and then dramatically accepts his proposal.",022719_p1,1,2019_Feb_27_1214,body_behavioural,3.0.4,59.91687599967098,,,,,,,,,,,,,,,,,,,,,,,,,,,,
6,,,,,,,,,,,,,,,,,,,,,,,0,6,6,6,,,,,,,,,,,,,,,,,,space,0.4566853700016509,,022719_p1,1,2019_Feb_27_1214,body_behavioural,3.0.4,59.91687599967098,,,,,,,,,,,,,,,,,,,,,,,,,,,,
6,,,,,,,,,,,,,,,,,,,,,0,6,6,6,,,,,,,,,,,,,,,,,,,,,,,,,,,,space,3.1858676049996575,"Leon and ariana were both in an egyptian culture class on mummification when he noticed her in the small classroom in the basement of a building. he thought he recognized her, so he passed her a note. she said that unless she has a twin, he definitely has not seen her before. she likes how he has soft eyes and sharp features, as she finds that trustworthy for some reason. they flirt the whole class through passing notes. he asks her out to dinner, and she says yes and to pick her up outside her residence hall at  6 pm. they have a quiz on friday",,,,,,,,,,,,,,,,,,,,022719_p1,1,2019_Feb_27_1252,body_behavioural,3.0.4,60.16972616205141,
7,,,,,,,,,,,,,,,,,,,,,0,7,7,7,,,,,,,,,,,,,,,,,,,,,,,,,,,,space,0.7508907619994716,"Thomas wants to break up with sadie at the diner where they are meeting. she seems to be very interested in him still, as she is very affectionate to him but he does not reciprocate. they sit in a booth in the back, and as she holds his hand he pulls away and says how he wants to break up with her and focus on finding a new career. she begins to cry, and then eventually storms out, with her heels banging against the linoleum floor. throughout their conversation the waiter seemed to have no clue what was going on and just acting normal. he got a burger with no tomatoes and she got the reuben, but never ate it. he ate some of the burger after she left and described it as fishy. ",,,,,,,,,,,,,,,,,,,,022719_p1,1,2019_Feb_27_1252,body_behavioural,3.0.4,60.16972616205141,
,,,,,,,,,,,,,,,,,,,,,,,,,,,,,,,,,,,,,,,,,,,,,,,,,,,,,,,271.0844671550003,space,8.920305851999728,,,,,,,,,,,,,,,,,022719_p1,1,2019_Feb_27_1252,body_behavioural,3.0.4,60.16972616205141,
,,,,The next part of the task is to answer 8 questions about each story.,,,,,,,,,,,,,,,,,,,,,0,0,0,0,,,,,,,,,,,,,,,,,,,,,,,,,,,,,,space,2.2366200820033555,,,,,,,,,,,,,,,022719_p1,1,2019_Feb_27_1252,body_behavioural,3.0.4,60.16972616205141,
,,,,Some of the questions are not related to the perspective you were asked to assume.,,,,,,,,,,,,,,,,,,,,,0,1,1,1,,,,,,,,,,,,,,,,,,,,,,,,,,,,,,space,1.3529427949979436,,,,,,,,,,,,,,,022719_p1,1,2019_Feb_27_1252,body_behavioural,3.0.4,60.16972616205141,
,,,,"We realize that we did not tell you to think of these questions during the story, but do your best to answer them.",,,,,,,,,,,,,,,,,,,,,0,2,2,2,,,,,,,,,,,,,,,,,,,,,,,,,,,,,,space,1.4341648599984183,,,,,,,,,,,,,,,022719_p1,1,2019_Feb_27_1252,body_behavioural,3.0.4,60.16972616205141,
,,,,"When you have finished typing your answer, hit ‘return’ to submit your answer and move onto the next question. ",,,,,,,,,,,,,,,,,,,,,0,3,3,3,,,,,,,,,,,,,,,,,,,,,,,,,,,,,,space,1.3194670800003223,,,,,,,,,,,,,,,022719_p1,1,2019_Feb_27_1252,body_behavioural,3.0.4,60.16972616205141,
0,,,,,,,,,,,,,,,,,,,,,,,,,,,,,0,0,0,0,,,,,,,,,,,,,,,,,,,,,,They use card,,,,,,space,0.7840307549995487,Cheese production,primed first,3000 dollars,Acceptance,The buyer buys product from the seller,"Fine, nothing abnormal",Parmesean cheese,Not long for both,They use card,,,,022719_p1,1,2019_Feb_27_1252,body_behavioural,3.0.4,60.16972616205141,
1,,,,,,,,,,,,,,,,,,,,,,,,,,,,,0,1,1,1,,,,,,,,,,,,,,,,,,,,,,First class,,,,,,space,0.6361577679999755,Airline parts,non-primed first,Do not know,Acceptance,Do not know, a few hours,Take off their shoes,"Still negotiating, but fine",First class,,,,022719_p1,1,2019_Feb_27_1252,body_behavioural,3.0.4,60.16972616205141,
