count,storyText,locationEvent,socialEvent,instructText,trials.thisRepN,trials.thisTrialN,trials.thisN,trials.thisIndex,trials_7.thisRepN,trials_7.thisTrialN,trials_7.thisN,trials_7.thisIndex,trials_2.thisRepN,trials_2.thisTrialN,trials_2.thisN,trials_2.thisIndex,trials_3.thisRepN,trials_3.thisTrialN,trials_3.thisN,trials_3.thisIndex,trials_4.thisRepN,trials_4.thisTrialN,trials_4.thisN,trials_4.thisIndex,trials_5.thisRepN,trials_5.thisTrialN,trials_5.thisN,trials_5.thisIndex,trials_6.thisRepN,trials_6.thisTrialN,trials_6.thisN,trials_6.thisIndex,trials_8.thisRepN,trials_8.thisTrialN,trials_8.thisN,trials_8.thisIndex,order of stories,order of perspectives,participant 2 order - stories,participant 2 order  - schemas types,key_resp_8.keys,key_resp_8.rt,key_resp_5.keys,key_resp_5.rt,key_resp_7.keys,key_resp_7.rt,story_presses.keys,story_presses.rt,story time,key_resp_6.keys,key_resp_6.rt,key_resp_2.keys,key_resp_2.rt,key_resp_10.keys,key_resp_10.rt,recall,recall time,key_resp_12.keys,key_resp_12.rt,key_resp_3.keys,key_resp_3.rt,key_resp_11.keys,key_resp_11.rt,question1_answer,order of question,question2_answer,question3_answer,question4_answer,question5_answer,question6_answer,question7_answer,question8_answer,questions time,key_resp_13.keys,key_resp_13.rt,participant,session,date,expName,psychopyVersion,frameRate,
0,,,,,0,0,0,0,0,0,0,0,,,,,,,,,,,,,,,,,,,,,,,,,[12 44 23 34 31 13 22 41 43 33 42 11 14 21 32 24],"['Social' 'Location' 'Social' 'Social' 'Location' 'Location' 'Location'
 'Social' 'Social' 'Location' 'Location' 'Location' 'Social' 'Social'
 'Social' 'Location']",[43 33 42 11 14 21 32 24],"['Social' 'Location' 'Location' 'Location' 'Social' 'Social' 'Social'
 'Location']",space,38.72446504000072,space,4.386885084999449,space,4.11998780200156,,,,,,,,,,,,,,,,,,,,,,,,,,,,,,022819_p2,001,2019_Feb_28_1156,body_behavioural,3.0.4,60.014692197364724,
0,,,,,0,0,0,0,1,0,1,0,,,,,,,,,,,,,,,,,,,,,,,,,,,,,,,,,space,0.819821380000576,,,,,,,,,,,,,,,,,,,,,,,,,,,,,,022819_p2,001,2019_Feb_28_1156,body_behavioural,3.0.4,60.014692197364724,
0,,,,,0,0,0,0,2,0,2,0,,,,,,,,,,,,,,,,,,,,,,,,,,,,,,,,,space,0.40310783499990066,,,,,,,,,,,,,,,,,,,,,,,,,,,,,,022819_p2,001,2019_Feb_28_1156,body_behavioural,3.0.4,60.014692197364724,
0,,,,,0,0,0,0,3,0,3,0,,,,,,,,,,,,,,,,,,,,,,,,,,,,,,,,,space,0.4863188419985818,,,,,,,,,,,,,,,,,,,,,,,,,,,,,,022819_p2,001,2019_Feb_28_1156,body_behavioural,3.0.4,60.014692197364724,
0,,,,,0,0,0,0,4,0,4,0,,,,,,,,,,,,,,,,,,,,,,,,,,,,,,,,,space,0.43601556999965396,,,,,,,,,,,,,,,,,,,,,,,,,,,,,,022819_p2,001,2019_Feb_28_1156,body_behavioural,3.0.4,60.014692197364724,
0,,,,,0,0,0,0,5,0,5,0,,,,,,,,,,,,,,,,,,,,,,,,,,,,,,,,,space,0.3695940100005828,,,,,,,,,,,,,,,,,,,,,,,,,,,,,,022819_p2,001,2019_Feb_28_1156,body_behavioural,3.0.4,60.014692197364724,
0,"It didn’t help the situation that Calvin and Jessie were running late to the airport, since Jessie had already been fuming at Calvin and preparing to end things with him.",1,1,,0,0,0,0,,,,,0,0,0,0,,,,,,,,,,,,,,,,,,,,,,,,,,,,,,,1,20.387881726999694,,,,,,,,,,,,,,,,,,,,,,,,,,,,022819_p2,001,2019_Feb_28_1156,body_behavioural,3.0.4,60.014692197364724,
0,"Upon arriving, they had only 45 minutes until their international flight would depart from Jamaica for the US.",1,1,,0,0,0,0,,,,,0,1,1,1,,,,,,,,,,,,,,,,,,,,,,,,,,,,,,,1,11.087144318000355,,,,,,,,,,,,,,,,,,,,,,,,,,,,022819_p2,001,2019_Feb_28_1156,body_behavioural,3.0.4,60.014692197364724,
0,It had been a tough vacation for them.,1,1,,0,0,0,0,,,,,0,2,2,2,,,,,,,,,,,,,,,,,,,,,,,,,,,,,,,9,8.084503334999681,,,,,,,,,,,,,,,,,,,,,,,,,,,,022819_p2,001,2019_Feb_28_1156,body_behavioural,3.0.4,60.014692197364724,
0,"Jessie had really had it with Calvin’s constant ramblings about the same excruciatingly boring golfing and work stories, which he insisted on repeating to her regardless of how little interest she showed.",1,1,,0,0,0,0,,,,,0,3,3,3,,,,,,,,,,,,,,,,,,,,,,,,,,,,,,,1,10.020126421000896,,,,,,,,,,,,,,,,,,,,,,,,,,,,022819_p2,001,2019_Feb_28_1156,body_behavioural,3.0.4,60.014692197364724,
0,"Calvin knew that Jessie was upset, but wasn't sure what to do besides attempting to carry on as normal and tell stories that took up the silence. ",1,1,,0,0,0,0,,,,,0,4,4,4,,,,,,,,,,,,,,,,,,,,,,,,,,,,,,,9,11.920533059999798,,,,,,,,,,,,,,,,,,,,,,,,,,,,022819_p2,001,2019_Feb_28_1156,body_behavioural,3.0.4,60.014692197364724,
0,"The security line was luckily very short, and once the online boarding passes were scanned they were ushered quickly through the metal detector, not having to take off their shoes or remove the liquids from their bags.",2,1,,0,0,0,0,,,,,0,5,5,5,,,,,,,,,,,,,,,,,,,,,,,,,,,,,,,9,14.887019612000586,,,,,,,,,,,,,,,,,,,,,,,,,,,,022819_p2,001,2019_Feb_28_1156,body_behavioural,3.0.4,60.014692197364724,
0,"“The infrastructure of this airport is really quite poor," said Calvin as they waited for their bags to emerge from the x-ray machine.",2,1,,0,0,0,0,,,,,0,6,6,6,,,,,,,,,,,,,,,,,,,,,,,,,,,,,,,1,9.001392112000758,,,,,,,,,,,,,,,,,,,,,,,,,,,,022819_p2,001,2019_Feb_28_1156,body_behavioural,3.0.4,60.014692197364724,
0,“I really could've hidden something in my shoes quite easily.” ,2,1,,0,0,0,0,,,,,0,7,7,7,,,,,,,,,,,,,,,,,,,,,,,,,,,,,,,1,4.436740350000036,,,,,,,,,,,,,,,,,,,,,,,,,,,,022819_p2,001,2019_Feb_28_1156,body_behavioural,3.0.4,60.014692197364724,
0,"Jessie, exasperated at his need to broadcast his every inner thought, scowled at the conveyor belt.",2,1,,0,0,0,0,,,,,0,8,8,8,,,,,,,,,,,,,,,,,,,,,,,,,,,,,,,9,9.536960216999432,,,,,,,,,,,,,,,,,,,,,,,,,,,,022819_p2,001,2019_Feb_28_1156,body_behavioural,3.0.4,60.014692197364724,
0,"“What?”, he asked.",2,1,,0,0,0,0,,,,,0,9,9,9,,,,,,,,,,,,,,,,,,,,,,,,,,,,,,,1,1.8197352099996351,,,,,,,,,,,,,,,,,,,,,,,,,,,,022819_p2,001,2019_Feb_28_1156,body_behavioural,3.0.4,60.014692197364724,
0,She balled up her fists and turned to face him.,2,1,,0,0,0,0,,,,,0,10,10,10,,,,,,,,,,,,,,,,,,,,,,,,,,,,,,,1,3.119841326999449,,,,,,,,,,,,,,,,,,,,,,,,,,,,022819_p2,001,2019_Feb_28_1156,body_behavioural,3.0.4,60.014692197364724,
0,"“Calvin, I really don’t think I can do this anymore.",2,2,,0,0,0,0,,,,,0,11,11,11,,,,,,,,,,,,,,,,,,,,,,,,,,,,,,,1,2.703102105000653,,,,,,,,,,,,,,,,,,,,,,,,,,,,022819_p2,001,2019_Feb_28_1156,body_behavioural,3.0.4,60.014692197364724,
0,I think it’s best that once we get to the States we part ways for good.” ,2,2,,0,0,0,0,,,,,0,12,12,12,,,,,,,,,,,,,,,,,,,,,,,,,,,,,,,9,12.487286598001447,,,,,,,,,,,,,,,,,,,,,,,,,,,,022819_p2,001,2019_Feb_28_1156,body_behavioural,3.0.4,60.014692197364724,
0,Calvin said nothing as he grabbed his bag and quickly walked away.,2,2,,0,0,0,0,,,,,0,13,13,13,,,,,,,,,,,,,,,,,,,,,,,,,,,,,,,1,3.2697954420000315,,,,,,,,,,,,,,,,,,,,,,,,,,,,022819_p2,001,2019_Feb_28_1156,body_behavioural,3.0.4,60.014692197364724,
0,"Jessie trailed behind him as they made their way quickly toward their gate, shouting at his back in hopes of getting a response.",3,2,,0,0,0,0,,,,,0,14,14,14,,,,,,,,,,,,,,,,,,,,,,,,,,,,,,,9,8.786612242000047,,,,,,,,,,,,,,,,,,,,,,,,,,,,022819_p2,001,2019_Feb_28_1156,body_behavioural,3.0.4,60.014692197364724,
0,“So now you have nothing to say?,3,2,,0,0,0,0,,,,,0,15,15,15,,,,,,,,,,,,,,,,,,,,,,,,,,,,,,,1,1.6863639349994628,,,,,,,,,,,,,,,,,,,,,,,,,,,,022819_p2,001,2019_Feb_28_1156,body_behavioural,3.0.4,60.014692197364724,
0,"Every time we talk, you are just looking for a way to steer the conversation back into your stories.”",3,2,,0,0,0,0,,,,,0,16,16,16,,,,,,,,,,,,,,,,,,,,,,,,,,,,,,,9,26.654726984999797,,,,,,,,,,,,,,,,,,,,,,,,,,,,022819_p2,001,2019_Feb_28_1156,body_behavioural,3.0.4,60.014692197364724,
0,"Calvin didn't slow his pace, gritting his teeth and staring straight ahead. ",3,2,,0,0,0,0,,,,,0,17,17,17,,,,,,,,,,,,,,,,,,,,,,,,,,,,,,,1,4.986889438001526,,,,,,,,,,,,,,,,,,,,,,,,,,,,022819_p2,001,2019_Feb_28_1156,body_behavioural,3.0.4,60.014692197364724,
0,He was very frustrated that he had been trying to appease Jessie this whole time and this was how she responded. ,3,2,,0,0,0,0,,,,,0,18,18,18,,,,,,,,,,,,,,,,,,,,,,,,,,,,,,,9,5.769922799998312,,,,,,,,,,,,,,,,,,,,,,,,,,,,022819_p2,001,2019_Feb_28_1156,body_behavioural,3.0.4,60.014692197364724,
0,The silence was punctuated only by the rapid rhythmic clacking of their suitcase wheels over the tile floor as they continued power-walking through the terminal. ,3,2,,0,0,0,0,,,,,0,19,19,19,,,,,,,,,,,,,,,,,,,,,,,,,,,,,,,1,5.870089314999859,,,,,,,,,,,,,,,,,,,,,,,,,,,,022819_p2,001,2019_Feb_28_1156,body_behavioural,3.0.4,60.014692197364724,
0,"“Well?” Jessie said, and Calvin finally turned to her.",3,2,,0,0,0,0,,,,,0,20,20,20,,,,,,,,,,,,,,,,,,,,,,,,,,,,,,,1,10.434769714998765,,,,,,,,,,,,,,,,,,,,,,,,,,,,022819_p2,001,2019_Feb_28_1156,body_behavioural,3.0.4,60.014692197364724,
0,"“Well, Jessie, this makes perfect sense. ",3,3,,0,0,0,0,,,,,0,21,21,21,,,,,,,,,,,,,,,,,,,,,,,,,,,,,,,9,2.9174644899994746,,,,,,,,,,,,,,,,,,,,,,,,,,,,022819_p2,001,2019_Feb_28_1156,body_behavioural,3.0.4,60.014692197364724,
0,"If you feel this way, then I don’t want to keep boring you, and I agree, let’s part ways once we make it back.",3,3,,0,0,0,0,,,,,0,22,22,22,,,,,,,,,,,,,,,,,,,,,,,,,,,,,,,1,3.336414176999824,,,,,,,,,,,,,,,,,,,,,,,,,,,,022819_p2,001,2019_Feb_28_1156,body_behavioural,3.0.4,60.014692197364724,
0,You should’ve spoken up about my apparent intolerability before you decided to plan this vacation.”,3,3,,0,0,0,0,,,,,0,23,23,23,,,,,,,,,,,,,,,,,,,,,,,,,,,,,,,1,4.85345630700067,,,,,,,,,,,,,,,,,,,,,,,,,,,,022819_p2,001,2019_Feb_28_1156,body_behavioural,3.0.4,60.014692197364724,
0,"He was clearly hurt, but thought it was pointless to argue. ",3,3,,0,0,0,0,,,,,0,24,24,24,,,,,,,,,,,,,,,,,,,,,,,,,,,,,,,1,5.867761557001359,,,,,,,,,,,,,,,,,,,,,,,,,,,,022819_p2,001,2019_Feb_28_1156,body_behavioural,3.0.4,60.014692197364724,
0,"They finally made it to the gate, just as they heard the final call for passengers boarding their flight.",3,3,,0,0,0,0,,,,,0,25,25,25,,,,,,,,,,,,,,,,,,,,,,,,,,,,,,,9,5.834294666999995,,,,,,,,,,,,,,,,,,,,,,,,,,,,022819_p2,001,2019_Feb_28_1156,body_behavioural,3.0.4,60.014692197364724,
0,"They scanned their tickets, and the annoyed flight attendant shooed them onto the jet bridge and then closed the door behind them.",4,3,,0,0,0,0,,,,,0,26,26,26,,,,,,,,,,,,,,,,,,,,,,,,,,,,,,,1,3.9176030200014793,,,,,,,,,,,,,,,,,,,,,,,,,,,,022819_p2,001,2019_Feb_28_1156,body_behavioural,3.0.4,60.014692197364724,
0,"Luckily, they had forgotten to arrange seats next to each other on the flight back.",4,3,,0,0,0,0,,,,,0,27,27,27,,,,,,,,,,,,,,,,,,,,,,,,,,,,,,,1,4.019958856999438,,,,,,,,,,,,,,,,,,,,,,,,,,,,022819_p2,001,2019_Feb_28_1156,body_behavioural,3.0.4,60.014692197364724,
0,"They both had first-class tickets, but Jessie was headed for seat 1B while Calvin's seat was 4F. ",4,3,,0,0,0,0,,,,,0,28,28,28,,,,,,,,,,,,,,,,,,,,,,,,,,,,,,,1,7.236479967001287,,,,,,,,,,,,,,,,,,,,,,,,,,,,022819_p2,001,2019_Feb_28_1156,body_behavioural,3.0.4,60.014692197364724,
0,"Before Jessie sat down, she took a deep breath and then awkwardly shook Calvin’s hand, mumbling, “Well, have a nice flight.” ",4,4,,0,0,0,0,,,,,0,29,29,29,,,,,,,,,,,,,,,,,,,,,,,,,,,,,,,1,9.370610016998398,,,,,,,,,,,,,,,,,,,,,,,,,,,,022819_p2,001,2019_Feb_28_1156,body_behavioural,3.0.4,60.014692197364724,
0,He laughed in disbelief and walked to his window seat three rows back to get ready for takeoff.,4,4,,0,0,0,0,,,,,0,30,30,30,,,,,,,,,,,,,,,,,,,,,,,,,,,,,,,1,3.551608794999993,,,,,,,,,,,,,,,,,,,,,,,,,,,,022819_p2,001,2019_Feb_28_1156,body_behavioural,3.0.4,60.014692197364724,
0,Both were upset but glad that they would have this flight to mull things over and recenter. ,4,4,,0,0,0,0,,,,,0,31,31,31,,,,,,,,,,,,,,,,,,,,,,,,,,,,,,,9,4.1537134679983865,,,,,,,,,,,,,,,,,,,,,,,,,,,,022819_p2,001,2019_Feb_28_1156,body_behavioural,3.0.4,60.014692197364724,
0,,,,,0,0,0,0,,,,,,,,,,,,,,,,,,,,,,,,,,,,,,,,,,,,,,,,,,,,,,,,,,,,,,,,,,,,,,,,,,,,022819_p2,001,2019_Feb_28_1156,body_behavioural,3.0.4,60.014692197364724,
1,,,,,0,1,1,1,0,0,0,0,,,,,,,,,,,,,,,,,,,,,,,,,,,,,space,5.570049601999926,space,1.3196338469988405,space,1.8194093799993425,,,,,,,,,,,,,,,,,,,,,,,,,,,,,,022819_p2,001,2019_Feb_28_1156,body_behavioural,3.0.4,60.014692197364724,
1,"Leon and  Ariana hurried into the classroom at the same time, and Leon did a double-take when he saw her. ",1,1,,0,1,1,1,,,,,0,0,0,0,,,,,,,,,,,,,,,,,,,,,,,,,,,,,,,1,23.087475647000247,,,,,,,,,,,,,,,,,,,,,,,,,,,,022819_p2,001,2019_Feb_28_1156,body_behavioural,3.0.4,60.014692197364724,
1,"This was his first day after transferring to this university, and he had assumed that he wouldn’t know anyone on campus, but he couldn't shake the nagging feeling  that he had seen her somewhere before. ",1,1,,0,1,1,1,,,,,0,1,1,1,,,,,,,,,,,,,,,,,,,,,,,,,,,,,,,1,8.086966810000376,,,,,,,,,,,,,,,,,,,,,,,,,,,,022819_p2,001,2019_Feb_28_1156,body_behavioural,3.0.4,60.014692197364724,
1,"They were both a bit late, so they quickly slid into seats next to each other in the back of the small classroom.",1,1,,0,1,1,1,,,,,0,2,2,2,,,,,,,,,,,,,,,,,,,,,,,,,,,,,,,9,5.586669137001081,,,,,,,,,,,,,,,,,,,,,,,,,,,,022819_p2,001,2019_Feb_28_1156,body_behavioural,3.0.4,60.014692197364724,
1,"This room was usually used for small meetings, but had been rearranged with the table pushed to the side and chairs set up in rows to face the projector screen. ",1,1,,0,1,1,1,,,,,0,3,3,3,,,,,,,,,,,,,,,,,,,,,,,,,,,,,,,1,7.169907782999871,,,,,,,,,,,,,,,,,,,,,,,,,,,,022819_p2,001,2019_Feb_28_1156,body_behavioural,3.0.4,60.014692197364724,
1,"There were no windows in the room, since they were down in the sub-basement of the history department.",1,1,,0,1,1,1,,,,,0,4,4,4,,,,,,,,,,,,,,,,,,,,,,,,,,,,,,,1,10.184840690000783,,,,,,,,,,,,,,,,,,,,,,,,,,,,022819_p2,001,2019_Feb_28_1156,body_behavioural,3.0.4,60.014692197364724,
1,"Leon, trying to figure out where he had seen her before, could not stop looking over at Ariana.",1,1,,0,1,1,1,,,,,0,5,5,5,,,,,,,,,,,,,,,,,,,,,,,,,,,,,,,1,4.969984871999259,,,,,,,,,,,,,,,,,,,,,,,,,,,,022819_p2,001,2019_Feb_28_1156,body_behavioural,3.0.4,60.014692197364724,
1,Ariana was oblivious to Leon’s gaze and was only focused on getting ready for class. ,1,1,,0,1,1,1,,,,,0,6,6,6,,,,,,,,,,,,,,,,,,,,,,,,,,,,,,,1,3.7199832950009295,,,,,,,,,,,,,,,,,,,,,,,,,,,,022819_p2,001,2019_Feb_28_1156,body_behavioural,3.0.4,60.014692197364724,
1,"“Good afternoon class,” the professor began.",2,1,,0,1,1,1,,,,,0,7,7,7,,,,,,,,,,,,,,,,,,,,,,,,,,,,,,,9,4.636598650000451,,,,,,,,,,,,,,,,,,,,,,,,,,,,022819_p2,001,2019_Feb_28_1156,body_behavioural,3.0.4,60.014692197364724,
1,“Welcome to Egyptian Cultural Studies. ,2,1,,0,1,1,1,,,,,0,8,8,8,,,,,,,,,,,,,,,,,,,,,,,,,,,,,,,9,2.3696195970005647,,,,,,,,,,,,,,,,,,,,,,,,,,,,022819_p2,001,2019_Feb_28_1156,body_behavioural,3.0.4,60.014692197364724,
1,"Today we will be talking about mummification, one of the most famous and often misunderstood customs in ancient Egyptian society.”",2,1,,0,1,1,1,,,,,0,9,9,9,,,,,,,,,,,,,,,,,,,,,,,,,,,,,,,1,3.169820282000728,,,,,,,,,,,,,,,,,,,,,,,,,,,,022819_p2,001,2019_Feb_28_1156,body_behavioural,3.0.4,60.014692197364724,
1,Leon pulled out his notebook and tried to concentrate on the class.,2,1,,0,1,1,1,,,,,0,10,10,10,,,,,,,,,,,,,,,,,,,,,,,,,,,,,,,1,5.169670680001218,,,,,,,,,,,,,,,,,,,,,,,,,,,,022819_p2,001,2019_Feb_28_1156,body_behavioural,3.0.4,60.014692197364724,
1,Within a few minutes though he found his attention wandering back to Ariana.,2,1,,0,1,1,1,,,,,0,11,11,11,,,,,,,,,,,,,,,,,,,,,,,,,,,,,,,1,6.020143416999417,,,,,,,,,,,,,,,,,,,,,,,,,,,,022819_p2,001,2019_Feb_28_1156,body_behavioural,3.0.4,60.014692197364724,
1,"He decided to do something about his hunch so he ripped off a corner of a page in his notebook, wrote a note, and set it on her desk.",2,1,,0,1,1,1,,,,,0,12,12,12,,,,,,,,,,,,,,,,,,,,,,,,,,,,,,,1,9.270508447998509,,,,,,,,,,,,,,,,,,,,,,,,,,,,022819_p2,001,2019_Feb_28_1156,body_behavioural,3.0.4,60.014692197364724,
1,"“Hi, sorry to distract you from mummies, but you look really familiar," it read.",2,2,,0,1,1,1,,,,,0,13,13,13,,,,,,,,,,,,,,,,,,,,,,,,,,,,,,,1,3.2365166670006147,,,,,,,,,,,,,,,,,,,,,,,,,,,,022819_p2,001,2019_Feb_28_1156,body_behavioural,3.0.4,60.014692197364724,
1,It continued: “Do I know you from somewhere?”,2,2,,0,1,1,1,,,,,0,14,14,14,,,,,,,,,,,,,,,,,,,,,,,,,,,,,,,1,2.7863891050001257,,,,,,,,,,,,,,,,,,,,,,,,,,,,022819_p2,001,2019_Feb_28_1156,body_behavioural,3.0.4,60.014692197364724,
1,"She looked at the note with surprise, and then turned to notice Leon for the first time. ",2,2,,0,1,1,1,,,,,0,15,15,15,,,,,,,,,,,,,,,,,,,,,,,,,,,,,,,1,2.352762256999995,,,,,,,,,,,,,,,,,,,,,,,,,,,,022819_p2,001,2019_Feb_28_1156,body_behavioural,3.0.4,60.014692197364724,
1,"She instantly liked him when she saw him; he had very soft eyes and sharp features, a combination that made him seem  trustworthy and genuine.",2,2,,0,1,1,1,,,,,0,16,16,16,,,,,,,,,,,,,,,,,,,,,,,,,,,,,,,1,5.003152404999128,,,,,,,,,,,,,,,,,,,,,,,,,,,,022819_p2,001,2019_Feb_28_1156,body_behavioural,3.0.4,60.014692197364724,
1,He smiled at her and she flashed him a smile back.,2,2,,0,1,1,1,,,,,0,17,17,17,,,,,,,,,,,,,,,,,,,,,,,,,,,,,,,1,2.9508073850010987,,,,,,,,,,,,,,,,,,,,,,,,,,,,022819_p2,001,2019_Feb_28_1156,body_behavioural,3.0.4,60.014692197364724,
1,Then she turned the note over to the back and started to write a reply.,2,2,,0,1,1,1,,,,,0,18,18,18,,,,,,,,,,,,,,,,,,,,,,,,,,,,,,,1,2.486154906999218,,,,,,,,,,,,,,,,,,,,,,,,,,,,022819_p2,001,2019_Feb_28_1156,body_behavioural,3.0.4,60.014692197364724,
1,"Meanwhile the professor continued, “One may well question why the ancient Egyptians spent so much time and effort on their funerary practices.",3,2,,0,1,1,1,,,,,0,19,19,19,,,,,,,,,,,,,,,,,,,,,,,,,,,,,,,1,7.984546551999301,,,,,,,,,,,,,,,,,,,,,,,,,,,,022819_p2,001,2019_Feb_28_1156,body_behavioural,3.0.4,60.014692197364724,
1,"Not only was the mummification process itself a complicated affair, but there were also elaborate rituals before, during, and after death.",3,2,,0,1,1,1,,,,,0,20,20,20,,,,,,,,,,,,,,,,,,,,,,,,,,,,,,,9,4.336602074999973,,,,,,,,,,,,,,,,,,,,,,,,,,,,022819_p2,001,2019_Feb_28_1156,body_behavioural,3.0.4,60.014692197364724,
1,The practice required teams of experts with years of training and took a total of 70 days to complete.” ,3,2,,0,1,1,1,,,,,0,21,21,21,,,,,,,,,,,,,,,,,,,,,,,,,,,,,,,1,3.8532416000016383,,,,,,,,,,,,,,,,,,,,,,,,,,,,022819_p2,001,2019_Feb_28_1156,body_behavioural,3.0.4,60.014692197364724,
1,"Ariana passed the note back to Leon, and she had replied, “No, but maybe my twin and I were separated at birth.”",3,2,,0,1,1,1,,,,,0,22,22,22,,,,,,,,,,,,,,,,,,,,,,,,,,,,,,,9,11.870467984999777,,,,,,,,,,,,,,,,,,,,,,,,,,,,022819_p2,001,2019_Feb_28_1156,body_behavioural,3.0.4,60.014692197364724,
1,They passed notes back and forth the whole class like they were back in high school.,3,2,,0,1,1,1,,,,,0,23,23,23,,,,,,,,,,,,,,,,,,,,,,,,,,,,,,,1,1.4866236569996545,,,,,,,,,,,,,,,,,,,,,,,,,,,,022819_p2,001,2019_Feb_28_1156,body_behavioural,3.0.4,60.014692197364724,
1,"Near the end of the lecture, Leon wrote, “Would you like to go to dinner tonight?” ",3,3,,0,1,1,1,,,,,0,24,24,24,,,,,,,,,,,,,,,,,,,,,,,,,,,,,,,1,2.336655535000318,,,,,,,,,,,,,,,,,,,,,,,,,,,,022819_p2,001,2019_Feb_28_1156,body_behavioural,3.0.4,60.014692197364724,
1,"Ariana read the note, and looked at him and nodded her head",3,3,,0,1,1,1,,,,,0,25,25,25,,,,,,,,,,,,,,,,,,,,,,,,,,,,,,,1,2.3197796600015863,,,,,,,,,,,,,,,,,,,,,,,,,,,,022819_p2,001,2019_Feb_28_1156,body_behavioural,3.0.4,60.014692197364724,
1,"She wrote back on the slip of paper, “Pick me up at 6 in front of Patton Hall.”",3,3,,0,1,1,1,,,,,0,26,26,26,,,,,,,,,,,,,,,,,,,,,,,,,,,,,,,1,6.184228090000033,,,,,,,,,,,,,,,,,,,,,,,,,,,,022819_p2,001,2019_Feb_28_1156,body_behavioural,3.0.4,60.014692197364724,
1,Then the professor ended the lecture and announced to the class that they would have their first quiz next class on Friday on mummification. ,4,3,,0,1,1,1,,,,,0,27,27,27,,,,,,,,,,,,,,,,,,,,,,,,,,,,,,,9,3.86991756200041,,,,,,,,,,,,,,,,,,,,,,,,,,,,022819_p2,001,2019_Feb_28_1156,body_behavioural,3.0.4,60.014692197364724,
1,"Everyone packed up and started heading out, as well as Sophie and Leon.",4,3,,0,1,1,1,,,,,0,28,28,28,,,,,,,,,,,,,,,,,,,,,,,,,,,,,,,1,2.5533321269995213,,,,,,,,,,,,,,,,,,,,,,,,,,,,022819_p2,001,2019_Feb_28_1156,body_behavioural,3.0.4,60.014692197364724,
1,"They approached each other smiling, and Leon said, “Well it was great to meet you, again, or maybe not again, but regardless it was great to meet you.” ",4,3,,0,1,1,1,,,,,0,29,29,29,,,,,,,,,,,,,,,,,,,,,,,,,,,,,,,1,8.153615771998375,,,,,,,,,,,,,,,,,,,,,,,,,,,,022819_p2,001,2019_Feb_28_1156,body_behavioural,3.0.4,60.014692197364724,
1,"She replied, “Yes, it was.",4,4,,0,1,1,1,,,,,0,30,30,30,,,,,,,,,,,,,,,,,,,,,,,,,,,,,,,1,0.917417636999744,,,,,,,,,,,,,,,,,,,,,,,,,,,,022819_p2,001,2019_Feb_28_1156,body_behavioural,3.0.4,60.014692197364724,
1,"I have to run to my next class, but I’ll see you later tonight.” ",4,4,,0,1,1,1,,,,,0,31,31,31,,,,,,,,,,,,,,,,,,,,,,,,,,,,,,,1,3.1032549949995882,,,,,,,,,,,,,,,,,,,,,,,,,,,,022819_p2,001,2019_Feb_28_1156,body_behavioural,3.0.4,60.014692197364724,
1,"She waved as they parted ways outside of the door of the classroom, and Leon was still trying to figure out where he had seen her before as he watched her go. ",4,4,,0,1,1,1,,,,,0,32,32,32,,,,,,,,,,,,,,,,,,,,,,,,,,,,,,,1,6.886426889999711,,,,,,,,,,,,,,,,,,,,,,,,,,,,022819_p2,001,2019_Feb_28_1156,body_behavioural,3.0.4,60.014692197364724,
1,,,,,0,1,1,1,,,,,,,,,,,,,,,,,,,,,,,,,,,,,,,,,,,,,,,,,,,,,,,,,,,,,,,,,,,,,,,,,,,,022819_p2,001,2019_Feb_28_1156,body_behavioural,3.0.4,60.014692197364724,
2,,,,,0,2,2,2,0,0,0,0,,,,,,,,,,,,,,,,,,,,,,,,,,,,,space,3.5865833749994636,space,0.653030702000251,space,1.7861970300000394,,,,,,,,,,,,,,,,,,,,,,,,,,,,,,022819_p2,001,2019_Feb_28_1156,body_behavioural,3.0.4,60.014692197364724,
2,"Alex was a distracted, sweaty mess as he walked into the grocery store with Chloe; he was hoping that she wouldn't suspect that he was about to propose.",1,1,,0,2,2,2,,,,,0,0,0,0,,,,,,,,,,,,,,,,,,,,,,,,,,,,,,,1,6.586961209999572,,,,,,,,,,,,,,,,,,,,,,,,,,,,022819_p2,001,2019_Feb_28_1156,body_behavioural,3.0.4,60.014692197364724,
2,"The grocery store was brightly lit; this was one of the nicest grocery stores in Atlanta, and sunlight poured in through the glass walls.",1,1,,0,2,2,2,,,,,0,1,1,1,,,,,,,,,,,,,,,,,,,,,,,,,,,,,,,1,7.267800510000598,,,,,,,,,,,,,,,,,,,,,,,,,,,,022819_p2,001,2019_Feb_28_1156,body_behavioural,3.0.4,60.014692197364724,
2,"The atmosphere was also bright because tomorrow was Thanksgiving, and most shoppers had carts piled high with turkey, stuffing, and pies.",1,1,,0,2,2,2,,,,,0,2,2,2,,,,,,,,,,,,,,,,,,,,,,,,,,,,,,,1,4.170365266998488,,,,,,,,,,,,,,,,,,,,,,,,,,,,022819_p2,001,2019_Feb_28_1156,body_behavioural,3.0.4,60.014692197364724,
2,Alex wanted to propose to Chloe here because he knew she would not suspect it at all. ,1,1,,0,2,2,2,,,,,0,3,3,3,,,,,,,,,,,,,,,,,,,,,,,,,,,,,,,1,4.470004787001017,,,,,,,,,,,,,,,,,,,,,,,,,,,,022819_p2,001,2019_Feb_28_1156,body_behavioural,3.0.4,60.014692197364724,
2,"Chloe loved surprises, and Alex loved the look on Chloe’s face when she was surprised. ",1,1,,0,2,2,2,,,,,0,4,4,4,,,,,,,,,,,,,,,,,,,,,,,,,,,,,,,1,3.653015347001201,,,,,,,,,,,,,,,,,,,,,,,,,,,,022819_p2,001,2019_Feb_28_1156,body_behavioural,3.0.4,60.014692197364724,
2,"“Alex, we need to get some cranberry sauce, so let’s go there first.” ",2,1,,0,2,2,2,,,,,0,5,5,5,,,,,,,,,,,,,,,,,,,,,,,,,,,,,,,1,3.036566959999618,,,,,,,,,,,,,,,,,,,,,,,,,,,,022819_p2,001,2019_Feb_28_1156,body_behavioural,3.0.4,60.014692197364724,
2,She led the way to the section of the store that held the canned foods. ,2,1,,0,2,2,2,,,,,0,6,6,6,,,,,,,,,,,,,,,,,,,,,,,,,,,,,,,1,5.920182347001173,,,,,,,,,,,,,,,,,,,,,,,,,,,,022819_p2,001,2019_Feb_28_1156,body_behavioural,3.0.4,60.014692197364724,
2,Alex looked like he was going to throw up. ,2,1,,0,2,2,2,,,,,0,7,7,7,,,,,,,,,,,,,,,,,,,,,,,,,,,,,,,1,3.0863016370003606,,,,,,,,,,,,,,,,,,,,,,,,,,,,022819_p2,001,2019_Feb_28_1156,body_behavioural,3.0.4,60.014692197364724,
2,"As they were walking there, Chloe asked him, “Is everything okay, dear?”",2,1,,0,2,2,2,,,,,0,8,8,8,,,,,,,,,,,,,,,,,,,,,,,,,,,,,,,1,3.7365485200007242,,,,,,,,,,,,,,,,,,,,,,,,,,,,022819_p2,001,2019_Feb_28_1156,body_behavioural,3.0.4,60.014692197364724,
2,"“Oh yeah, for sure,” he said, unconvincingly. ",2,1,,0,2,2,2,,,,,0,9,9,9,,,,,,,,,,,,,,,,,,,,,,,,,,,,,,,1,2.3342260419995,,,,,,,,,,,,,,,,,,,,,,,,,,,,022819_p2,001,2019_Feb_28_1156,body_behavioural,3.0.4,60.014692197364724,
2,"She chuckled, “Alright, whatever you say.” ",2,1,,0,2,2,2,,,,,0,10,10,10,,,,,,,,,,,,,,,,,,,,,,,,,,,,,,,1,1.4675519230004284,,,,,,,,,,,,,,,,,,,,,,,,,,,,022819_p2,001,2019_Feb_28_1156,body_behavioural,3.0.4,60.014692197364724,
2,"She was mulling over the different cans of cranberry sauce, and Alex knew she would be a while.",2,1,,0,2,2,2,,,,,0,11,11,11,,,,,,,,,,,,,,,,,,,,,,,,,,,,,,,1,2.953166909999709,,,,,,,,,,,,,,,,,,,,,,,,,,,,022819_p2,001,2019_Feb_28_1156,body_behavioural,3.0.4,60.014692197364724,
2,He turned his back to her and pulled out the ring.,2,2,,0,2,2,2,,,,,0,12,12,12,,,,,,,,,,,,,,,,,,,,,,,,,,,,,,,9,3.3031580899987603,,,,,,,,,,,,,,,,,,,,,,,,,,,,022819_p2,001,2019_Feb_28_1156,body_behavioural,3.0.4,60.014692197364724,
2,He had been saving up for this for a while. ,2,2,,0,2,2,2,,,,,0,13,13,13,,,,,,,,,,,,,,,,,,,,,,,,,,,,,,,1,1.8018160609990446,,,,,,,,,,,,,,,,,,,,,,,,,,,,022819_p2,001,2019_Feb_28_1156,body_behavioural,3.0.4,60.014692197364724,
2,The ring had three large diamonds with smaller ones encircling each one: all of them sparkled in the light streaming in from the windows. ,2,2,,0,2,2,2,,,,,0,14,14,14,,,,,,,,,,,,,,,,,,,,,,,,,,,,,,,1,6.23677451200092,,,,,,,,,,,,,,,,,,,,,,,,,,,,022819_p2,001,2019_Feb_28_1156,body_behavioural,3.0.4,60.014692197364724,
2,"“Alex?”, Chloe said suspiciously. ",2,2,,0,2,2,2,,,,,0,15,15,15,,,,,,,,,,,,,,,,,,,,,,,,,,,,,,,1,2.220044563000556,,,,,,,,,,,,,,,,,,,,,,,,,,,,022819_p2,001,2019_Feb_28_1156,body_behavioural,3.0.4,60.014692197364724,
2,He closed the box and whipped around. “Yes?”,2,2,,0,2,2,2,,,,,0,16,16,16,,,,,,,,,,,,,,,,,,,,,,,,,,,,,,,1,3.134240645000318,,,,,,,,,,,,,,,,,,,,,,,,,,,,022819_p2,001,2019_Feb_28_1156,body_behavioural,3.0.4,60.014692197364724,
2,“Do we need anything else?”,2,2,,0,2,2,2,,,,,0,17,17,17,,,,,,,,,,,,,,,,,,,,,,,,,,,,,,,1,3.4364992450009595,,,,,,,,,,,,,,,,,,,,,,,,,,,,022819_p2,001,2019_Feb_28_1156,body_behavioural,3.0.4,60.014692197364724,
2,"“Yeah I don’t know, honey.” ",2,2,,0,2,2,2,,,,,0,18,18,18,,,,,,,,,,,,,,,,,,,,,,,,,,,,,,,1,5.035587921000115,,,,,,,,,,,,,,,,,,,,,,,,,,,,022819_p2,001,2019_Feb_28_1156,body_behavioural,3.0.4,60.014692197364724,
2,They went to the checkout and waited in a long line.,3,2,,0,2,2,2,,,,,0,19,19,19,,,,,,,,,,,,,,,,,,,,,,,,,,,,,,,1,2.8199019570001838,,,,,,,,,,,,,,,,,,,,,,,,,,,,022819_p2,001,2019_Feb_28_1156,body_behavioural,3.0.4,60.014692197364724,
2,Alex was staring intensely off into the distance. ,3,2,,0,2,2,2,,,,,0,20,20,20,,,,,,,,,,,,,,,,,,,,,,,,,,,,,,,1,1.5194652370009862,,,,,,,,,,,,,,,,,,,,,,,,,,,,022819_p2,001,2019_Feb_28_1156,body_behavioural,3.0.4,60.014692197364724,
2,Chloe was watching him trying to decide whether he looked scared or confused. ,3,2,,0,2,2,2,,,,,0,21,21,21,,,,,,,,,,,,,,,,,,,,,,,,,,,,,,,1,2.736494220000168,,,,,,,,,,,,,,,,,,,,,,,,,,,,022819_p2,001,2019_Feb_28_1156,body_behavioural,3.0.4,60.014692197364724,
2,Alex looked over at their friends who were waiting by the entrance of the grocery store.,3,2,,0,2,2,2,,,,,0,22,22,22,,,,,,,,,,,,,,,,,,,,,,,,,,,,,,,1,3.9031768620006915,,,,,,,,,,,,,,,,,,,,,,,,,,,,022819_p2,001,2019_Feb_28_1156,body_behavioural,3.0.4,60.014692197364724,
2,They got the message and walked over slowly. ,3,2,,0,2,2,2,,,,,0,23,23,23,,,,,,,,,,,,,,,,,,,,,,,,,,,,,,,1,2.25318508700002,,,,,,,,,,,,,,,,,,,,,,,,,,,,022819_p2,001,2019_Feb_28_1156,body_behavioural,3.0.4,60.014692197364724,
2,"“Honey,” he said to get her attention, “Look, Chloe, I love you so much and I want to be with you forever, I can’t imagine a day without you.”",3,2,,0,2,2,2,,,,,0,24,24,24,,,,,,,,,,,,,,,,,,,,,,,,,,,,,,,9,9.670031171999653,,,,,,,,,,,,,,,,,,,,,,,,,,,,022819_p2,001,2019_Feb_28_1156,body_behavioural,3.0.4,60.014692197364724,
2,"“Awww, Alex, me too.”",3,2,,0,2,2,2,,,,,0,25,25,25,,,,,,,,,,,,,,,,,,,,,,,,,,,,,,,1,1.9863987770004314,,,,,,,,,,,,,,,,,,,,,,,,,,,,022819_p2,001,2019_Feb_28_1156,body_behavioural,3.0.4,60.014692197364724,
2,"Alex got down on one knee, and Chloe gasped. ",3,3,,0,2,2,2,,,,,0,26,26,26,,,,,,,,,,,,,,,,,,,,,,,,,,,,,,,1,3.0531327280004916,,,,,,,,,,,,,,,,,,,,,,,,,,,,022819_p2,001,2019_Feb_28_1156,body_behavioural,3.0.4,60.014692197364724,
2,"“I am serious, Chloe. Will you marry me?”",3,3,,0,2,2,2,,,,,0,27,27,27,,,,,,,,,,,,,,,,,,,,,,,,,,,,,,,1,1.6196771999984776,,,,,,,,,,,,,,,,,,,,,,,,,,,,022819_p2,001,2019_Feb_28_1156,body_behavioural,3.0.4,60.014692197364724,
2,"The people in line around them realized what was happening, stepped back, and started taking pictures.",3,3,,0,2,2,2,,,,,0,28,28,28,,,,,,,,,,,,,,,,,,,,,,,,,,,,,,,9,3.819870127001195,,,,,,,,,,,,,,,,,,,,,,,,,,,,022819_p2,001,2019_Feb_28_1156,body_behavioural,3.0.4,60.014692197364724,
2,Their friends were no longer trying to hide and were videotaping and taking pictures too. ,3,3,,0,2,2,2,,,,,0,29,29,29,,,,,,,,,,,,,,,,,,,,,,,,,,,,,,,1,3.1528275099990424,,,,,,,,,,,,,,,,,,,,,,,,,,,,022819_p2,001,2019_Feb_28_1156,body_behavioural,3.0.4,60.014692197364724,
2,Chloe looked around and laughed. ,3,3,,0,2,2,2,,,,,0,30,30,30,,,,,,,,,,,,,,,,,,,,,,,,,,,,,,,1,1.3364567820008233,,,,,,,,,,,,,,,,,,,,,,,,,,,,022819_p2,001,2019_Feb_28_1156,body_behavioural,3.0.4,60.014692197364724,
2,"“Yes!” she shouted, and jumped to embrace Alex in a hug. ",3,4,,0,2,2,2,,,,,0,31,31,31,,,,,,,,,,,,,,,,,,,,,,,,,,,,,,,1,2.1341191670016997,,,,,,,,,,,,,,,,,,,,,,,,,,,,022819_p2,001,2019_Feb_28_1156,body_behavioural,3.0.4,60.014692197364724,
2,Everyone in line clapped and cheered. ,3,4,,0,2,2,2,,,,,0,32,32,32,,,,,,,,,,,,,,,,,,,,,,,,,,,,,,,1,1.5197768800007907,,,,,,,,,,,,,,,,,,,,,,,,,,,,022819_p2,001,2019_Feb_28_1156,body_behavioural,3.0.4,60.014692197364724,
2,"Alex put the ring on Chloe’s finger, who was nearly spinning in excitement.",3,4,,0,2,2,2,,,,,0,33,33,33,,,,,,,,,,,,,,,,,,,,,,,,,,,,,,,1,3.0365642249998928,,,,,,,,,,,,,,,,,,,,,,,,,,,,022819_p2,001,2019_Feb_28_1156,body_behavioural,3.0.4,60.014692197364724,
2,"“I love it, oh my gosh, it’s so glittery!",3,4,,0,2,2,2,,,,,0,34,34,34,,,,,,,,,,,,,,,,,,,,,,,,,,,,,,,9,7.9201898999999685,,,,,,,,,,,,,,,,,,,,,,,,,,,,022819_p2,001,2019_Feb_28_1156,body_behavioural,3.0.4,60.014692197364724,
2,Look at this!” she said as she shoved her hand in a stranger’s face.,3,4,,0,2,2,2,,,,,0,35,35,35,,,,,,,,,,,,,,,,,,,,,,,,,,,,,,,1,1.9030888750003214,,,,,,,,,,,,,,,,,,,,,,,,,,,,022819_p2,001,2019_Feb_28_1156,body_behavioural,3.0.4,60.014692197364724,
2,Her friends came over and hugged them.,3,4,,0,2,2,2,,,,,0,36,36,36,,,,,,,,,,,,,,,,,,,,,,,,,,,,,,,1,2.6860981869995157,,,,,,,,,,,,,,,,,,,,,,,,,,,,022819_p2,001,2019_Feb_28_1156,body_behavioural,3.0.4,60.014692197364724,
2,The other people let them move up to the front of the checkout line. ,3,4,,0,2,2,2,,,,,0,37,37,37,,,,,,,,,,,,,,,,,,,,,,,,,,,,,,,1,2.653009576999466,,,,,,,,,,,,,,,,,,,,,,,,,,,,022819_p2,001,2019_Feb_28_1156,body_behavioural,3.0.4,60.014692197364724,
2,The cashier congratulated them and scanned their cranberry sauce. ,4,4,,0,2,2,2,,,,,0,38,38,38,,,,,,,,,,,,,,,,,,,,,,,,,,,,,,,1,2.636361622999175,,,,,,,,,,,,,,,,,,,,,,,,,,,,022819_p2,001,2019_Feb_28_1156,body_behavioural,3.0.4,60.014692197364724,
2,The total came to $4 and Chloe paid in cash while getting distracted and staring at the ring as she pulled out the bills.,4,4,,0,2,2,2,,,,,0,39,39,39,,,,,,,,,,,,,,,,,,,,,,,,,,,,,,,1,6.067760775000352,,,,,,,,,,,,,,,,,,,,,,,,,,,,022819_p2,001,2019_Feb_28_1156,body_behavioural,3.0.4,60.014692197364724,
2,"Alex grabbed the cans, and they walked out with their friends bunched around them. ",4,4,,0,2,2,2,,,,,0,40,40,40,,,,,,,,,,,,,,,,,,,,,,,,,,,,,,,1,5.320057951999843,,,,,,,,,,,,,,,,,,,,,,,,,,,,022819_p2,001,2019_Feb_28_1156,body_behavioural,3.0.4,60.014692197364724,
2,,,,,0,2,2,2,,,,,,,,,,,,,,,,,,,,,,,,,,,,,,,,,,,,,,,,,,,,,,,,,,,,,,,,,,,,,,,,,,,,022819_p2,001,2019_Feb_28_1156,body_behavioural,3.0.4,60.014692197364724,
3,,,,,0,3,3,3,0,0,0,0,,,,,,,,,,,,,,,,,,,,,,,,,,,,,space,1.3363521299997956,space,1.1364028499992855,space,1.2696704049994878,,,,,,,,,,,,,,,,,,,,,,,,,,,,,,022819_p2,001,2019_Feb_28_1156,body_behavioural,3.0.4,60.014692197364724,
3,Charlie saw Alma as they walked into class and he motioned for her to come sit in the back next to him: they had business to discuss.,1,1,,0,3,3,3,,,,,0,0,0,0,,,,,,,,,,,,,,,,,,,,,,,,,,,,,,,1,17.40448860500146,,,,,,,,,,,,,,,,,,,,,,,,,,,,022819_p2,001,2019_Feb_28_1156,body_behavioural,3.0.4,60.014692197364724,
3,Charlie and Alma were both economics students with entrepreneurial bents.,1,1,,0,3,3,3,,,,,0,1,1,1,,,,,,,,,,,,,,,,,,,,,,,,,,,,,,,9,9.036571354999978,,,,,,,,,,,,,,,,,,,,,,,,,,,,022819_p2,001,2019_Feb_28_1156,body_behavioural,3.0.4,60.014692197364724,
3,They were also both very busy and in the same class.,1,1,,0,3,3,3,,,,,0,2,2,2,,,,,,,,,,,,,,,,,,,,,,,,,,,,,,,1,3.2508251769995695,,,,,,,,,,,,,,,,,,,,,,,,,,,,022819_p2,001,2019_Feb_28_1156,body_behavioural,3.0.4,60.014692197364724,
3,"After talking at a party, Charlie had discovered that Alma was looking for financing for her web development company.",1,1,,0,3,3,3,,,,,0,3,3,3,,,,,,,,,,,,,,,,,,,,,,,,,,,,,,,1,6.886776835001001,,,,,,,,,,,,,,,,,,,,,,,,,,,,022819_p2,001,2019_Feb_28_1156,body_behavioural,3.0.4,60.014692197364724,
3,It was serendipitous because he had been talking with other members of his venture capital group about making an investment. ,1,1,,0,3,3,3,,,,,0,4,4,4,,,,,,,,,,,,,,,,,,,,,,,,,,,,,,,1,13.787439127001562,,,,,,,,,,,,,,,,,,,,,,,,,,,,022819_p2,001,2019_Feb_28_1156,body_behavioural,3.0.4,60.014692197364724,
3,"His financial group had come to a decision that morning about Alma’s idea, and he didn't want to wait until after class to discuss the proposal with her. ",1,1,,0,3,3,3,,,,,0,5,5,5,,,,,,,,,,,,,,,,,,,,,,,,,,,,,,,9,3.1197753500000545,,,,,,,,,,,,,,,,,,,,,,,,,,,,022819_p2,001,2019_Feb_28_1156,body_behavioural,3.0.4,60.014692197364724,
3,"The class was in a large auditorium with small, foldable desks on the side of each cushioned chair. ",1,1,,0,3,3,3,,,,,0,6,6,6,,,,,,,,,,,,,,,,,,,,,,,,,,,,,,,1,3.053936504999001,,,,,,,,,,,,,,,,,,,,,,,,,,,,022819_p2,001,2019_Feb_28_1156,body_behavioural,3.0.4,60.014692197364724,
3,"There were large windows on both sides of the hall, and they could see the first flurries of a winter storm starting outside. ",1,1,,0,3,3,3,,,,,0,7,7,7,,,,,,,,,,,,,,,,,,,,,,,,,,,,,,,1,3.2342093319984997,,,,,,,,,,,,,,,,,,,,,,,,,,,,022819_p2,001,2019_Feb_28_1156,body_behavioural,3.0.4,60.014692197364724,
3,"“Here we are at Lecture Seven already in History of the Eternal City,” said the professor. ",2,1,,0,3,3,3,,,,,0,8,8,8,,,,,,,,,,,,,,,,,,,,,,,,,,,,,,,1,5.3702458329989895,,,,,,,,,,,,,,,,,,,,,,,,,,,,022819_p2,001,2019_Feb_28_1156,body_behavioural,3.0.4,60.014692197364724,
3,“We're going to talk today about the age of the first Roman emperor: Augustus.” ,2,1,,0,3,3,3,,,,,0,9,9,9,,,,,,,,,,,,,,,,,,,,,,,,,,,,,,,1,2.7865369169994665,,,,,,,,,,,,,,,,,,,,,,,,,,,,022819_p2,001,2019_Feb_28_1156,body_behavioural,3.0.4,60.014692197364724,
3,"She went into some recap of the last lecture, and Charlie took this as an opportunity to start talking to Alma.",2,1,,0,3,3,3,,,,,0,10,10,10,,,,,,,,,,,,,,,,,,,,,,,,,,,,,,,1,7.253553321999789,,,,,,,,,,,,,,,,,,,,,,,,,,,,022819_p2,001,2019_Feb_28_1156,body_behavioural,3.0.4,60.014692197364724,
3,"“Okay so I’ve been thinking about your startup idea, and I have talked about it with my fellow investors.",2,2,,0,3,3,3,,,,,0,11,11,11,,,,,,,,,,,,,,,,,,,,,,,,,,,,,,,9,2.8194719799994346,,,,,,,,,,,,,,,,,,,,,,,,,,,,022819_p2,001,2019_Feb_28_1156,body_behavioural,3.0.4,60.014692197364724,
3,We’d like to invest half of what you originally suggested.,2,2,,0,3,3,3,,,,,0,12,12,12,,,,,,,,,,,,,,,,,,,,,,,,,,,,,,,1,1.6194535850008833,,,,,,,,,,,,,,,,,,,,,,,,,,,,022819_p2,001,2019_Feb_28_1156,body_behavioural,3.0.4,60.014692197364724,
3,"Rather than $30,000, we start with $15,000.",2,2,,0,3,3,3,,,,,0,13,13,13,,,,,,,,,,,,,,,,,,,,,,,,,,,,,,,1,4.169930971998838,,,,,,,,,,,,,,,,,,,,,,,,,,,,022819_p2,001,2019_Feb_28_1156,body_behavioural,3.0.4,60.014692197364724,
3,We would see how the company does and then invest the other half later.” ,2,2,,0,3,3,3,,,,,0,14,14,14,,,,,,,,,,,,,,,,,,,,,,,,,,,,,,,1,3.4866193899997597,,,,,,,,,,,,,,,,,,,,,,,,,,,,022819_p2,001,2019_Feb_28_1156,body_behavioural,3.0.4,60.014692197364724,
3,"Alma, tapping her pen on her notebook, narrowed her eyes and pursed her lips.",2,2,,0,3,3,3,,,,,0,15,15,15,,,,,,,,,,,,,,,,,,,,,,,,,,,,,,,9,2.852936282000883,,,,,,,,,,,,,,,,,,,,,,,,,,,,022819_p2,001,2019_Feb_28_1156,body_behavioural,3.0.4,60.014692197364724,
3,She turned back to the lecture as she considered this.,2,2,,0,3,3,3,,,,,0,16,16,16,,,,,,,,,,,,,,,,,,,,,,,,,,,,,,,1,1.902807667000161,,,,,,,,,,,,,,,,,,,,,,,,,,,,022819_p2,001,2019_Feb_28_1156,body_behavioural,3.0.4,60.014692197364724,
3,"The professor was going on: “The senate had conferred upon him the title of Augustus the sacred and revered one, the restorer of traditional values, the city’s new religious leader, the restorer of temples. ",3,2,,0,3,3,3,,,,,0,17,17,17,,,,,,,,,,,,,,,,,,,,,,,,,,,,,,,1,4.003304784999273,,,,,,,,,,,,,,,,,,,,,,,,,,,,022819_p2,001,2019_Feb_28_1156,body_behavioural,3.0.4,60.014692197364724,
3,"Augustus also sought to beautify Rome, make it into a new Athens, and dispel the criticisms of Rome as disorganized and ugly.”",3,2,,0,3,3,3,,,,,0,18,18,18,,,,,,,,,,,,,,,,,,,,,,,,,,,,,,,1,1.636440295000284,,,,,,,,,,,,,,,,,,,,,,,,,,,,022819_p2,001,2019_Feb_28_1156,body_behavioural,3.0.4,60.014692197364724,
3,"Alma turned back to Charlie and offered her rebuttal, “I don’t know about that: it’s not going to be possible to implement our ideas effectively unless the project is fully funded. ",3,3,,0,3,3,3,,,,,0,19,19,19,,,,,,,,,,,,,,,,,,,,,,,,,,,,,,,9,18.08768832200076,,,,,,,,,,,,,,,,,,,,,,,,,,,,022819_p2,001,2019_Feb_28_1156,body_behavioural,3.0.4,60.014692197364724,
3,We would have to find other investors and that would set us back in our timeline. ,3,3,,0,3,3,3,,,,,0,20,20,20,,,,,,,,,,,,,,,,,,,,,,,,,,,,,,,1,2.3700869900003454,,,,,,,,,,,,,,,,,,,,,,,,,,,,022819_p2,001,2019_Feb_28_1156,body_behavioural,3.0.4,60.014692197364724,
3,"Our profit projections assumed we'd be starting relatively soon, not months down the line.” ",3,3,,0,3,3,3,,,,,0,21,21,21,,,,,,,,,,,,,,,,,,,,,,,,,,,,,,,1,3.586540084999797,,,,,,,,,,,,,,,,,,,,,,,,,,,,022819_p2,001,2019_Feb_28_1156,body_behavioural,3.0.4,60.014692197364724,
3,They whispered back and forth during the whole class in order to work out a compromise. ,3,3,,0,3,3,3,,,,,0,22,22,22,,,,,,,,,,,,,,,,,,,,,,,,,,,,,,,1,4.020059559999936,,,,,,,,,,,,,,,,,,,,,,,,,,,,022819_p2,001,2019_Feb_28_1156,body_behavioural,3.0.4,60.014692197364724,
3,"Finally, the class ended, and the professor dismissed the students with a reminder that the midterm paper was due on Thursday and that they should email their papers to the TA.",4,3,,0,3,3,3,,,,,0,23,23,23,,,,,,,,,,,,,,,,,,,,,,,,,,,,,,,1,4.367666144999021,,,,,,,,,,,,,,,,,,,,,,,,,,,,022819_p2,001,2019_Feb_28_1156,body_behavioural,3.0.4,60.014692197364724,
3,"Everyone, except Charlie and Alma, packed up their things and headed out of the lecture hall to get to their next class. ",4,3,,0,3,3,3,,,,,0,24,24,24,,,,,,,,,,,,,,,,,,,,,,,,,,,,,,,1,3.519959645000199,,,,,,,,,,,,,,,,,,,,,,,,,,,,022819_p2,001,2019_Feb_28_1156,body_behavioural,3.0.4,60.014692197364724,
3,"“Alright, so we’ll have the $30,000 wired to you by tomorrow,” Charlie said. ",4,4,,0,3,3,3,,,,,0,25,25,25,,,,,,,,,,,,,,,,,,,,,,,,,,,,,,,1,3.719523986999775,,,,,,,,,,,,,,,,,,,,,,,,,,,,022819_p2,001,2019_Feb_28_1156,body_behavioural,3.0.4,60.014692197364724,
3,"This wasn't ideal for Charlie, but Alma had refused to budge, and his investment group had told him they were willing to pay the full amount if necessary. ",4,4,,0,3,3,3,,,,,0,26,26,26,,,,,,,,,,,,,,,,,,,,,,,,,,,,,,,9,12.353856376999829,,,,,,,,,,,,,,,,,,,,,,,,,,,,022819_p2,001,2019_Feb_28_1156,body_behavioural,3.0.4,60.014692197364724,
3,"They shook hands, walked out of the now-empty lecture hall, and made plans to sign the official paperwork the next day.",4,4,,0,3,3,3,,,,,0,27,27,27,,,,,,,,,,,,,,,,,,,,,,,,,,,,,,,1,2.6032066619991383,,,,,,,,,,,,,,,,,,,,,,,,,,,,022819_p2,001,2019_Feb_28_1156,body_behavioural,3.0.4,60.014692197364724,
3,,,,,0,3,3,3,,,,,,,,,,,,,,,,,,,,,,,,,,,,,,,,,,,,,,,,,,,,,,,,,,,,,,,,,,,,,,,,,,,,022819_p2,001,2019_Feb_28_1156,body_behavioural,3.0.4,60.014692197364724,
4,,,,,0,4,4,4,0,0,0,0,,,,,,,,,,,,,,,,,,,,,,,,,,,,,space,4.053688725000029,space,0.8693209899993235,space,1.1865253920004761,,,,,,,,,,,,,,,,,,,,,,,,,,,,,,022819_p2,001,2019_Feb_28_1156,body_behavioural,3.0.4,60.014692197364724,
4,Mr. Shelton and Mr. Gordon shook hands inside the foyer of the restaurant: lunch today was about big business. ,1,1,,0,4,4,4,,,,,0,0,0,0,,,,,,,,,,,,,,,,,,,,,,,,,,,,,,,1,21.65455755000039,,,,,,,,,,,,,,,,,,,,,,,,,,,,022819_p2,001,2019_Feb_28_1156,body_behavioural,3.0.4,60.014692197364724,
4,Mr. Shelton and Mr. Gordon both were CEOs of airplane manufacturing companies.,1,1,,0,4,4,4,,,,,0,1,1,1,,,,,,,,,,,,,,,,,,,,,,,,,,,,,,,1,3.6864334020010574,,,,,,,,,,,,,,,,,,,,,,,,,,,,022819_p2,001,2019_Feb_28_1156,body_behavioural,3.0.4,60.014692197364724,
4,"Mr. Shelton was in charge of a larger, well-established company and had been in the aviation business for decades, whereas Mr. Gordon led a smaller but technologically-advanced company that was projected to disrupt the airplane manufacturing market. ",1,1,,0,4,4,4,,,,,0,2,2,2,,,,,,,,,,,,,,,,,,,,,,,,,,,,,,,1,9.352129970000533,,,,,,,,,,,,,,,,,,,,,,,,,,,,022819_p2,001,2019_Feb_28_1156,body_behavioural,3.0.4,60.014692197364724,
4,"The restaurant they chose to meet at was old and fancy with high ceilings, dark wood paneling, and crystal chandeliers.",1,1,,0,4,4,4,,,,,0,3,3,3,,,,,,,,,,,,,,,,,,,,,,,,,,,,,,,9,3.2197084959989297,,,,,,,,,,,,,,,,,,,,,,,,,,,,022819_p2,001,2019_Feb_28_1156,body_behavioural,3.0.4,60.014692197364724,
4,"The waitress led them to their table in the back, and they settled into a private table in the corner by the fireplace. ",2,1,,0,4,4,4,,,,,0,4,4,4,,,,,,,,,,,,,,,,,,,,,,,,,,,,,,,1,4.4872962850004114,,,,,,,,,,,,,,,,,,,,,,,,,,,,022819_p2,001,2019_Feb_28_1156,body_behavioural,3.0.4,60.014692197364724,
4,The waitress brought out the menus and they broke the ice with some small talk.,2,1,,0,4,4,4,,,,,0,5,5,5,,,,,,,,,,,,,,,,,,,,,,,,,,,,,,,1,3.469947947000037,,,,,,,,,,,,,,,,,,,,,,,,,,,,022819_p2,001,2019_Feb_28_1156,body_behavioural,3.0.4,60.014692197364724,
4,"Mr. Gordon took out a picture of his daughter and talked about her recent engagement, and Mr. Gordon boasted about his purchase of a Tesla. ",2,1,,0,4,4,4,,,,,0,6,6,6,,,,,,,,,,,,,,,,,,,,,,,,,,,,,,,1,5.702975174999665,,,,,,,,,,,,,,,,,,,,,,,,,,,,022819_p2,001,2019_Feb_28_1156,body_behavioural,3.0.4,60.014692197364724,
4,"They looked at the menus as well, which were full of Italian classics like Carbonara and Tiramisu, and in the back section of the menu was a lengthy drink selection.",2,1,,0,4,4,4,,,,,0,7,7,7,,,,,,,,,,,,,,,,,,,,,,,,,,,,,,,9,3.3678336599987233,,,,,,,,,,,,,,,,,,,,,,,,,,,,022819_p2,001,2019_Feb_28_1156,body_behavioural,3.0.4,60.014692197364724,
4,"After awhile, Mr. Shelton brought the conversation around to business.",2,2,,0,4,4,4,,,,,0,8,8,8,,,,,,,,,,,,,,,,,,,,,,,,,,,,,,,1,4.05329901299956,,,,,,,,,,,,,,,,,,,,,,,,,,,,022819_p2,001,2019_Feb_28_1156,body_behavioural,3.0.4,60.014692197364724,
4,"“Mr. Gordon, we really admire what you’re doing at your company.",2,2,,0,4,4,4,,,,,0,9,9,9,,,,,,,,,,,,,,,,,,,,,,,,,,,,,,,1,1.7197199400015961,,,,,,,,,,,,,,,,,,,,,,,,,,,,022819_p2,001,2019_Feb_28_1156,body_behavioural,3.0.4,60.014692197364724,
4,We think it’s genius; we want to support your vision and make this tiny company of yours internationally known.,2,2,,0,4,4,4,,,,,0,10,10,10,,,,,,,,,,,,,,,,,,,,,,,,,,,,,,,1,6.53386132200103,,,,,,,,,,,,,,,,,,,,,,,,,,,,022819_p2,001,2019_Feb_28_1156,body_behavioural,3.0.4,60.014692197364724,
4,"But honestly, your company doesn’t have the resources to reach international markets right now, maybe in a few years you could, but by that time, other companies may have already filled your niche.",2,2,,0,4,4,4,,,,,0,11,11,11,,,,,,,,,,,,,,,,,,,,,,,,,,,,,,,1,8.401261701999829,,,,,,,,,,,,,,,,,,,,,,,,,,,,022819_p2,001,2019_Feb_28_1156,body_behavioural,3.0.4,60.014692197364724,
4,I think we should join forces.”,2,2,,0,4,4,4,,,,,0,12,12,12,,,,,,,,,,,,,,,,,,,,,,,,,,,,,,,1,1.5197533499995188,,,,,,,,,,,,,,,,,,,,,,,,,,,,022819_p2,001,2019_Feb_28_1156,body_behavioural,3.0.4,60.014692197364724,
4,The waitress came up to them and asked if they were ready to order.,3,2,,0,4,4,4,,,,,0,13,13,13,,,,,,,,,,,,,,,,,,,,,,,,,,,,,,,1,4.155201666999346,,,,,,,,,,,,,,,,,,,,,,,,,,,,022819_p2,001,2019_Feb_28_1156,body_behavioural,3.0.4,60.014692197364724,
4,"Mr. Gordon ordered a medium-rare steak and martini, and Mr. Shelton ordered veal and a manhattan. ",3,2,,0,4,4,4,,,,,0,14,14,14,,,,,,,,,,,,,,,,,,,,,,,,,,,,,,,9,1.5073382219998166,,,,,,,,,,,,,,,,,,,,,,,,,,,,022819_p2,001,2019_Feb_28_1156,body_behavioural,3.0.4,60.014692197364724,
4,"Then Mr. Shelton continued, “Look, I’ve talked to other members of the board, and we are prepared to offer $600 million to buy your company. ",3,2,,0,4,4,4,,,,,0,15,15,15,,,,,,,,,,,,,,,,,,,,,,,,,,,,,,,1,4.870099114999903,,,,,,,,,,,,,,,,,,,,,,,,,,,,022819_p2,001,2019_Feb_28_1156,body_behavioural,3.0.4,60.014692197364724,
4,"We'd keep on all of your current employees, and you would join as the director of your company branch.” ",3,2,,0,4,4,4,,,,,0,16,16,16,,,,,,,,,,,,,,,,,,,,,,,,,,,,,,,1,10.587440577999587,,,,,,,,,,,,,,,,,,,,,,,,,,,,022819_p2,001,2019_Feb_28_1156,body_behavioural,3.0.4,60.014692197364724,
4,Mr. Gordon sat looking at Mr. Shelton for a few moments considering his response. ,3,2,,0,4,4,4,,,,,0,17,17,17,,,,,,,,,,,,,,,,,,,,,,,,,,,,,,,1,7.886414774999139,,,,,,,,,,,,,,,,,,,,,,,,,,,,022819_p2,001,2019_Feb_28_1156,body_behavioural,3.0.4,60.014692197364724,
4,He looked at Mr. Shelton skeptically.,3,2,,0,4,4,4,,,,,0,18,18,18,,,,,,,,,,,,,,,,,,,,,,,,,,,,,,,1,1.4863948749989504,,,,,,,,,,,,,,,,,,,,,,,,,,,,022819_p2,001,2019_Feb_28_1156,body_behavioural,3.0.4,60.014692197364724,
4,"He said, “Mr. Shelton, I think that you make a compelling offer, but there are definitely some disadvantages to attaching our small, streamlined productions to a large company like yours.",3,3,,0,4,4,4,,,,,0,19,19,19,,,,,,,,,,,,,,,,,,,,,,,,,,,,,,,1,6.503377710001587,,,,,,,,,,,,,,,,,,,,,,,,,,,,022819_p2,001,2019_Feb_28_1156,body_behavioural,3.0.4,60.014692197364724,
4,"We operate in a very different way than a large company, and the kind of administrative complexity that makes the scale of your productions possible would suffocate our business.",3,3,,0,4,4,4,,,,,0,20,20,20,,,,,,,,,,,,,,,,,,,,,,,,,,,,,,,1,6.686852602000727,,,,,,,,,,,,,,,,,,,,,,,,,,,,022819_p2,001,2019_Feb_28_1156,body_behavioural,3.0.4,60.014692197364724,
4,"With our product, scaling-up doesn’t necessarily make sense.” ",3,3,,0,4,4,4,,,,,0,21,21,21,,,,,,,,,,,,,,,,,,,,,,,,,,,,,,,1,5.1204307900006825,,,,,,,,,,,,,,,,,,,,,,,,,,,,022819_p2,001,2019_Feb_28_1156,body_behavioural,3.0.4,60.014692197364724,
4,Mr. Shelton had expected this response and had come prepared.,3,3,,0,4,4,4,,,,,0,22,22,22,,,,,,,,,,,,,,,,,,,,,,,,,,,,,,,1,1.9364538850004465,,,,,,,,,,,,,,,,,,,,,,,,,,,,022819_p2,001,2019_Feb_28_1156,body_behavioural,3.0.4,60.014692197364724,
4,He began laying out the details of how he had handled similar acquisitions successfully in the past.,3,3,,0,4,4,4,,,,,0,23,23,23,,,,,,,,,,,,,,,,,,,,,,,,,,,,,,,1,3.4205340030002844,,,,,,,,,,,,,,,,,,,,,,,,,,,,022819_p2,001,2019_Feb_28_1156,body_behavioural,3.0.4,60.014692197364724,
4,"Mr. Gordon was impressed, and they went back and forth hashing out what the company configuration would look like post-merger. ",3,3,,0,4,4,4,,,,,0,24,24,24,,,,,,,,,,,,,,,,,,,,,,,,,,,,,,,1,3.786900125000102,,,,,,,,,,,,,,,,,,,,,,,,,,,,022819_p2,001,2019_Feb_28_1156,body_behavioural,3.0.4,60.014692197364724,
4,"The waitress brought the food out, interrupting their animated conversation.",4,3,,0,4,4,4,,,,,0,25,25,25,,,,,,,,,,,,,,,,,,,,,,,,,,,,,,,9,3.1864708850007446,,,,,,,,,,,,,,,,,,,,,,,,,,,,022819_p2,001,2019_Feb_28_1156,body_behavioural,3.0.4,60.014692197364724,
4,“Oh this looks so good!” Mr. Gordon said. ,4,3,,0,4,4,4,,,,,0,26,26,26,,,,,,,,,,,,,,,,,,,,,,,,,,,,,,,1,2.3698612299995148,,,,,,,,,,,,,,,,,,,,,,,,,,,,022819_p2,001,2019_Feb_28_1156,body_behavioural,3.0.4,60.014692197364724,
4, “Can I get you anything else?” the waitress asked.,4,3,,0,4,4,4,,,,,0,27,27,27,,,,,,,,,,,,,,,,,,,,,,,,,,,,,,,1,5.620118710001407,,,,,,,,,,,,,,,,,,,,,,,,,,,,022819_p2,001,2019_Feb_28_1156,body_behavioural,3.0.4,60.014692197364724,
4,They declined and continued to talk.,4,3,,0,4,4,4,,,,,0,28,28,28,,,,,,,,,,,,,,,,,,,,,,,,,,,,,,,1,1.5034846750004363,,,,,,,,,,,,,,,,,,,,,,,,,,,,022819_p2,001,2019_Feb_28_1156,body_behavioural,3.0.4,60.014692197364724,
4,"The meal lived up to the reputation of the restaurant, which was known for having the best cuts of meat in the area.",4,3,,0,4,4,4,,,,,0,29,29,29,,,,,,,,,,,,,,,,,,,,,,,,,,,,,,,9,7.084544175000701,,,,,,,,,,,,,,,,,,,,,,,,,,,,022819_p2,001,2019_Feb_28_1156,body_behavioural,3.0.4,60.014692197364724,
4,"Mr. Gordon, after taking a contemplative bite of his food, said, “Mr. Shelton, I think we have a deal. ",4,4,,0,4,4,4,,,,,0,30,30,30,,,,,,,,,,,,,,,,,,,,,,,,,,,,,,,1,4.069484576999457,,,,,,,,,,,,,,,,,,,,,,,,,,,,022819_p2,001,2019_Feb_28_1156,body_behavioural,3.0.4,60.014692197364724,
4,"If you can guarantee that I can still have the final say in the all the work done by my team, I think this could be beneficial for both of us.",4,4,,0,4,4,4,,,,,0,31,31,31,,,,,,,,,,,,,,,,,,,,,,,,,,,,,,,1,4.150947669999368,,,,,,,,,,,,,,,,,,,,,,,,,,,,022819_p2,001,2019_Feb_28_1156,body_behavioural,3.0.4,60.014692197364724,
4,I propose a toast to the merging of our companies.”,4,4,,0,4,4,4,,,,,0,32,32,32,,,,,,,,,,,,,,,,,,,,,,,,,,,,,,,1,2.819729021999592,,,,,,,,,,,,,,,,,,,,,,,,,,,,022819_p2,001,2019_Feb_28_1156,body_behavioural,3.0.4,60.014692197364724,
4,Mr. Shelton grinned and lifted his martini to clink glasses.,4,4,,0,4,4,4,,,,,0,33,33,33,,,,,,,,,,,,,,,,,,,,,,,,,,,,,,,1,1.7197764299999108,,,,,,,,,,,,,,,,,,,,,,,,,,,,022819_p2,001,2019_Feb_28_1156,body_behavioural,3.0.4,60.014692197364724,
4,"He said, “Cheers to a lifelong partnership and to the growth of your company.” ",4,4,,0,4,4,4,,,,,0,34,34,34,,,,,,,,,,,,,,,,,,,,,,,,,,,,,,,1,2.83608137200099,,,,,,,,,,,,,,,,,,,,,,,,,,,,022819_p2,001,2019_Feb_28_1156,body_behavioural,3.0.4,60.014692197364724,
4,,,,,0,4,4,4,,,,,,,,,,,,,,,,,,,,,,,,,,,,,,,,,,,,,,,,,,,,,,,,,,,,,,,,,,,,,,,,,,,,022819_p2,001,2019_Feb_28_1156,body_behavioural,3.0.4,60.014692197364724,
5,,,,,0,5,5,5,0,0,0,0,,,,,,,,,,,,,,,,,,,,,,,,,,,,,space,1.786551741999574,space,0.669628695000938,space,1.6530171180002071,,,,,,,,,,,,,,,,,,,,,,,,,,,,,,022819_p2,001,2019_Feb_28_1156,body_behavioural,3.0.4,60.014692197364724,
5,The grocery store was not the place Emmanuella and Liam wanted to be at the moment considering they had been fighting beforehand to the point where Emmanuella was thinking of breaking up with Liam.,1,1,,0,5,5,5,,,,,0,0,0,0,,,,,,,,,,,,,,,,,,,,,,,,,,,,,,,1,10.503961497001,,,,,,,,,,,,,,,,,,,,,,,,,,,,022819_p2,001,2019_Feb_28_1156,body_behavioural,3.0.4,60.014692197364724,
5,"However, they had to go grocery shopping because they were hosting a dinner party for friends that evening and had no groceries. ",1,1,,0,5,5,5,,,,,0,1,1,1,,,,,,,,,,,,,,,,,,,,,,,,,,,,,,,1,4.686746407000101,,,,,,,,,,,,,,,,,,,,,,,,,,,,022819_p2,001,2019_Feb_28_1156,body_behavioural,3.0.4,60.014692197364724,
5,The grocery store was dimly lit and had dark wood paneling for all the shelves.,1,1,,0,5,5,5,,,,,0,2,2,2,,,,,,,,,,,,,,,,,,,,,,,,,,,,,,,1,3.6196405869995942,,,,,,,,,,,,,,,,,,,,,,,,,,,,022819_p2,001,2019_Feb_28_1156,body_behavioural,3.0.4,60.014692197364724,
5,"The store specialized in organic produce and products catering to desires for high-end products, such as imported cheeses and sauces. ",1,1,,0,5,5,5,,,,,0,3,3,3,,,,,,,,,,,,,,,,,,,,,,,,,,,,,,,9,1.603028904999519,,,,,,,,,,,,,,,,,,,,,,,,,,,,022819_p2,001,2019_Feb_28_1156,body_behavioural,3.0.4,60.014692197364724,
5,"Emmanuella felt angry as she headed immediately for the pasta section, and Liam trailed behind her. ",2,1,,0,5,5,5,,,,,0,4,4,4,,,,,,,,,,,,,,,,,,,,,,,,,,,,,,,1,2.203121890001057,,,,,,,,,,,,,,,,,,,,,,,,,,,,022819_p2,001,2019_Feb_28_1156,body_behavioural,3.0.4,60.014692197364724,
5,Emmanuella selected a few boxes of linguine.,2,1,,0,5,5,5,,,,,0,5,5,5,,,,,,,,,,,,,,,,,,,,,,,,,,,,,,,1,1.6696917370009032,,,,,,,,,,,,,,,,,,,,,,,,,,,,022819_p2,001,2019_Feb_28_1156,body_behavioural,3.0.4,60.014692197364724,
5,"“I guess we are having pasta tonight,” Liam said.",2,1,,0,5,5,5,,,,,0,6,6,6,,,,,,,,,,,,,,,,,,,,,,,,,,,,,,,1,1.669827929999883,,,,,,,,,,,,,,,,,,,,,,,,,,,,022819_p2,001,2019_Feb_28_1156,body_behavioural,3.0.4,60.014692197364724,
5,"Emmanuella looked back at him and said, “Well if you were going to actually help cook, I would be fine with something else.”",2,1,,0,5,5,5,,,,,0,7,7,7,,,,,,,,,,,,,,,,,,,,,,,,,,,,,,,9,5.970236417999331,,,,,,,,,,,,,,,,,,,,,,,,,,,,022819_p2,001,2019_Feb_28_1156,body_behavioural,3.0.4,60.014692197364724,
5,"Liam sighed, and finally said, “You don’t want me to help.",2,1,,0,5,5,5,,,,,0,8,8,8,,,,,,,,,,,,,,,,,,,,,,,,,,,,,,,1,1.984180228000696,,,,,,,,,,,,,,,,,,,,,,,,,,,,022819_p2,001,2019_Feb_28_1156,body_behavioural,3.0.4,60.014692197364724,
5,"I try to, but it seems like I always get in the way!” ",2,1,,0,5,5,5,,,,,0,9,9,9,,,,,,,,,,,,,,,,,,,,,,,,,,,,,,,1,1.3531511549990682,,,,,,,,,,,,,,,,,,,,,,,,,,,,022819_p2,001,2019_Feb_28_1156,body_behavioural,3.0.4,60.014692197364724,
5,"Emmanuella angrily threw the pasta into the cart, losing her temper.",2,1,,0,5,5,5,,,,,0,10,10,10,,,,,,,,,,,,,,,,,,,,,,,,,,,,,,,1,2.620071880000978,,,,,,,,,,,,,,,,,,,,,,,,,,,,022819_p2,001,2019_Feb_28_1156,body_behavioural,3.0.4,60.014692197364724,
5," “Liam, you don’t even try!",2,1,,0,5,5,5,,,,,0,11,11,11,,,,,,,,,,,,,,,,,,,,,,,,,,,,,,,1,1.7538038099992264,,,,,,,,,,,,,,,,,,,,,,,,,,,,022819_p2,001,2019_Feb_28_1156,body_behavioural,3.0.4,60.014692197364724,
5,You know what?,2,1,,0,5,5,5,,,,,0,12,12,12,,,,,,,,,,,,,,,,,,,,,,,,,,,,,,,1,0.8196626320004725,,,,,,,,,,,,,,,,,,,,,,,,,,,,022819_p2,001,2019_Feb_28_1156,body_behavioural,3.0.4,60.014692197364724,
5,I don’t think I can do this anymore. ,2,2,,0,5,5,5,,,,,0,13,13,13,,,,,,,,,,,,,,,,,,,,,,,,,,,,,,,1,1.3864673450007103,,,,,,,,,,,,,,,,,,,,,,,,,,,,022819_p2,001,2019_Feb_28_1156,body_behavioural,3.0.4,60.014692197364724,
5,"I was going to wait until after this unfortunately-timed dinner party tonight to talk about this, but I might as well say it now: I don’t want to be in a relationship with you anymore.",2,2,,0,5,5,5,,,,,0,14,14,14,,,,,,,,,,,,,,,,,,,,,,,,,,,,,,,1,5.786841281998932,,,,,,,,,,,,,,,,,,,,,,,,,,,,022819_p2,001,2019_Feb_28_1156,body_behavioural,3.0.4,60.014692197364724,
5," I’m tired of the constant fighting, and I feel like when we try to do anything fun anymore it ends up unpleasant for the stupidest reasons, and I am just past  trying to work things out.”",2,2,,0,5,5,5,,,,,0,15,15,15,,,,,,,,,,,,,,,,,,,,,,,,,,,,,,,1,6.22019782300049,,,,,,,,,,,,,,,,,,,,,,,,,,,,022819_p2,001,2019_Feb_28_1156,body_behavioural,3.0.4,60.014692197364724,
5,"Liam refused to look at her as she picked out sauces for the pasta, and then she threw up her hands, saying, “You know what, if this party is still happening we are going to just eat pasta.”",2,2,,0,5,5,5,,,,,0,16,16,16,,,,,,,,,,,,,,,,,,,,,,,,,,,,,,,1,12.204389250000531,,,,,,,,,,,,,,,,,,,,,,,,,,,,022819_p2,001,2019_Feb_28_1156,body_behavioural,3.0.4,60.014692197364724,
5,They headed to the checkout area where there was only one station open but it was not crowded at all.,3,2,,0,5,5,5,,,,,0,17,17,17,,,,,,,,,,,,,,,,,,,,,,,,,,,,,,,9,3.652783460000137,,,,,,,,,,,,,,,,,,,,,,,,,,,,022819_p2,001,2019_Feb_28_1156,body_behavioural,3.0.4,60.014692197364724,
5,Emmanuella sighed and got in line while Liam pretended to be interested in the magazine racks as he thought. ,3,2,,0,5,5,5,,,,,0,18,18,18,,,,,,,,,,,,,,,,,,,,,,,,,,,,,,,1,3.036264336999011,,,,,,,,,,,,,,,,,,,,,,,,,,,,022819_p2,001,2019_Feb_28_1156,body_behavioural,3.0.4,60.014692197364724,
5,"Finally he turned to her and sighed, “Yes, I was thinking the same thing - I think we could definitely be happier with other people.” ",3,3,,0,5,5,5,,,,,0,19,19,19,,,,,,,,,,,,,,,,,,,,,,,,,,,,,,,1,4.819916437998472,,,,,,,,,,,,,,,,,,,,,,,,,,,,022819_p2,001,2019_Feb_28_1156,body_behavioural,3.0.4,60.014692197364724,
5,"As if she hadn't heard him, Emmanuella looked at their cart and said, “I'm not sure this will be enough, could you grab another box of pasta?”",3,3,,0,5,5,5,,,,,0,20,20,20,,,,,,,,,,,,,,,,,,,,,,,,,,,,,,,1,7.853640581999571,,,,,,,,,,,,,,,,,,,,,,,,,,,,022819_p2,001,2019_Feb_28_1156,body_behavioural,3.0.4,60.014692197364724,
5, Liam scoffed and walked off to quickly get it.,3,3,,0,5,5,5,,,,,0,21,21,21,,,,,,,,,,,,,,,,,,,,,,,,,,,,,,,1,2.753150195001581,,,,,,,,,,,,,,,,,,,,,,,,,,,,022819_p2,001,2019_Feb_28_1156,body_behavioural,3.0.4,60.014692197364724,
5,"As Emmanuella waited in line, she took a moment to compose herself, deciding that there was no reason to continue making a scene in the store. ",3,3,,0,5,5,5,,,,,0,22,22,22,,,,,,,,,,,,,,,,,,,,,,,,,,,,,,,1,5.203262684999572,,,,,,,,,,,,,,,,,,,,,,,,,,,,022819_p2,001,2019_Feb_28_1156,body_behavioural,3.0.4,60.014692197364724,
5," Right when Liam came back with the pasta, the cashier started scanning their groceries.",4,3,,0,5,5,5,,,,,0,23,23,23,,,,,,,,,,,,,,,,,,,,,,,,,,,,,,,1,5.336389791998954,,,,,,,,,,,,,,,,,,,,,,,,,,,,022819_p2,001,2019_Feb_28_1156,body_behavioural,3.0.4,60.014692197364724,
5,"The cost came to $30, and Emmanuella paid with her credit card.",4,3,,0,5,5,5,,,,,0,24,24,24,,,,,,,,,,,,,,,,,,,,,,,,,,,,,,,9,1.9530120849995,,,,,,,,,,,,,,,,,,,,,,,,,,,,022819_p2,001,2019_Feb_28_1156,body_behavioural,3.0.4,60.014692197364724,
5,"She asked Liam politely to take the bags, and he obliged, following her to toward the exit. ",4,3,,0,5,5,5,,,,,0,25,25,25,,,,,,,,,,,,,,,,,,,,,,,,,,,,,,,1,4.286632010000176,,,,,,,,,,,,,,,,,,,,,,,,,,,,022819_p2,001,2019_Feb_28_1156,body_behavioural,3.0.4,60.014692197364724,
5,"“Liam, I think we are making the right decision.",4,4,,0,5,5,5,,,,,0,26,26,26,,,,,,,,,,,,,,,,,,,,,,,,,,,,,,,1,1.2697016300007817,,,,,,,,,,,,,,,,,,,,,,,,,,,,022819_p2,001,2019_Feb_28_1156,body_behavioural,3.0.4,60.014692197364724,
5,This is good.” ,4,4,,0,5,5,5,,,,,0,27,27,27,,,,,,,,,,,,,,,,,,,,,,,,,,,,,,,1,3.3531165149997832,,,,,,,,,,,,,,,,,,,,,,,,,,,,022819_p2,001,2019_Feb_28_1156,body_behavioural,3.0.4,60.014692197364724,
5,"“I agree,” he said, visibly relieved at the thought that they had gotten through the last fight they would ever need to have.",4,4,,0,5,5,5,,,,,0,28,28,28,,,,,,,,,,,,,,,,,,,,,,,,,,,,,,,1,4.48659938000128,,,,,,,,,,,,,,,,,,,,,,,,,,,,022819_p2,001,2019_Feb_28_1156,body_behavioural,3.0.4,60.014692197364724,
5,"“I think we can still host this dinner tonight, as long as you're still on board,” Emmanuella said.",4,4,,0,5,5,5,,,,,0,29,29,29,,,,,,,,,,,,,,,,,,,,,,,,,,,,,,,1,5.353327982000337,,,,,,,,,,,,,,,,,,,,,,,,,,,,022819_p2,001,2019_Feb_28_1156,body_behavioural,3.0.4,60.014692197364724,
5,"Liam nodded, “Yes, let’s just not tell anyone yet.” ",4,4,,0,5,5,5,,,,,0,30,30,30,,,,,,,,,,,,,,,,,,,,,,,,,,,,,,,1,1.8864313249996485,,,,,,,,,,,,,,,,,,,,,,,,,,,,022819_p2,001,2019_Feb_28_1156,body_behavioural,3.0.4,60.014692197364724,
5,"Emmanuella laughed, “Whoever leaks it loses their rights to the cat.”",4,4,,0,5,5,5,,,,,0,31,31,31,,,,,,,,,,,,,,,,,,,,,,,,,,,,,,,1,8.053084761999344,,,,,,,,,,,,,,,,,,,,,,,,,,,,022819_p2,001,2019_Feb_28_1156,body_behavioural,3.0.4,60.014692197364724,
5,"Liam rolled his eyes and managed a weak chuckle, knowing the cat would be a whole other issue to sort out later.
",4,4,,0,5,5,5,,,,,0,32,32,32,,,,,,,,,,,,,,,,,,,,,,,,,,,,,,,1,5.917715560000943,,,,,,,,,,,,,,,,,,,,,,,,,,,,022819_p2,001,2019_Feb_28_1156,body_behavioural,3.0.4,60.014692197364724,
5,,,,,0,5,5,5,,,,,,,,,,,,,,,,,,,,,,,,,,,,,,,,,,,,,,,,,,,,,,,,,,,,,,,,,,,,,,,,,,,,022819_p2,001,2019_Feb_28_1156,body_behavioural,3.0.4,60.014692197364724,
6,,,,,0,6,6,6,0,0,0,0,,,,,,,,,,,,,,,,,,,,,,,,,,,,,space,1.4029908199991041,space,0.8696822749989224,space,0.7006918400002178,,,,,,,,,,,,,,,,,,,,,,,,,,,,,,022819_p2,001,2019_Feb_28_1156,body_behavioural,3.0.4,60.014692197364724,
6,"Sven and Isabel walked hurriedly from the cab into the Barcelona Airport after an incredible weekend with Isabel’s family, which had wiped away any doubts Sven had had about his decision to propose. ",1,1,,0,6,6,6,,,,,0,0,0,0,,,,,,,,,,,,,,,,,,,,,,,,,,,,,,,1,23.25136048100103,,,,,,,,,,,,,,,,,,,,,,,,,,,,022819_p2,001,2019_Feb_28_1156,body_behavioural,3.0.4,60.014692197364724,
6,"They were a little pressed for time, with only a little over an hour until their flight would take off to go back to the US, but they already had their online boarding passes and no checked luggage. ",1,1,,0,6,6,6,,,,,0,1,1,1,,,,,,,,,,,,,,,,,,,,,,,,,,,,,,,9,7.071114790000138,,,,,,,,,,,,,,,,,,,,,,,,,,,,022819_p2,001,2019_Feb_28_1156,body_behavioural,3.0.4,60.014692197364724,
6,"When Isabel stopped to rummage through her purse looking for her phone, Sven turned his back to her and took the velvet box out of his backpack, opening it to look at the ring he bought her.",1,2,,0,6,6,6,,,,,0,2,2,2,,,,,,,,,,,,,,,,,,,,,,,,,,,,,,,1,8.919998594999925,,,,,,,,,,,,,,,,,,,,,,,,,,,,022819_p2,001,2019_Feb_28_1156,body_behavioural,3.0.4,60.014692197364724,
6,"He had received her parents’ blessing during the trip, and he was almost giddy with excitement. ",1,2,,0,6,6,6,,,,,0,3,3,3,,,,,,,,,,,,,,,,,,,,,,,,,,,,,,,1,3.203073900000163,,,,,,,,,,,,,,,,,,,,,,,,,,,,022819_p2,001,2019_Feb_28_1156,body_behavioural,3.0.4,60.014692197364724,
6,"He tilted the ring backward and forward, despite having already studied it daily since he had purchased it a few weeks ago. ",1,2,,0,6,6,6,,,,,0,4,4,4,,,,,,,,,,,,,,,,,,,,,,,,,,,,,,,1,6.519874212001014,,,,,,,,,,,,,,,,,,,,,,,,,,,,022819_p2,001,2019_Feb_28_1156,body_behavioural,3.0.4,60.014692197364724,
6,"It was a simple design, with a clear, white diamond on a thin silver band.",1,2,,0,6,6,6,,,,,0,5,5,5,,,,,,,,,,,,,,,,,,,,,,,,,,,,,,,1,2.269993912001155,,,,,,,,,,,,,,,,,,,,,,,,,,,,022819_p2,001,2019_Feb_28_1156,body_behavioural,3.0.4,60.014692197364724,
6,"“Sven, let’s go! ” Isabel said. ",1,2,,0,6,6,6,,,,,0,6,6,6,,,,,,,,,,,,,,,,,,,,,,,,,,,,,,,1,1.5674495250004838,,,,,,,,,,,,,,,,,,,,,,,,,,,,022819_p2,001,2019_Feb_28_1156,body_behavioural,3.0.4,60.014692197364724,
6,Sven discretely closed the box and put it in his pocket.,1,2,,0,6,6,6,,,,,0,7,7,7,,,,,,,,,,,,,,,,,,,,,,,,,,,,,,,1,2.4364748419993703,,,,,,,,,,,,,,,,,,,,,,,,,,,,022819_p2,001,2019_Feb_28_1156,body_behavioural,3.0.4,60.014692197364724,
6," They entered the security line, weaving through the roped walkways to the front. ",2,2,,0,6,6,6,,,,,0,8,8,8,,,,,,,,,,,,,,,,,,,,,,,,,,,,,,,1,3.603474040000947,,,,,,,,,,,,,,,,,,,,,,,,,,,,022819_p2,001,2019_Feb_28_1156,body_behavioural,3.0.4,60.014692197364724,
6,"When they were up, Isabel realized her laptop was buried somewhere in her duffle bag. ",2,2,,0,6,6,6,,,,,0,9,9,9,,,,,,,,,,,,,,,,,,,,,,,,,,,,,,,9,3.3368223819998093,,,,,,,,,,,,,,,,,,,,,,,,,,,,022819_p2,001,2019_Feb_28_1156,body_behavioural,3.0.4,60.014692197364724,
6,Sven had to hold the growing mound of objects she pulled from her bag until she unearthed the laptop.,2,2,,0,6,6,6,,,,,0,10,10,10,,,,,,,,,,,,,,,,,,,,,,,,,,,,,,,1,4.3199752849996,,,,,,,,,,,,,,,,,,,,,,,,,,,,022819_p2,001,2019_Feb_28_1156,body_behavioural,3.0.4,60.014692197364724,
6,She set it into a bin and then had to unstrap her leather boots and put everything else into the bins.,2,2,,0,6,6,6,,,,,0,11,11,11,,,,,,,,,,,,,,,,,,,,,,,,,,,,,,,1,3.1205056149992743,,,,,,,,,,,,,,,,,,,,,,,,,,,,022819_p2,001,2019_Feb_28_1156,body_behavioural,3.0.4,60.014692197364724,
6,"Finally, she relieved Sven of his holding duties, and he hurriedly deposited his own backpack on the belt as the people behind them glared without shame. ",2,2,,0,6,6,6,,,,,0,12,12,12,,,,,,,,,,,,,,,,,,,,,,,,,,,,,,,1,0.2529143699994165,,,,,,,,,,,,,,,,,,,,,,,,,,,,022819_p2,001,2019_Feb_28_1156,body_behavioural,3.0.4,60.014692197364724,
6,"Sven went into the millimeter wave scanner after Isabel, put his hands up, and the metal bars whirled around him.",2,2,,0,6,6,6,,,,,0,13,13,13,,,,,,,,,,,,,,,,,,,,,,,,,,,,,,,1,4.236592797000412,,,,,,,,,,,,,,,,,,,,,,,,,,,,022819_p2,001,2019_Feb_28_1156,body_behavioural,3.0.4,60.014692197364724,
6,"“Sir, please step to the side.",2,2,,0,6,6,6,,,,,0,14,14,14,,,,,,,,,,,,,,,,,,,,,,,,,,,,,,,1,2.103568014999837,,,,,,,,,,,,,,,,,,,,,,,,,,,,022819_p2,001,2019_Feb_28_1156,body_behavioural,3.0.4,60.014692197364724,
6,"You need to empty your pockets,” the security guard said.",2,2,,0,6,6,6,,,,,0,15,15,15,,,,,,,,,,,,,,,,,,,,,,,,,,,,,,,1,2.936484215000746,,,,,,,,,,,,,,,,,,,,,,,,,,,,022819_p2,001,2019_Feb_28_1156,body_behavioural,3.0.4,60.014692197364724,
6,"With a sinking feeling Sven realized the mistake he had made forgetting to put the ring back in his bag, as Isabel and the guard both looked at him expectantly.",2,2,,0,6,6,6,,,,,0,16,16,16,,,,,,,,,,,,,,,,,,,,,,,,,,,,,,,1,8.17020235199925,,,,,,,,,,,,,,,,,,,,,,,,,,,,022819_p2,001,2019_Feb_28_1156,body_behavioural,3.0.4,60.014692197364724,
6,"Sven,  deciding he would make the best of the situation, grabbed Isabel's hand as he reached into his pocket.",2,2,,0,6,6,6,,,,,0,17,17,17,,,,,,,,,,,,,,,,,,,,,,,,,,,,,,,1,3.8033017379984813,,,,,,,,,,,,,,,,,,,,,,,,,,,,022819_p2,001,2019_Feb_28_1156,body_behavioural,3.0.4,60.014692197364724,
6,"He got down on one knee and, giggling slightly at her confused look, said, “Isabel, this isn't quite how I'd planned this, but - will you marry me?”",2,3,,0,6,6,6,,,,,0,18,18,18,,,,,,,,,,,,,,,,,,,,,,,,,,,,,,,1,7.020060560000275,,,,,,,,,,,,,,,,,,,,,,,,,,,,022819_p2,001,2019_Feb_28_1156,body_behavioural,3.0.4,60.014692197364724,
6,The security guard gasped.,2,3,,0,6,6,6,,,,,0,19,19,19,,,,,,,,,,,,,,,,,,,,,,,,,,,,,,,1,1.8031370070002595,,,,,,,,,,,,,,,,,,,,,,,,,,,,022819_p2,001,2019_Feb_28_1156,body_behavioural,3.0.4,60.014692197364724,
6,All the people who were putting their shoes back on and gathering their belongings stopped what they were doing and walked closer to the couple.,2,3,,0,6,6,6,,,,,0,20,20,20,,,,,,,,,,,,,,,,,,,,,,,,,,,,,,,1,5.403257267000299,,,,,,,,,,,,,,,,,,,,,,,,,,,,022819_p2,001,2019_Feb_28_1156,body_behavioural,3.0.4,60.014692197364724,
6,"Isabel was astonished, and far too shy to respond in front of the backup of passengers waiting behind them.",2,3,,0,6,6,6,,,,,0,21,21,21,,,,,,,,,,,,,,,,,,,,,,,,,,,,,,,1,3.603166984999916,,,,,,,,,,,,,,,,,,,,,,,,,,,,022819_p2,001,2019_Feb_28_1156,body_behavioural,3.0.4,60.014692197364724,
6,"She attempted to stammer a response as she frantically grabbed her and Sven’s shoes, leaving Sven to retrieve their bags.",2,3,,0,6,6,6,,,,,0,22,22,22,,,,,,,,,,,,,,,,,,,,,,,,,,,,,,,1,5.937280352000016,,,,,,,,,,,,,,,,,,,,,,,,,,,,022819_p2,001,2019_Feb_28_1156,body_behavioural,3.0.4,60.014692197364724,
6,"Both of them slipping in their socked feet, she fled onto the concourse with Sven trying to catch up behind her.",3,3,,0,6,6,6,,,,,0,23,23,23,,,,,,,,,,,,,,,,,,,,,,,,,,,,,,,9,6.000997582999844,,,,,,,,,,,,,,,,,,,,,,,,,,,,022819_p2,001,2019_Feb_28_1156,body_behavioural,3.0.4,60.014692197364724,
6,"Everyone in the terminal was looking at them with confusion as Sven, holding the bags in one hand and the open ring box in the other, finally caught up to her.",3,3,,0,6,6,6,,,,,0,24,24,24,,,,,,,,,,,,,,,,,,,,,,,,,,,,,,,1,5.670086505000654,,,,,,,,,,,,,,,,,,,,,,,,,,,,022819_p2,001,2019_Feb_28_1156,body_behavioural,3.0.4,60.014692197364724,
6,“Isabel?”,3,3,,0,6,6,6,,,,,0,25,25,25,,,,,,,,,,,,,,,,,,,,,,,,,,,,,,,1,0.7341067319994181,,,,,,,,,,,,,,,,,,,,,,,,,,,,022819_p2,001,2019_Feb_28_1156,body_behavioural,3.0.4,60.014692197364724,
6,"He watched her face as she turned, trying to read her expression.",3,3,,0,6,6,6,,,,,0,26,26,26,,,,,,,,,,,,,,,,,,,,,,,,,,,,,,,1,2.6031110550011363,,,,,,,,,,,,,,,,,,,,,,,,,,,,022819_p2,001,2019_Feb_28_1156,body_behavioural,3.0.4,60.014692197364724,
6,"Her eyes were wide, but she was smiling as she hyperventilated, “Of course yes, Sven, yes!” ",3,4,,0,6,6,6,,,,,0,27,27,27,,,,,,,,,,,,,,,,,,,,,,,,,,,,,,,1,6.070382762000008,,,,,,,,,,,,,,,,,,,,,,,,,,,,022819_p2,001,2019_Feb_28_1156,body_behavioural,3.0.4,60.014692197364724,
6,"They dropped their belongings and hugged, and Sven slipped the ring onto Isabel’s finger. ",3,4,,0,6,6,6,,,,,0,28,28,28,,,,,,,,,,,,,,,,,,,,,,,,,,,,,,,1,4.267569060000824,,,,,,,,,,,,,,,,,,,,,,,,,,,,022819_p2,001,2019_Feb_28_1156,body_behavioural,3.0.4,60.014692197364724,
6,"After getting their shoes back on, they practically skipped to the gate, filled with joy.",3,4,,0,6,6,6,,,,,0,29,29,29,,,,,,,,,,,,,,,,,,,,,,,,,,,,,,,9,2.7864493100005348,,,,,,,,,,,,,,,,,,,,,,,,,,,,022819_p2,001,2019_Feb_28_1156,body_behavioural,3.0.4,60.014692197364724,
6,Sven high-fived a confused shoe-shine attendant as they passed.,3,4,,0,6,6,6,,,,,0,30,30,30,,,,,,,,,,,,,,,,,,,,,,,,,,,,,,,1,8.353591437000432,,,,,,,,,,,,,,,,,,,,,,,,,,,,022819_p2,001,2019_Feb_28_1156,body_behavioural,3.0.4,60.014692197364724,
6,"They sat down outside their gate, having actually made good time, until the attendant called for passengers.",3,4,,0,6,6,6,,,,,0,31,31,31,,,,,,,,,,,,,,,,,,,,,,,,,,,,,,,1,4.1865793649994885,,,,,,,,,,,,,,,,,,,,,,,,,,,,022819_p2,001,2019_Feb_28_1156,body_behavioural,3.0.4,60.014692197364724,
6,"They boarded, sitting together in first class, and had a glass of champagne to celebrate the departure into their new life together.",4,4,,0,6,6,6,,,,,0,32,32,32,,,,,,,,,,,,,,,,,,,,,,,,,,,,,,,9,5.419770968001103,,,,,,,,,,,,,,,,,,,,,,,,,,,,022819_p2,001,2019_Feb_28_1156,body_behavioural,3.0.4,60.014692197364724,
6,"Some of their neighboring passengers who had witnessed the proposal congratulated them, and a woman next to them showed them that she had been live-tweeting the whole event and that it was already going viral online.",4,4,,0,6,6,6,,,,,0,33,33,33,,,,,,,,,,,,,,,,,,,,,,,,,,,,,,,1,7.63677903000098,,,,,,,,,,,,,,,,,,,,,,,,,,,,022819_p2,001,2019_Feb_28_1156,body_behavioural,3.0.4,60.014692197364724,
6,"Isabel slid down in her seat with her hands over her face, both embarrassed and overjoyed at the same time.
",4,4,,0,6,6,6,,,,,0,34,34,34,,,,,,,,,,,,,,,,,,,,,,,,,,,,,,,1,4.119931081999312,,,,,,,,,,,,,,,,,,,,,,,,,,,,022819_p2,001,2019_Feb_28_1156,body_behavioural,3.0.4,60.014692197364724,
6,,,,,0,6,6,6,,,,,,,,,,,,,,,,,,,,,,,,,,,,,,,,,,,,,,,,,,,,,,,,,,,,,,,,,,,,,,,,,,,,022819_p2,001,2019_Feb_28_1156,body_behavioural,3.0.4,60.014692197364724,
7,,,,,0,7,7,7,0,0,0,0,,,,,,,,,,,,,,,,,,,,,,,,,,,,,space,1.2340785920005146,space,0.7696231000008993,space,1.3530536350008333,,,,,,,,,,,,,,,,,,,,,,,,,,,,,,022819_p2,001,2019_Feb_28_1156,body_behavioural,3.0.4,60.014692197364724,
7,"James noticed Teresa immediately as she walked into the restaurant - or, more accurately as she attempted to walk into the restaurant. ",1,1,,0,7,7,7,,,,,0,0,0,0,,,,,,,,,,,,,,,,,,,,,,,,,,,,,,,1,22.237792416999582,,,,,,,,,,,,,,,,,,,,,,,,,,,,022819_p2,001,2019_Feb_28_1156,body_behavioural,3.0.4,60.014692197364724,
7,"She was typing intently on her phone and ran straight into the diner's clear, glass door with an echoing thud. ",1,1,,0,7,7,7,,,,,0,1,1,1,,,,,,,,,,,,,,,,,,,,,,,,,,,,,,,1,7.786965547000364,,,,,,,,,,,,,,,,,,,,,,,,,,,,022819_p2,001,2019_Feb_28_1156,body_behavioural,3.0.4,60.014692197364724,
7,Everyone waiting around the cash register turned to see if she was okay.,1,1,,0,7,7,7,,,,,0,2,2,2,,,,,,,,,,,,,,,,,,,,,,,,,,,,,,,1,2.186493460001657,,,,,,,,,,,,,,,,,,,,,,,,,,,,022819_p2,001,2019_Feb_28_1156,body_behavioural,3.0.4,60.014692197364724,
7,Teresa rubbed her head.,1,1,,0,7,7,7,,,,,0,3,3,3,,,,,,,,,,,,,,,,,,,,,,,,,,,,,,,1,1.2366520649993618,,,,,,,,,,,,,,,,,,,,,,,,,,,,022819_p2,001,2019_Feb_28_1156,body_behavioural,3.0.4,60.014692197364724,
7,"While being both confused and unembarrassed, she looked mostly indignant that the door had been in her way. ",1,1,,0,7,7,7,,,,,0,4,4,4,,,,,,,,,,,,,,,,,,,,,,,,,,,,,,,1,3.4008209349995013,,,,,,,,,,,,,,,,,,,,,,,,,,,,022819_p2,001,2019_Feb_28_1156,body_behavioural,3.0.4,60.014692197364724,
7,James found this quite charming and stole a couple glances at her until she noticed and wrinkled her eyebrows at him in suspicion. ,1,1,,0,7,7,7,,,,,0,5,5,5,,,,,,,,,,,,,,,,,,,,,,,,,,,,,,,9,6.9868345169998065,,,,,,,,,,,,,,,,,,,,,,,,,,,,022819_p2,001,2019_Feb_28_1156,body_behavioural,3.0.4,60.014692197364724,
7,"The restaurant they were in was a cabin-themed diner with wooden booths and bar, walls covered in plaid blankets, and antler decorations. ",1,1,,0,7,7,7,,,,,0,6,6,6,,,,,,,,,,,,,,,,,,,,,,,,,,,,,,,1,5.303403314999741,,,,,,,,,,,,,,,,,,,,,,,,,,,,022819_p2,001,2019_Feb_28_1156,body_behavioural,3.0.4,60.014692197364724,
7,The waiter saw that James and Teresa were both alone and motioned to both of them. ,1,1,,0,7,7,7,,,,,0,7,7,7,,,,,,,,,,,,,,,,,,,,,,,,,,,,,,,1,4.803012566999314,,,,,,,,,,,,,,,,,,,,,,,,,,,,022819_p2,001,2019_Feb_28_1156,body_behavioural,3.0.4,60.014692197364724,
7,“Right this way.,2,1,,0,7,7,7,,,,,0,8,8,8,,,,,,,,,,,,,,,,,,,,,,,,,,,,,,,1,1.103089344998807,,,,,,,,,,,,,,,,,,,,,,,,,,,,022819_p2,001,2019_Feb_28_1156,body_behavioural,3.0.4,60.014692197364724,
7,You two don't mind sitting at the counter?” ,2,1,,0,7,7,7,,,,,0,9,9,9,,,,,,,,,,,,,,,,,,,,,,,,,,,,,,,1,2.3031175099986285,,,,,,,,,,,,,,,,,,,,,,,,,,,,022819_p2,001,2019_Feb_28_1156,body_behavioural,3.0.4,60.014692197364724,
7,They sat a seat apart from each other on the split tree trunk that served as a bench.,2,1,,0,7,7,7,,,,,0,10,10,10,,,,,,,,,,,,,,,,,,,,,,,,,,,,,,,1,6.420025491999695,,,,,,,,,,,,,,,,,,,,,,,,,,,,022819_p2,001,2019_Feb_28_1156,body_behavioural,3.0.4,60.014692197364724,
7, The waitress behind the counter gave them bright neon menus that were filled with breakfast items.,2,1,,0,7,7,7,,,,,0,11,11,11,,,,,,,,,,,,,,,,,,,,,,,,,,,,,,,1,4.203147917000024,,,,,,,,,,,,,,,,,,,,,,,,,,,,022819_p2,001,2019_Feb_28_1156,body_behavioural,3.0.4,60.014692197364724,
7,"Teresa quickly glanced through it, then pulled out a book and started reading it while James played with the salt and pepper shakers as he tried to think of an excuse to talk to Teresa.",2,1,,0,7,7,7,,,,,0,12,12,12,,,,,,,,,,,,,,,,,,,,,,,,,,,,,,,1,6.783788021999499,,,,,,,,,,,,,,,,,,,,,,,,,,,,022819_p2,001,2019_Feb_28_1156,body_behavioural,3.0.4,60.014692197364724,
7,"James eventually turned to her and asked, “Your forehead alright?”",2,2,,0,7,7,7,,,,,0,13,13,13,,,,,,,,,,,,,,,,,,,,,,,,,,,,,,,9,5.003618500000812,,,,,,,,,,,,,,,,,,,,,,,,,,,,022819_p2,001,2019_Feb_28_1156,body_behavioural,3.0.4,60.014692197364724,
7,She put down her book and gave him a smirk.,2,2,,0,7,7,7,,,,,0,14,14,14,,,,,,,,,,,,,,,,,,,,,,,,,,,,,,,1,1.6531087499988644,,,,,,,,,,,,,,,,,,,,,,,,,,,,022819_p2,001,2019_Feb_28_1156,body_behavioural,3.0.4,60.014692197364724,
7,"“Have you ever been stung by a scorpion?”, she asked him, tilting her head.",2,2,,0,7,7,7,,,,,0,15,15,15,,,,,,,,,,,,,,,,,,,,,,,,,,,,,,,1,2.953207669999756,,,,,,,,,,,,,,,,,,,,,,,,,,,,022819_p2,001,2019_Feb_28_1156,body_behavioural,3.0.4,60.014692197364724,
7,"“What?”, he asked confusedly.",2,2,,0,7,7,7,,,,,0,16,16,16,,,,,,,,,,,,,,,,,,,,,,,,,,,,,,,1,1.136436151999078,,,,,,,,,,,,,,,,,,,,,,,,,,,,022819_p2,001,2019_Feb_28_1156,body_behavioural,3.0.4,60.014692197364724,
7, “A scorpion.”,2,2,,0,7,7,7,,,,,0,17,17,17,,,,,,,,,,,,,,,,,,,,,,,,,,,,,,,1,0.6860734619986033,,,,,,,,,,,,,,,,,,,,,,,,,,,,022819_p2,001,2019_Feb_28_1156,body_behavioural,3.0.4,60.014692197364724,
7,James began to worry that Teresa had possibly suffered a concussion in the door crash.,2,2,,0,7,7,7,,,,,0,18,18,18,,,,,,,,,,,,,,,,,,,,,,,,,,,,,,,1,2.753189721999661,,,,,,,,,,,,,,,,,,,,,,,,,,,,022819_p2,001,2019_Feb_28_1156,body_behavioural,3.0.4,60.014692197364724,
7,"“Uh no, why?” ",2,2,,0,7,7,7,,,,,0,19,19,19,,,,,,,,,,,,,,,,,,,,,,,,,,,,,,,1,1.8199243930012017,,,,,,,,,,,,,,,,,,,,,,,,,,,,022819_p2,001,2019_Feb_28_1156,body_behavioural,3.0.4,60.014692197364724,
7,"“Because I’ve been stung by one, and since then, things like bumping into doors seem like pretty small potatoes.” ",2,2,,0,7,7,7,,,,,0,20,20,20,,,,,,,,,,,,,,,,,,,,,,,,,,,,,,,1,4.053206560000035,,,,,,,,,,,,,,,,,,,,,,,,,,,,022819_p2,001,2019_Feb_28_1156,body_behavioural,3.0.4,60.014692197364724,
7,"They carried on talking, and Teresa told him all about her encounter with a Deathstalker scorpion while she was studying abroad in Egypt.",2,2,,0,7,7,7,,,,,0,21,21,21,,,,,,,,,,,,,,,,,,,,,,,,,,,,,,,1,7.16909407500134,,,,,,,,,,,,,,,,,,,,,,,,,,,,022819_p2,001,2019_Feb_28_1156,body_behavioural,3.0.4,60.014692197364724,
7,"After a few minutes, the waitress behind the counter came up to them, “Alrighty, can I take you order?” ",3,3,,0,7,7,7,,,,,0,22,22,22,,,,,,,,,,,,,,,,,,,,,,,,,,,,,,,1,3.186210267000206,,,,,,,,,,,,,,,,,,,,,,,,,,,,022819_p2,001,2019_Feb_28_1156,body_behavioural,3.0.4,60.014692197364724,
7,"She first looked at Teresa who answered, “I’ll have a Western Omelette and a glass of milk.”",3,3,,0,7,7,7,,,,,0,23,23,23,,,,,,,,,,,,,,,,,,,,,,,,,,,,,,,1,2.5865072019987565,,,,,,,,,,,,,,,,,,,,,,,,,,,,022819_p2,001,2019_Feb_28_1156,body_behavioural,3.0.4,60.014692197364724,
7,Then the waitress turned to James.,3,3,,0,7,7,7,,,,,0,24,24,24,,,,,,,,,,,,,,,,,,,,,,,,,,,,,,,1,1.100745960000495,,,,,,,,,,,,,,,,,,,,,,,,,,,,022819_p2,001,2019_Feb_28_1156,body_behavioural,3.0.4,60.014692197364724,
7,"James said, “I’ll have the chocolate chip pancakes and a coffee.” ",3,3,,0,7,7,7,,,,,0,25,25,25,,,,,,,,,,,,,,,,,,,,,,,,,,,,,,,1,2.119425957000203,,,,,,,,,,,,,,,,,,,,,,,,,,,,022819_p2,001,2019_Feb_28_1156,body_behavioural,3.0.4,60.014692197364724,
7,"“Alrighty, comin’ right up!”",3,3,,0,7,7,7,,,,,0,26,26,26,,,,,,,,,,,,,,,,,,,,,,,,,,,,,,,1,3.253295213000456,,,,,,,,,,,,,,,,,,,,,,,,,,,,022819_p2,001,2019_Feb_28_1156,body_behavioural,3.0.4,60.014692197364724,
7,"They picked up their conversation, and James ended up telling Teresa about a concert he was going to later. ",3,3,,0,7,7,7,,,,,0,27,27,27,,,,,,,,,,,,,,,,,,,,,,,,,,,,,,,1,5.486715515000469,,,,,,,,,,,,,,,,,,,,,,,,,,,,022819_p2,001,2019_Feb_28_1156,body_behavioural,3.0.4,60.014692197364724,
7,"He invited her to come along, promising her that the concert would be indoors and absolutely free of venomous insects.",3,3,,0,7,7,7,,,,,0,28,28,28,,,,,,,,,,,,,,,,,,,,,,,,,,,,,,,9,3.0013302549996297,,,,,,,,,,,,,,,,,,,,,,,,,,,,022819_p2,001,2019_Feb_28_1156,body_behavioural,3.0.4,60.014692197364724,
7,"Teresa agreed, gave him her number, and they worked out that James would pick her up before the concert and drive them there.",3,3,,0,7,7,7,,,,,0,29,29,29,,,,,,,,,,,,,,,,,,,,,,,,,,,,,,,1,4.586312015000658,,,,,,,,,,,,,,,,,,,,,,,,,,,,022819_p2,001,2019_Feb_28_1156,body_behavioural,3.0.4,60.014692197364724,
7,"This was not what they had expected from their solitary lunch plans and were both excited, even though Teresa was doing a much better job of hiding it than James. ",3,3,,0,7,7,7,,,,,0,30,30,30,,,,,,,,,,,,,,,,,,,,,,,,,,,,,,,1,7.053489555000851,,,,,,,,,,,,,,,,,,,,,,,,,,,,022819_p2,001,2019_Feb_28_1156,body_behavioural,3.0.4,60.014692197364724,
7," After awhile,  the waitress brought out their food, and James took this opportunity to scoot closer to her on the log bench. ",4,4,,0,7,7,7,,,,,0,31,31,31,,,,,,,,,,,,,,,,,,,,,,,,,,,,,,,1,4.603168475001439,,,,,,,,,,,,,,,,,,,,,,,,,,,,022819_p2,001,2019_Feb_28_1156,body_behavioural,3.0.4,60.014692197364724,
7,"Teresa was happy to share the meal with James, despite their food tasting pretty bad. ",4,4,,0,7,7,7,,,,,0,32,32,32,,,,,,,,,,,,,,,,,,,,,,,,,,,,,,,1,4.453258859999551,,,,,,,,,,,,,,,,,,,,,,,,,,,,022819_p2,001,2019_Feb_28_1156,body_behavioural,3.0.4,60.014692197364724,
7,"Judging by how salty the pancakes tasted, they suspected that the chef had confused the salt and sugar.",4,4,,0,7,7,7,,,,,0,33,33,33,,,,,,,,,,,,,,,,,,,,,,,,,,,,,,,1,7.286525901999994,,,,,,,,,,,,,,,,,,,,,,,,,,,,022819_p2,001,2019_Feb_28_1156,body_behavioural,3.0.4,60.014692197364724,
7,"When the meal was over, they got up, hugged, and parted ways. ",4,4,,0,7,7,7,,,,,0,34,34,34,,,,,,,,,,,,,,,,,,,,,,,,,,,,,,,9,4.853232571998888,,,,,,,,,,,,,,,,,,,,,,,,,,,,022819_p2,001,2019_Feb_28_1156,body_behavioural,3.0.4,60.014692197364724,
7,"James said,“I have to run, got to get to work.",4,4,,0,7,7,7,,,,,0,35,35,35,,,,,,,,,,,,,,,,,,,,,,,,,,,,,,,1,1.6364286719999654,,,,,,,,,,,,,,,,,,,,,,,,,,,,022819_p2,001,2019_Feb_28_1156,body_behavioural,3.0.4,60.014692197364724,
7,See you tonight!”,4,4,,0,7,7,7,,,,,0,36,36,36,,,,,,,,,,,,,,,,,,,,,,,,,,,,,,,1,0.7174088120009401,,,,,,,,,,,,,,,,,,,,,,,,,,,,022819_p2,001,2019_Feb_28_1156,body_behavioural,3.0.4,60.014692197364724,
7,"Teresa smiled and walked towards the door without looking, and almost ran into the door again. ",4,4,,0,7,7,7,,,,,0,37,37,37,,,,,,,,,,,,,,,,,,,,,,,,,,,,,,,1,3.9199767770005565,,,,,,,,,,,,,,,,,,,,,,,,,,,,022819_p2,001,2019_Feb_28_1156,body_behavioural,3.0.4,60.014692197364724,
7,They both laughed and smiled once more goodbye. ,4,4,,0,7,7,7,,,,,0,38,38,38,,,,,,,,,,,,,,,,,,,,,,,,,,,,,,,1,1.3692627920008817,,,,,,,,,,,,,,,,,,,,,,,,,,,,022819_p2,001,2019_Feb_28_1156,body_behavioural,3.0.4,60.014692197364724,
7,,,,,0,7,7,7,,,,,,,,,,,,,,,,,,,,,,,,,,,,,,,,,,,,,,,,,,,,,,,,,,,,,,,,,,,,,,,,,,,,022819_p2,001,2019_Feb_28_1156,body_behavioural,3.0.4,60.014692197364724,
,,,,,,,,,,,,,,,,,,,,,,,,,,,,,,,,,,,,,,,,,,,,,,,,,1829.781062168,space,4.970318649999172,,,,,,,,,,,,,,,,,,,,,,,,,022819_p2,001,2019_Feb_28_1156,body_behavioural,3.0.4,60.014692197364724,
,,,,The next task in the experiment is to recall each story to the best of your ability.,,,,,,,,,,,,,0,0,0,0,,,,,,,,,,,,,,,,,,,,,,,,,,,,,,,,space,4.136365925000064,,,,,,,,,,,,,,,,,,,,,,,022819_p2,001,2019_Feb_28_1156,body_behavioural,3.0.4,60.014692197364724,
,,,,"You will be presented with the story title, names, the images, and a blank text box for each story.",,,,,,,,,,,,,0,1,1,1,,,,,,,,,,,,,,,,,,,,,,,,,,,,,,,,space,4.770047551999596,,,,,,,,,,,,,,,,,,,,,,,022819_p2,001,2019_Feb_28_1156,body_behavioural,3.0.4,60.014692197364724,
,,,,Describe the story with as many details as you can remember in the space provided. ,,,,,,,,,,,,,0,2,2,2,,,,,,,,,,,,,,,,,,,,,,,,,,,,,,,,space,2.6031476500011195,,,,,,,,,,,,,,,,,,,,,,,022819_p2,001,2019_Feb_28_1156,body_behavioural,3.0.4,60.014692197364724,
,,,,"When you are finished recalling one story, to move onto the next one hit ‘return’. ",,,,,,,,,,,,,0,3,3,3,,,,,,,,,,,,,,,,,,,,,,,,,,,,,,,,space,7.07010561000061,,,,,,,,,,,,,,,,,,,,,,,022819_p2,001,2019_Feb_28_1156,body_behavioural,3.0.4,60.014692197364724,
,,,,There is a 5 minute time limit to make your response. ,,,,,,,,,,,,,0,4,4,4,,,,,,,,,,,,,,,,,,,,,,,,,,,,,,,,space,1.8697514550003689,,,,,,,,,,,,,,,,,,,,,,,022819_p2,001,2019_Feb_28_1156,body_behavioural,3.0.4,60.014692197364724,
0,,,,,,,,,,,,,,,,,,,,,0,0,0,0,,,,,,,,,,,,,,,,,,,,,,,,,,,,,,space,1.4696222250004212,They are late. they end up breaking up. they are not happy with eachother and luckily they do not have to sit with each other. there is an awkward handshake before they take their seats. they were abroad. said she originally wanted to break up when they got back to the states. ,,,,,,,,,,,,,,,,,,,,022819_p2,001,2019_Feb_28_1156,body_behavioural,3.0.4,60.014692197364724,
1,,,,,,,,,,,,,,,,,,,,,0,1,1,1,,,,,,,,,,,,,,,,,,,,,,,,,,,,,,space,1.819983917999707,They are in an egyptian class. the chairs are pushed to the back. he thinks he recognizes her but can't place her. he eventually writes a note to her. she responds and they exhange more notes without paying attention to the lecture. they plan to meet up later on. he has to run to his next class.,,,,,,,,,,,,,,,,,,,,022819_p2,001,2019_Feb_28_1156,body_behavioural,3.0.4,60.014692197364724,
2,,,,,,,,,,,,,,,,,,,,,0,2,2,2,,,,,,,,,,,,,,,,,,,,,,,,,,,,,,space,1.6031190270005027,They are at the grocery store. he proposes while in line. he is extrememly nervous. she likes surprises. their friends are at the exit. he proposes. their friends and other customers film it. she exclaims yes!,,,,,,,,,,,,,,,,,,,,022819_p2,001,2019_Feb_28_1156,body_behavioural,3.0.4,60.014692197364724,
3,,,,,,,,,,,,,,,,,,,,,0,3,3,3,,,,,,,,,,,,,,,,,,,,,,,,,,,,,,space,0.9030855100008921,"Charlie is part of an investment team and alma is seeking funding for a web site she is starting. they sit together in class and he proposses financing half in the beginning and the rest later on. after a moment, she says that she needs the whole amount. otherwise it will harm the site. they talk some more and by the end of class he agrees to wire the full amount the next day. they are the last ones to leave class. he had approval for full funding the whole time.",,,,,,,,,,,,,,,,,,,,022819_p2,001,2019_Feb_28_1156,body_behavioural,3.0.4,60.014692197364724,
4,,,,,,,,,,,,,,,,,,,,,0,4,4,4,,,,,,,,,,,,,,,,,,,,,,,,,,,,,,space,0.8195764179999969,Mr. gordon wants to buy the other's company. they are are a nice restaurant. italian. they order. one person a filet mignon. they also order drinks. he is worried the company is too big for his own. they talk some more. they love the food. they agree on a merger. ,,,,,,,,,,,,,,,,,,,,022819_p2,001,2019_Feb_28_1156,body_behavioural,3.0.4,60.014692197364724,
5,,,,,,,,,,,,,,,,,,,,,0,5,5,5,,,,,,,,,,,,,,,,,,,,,,,,,,,,,,space,1.2366193100006058,They are at a store buying food for a dinner party. they have been fighting a lot. they buy ingrediants for pasta. while in the store they agree to break up but will still hold the dinner party. she doesnt want to make a scene while in line. there is a joke about who gets the cat. i don't think there is anyone in line. ,,,,,,,,,,,,,,,,,,,,022819_p2,001,2019_Feb_28_1156,body_behavioural,3.0.4,60.014692197364724,
6,,,,,,,,,,,,,,,,,,,,,0,6,6,6,,,,,,,,,,,,,,,,,,,,,,,,,,,,,,space,4.636638870000752,"They are in the airport headed home after a nice trip at the gf's home. he plans to propose. they get to the airport with plenty of time. he has the parents' blessing. she forgets to take her back pack out while in line. he forgets to take the ring out of his pocket. the machine goes off and he proposes while in the security line. she runs off and when he catches up she exlaims yes, of course. they happily make it to the gate with time and when they bored they sit together and have a glass of champagne.",,,,,,,,,,,,,,,,,,,,022819_p2,001,2019_Feb_28_1156,body_behavioural,3.0.4,60.014692197364724,
7,,,,,,,,,,,,,,,,,,,,,0,7,7,7,,,,,,,,,,,,,,,,,,,,,,,,,,,,,,space,0.6173659750002116,They are at a restuarant. she runs into a door as she enters. the waiter pairs them together. she notices him. he thinks of something to say. asks how she is. their is a dialogue of scorbian stings while she was abroad. he invites her to a concert. she says yes. they both leave and she almost runs into door again.,,,,,,,,,,,,,,,,,,,,022819_p2,001,2019_Feb_28_1156,body_behavioural,3.0.4,60.014692197364724,
,,,,,,,,,,,,,,,,,,,,,,,,,,,,,,,,,,,,,,,,,,,,,,,,,,,,,,,,,2817.779886268001,space,1.0201910750001844,,,,,,,,,,,,,,,,,022819_p2,001,2019_Feb_28_1156,body_behavioural,3.0.4,60.014692197364724,
,,,,The next part of the task is to answer 8 questions about each story.,,,,,,,,,,,,,,,,,,,,,0,0,0,0,,,,,,,,,,,,,,,,,,,,,,,,,,,,,,,,space,2.8035529919998226,,,,,,,,,,,,,,,022819_p2,001,2019_Feb_28_1156,body_behavioural,3.0.4,60.014692197364724,
,,,,Some of the questions are not related to the perspective you were asked to assume.,,,,,,,,,,,,,,,,,,,,,0,1,1,1,,,,,,,,,,,,,,,,,,,,,,,,,,,,,,,,space,2.603433075000794,,,,,,,,,,,,,,,022819_p2,001,2019_Feb_28_1156,body_behavioural,3.0.4,60.014692197364724,
,,,,"We realize that we did not tell you to think of these questions during the story, but do your best to answer them.",,,,,,,,,,,,,,,,,,,,,0,2,2,2,,,,,,,,,,,,,,,,,,,,,,,,,,,,,,,,space,4.236841945001288,,,,,,,,,,,,,,,022819_p2,001,2019_Feb_28_1156,body_behavioural,3.0.4,60.014692197364724,
,,,,"When you have finished typing your answer, hit ‘return’ to submit your answer and move onto the next question. ",,,,,,,,,,,,,,,,,,,,,0,3,3,3,,,,,,,,,,,,,,,,,,,,,,,,,,,,,,,,space,3.6034117119997973,,,,,,,,,,,,,,,022819_p2,001,2019_Feb_28_1156,body_behavioural,3.0.4,60.014692197364724,
0,,,,,,,,,,,,,,,,,,,,,,,,,,,,,0,0,0,0,,,,,,,,,,,,,,,,,,,,,,,,First class. row 1 and 4,,,,,,space,2.919956017000004,Annoyed,primed first,Tells boring stories,That she should have said something. he was trying to not make it awkward,No,They are late,Nothing,She is trying to catch up to him. annoyed,First class. row 1 and 4,,,,022819_p2,001,2019_Feb_28_1156,body_behavioural,3.0.4,60.014692197364724,
1,,,,,,,,,,,,,,,,,,,,,,,,,,,,,0,1,1,1,,,,,,,,,,,,,,,,,,,,,,,,Quiz,,,,,,space,0.986620990001029,Leon because thinks he recognizes her,non-primed first,He writes a note,He does. i dont remember what,He leaves because he has class,Desks pushed to the back. ,Ancient egypt. mummiesquestion,I dont remember,Quiz,,,,022819_p2,001,2019_Feb_28_1156,body_behavioural,3.0.4,60.014692197364724,
2,,,,,,,,,,,,,,,,,,,,,,,,,,,,,0,2,2,2,,,,,,,,,,,,,,,,,,,,,,,,35 with card,,,,,,space,0.9174222400015424,Very nervous,primed first,Dont remember,Friends are at exit to film,Friends and customers,Very nice,Don't remember,They are in line. after propossing they go to the front,35 with card,,,,022819_p2,001,2019_Feb_28_1156,body_behavioural,3.0.4,60.014692197364724,
3,,,,,,,,,,,,,,,,,,,,,,,,,,,,,0,3,3,3,,,,,,,,,,,,,,,,,,,,,,,,She gets the full 30k,,,,,,space,1.2364364830009436,Basement,non-primed first,Dont know,Dont know,Dont know,He is an investor and she is in website stuff,How much to invest. she wants 30k,"She doesnt like it. wants full amount, not half",She gets the full 30k,,,,022819_p2,001,2019_Feb_28_1156,body_behavioural,3.0.4,60.014692197364724,
4,,,,,,,,,,,,,,,,,,,,,,,,,,,,,0,4,4,4,,,,,,,,,,,,,,,,,,,,,,,,They agree on amerger,,,,,,space,0.8200801229995704,Old and nice,primed first,Classic italian dishes,Filet mignon,They love it,Not sure,To buy his company. 60 millionquestion,He is worried a big company buying his will ruin it,They agree on amerger,,,,022819_p2,001,2019_Feb_28_1156,body_behavioural,3.0.4,60.014692197364724,
5,,,,,,,,,,,,,,,,,,,,,,,,,,,,,0,5,5,5,,,,,,,,,,,,,,,,,,,,,,,,Dont know,,,,,,space,0.7840446270001848,Tired of dumb fights,non-primed first,Is fed up with fighting,He is quiet and then agrees,Yes,Dont know,Pasta,Not long. no line,Dont know,,,,022819_p2,001,2019_Feb_28_1156,body_behavioural,3.0.4,60.014692197364724,
6,,,,,,,,,,,,,,,,,,,,,,,,,,,,,0,6,6,6,,,,,,,,,,,,,,,,,,,,,,,,Next to each other,,,,,,space,0.6530618569995568,Excited. jittery,non-primed first,Idk. he looked at it alot tho,No,Tsa and others in line,Plenty,Take out computer and shoes. nothing in pockets,Very happy,Next to each other,,,,022819_p2,001,2019_Feb_28_1156,body_behavioural,3.0.4,60.014692197364724,
7,,,,,,,,,,,,,,,,,,,,,,,,,,,,,0,7,7,7,,,,,,,,,,,,,,,,,,,,,,,,She leaves. idk why.,,,,,,space,0.6863766349997604,Dont know,non-primed first,Dont know,Pancakes and coffee   milk and western omlette,Salty. bad,She notices him when she ran in to door,He asks if she is ok,He proposes going out. maybe concertquestion ,She leaves. idk why.,,,,022819_p2,001,2019_Feb_28_1156,body_behavioural,3.0.4,60.014692197364724,
,,,,,,,,,,,,,,,,,,,,,,,,,,,,,,,,,,,,,,,,,,,,,,,,,,,,,,,,,,,,,,,,,,,,,,,,,3387.718708528,space,1.053630484999303,022819_p2,001,2019_Feb_28_1156,body_behavioural,3.0.4,60.014692197364724,
,,,,,,,,,,,,,,,,,,,,,,,,,,,,,,,,,0,0,0,0,,,,,,,,,,,,,,,,,,,,,,,,,,,,,,,,,,,,,,,,022819_p2,001,2019_Feb_28_1156,body_behavioural,3.0.4,60.014692197364724,
,,,,,,,,,,,,,,,,,,,,,,,,,,,,,,,,,1,0,1,0,,,,,,,,,,,,,,,,,,,,,,,,,,,,,,,,,,,,,,,,022819_p2,001,2019_Feb_28_1156,body_behavioural,3.0.4,60.014692197364724,
,,,,,,,,,,,,,,,,,,,,,,,,,,,,,,,,,2,0,2,0,,,,,,,,,,,,,,,,,,,,,,,,,,,,,,,,,,,,,,,,022819_p2,001,2019_Feb_28_1156,body_behavioural,3.0.4,60.014692197364724,
,,,,,,,,,,,,,,,,,,,,,,,,,,,,,,,,,3,0,3,0,,,,,,,,,,,,,,,,,,,,,,,,,,,,,,,,,,,,,,,,022819_p2,001,2019_Feb_28_1156,body_behavioural,3.0.4,60.014692197364724,
,,,,,,,,,,,,,,,,,,,,,,,,,,,,,,,,,4,0,4,0,,,,,,,,,,,,,,,,,,,,,,,,,,,,,,,,,,,,,,,,022819_p2,001,2019_Feb_28_1156,body_behavioural,3.0.4,60.014692197364724,
