count,storyText,locationEvent,socialEvent,locationEventSize,socialEventSize,instructText,trials.thisRepN,trials.thisTrialN,trials.thisN,trials.thisIndex,trials_7.thisRepN,trials_7.thisTrialN,trials_7.thisN,trials_7.thisIndex,trials_2.thisRepN,trials_2.thisTrialN,trials_2.thisN,trials_2.thisIndex,trials_3.thisRepN,trials_3.thisTrialN,trials_3.thisN,trials_3.thisIndex,trials_4.thisRepN,trials_4.thisTrialN,trials_4.thisN,trials_4.thisIndex,order of stories,order of perspectives,participant 2 order - stories,participant 2 order  - schemas types,key_resp_8.keys,key_resp_8.rt,key_resp_5.keys,key_resp_5.rt,key_resp_7.keys,key_resp_7.rt,story_presses.keys,story_presses.rt,story time,key_resp_6.keys,key_resp_6.rt,key_resp_2.keys,key_resp_2.rt,key_resp_10.keys,key_resp_10.rt,recall,recall time,participant,session,date,expName,psychopyVersion,frameRate,
0,,,,,,,0,0,0,0,0,0,0,0,,,,,,,,,,,,,[21 12 34 32 14 43 23 41 33 22 44 13 24 31 11 42],"['Location' 'Social' 'Social' 'Location' 'Location' 'Location' 'Social'
 'Social' 'Social' 'Location' 'Location' 'Location' 'Social' 'Location'
 'Social' 'Social']",[33 22 44 13 24 31 11 42],"['Social' 'Location' 'Location' 'Location' 'Social' 'Location' 'Social'
 'Social']",space,22.222943745000066,space,1.7702082619998691,space,3.103465574999973,,,,,,,,,,,,022819_p1,001,2019_Feb_28_1020,body_behavioural,3.0.4,60.05952619757646,
0,,,,,,,0,0,0,0,1,0,1,0,,,,,,,,,,,,,,,,,,,,,space,1.8862906949998433,,,,,,,,,,,,022819_p1,001,2019_Feb_28_1020,body_behavioural,3.0.4,60.05952619757646,
0,,,,,,,0,0,0,0,2,0,2,0,,,,,,,,,,,,,,,,,,,,,space,2.1364184099998056,,,,,,,,,,,,022819_p1,001,2019_Feb_28_1020,body_behavioural,3.0.4,60.05952619757646,
0,"Alvira and Senna walked into the restaurant hand in sweaty hand with quite different expectations: Senna was going to propose tonight, and Alvira had no idea.",1,1,None,None,,0,0,0,0,,,,,0,0,0,0,,,,,,,,,,,,,,,,,,,1,14.904498934999992,,,,,,,,,,022819_p1,001,2019_Feb_28_1020,body_behavioural,3.0.4,60.05952619757646,
0,"He took a deep breath, trying to calm his nerves as worst case scenarios ran through his mind. ",1,1,None,None,,0,0,0,0,,,,,0,1,1,1,,,,,,,,,,,,,,,,,,,1,4.537000899999839,,,,,,,,,,022819_p1,001,2019_Feb_28_1020,body_behavioural,3.0.4,60.05952619757646,
0,The entrance of the restaurant was dazzling; chandeliers spread their warm light onto the delicate place settings of all the tables filled with guests dressed to the nines. ,1,1,None,None,,0,0,0,0,,,,,0,2,2,2,,,,,,,,,,,,,,,,,,,9,6.93689798000014,,,,,,,,,,022819_p1,001,2019_Feb_28_1020,body_behavioural,3.0.4,60.05952619757646,
0,"Through the floor-to-ceiling arched windows of the back wall, they saw the sun setting onto the Pacific ocean.",1,1,None,None,,0,0,0,0,,,,,0,3,3,3,,,,,,,,,,,,,,,,,,,9,13.887045776999912,,,,,,,,,,022819_p1,001,2019_Feb_28_1020,body_behavioural,3.0.4,60.05952619757646,
0,"This was surely one of the best restaurants on the west coast, situated right on the beach.",1,1,None,None,,0,0,0,0,,,,,0,4,4,4,,,,,,,,,,,,,,,,,,,1,6.986909706999995,,,,,,,,,,022819_p1,001,2019_Feb_28_1020,body_behavioural,3.0.4,60.05952619757646,
0,"Senna gave his name to the host, who quickly located their reservation with an almost comically wide customer-service smile.",1,1,7.0,None,,0,0,0,0,,,,,0,5,5,5,,,,,,,,,,,,,,,,,,,9,12.520519695000075,,,,,,,,,,022819_p1,001,2019_Feb_28_1020,body_behavioural,3.0.4,60.05952619757646,
0,He led them to a table right by the window.,2,1,None,None,,0,0,0,0,,,,,0,6,6,6,,,,,,,,,,,,,,,,,,,1,3.5865842899997915,,,,,,,,,,022819_p1,001,2019_Feb_28_1020,body_behavioural,3.0.4,60.05952619757646,
0,"He brought out some very small menus, with a short list of the celebrity chef's carefully selected daily dishes written in a loopy, cursive font unadorned by any mention of prices.",2,1,None,9.0,,0,0,0,0,,,,,0,7,7,7,,,,,,,,,,,,,,,,,,,1,4.367628904999947,,,,,,,,,,022819_p1,001,2019_Feb_28_1020,body_behavioural,3.0.4,60.05952619757646,
0,Senna slipped off to the bathroom to check to make sure the ring was in order.,2,2,None,None,,0,0,0,0,,,,,0,8,8,8,,,,,,,,,,,,,,,,,,,9,6.370370229999935,,,,,,,,,,022819_p1,001,2019_Feb_28_1020,body_behavioural,3.0.4,60.05952619757646,
0,"The ring contained a canary diamond that had been in his grandmother’s wedding ring, and it was a brilliant stone that was accentuated by the small white diamonds encircling it.",2,2,None,None,,0,0,0,0,,,,,0,9,9,9,,,,,,,,,,,,,,,,,,,1,4.617651094999928,,,,,,,,,,022819_p1,001,2019_Feb_28_1020,body_behavioural,3.0.4,60.05952619757646,
0,"He walked back to the table after handing the small, velvet box to a waiter at the front podium.",2,2,6.0,None,,0,0,0,0,,,,,0,10,10,10,,,,,,,,,,,,,,,,,,,1,3.036368765000134,,,,,,,,,,022819_p1,001,2019_Feb_28_1020,body_behavioural,3.0.4,60.05952619757646,
0,He came back just as their waiter was approaching the table to get their order.,3,2,None,None,,0,0,0,0,,,,,0,11,11,11,,,,,,,,,,,,,,,,,,,1,6.336791149999954,,,,,,,,,,022819_p1,001,2019_Feb_28_1020,body_behavioural,3.0.4,60.05952619757646,
0,"Senna ordered the oysters with garlic-parmesan sauce, and Alvira ordered the sauteed sea scallops with caramelized apples. ",3,2,None,None,,0,0,0,0,,,,,0,12,12,12,,,,,,,,,,,,,,,,,,,9,3.402891825000097,,,,,,,,,,022819_p1,001,2019_Feb_28_1020,body_behavioural,3.0.4,60.05952619757646,
0,"“Excellent choices,” the waiter said with a subsequent brisk spin away from the table.",3,2,None,None,,0,0,0,0,,,,,0,13,13,13,,,,,,,,,,,,,,,,,,,1,1.7864585049997004,,,,,,,,,,022819_p1,001,2019_Feb_28_1020,body_behavioural,3.0.4,60.05952619757646,
0,"“What a beautiful place, Senna. ",3,2,None,None,,0,0,0,0,,,,,0,14,14,14,,,,,,,,,,,,,,,,,,,1,4.153339802000119,,,,,,,,,,022819_p1,001,2019_Feb_28_1020,body_behavioural,3.0.4,60.05952619757646,
0,"Really this is too much just to celebrate the first tomatoes I grew in the garden, like, this is absurd,” Alvira said.",3,2,None,None,,0,0,0,0,,,,,0,15,15,15,,,,,,,,,,,,,,,,,,,1,13.054130545000135,,,,,,,,,,022819_p1,001,2019_Feb_28_1020,body_behavioural,3.0.4,60.05952619757646,
0,"Senna laughed and said, “No, those were really the best tomatoes I’ve ever had. ",3,2,None,None,,0,0,0,0,,,,,0,16,16,16,,,,,,,,,,,,,,,,,,,1,2.769852097999774,,,,,,,,,,022819_p1,001,2019_Feb_28_1020,body_behavioural,3.0.4,60.05952619757646,
0,We had to celebrate.” ,3,2,None,None,,0,0,0,0,,,,,0,17,17,17,,,,,,,,,,,,,,,,,,,1,1.70310364199986,,,,,,,,,,022819_p1,001,2019_Feb_28_1020,body_behavioural,3.0.4,60.05952619757646,
0,"They talked and laughed as the sun sank below the horizon, and the glow from the ocean was replaced by the glow from the chandeliers.",3,2,8.0,None,,0,0,0,0,,,,,0,18,18,18,,,,,,,,,,,,,,,,,,,1,6.470123524999963,,,,,,,,,,022819_p1,001,2019_Feb_28_1020,body_behavioural,3.0.4,60.05952619757646,
0,"The waiter eventually returned with their meals, and everything was even more delicious than they had expected, especially the oysters, which Senna said tasted like the ocean. ",4,2,None,None,,0,0,0,0,,,,,0,19,19,19,,,,,,,,,,,,,,,,,,,1,5.934718970000176,,,,,,,,,,022819_p1,001,2019_Feb_28_1020,body_behavioural,3.0.4,60.05952619757646,
0,Then he paused and looked at Alvira meaningfully. ,4,2,None,None,,0,0,0,0,,,,,0,20,20,20,,,,,,,,,,,,,,,,,,,9,3.5687656769996465,,,,,,,,,,022819_p1,001,2019_Feb_28_1020,body_behavioural,3.0.4,60.05952619757646,
0, “It’s really been the best three years of my life with you.,4,2,None,None,,0,0,0,0,,,,,0,21,21,21,,,,,,,,,,,,,,,,,,,1,2.751622772999781,,,,,,,,,,022819_p1,001,2019_Feb_28_1020,body_behavioural,3.0.4,60.05952619757646,
0,"I couldn’t imagine it any other way, and I don’t want to.",4,2,None,None,,0,0,0,0,,,,,0,22,22,22,,,,,,,,,,,,,,,,,,,1,3.419752500999948,,,,,,,,,,022819_p1,001,2019_Feb_28_1020,body_behavioural,3.0.4,60.05952619757646,
0,"I really want to spend the rest of my years eating garden tomatoes, whatever it is, with you.” ",4,2,None,None,,0,0,0,0,,,,,0,23,23,23,,,,,,,,,,,,,,,,,,,1,4.219655384999896,,,,,,,,,,022819_p1,001,2019_Feb_28_1020,body_behavioural,3.0.4,60.05952619757646,
0,"Alvira smiled, “I want the same with you too, Senna.” ",4,2,None,17.0,,0,0,0,0,,,,,0,24,24,24,,,,,,,,,,,,,,,,,,,1,3.1872905079999327,,,,,,,,,,022819_p1,001,2019_Feb_28_1020,body_behavioural,3.0.4,60.05952619757646,
0,"Senna nodded at the waiter who had been watching attentively, and he quickly strode over to place a small, elegant cake topped with the ring in front of Alvira. ",4,3,None,None,,0,0,0,0,,,,,0,25,25,25,,,,,,,,,,,,,,,,,,,1,3.069850029999998,,,,,,,,,,022819_p1,001,2019_Feb_28_1020,body_behavioural,3.0.4,60.05952619757646,
0,Her eyes widened in shock when she realized what she was looking at.,4,3,None,None,,0,0,0,0,,,,,0,26,26,26,,,,,,,,,,,,,,,,,,,1,2.719874506999986,,,,,,,,,,022819_p1,001,2019_Feb_28_1020,body_behavioural,3.0.4,60.05952619757646,
0,"“Alvira, will you marry me? ",4,3,None,None,,0,0,0,0,,,,,0,27,27,27,,,,,,,,,,,,,,,,,,,1,1.6031093560000045,,,,,,,,,,022819_p1,001,2019_Feb_28_1020,body_behavioural,3.0.4,60.05952619757646,
0,"I love you, and I will never stop loving you.” ",4,3,None,None,,0,0,0,0,,,,,0,28,28,28,,,,,,,,,,,,,,,,,,,1,1.3530157079999299,,,,,,,,,,022819_p1,001,2019_Feb_28_1020,body_behavioural,3.0.4,60.05952619757646,
0,Alvira started to cry.,4,3,None,None,,0,0,0,0,,,,,0,29,29,29,,,,,,,,,,,,,,,,,,,1,1.6845085879999715,,,,,,,,,,022819_p1,001,2019_Feb_28_1020,body_behavioural,3.0.4,60.05952619757646,
0,"The room became silent, and everyone turned to their table. ",4,3,None,5.0,,0,0,0,0,,,,,0,30,30,30,,,,,,,,,,,,,,,,,,,1,4.786770993000118,,,,,,,,,,022819_p1,001,2019_Feb_28_1020,body_behavioural,3.0.4,60.05952619757646,
0,"“Yes, of course, yes!” she shouted as she wiped away tears.",4,4,None,None,,0,0,0,0,,,,,0,31,31,31,,,,,,,,,,,,,,,,,,,1,1.3372713989997465,,,,,,,,,,022819_p1,001,2019_Feb_28_1020,body_behavioural,3.0.4,60.05952619757646,
0,The neighboring tables exploded in applause.,4,4,None,None,,0,0,0,0,,,,,0,32,32,32,,,,,,,,,,,,,,,,,,,1,4.436686174999977,,,,,,,,,,022819_p1,001,2019_Feb_28_1020,body_behavioural,3.0.4,60.05952619757646,
0,The waiter returned with a bottle of champagne and popped it. ,4,4,None,None,,0,0,0,0,,,,,0,33,33,33,,,,,,,,,,,,,,,,,,,1,2.7198548530000153,,,,,,,,,,022819_p1,001,2019_Feb_28_1020,body_behavioural,3.0.4,60.05952619757646,
0,"All of this went unnoticed by Senna and Alvira as they looked into each others’ eyes, and he slipped the ring onto her finger. ",4,4,None,None,,0,0,0,0,,,,,0,34,34,34,,,,,,,,,,,,,,,,,,,9,2.7865539999997964,,,,,,,,,,022819_p1,001,2019_Feb_28_1020,body_behavioural,3.0.4,60.05952619757646,
0,"She held up her hand to admire it, and her glittering tears of joy matched the shine from her ring.   
",4,4,17.0,5.0,,0,0,0,0,,,,,0,35,35,35,,,,,,,,,,,,,,,,,,,1,5.603455335000035,,,,,,,,,,022819_p1,001,2019_Feb_28_1020,body_behavioural,3.0.4,60.05952619757646,
0,,,,,,,0,0,0,0,,,,,,,,,,,,,,,,,,,,,,,,,,,,,,,,,,,,,,022819_p1,001,2019_Feb_28_1020,body_behavioural,3.0.4,60.05952619757646,
1,,,,,,,0,1,1,1,0,0,0,0,,,,,,,,,,,,,,,,,space,6.653226169999925,space,1.3860453600000255,space,2.5364432520000264,,,,,,,,,,,,022819_p1,001,2019_Feb_28_1020,body_behavioural,3.0.4,60.05952619757646,
1,,,,,,,0,1,1,1,1,0,1,0,,,,,,,,,,,,,,,,,,,,,space,1.7864039720002438,,,,,,,,,,,,022819_p1,001,2019_Feb_28_1020,body_behavioural,3.0.4,60.05952619757646,
1,,,,,,,0,1,1,1,2,0,2,0,,,,,,,,,,,,,,,,,,,,,space,0.6362597780002943,,,,,,,,,,,,022819_p1,001,2019_Feb_28_1020,body_behavioural,3.0.4,60.05952619757646,
1,,,,,,,0,1,1,1,3,0,3,0,,,,,,,,,,,,,,,,,,,,,space,0.5505537949998143,,,,,,,,,,,,022819_p1,001,2019_Feb_28_1020,body_behavioural,3.0.4,60.05952619757646,
1,,,,,,,0,1,1,1,4,0,4,0,,,,,,,,,,,,,,,,,,,,,space,0.41937400199958574,,,,,,,,,,,,022819_p1,001,2019_Feb_28_1020,body_behavioural,3.0.4,60.05952619757646,
1,,,,,,,0,1,1,1,5,0,5,0,,,,,,,,,,,,,,,,,,,,,space,0.9364915979999751,,,,,,,,,,,,022819_p1,001,2019_Feb_28_1020,body_behavioural,3.0.4,60.05952619757646,
1,,,,,,,0,1,1,1,6,0,6,0,,,,,,,,,,,,,,,,,,,,,space,0.5695001720000619,,,,,,,,,,,,022819_p1,001,2019_Feb_28_1020,body_behavioural,3.0.4,60.05952619757646,
1,"It didn’t help the situation that Calvin and Jessie were running late to the airport, since Jessie had already been fuming at Calvin and preparing to end things with him.",1,1,,,,0,1,1,1,,,,,0,0,0,0,,,,,,,,,,,,,,,,,,,1,20.487689247000162,,,,,,,,,,022819_p1,001,2019_Feb_28_1020,body_behavioural,3.0.4,60.05952619757646,
1,"Upon arriving, they had only 45 minutes until their international flight would depart from Jamaica for the US.",1,1,,,,0,1,1,1,,,,,0,1,1,1,,,,,,,,,,,,,,,,,,,1,6.570061994999833,,,,,,,,,,022819_p1,001,2019_Feb_28_1020,body_behavioural,3.0.4,60.05952619757646,
1,It had been a tough vacation for them.,1,1,,,,0,1,1,1,,,,,0,2,2,2,,,,,,,,,,,,,,,,,,,1,2.6531174349997855,,,,,,,,,,022819_p1,001,2019_Feb_28_1020,body_behavioural,3.0.4,60.05952619757646,
1,"Jessie had really had it with Calvin’s constant ramblings about the same excruciatingly boring golfing and work stories, which he insisted on repeating to her regardless of how little interest she showed.",1,1,,,,0,1,1,1,,,,,0,3,3,3,,,,,,,,,,,,,,,,,,,1,9.603269432000161,,,,,,,,,,022819_p1,001,2019_Feb_28_1020,body_behavioural,3.0.4,60.05952619757646,
1,"Calvin knew that Jessie was upset, but wasn't sure what to do besides attempting to carry on as normal and tell stories that took up the silence. ",1,1,,,,0,1,1,1,,,,,0,4,4,4,,,,,,,,,,,,,,,,,,,1,8.337004566999894,,,,,,,,,,022819_p1,001,2019_Feb_28_1020,body_behavioural,3.0.4,60.05952619757646,
1,"The security line was luckily very short, and once the online boarding passes were scanned they were ushered quickly through the metal detector, not having to take off their shoes or remove the liquids from their bags.",2,1,,,,0,1,1,1,,,,,0,5,5,5,,,,,,,,,,,,,,,,,,,9,8.936882940000032,,,,,,,,,,022819_p1,001,2019_Feb_28_1020,body_behavioural,3.0.4,60.05952619757646,
1,"“The infrastructure of this airport is really quite poor," said Calvin as they waited for their bags to emerge from the x-ray machine.",2,1,,,,0,1,1,1,,,,,0,6,6,6,,,,,,,,,,,,,,,,,,,1,9.13706635699964,,,,,,,,,,022819_p1,001,2019_Feb_28_1020,body_behavioural,3.0.4,60.05952619757646,
1,“I really could've hidden something in my shoes quite easily.” ,2,1,,,,0,1,1,1,,,,,0,7,7,7,,,,,,,,,,,,,,,,,,,1,3.0367214849993616,,,,,,,,,,022819_p1,001,2019_Feb_28_1020,body_behavioural,3.0.4,60.05952619757646,
1,"Jessie, exasperated at his need to broadcast his every inner thought, scowled at the conveyor belt.",2,1,,,,0,1,1,1,,,,,0,8,8,8,,,,,,,,,,,,,,,,,,,1,4.636575405000258,,,,,,,,,,022819_p1,001,2019_Feb_28_1020,body_behavioural,3.0.4,60.05952619757646,
1,"“What?”, he asked.",2,1,,,,0,1,1,1,,,,,0,9,9,9,,,,,,,,,,,,,,,,,,,1,1.3030245769996327,,,,,,,,,,022819_p1,001,2019_Feb_28_1020,body_behavioural,3.0.4,60.05952619757646,
1,She balled up her fists and turned to face him.,2,1,,,,0,1,1,1,,,,,0,10,10,10,,,,,,,,,,,,,,,,,,,1,1.8340514670007906,,,,,,,,,,022819_p1,001,2019_Feb_28_1020,body_behavioural,3.0.4,60.05952619757646,
1,"“Calvin, I really don’t think I can do this anymore.",2,2,,,,0,1,1,1,,,,,0,11,11,11,,,,,,,,,,,,,,,,,,,1,2.4030564830000003,,,,,,,,,,022819_p1,001,2019_Feb_28_1020,body_behavioural,3.0.4,60.05952619757646,
1,I think it’s best that once we get to the States we part ways for good.” ,2,2,,,,0,1,1,1,,,,,0,12,12,12,,,,,,,,,,,,,,,,,,,1,4.336380431999714,,,,,,,,,,022819_p1,001,2019_Feb_28_1020,body_behavioural,3.0.4,60.05952619757646,
1,Calvin said nothing as he grabbed his bag and quickly walked away.,2,2,,,,0,1,1,1,,,,,0,13,13,13,,,,,,,,,,,,,,,,,,,1,2.0532297529998687,,,,,,,,,,022819_p1,001,2019_Feb_28_1020,body_behavioural,3.0.4,60.05952619757646,
1,"Jessie trailed behind him as they made their way quickly toward their gate, shouting at his back in hopes of getting a response.",3,2,,,,0,1,1,1,,,,,0,14,14,14,,,,,,,,,,,,,,,,,,,9,7.853413360000559,,,,,,,,,,022819_p1,001,2019_Feb_28_1020,body_behavioural,3.0.4,60.05952619757646,
1,“So now you have nothing to say?,3,2,,,,0,1,1,1,,,,,0,15,15,15,,,,,,,,,,,,,,,,,,,1,1.4197976850000487,,,,,,,,,,022819_p1,001,2019_Feb_28_1020,body_behavioural,3.0.4,60.05952619757646,
1,"Every time we talk, you are just looking for a way to steer the conversation back into your stories.”",3,2,,,,0,1,1,1,,,,,0,16,16,16,,,,,,,,,,,,,,,,,,,1,2.7191737650000505,,,,,,,,,,022819_p1,001,2019_Feb_28_1020,body_behavioural,3.0.4,60.05952619757646,
1,"Calvin didn't slow his pace, gritting his teeth and staring straight ahead. ",3,2,,,,0,1,1,1,,,,,0,17,17,17,,,,,,,,,,,,,,,,,,,1,4.384283626999604,,,,,,,,,,022819_p1,001,2019_Feb_28_1020,body_behavioural,3.0.4,60.05952619757646,
1,He was very frustrated that he had been trying to appease Jessie this whole time and this was how she responded. ,3,2,,,,0,1,1,1,,,,,0,18,18,18,,,,,,,,,,,,,,,,,,,1,5.753364047999639,,,,,,,,,,022819_p1,001,2019_Feb_28_1020,body_behavioural,3.0.4,60.05952619757646,
1,The silence was punctuated only by the rapid rhythmic clacking of their suitcase wheels over the tile floor as they continued power-walking through the terminal. ,3,2,,,,0,1,1,1,,,,,0,19,19,19,,,,,,,,,,,,,,,,,,,1,6.87001384999985,,,,,,,,,,022819_p1,001,2019_Feb_28_1020,body_behavioural,3.0.4,60.05952619757646,
1,"“Well?” Jessie said, and Calvin finally turned to her.",3,2,,,,0,1,1,1,,,,,0,20,20,20,,,,,,,,,,,,,,,,,,,1,1.7359932469998967,,,,,,,,,,022819_p1,001,2019_Feb_28_1020,body_behavioural,3.0.4,60.05952619757646,
1,"“Well, Jessie, this makes perfect sense. ",3,3,,,,0,1,1,1,,,,,0,21,21,21,,,,,,,,,,,,,,,,,,,1,1.8508213719997002,,,,,,,,,,022819_p1,001,2019_Feb_28_1020,body_behavioural,3.0.4,60.05952619757646,
1,"If you feel this way, then I don’t want to keep boring you, and I agree, let’s part ways once we make it back.",3,3,,,,0,1,1,1,,,,,0,22,22,22,,,,,,,,,,,,,,,,,,,1,6.436779646999639,,,,,,,,,,022819_p1,001,2019_Feb_28_1020,body_behavioural,3.0.4,60.05952619757646,
1,You should’ve spoken up about my apparent intolerability before you decided to plan this vacation.”,3,3,,,,0,1,1,1,,,,,0,23,23,23,,,,,,,,,,,,,,,,,,,1,5.220199811999919,,,,,,,,,,022819_p1,001,2019_Feb_28_1020,body_behavioural,3.0.4,60.05952619757646,
1,"He was clearly hurt, but thought it was pointless to argue. ",3,3,,,,0,1,1,1,,,,,0,24,24,24,,,,,,,,,,,,,,,,,,,1,3.2342354700003852,,,,,,,,,,022819_p1,001,2019_Feb_28_1020,body_behavioural,3.0.4,60.05952619757646,
1,"They finally made it to the gate, just as they heard the final call for passengers boarding their flight.",3,3,,,,0,1,1,1,,,,,0,25,25,25,,,,,,,,,,,,,,,,,,,9,3.8032308849997207,,,,,,,,,,022819_p1,001,2019_Feb_28_1020,body_behavioural,3.0.4,60.05952619757646,
1,"They scanned their tickets, and the annoyed flight attendant shooed them onto the jet bridge and then closed the door behind them.",4,3,,,,0,1,1,1,,,,,0,26,26,26,,,,,,,,,,,,,,,,,,,1,16.937441789999866,,,,,,,,,,022819_p1,001,2019_Feb_28_1020,body_behavioural,3.0.4,60.05952619757646,
1,"Luckily, they had forgotten to arrange seats next to each other on the flight back.",4,3,,,,0,1,1,1,,,,,0,27,27,27,,,,,,,,,,,,,,,,,,,1,4.7699274050000895,,,,,,,,,,022819_p1,001,2019_Feb_28_1020,body_behavioural,3.0.4,60.05952619757646,
1,"They both had first-class tickets, but Jessie was headed for seat 1B while Calvin's seat was 4F. ",4,3,,,,0,1,1,1,,,,,0,28,28,28,,,,,,,,,,,,,,,,,,,1,4.969687790000535,,,,,,,,,,022819_p1,001,2019_Feb_28_1020,body_behavioural,3.0.4,60.05952619757646,
1,"Before Jessie sat down, she took a deep breath and then awkwardly shook Calvin’s hand, mumbling, “Well, have a nice flight.” ",4,4,,,,0,1,1,1,,,,,0,29,29,29,,,,,,,,,,,,,,,,,,,9,5.951092154999969,,,,,,,,,,022819_p1,001,2019_Feb_28_1020,body_behavioural,3.0.4,60.05952619757646,
1,He laughed in disbelief and walked to his window seat three rows back to get ready for takeoff.,4,4,,,,0,1,1,1,,,,,0,30,30,30,,,,,,,,,,,,,,,,,,,1,2.336589092000395,,,,,,,,,,022819_p1,001,2019_Feb_28_1020,body_behavioural,3.0.4,60.05952619757646,
1,Both were upset but glad that they would have this flight to mull things over and recenter. ,4,4,,,,0,1,1,1,,,,,0,31,31,31,,,,,,,,,,,,,,,,,,,1,3.336317071999474,,,,,,,,,,022819_p1,001,2019_Feb_28_1020,body_behavioural,3.0.4,60.05952619757646,
1,,,,,,,0,1,1,1,,,,,,,,,,,,,,,,,,,,,,,,,,,,,,,,,,,,,,022819_p1,001,2019_Feb_28_1020,body_behavioural,3.0.4,60.05952619757646,
2,,,,,,,0,2,2,2,0,0,0,0,,,,,,,,,,,,,,,,,space,2.403074261999791,space,3.203112310000506,space,2.3529713600000832,,,,,,,,,,,,022819_p1,001,2019_Feb_28_1020,body_behavioural,3.0.4,60.05952619757646,
2,,,,,,,0,2,2,2,1,0,1,0,,,,,,,,,,,,,,,,,,,,,space,0.835935595000592,,,,,,,,,,,,022819_p1,001,2019_Feb_28_1020,body_behavioural,3.0.4,60.05952619757646,
2,Charlie saw Alma as they walked into class and he motioned for her to come sit in the back next to him: they had business to discuss.,1,1,,,,0,2,2,2,,,,,0,0,0,0,,,,,,,,,,,,,,,,,,,1,6.23680627199974,,,,,,,,,,022819_p1,001,2019_Feb_28_1020,body_behavioural,3.0.4,60.05952619757646,
2,Charlie and Alma were both economics students with entrepreneurial bents.,1,1,,,,0,2,2,2,,,,,0,1,1,1,,,,,,,,,,,,,,,,,,,1,6.1367363449999175,,,,,,,,,,022819_p1,001,2019_Feb_28_1020,body_behavioural,3.0.4,60.05952619757646,
2,They were also both very busy and in the same class.,1,1,,,,0,2,2,2,,,,,0,2,2,2,,,,,,,,,,,,,,,,,,,1,2.3526543019997916,,,,,,,,,,022819_p1,001,2019_Feb_28_1020,body_behavioural,3.0.4,60.05952619757646,
2,"After talking at a party, Charlie had discovered that Alma was looking for financing for her web development company.",1,1,,,,0,2,2,2,,,,,0,3,3,3,,,,,,,,,,,,,,,,,,,9,4.336642170000232,,,,,,,,,,022819_p1,001,2019_Feb_28_1020,body_behavioural,3.0.4,60.05952619757646,
2,It was serendipitous because he had been talking with other members of his venture capital group about making an investment. ,1,1,,,,0,2,2,2,,,,,0,4,4,4,,,,,,,,,,,,,,,,,,,1,5.003135150000162,,,,,,,,,,022819_p1,001,2019_Feb_28_1020,body_behavioural,3.0.4,60.05952619757646,
2,"His financial group had come to a decision that morning about Alma’s idea, and he didn't want to wait until after class to discuss the proposal with her. ",1,1,,,,0,2,2,2,,,,,0,5,5,5,,,,,,,,,,,,,,,,,,,1,6.519682234999891,,,,,,,,,,022819_p1,001,2019_Feb_28_1020,body_behavioural,3.0.4,60.05952619757646,
2,"The class was in a large auditorium with small, foldable desks on the side of each cushioned chair. ",1,1,,,,0,2,2,2,,,,,0,6,6,6,,,,,,,,,,,,,,,,,,,9,6.853789638000308,,,,,,,,,,022819_p1,001,2019_Feb_28_1020,body_behavioural,3.0.4,60.05952619757646,
2,"There were large windows on both sides of the hall, and they could see the first flurries of a winter storm starting outside. ",1,1,,,,0,2,2,2,,,,,0,7,7,7,,,,,,,,,,,,,,,,,,,1,2.4029606170006446,,,,,,,,,,022819_p1,001,2019_Feb_28_1020,body_behavioural,3.0.4,60.05952619757646,
2,"“Here we are at Lecture Seven already in History of the Eternal City,” said the professor. ",2,1,,,,0,2,2,2,,,,,0,8,8,8,,,,,,,,,,,,,,,,,,,1,9.18709102199955,,,,,,,,,,022819_p1,001,2019_Feb_28_1020,body_behavioural,3.0.4,60.05952619757646,
2,“We're going to talk today about the age of the first Roman emperor: Augustus.” ,2,1,,,,0,2,2,2,,,,,0,9,9,9,,,,,,,,,,,,,,,,,,,1,2.852734677000626,,,,,,,,,,022819_p1,001,2019_Feb_28_1020,body_behavioural,3.0.4,60.05952619757646,
2,"She went into some recap of the last lecture, and Charlie took this as an opportunity to start talking to Alma.",2,1,,,,0,2,2,2,,,,,0,10,10,10,,,,,,,,,,,,,,,,,,,1,3.469746861999738,,,,,,,,,,022819_p1,001,2019_Feb_28_1020,body_behavioural,3.0.4,60.05952619757646,
2,"“Okay so I’ve been thinking about your startup idea, and I have talked about it with my fellow investors.",2,2,,,,0,2,2,2,,,,,0,11,11,11,,,,,,,,,,,,,,,,,,,9,6.10336870699939,,,,,,,,,,022819_p1,001,2019_Feb_28_1020,body_behavioural,3.0.4,60.05952619757646,
2,We’d like to invest half of what you originally suggested.,2,2,,,,0,2,2,2,,,,,0,12,12,12,,,,,,,,,,,,,,,,,,,1,2.2360064149997925,,,,,,,,,,022819_p1,001,2019_Feb_28_1020,body_behavioural,3.0.4,60.05952619757646,
2,"Rather than $30,000, we start with $15,000.",2,2,,,,0,2,2,2,,,,,0,13,13,13,,,,,,,,,,,,,,,,,,,1,1.5673368870002378,,,,,,,,,,022819_p1,001,2019_Feb_28_1020,body_behavioural,3.0.4,60.05952619757646,
2,We would see how the company does and then invest the other half later.” ,2,2,,,,0,2,2,2,,,,,0,14,14,14,,,,,,,,,,,,,,,,,,,1,3.10281621500053,,,,,,,,,,022819_p1,001,2019_Feb_28_1020,body_behavioural,3.0.4,60.05952619757646,
2,"Alma, tapping her pen on her notebook, narrowed her eyes and pursed her lips.",2,2,,,,0,2,2,2,,,,,0,15,15,15,,,,,,,,,,,,,,,,,,,1,5.819770122000591,,,,,,,,,,022819_p1,001,2019_Feb_28_1020,body_behavioural,3.0.4,60.05952619757646,
2,She turned back to the lecture as she considered this.,2,2,,,,0,2,2,2,,,,,0,16,16,16,,,,,,,,,,,,,,,,,,,1,2.350786269999844,,,,,,,,,,022819_p1,001,2019_Feb_28_1020,body_behavioural,3.0.4,60.05952619757646,
2,"The professor was going on: “The senate had conferred upon him the title of Augustus the sacred and revered one, the restorer of traditional values, the city’s new religious leader, the restorer of temples. ",3,2,,,,0,2,2,2,,,,,0,17,17,17,,,,,,,,,,,,,,,,,,,9,8.71800502699989,,,,,,,,,,022819_p1,001,2019_Feb_28_1020,body_behavioural,3.0.4,60.05952619757646,
2,"Augustus also sought to beautify Rome, make it into a new Athens, and dispel the criticisms of Rome as disorganized and ugly.”",3,2,,,,0,2,2,2,,,,,0,18,18,18,,,,,,,,,,,,,,,,,,,1,2.3531311770002503,,,,,,,,,,022819_p1,001,2019_Feb_28_1020,body_behavioural,3.0.4,60.05952619757646,
2,"Alma turned back to Charlie and offered her rebuttal, “I don’t know about that: it’s not going to be possible to implement our ideas effectively unless the project is fully funded. ",3,3,,,,0,2,2,2,,,,,0,19,19,19,,,,,,,,,,,,,,,,,,,9,8.653306307000094,,,,,,,,,,022819_p1,001,2019_Feb_28_1020,body_behavioural,3.0.4,60.05952619757646,
2,We would have to find other investors and that would set us back in our timeline. ,3,3,,,,0,2,2,2,,,,,0,20,20,20,,,,,,,,,,,,,,,,,,,1,2.2032107400000314,,,,,,,,,,022819_p1,001,2019_Feb_28_1020,body_behavioural,3.0.4,60.05952619757646,
2,"Our profit projections assumed we'd be starting relatively soon, not months down the line.” ",3,3,,,,0,2,2,2,,,,,0,21,21,21,,,,,,,,,,,,,,,,,,,1,2.5530692149995957,,,,,,,,,,022819_p1,001,2019_Feb_28_1020,body_behavioural,3.0.4,60.05952619757646,
2,They whispered back and forth during the whole class in order to work out a compromise. ,3,3,,,,0,2,2,2,,,,,0,22,22,22,,,,,,,,,,,,,,,,,,,1,4.169912182000189,,,,,,,,,,022819_p1,001,2019_Feb_28_1020,body_behavioural,3.0.4,60.05952619757646,
2,"Finally, the class ended, and the professor dismissed the students with a reminder that the midterm paper was due on Thursday and that they should email their papers to the TA.",4,3,,,,0,2,2,2,,,,,0,23,23,23,,,,,,,,,,,,,,,,,,,9,4.519762228000218,,,,,,,,,,022819_p1,001,2019_Feb_28_1020,body_behavioural,3.0.4,60.05952619757646,
2,"Everyone, except Charlie and Alma, packed up their things and headed out of the lecture hall to get to their next class. ",4,3,,,,0,2,2,2,,,,,0,24,24,24,,,,,,,,,,,,,,,,,,,1,3.23667439700057,,,,,,,,,,022819_p1,001,2019_Feb_28_1020,body_behavioural,3.0.4,60.05952619757646,
2,"“Alright, so we’ll have the $30,000 wired to you by tomorrow,” Charlie said. ",4,4,,,,0,2,2,2,,,,,0,25,25,25,,,,,,,,,,,,,,,,,,,1,2.5032168469997487,,,,,,,,,,022819_p1,001,2019_Feb_28_1020,body_behavioural,3.0.4,60.05952619757646,
2,"This wasn't ideal for Charlie, but Alma had refused to budge, and his investment group had told him they were willing to pay the full amount if necessary. ",4,4,,,,0,2,2,2,,,,,0,26,26,26,,,,,,,,,,,,,,,,,,,1,6.4844368320000285,,,,,,,,,,022819_p1,001,2019_Feb_28_1020,body_behavioural,3.0.4,60.05952619757646,
2,"They shook hands, walked out of the now-empty lecture hall, and made plans to sign the official paperwork the next day.",4,4,,,,0,2,2,2,,,,,0,27,27,27,,,,,,,,,,,,,,,,,,,1,1.4864026550003473,,,,,,,,,,022819_p1,001,2019_Feb_28_1020,body_behavioural,3.0.4,60.05952619757646,
2,,,,,,,0,2,2,2,,,,,,,,,,,,,,,,,,,,,,,,,,,,,,,,,,,,,,022819_p1,001,2019_Feb_28_1020,body_behavioural,3.0.4,60.05952619757646,
3,,,,,,,0,3,3,3,0,0,0,0,,,,,,,,,,,,,,,,,space,1.1697844450000048,space,0.8026000919999206,space,1.3528931569999258,,,,,,,,,,,,022819_p1,001,2019_Feb_28_1020,body_behavioural,3.0.4,60.05952619757646,
3,"Jeff, hoping that today would be a pivotal day for his new business, had only been waiting inside the doors of the airport for a few minutes when he saw William and eagerly waved him over. ",1,1,,,,0,3,3,3,,,,,0,0,0,0,,,,,,,,,,,,,,,,,,,1,24.254661730000407,,,,,,,,,,022819_p1,001,2019_Feb_28_1020,body_behavioural,3.0.4,60.05952619757646,
3,"Jeff, checking his watch, was pleased to see that the two of them had two hours to discuss business before their flights left Boston.",1,1,,,,0,3,3,3,,,,,0,1,1,1,,,,,,,,,,,,,,,,,,,1,6.820040699999481,,,,,,,,,,022819_p1,001,2019_Feb_28_1020,body_behavioural,3.0.4,60.05952619757646,
3,The two had met the night before in line for the bathroom at a local bar. ,1,1,,,,0,3,3,3,,,,,0,2,2,2,,,,,,,,,,,,,,,,,,,1,1.9531302129998949,,,,,,,,,,022819_p1,001,2019_Feb_28_1020,body_behavioural,3.0.4,60.05952619757646,
3,Jeff had delivered some surprisingly-detailed complaints to William about the wine selection.,1,1,,,,0,3,3,3,,,,,0,3,3,3,,,,,,,,,,,,,,,,,,,1,2.619729082000049,,,,,,,,,,022819_p1,001,2019_Feb_28_1020,body_behavioural,3.0.4,60.05952619757646,
3,They quickly learned about each other that Jeff was a representative for wine vineyards in the Northeast and William was a wine buyer for corporate events.,1,1,,,,0,3,3,3,,,,,0,4,4,4,,,,,,,,,,,,,,,,,,,1,4.034290290000172,,,,,,,,,,022819_p1,001,2019_Feb_28_1020,body_behavioural,3.0.4,60.05952619757646,
3,"Since they both had flights out of Boston at the same time, they had agreed to meet at the airport and talk about potentially doing business. ",1,1,,,,0,3,3,3,,,,,0,5,5,5,,,,,,,,,,,,,,,,,,,1,4.786288952000177,,,,,,,,,,022819_p1,001,2019_Feb_28_1020,body_behavioural,3.0.4,60.05952619757646,
3,"They headed to security together, pleased to find that the line was not so long, and they chatted a little as they were waiting. ",2,1,,,,0,3,3,3,,,,,0,6,6,6,,,,,,,,,,,,,,,,,,,9,3.603255691999948,,,,,,,,,,022819_p1,001,2019_Feb_28_1020,body_behavioural,3.0.4,60.05952619757646,
3,"“It’s crazy that we met last night,” William said, “I am flying out right now to meet my boss, and was worried that I was going to show up empty handed without any local retailer prepared.” ",2,1,,,,0,3,3,3,,,,,0,7,7,7,,,,,,,,,,,,,,,,,,,1,2.686632902000383,,,,,,,,,,022819_p1,001,2019_Feb_28_1020,body_behavioural,3.0.4,60.05952619757646,
3,"“I know, what are the chances, right?” Jeff said.",2,1,,,,0,3,3,3,,,,,0,8,8,8,,,,,,,,,,,,,,,,,,,1,1.3863310899996577,,,,,,,,,,022819_p1,001,2019_Feb_28_1020,body_behavioural,3.0.4,60.05952619757646,
3,"William laughed and said, “I’m glad our shared complaining can come in handy.",2,1,,,,0,3,3,3,,,,,0,9,9,9,,,,,,,,,,,,,,,,,,,1,2.003271937000136,,,,,,,,,,022819_p1,001,2019_Feb_28_1020,body_behavioural,3.0.4,60.05952619757646,
3,"I know this is fast, but I'd like to get right down to specifics.",2,2,,,,0,3,3,3,,,,,0,10,10,10,,,,,,,,,,,,,,,,,,,1,1.569361222000225,,,,,,,,,,022819_p1,001,2019_Feb_28_1020,body_behavioural,3.0.4,60.05952619757646,
3,I'd like to order a couple of sample shipments from you and present them to our corporate buyers.,2,2,,,,0,3,3,3,,,,,0,11,11,11,,,,,,,,,,,,,,,,,,,1,2.2031508869995378,,,,,,,,,,022819_p1,001,2019_Feb_28_1020,body_behavioural,3.0.4,60.05952619757646,
3,"Typically we expect to get these kinds of samples at a deep discount, at least half-off the label price.",2,2,,,,0,3,3,3,,,,,0,12,12,12,,,,,,,,,,,,,,,,,,,1,2.503167379999468,,,,,,,,,,022819_p1,001,2019_Feb_28_1020,body_behavioural,3.0.4,60.05952619757646,
3,"This is nothing, okay, compared to what you will be making if one of these buyers makes a contract.",2,2,,,,0,3,3,3,,,,,0,13,13,13,,,,,,,,,,,,,,,,,,,1,2.783694970000397,,,,,,,,,,022819_p1,001,2019_Feb_28_1020,body_behavioural,3.0.4,60.05952619757646,
3,So I propose that you send us $600 worth of wine shipments for a price of $300.”,2,2,,,,0,3,3,3,,,,,0,14,14,14,,,,,,,,,,,,,,,,,,,1,1.7530662950002807,,,,,,,,,,022819_p1,001,2019_Feb_28_1020,body_behavioural,3.0.4,60.05952619757646,
3,"When it was their turn to go through the metal detector, they took off their shoes and pulled out their laptops.",2,2,,,,0,3,3,3,,,,,0,15,15,15,,,,,,,,,,,,,,,,,,,9,4.817631869999786,,,,,,,,,,022819_p1,001,2019_Feb_28_1020,body_behavioural,3.0.4,60.05952619757646,
3,"Jeff mulled over the offer, nodding noncommittally to William's pitch as they proceeded through the metal detector and retrieved their belongings.",2,2,,,,0,3,3,3,,,,,0,16,16,16,,,,,,,,,,,,,,,,,,,1,3.252319289999832,,,,,,,,,,022819_p1,001,2019_Feb_28_1020,body_behavioural,3.0.4,60.05952619757646,
3,"They began to walk through the concourse, and William handed some printed spreadsheets to Jeff as they navigated toward their gates at the end of the terminal.",3,2,,,,0,3,3,3,,,,,0,17,17,17,,,,,,,,,,,,,,,,,,,9,3.685479419999865,,,,,,,,,,022819_p1,001,2019_Feb_28_1020,body_behavioural,3.0.4,60.05952619757646,
3,"Jeff, weaving through the crowds of travelers, squinted at William's rosy projections of the number of bottles he could be able to purchase in the future.",3,2,,,,0,3,3,3,,,,,0,18,18,18,,,,,,,,,,,,,,,,,,,1,3.118399467999552,,,,,,,,,,022819_p1,001,2019_Feb_28_1020,body_behavioural,3.0.4,60.05952619757646,
3,"Finally Jeff said, “I don’t know, we’re not coming from corporate vineyards, so gambling with sample shipments is the kind of risk we can’t necessarily make. ",3,3,,,,0,3,3,3,,,,,0,19,19,19,,,,,,,,,,,,,,,,,,,1,7.070067431999632,,,,,,,,,,022819_p1,001,2019_Feb_28_1020,body_behavioural,3.0.4,60.05952619757646,
3,"These corporate purchases would have to be huge and practically guaranteed, to offset the loss from selling sample shipments at this price.”",3,3,,,,0,3,3,3,,,,,0,20,20,20,,,,,,,,,,,,,,,,,,,1,4.503309572000035,,,,,,,,,,022819_p1,001,2019_Feb_28_1020,body_behavioural,3.0.4,60.05952619757646,
3,"They walked to the gates very slowly, barely registering the hubbub of the airport since they were so caught up in figuring out this deal before their flights left.",3,3,,,,0,3,3,3,,,,,0,21,21,21,,,,,,,,,,,,,,,,,,,1,4.052895057999194,,,,,,,,,,022819_p1,001,2019_Feb_28_1020,body_behavioural,3.0.4,60.05952619757646,
3,"At the end of their long walk, they got to Jeff’s gate first, which had begun boarding passengers.",3,3,,,,0,3,3,3,,,,,0,22,22,22,,,,,,,,,,,,,,,,,,,1,3.1865881869998702,,,,,,,,,,022819_p1,001,2019_Feb_28_1020,body_behavioural,3.0.4,60.05952619757646,
3,"In these last minutes, William and Jeff agreed on a compromise rate on the sample shipment, paying $400 for a $600 shipment, and they finalized the deal with a handshake. ",3,4,,,,0,3,3,3,,,,,0,23,23,23,,,,,,,,,,,,,,,,,,,1,4.903400739999597,,,,,,,,,,022819_p1,001,2019_Feb_28_1020,body_behavioural,3.0.4,60.05952619757646,
3,"“Well, what a tremendous pleasure to do business with you and to have all this work out,” William said.",3,4,,,,0,3,3,3,,,,,0,24,24,24,,,,,,,,,,,,,,,,,,,1,1.8507957770007124,,,,,,,,,,022819_p1,001,2019_Feb_28_1020,body_behavioural,3.0.4,60.05952619757646,
3,"Jeff nodded enthusiastically, and responded, “Likewise, this has been great.  ",3,4,,,,0,3,3,3,,,,,0,25,25,25,,,,,,,,,,,,,,,,,,,1,1.6196680120001474,,,,,,,,,,022819_p1,001,2019_Feb_28_1020,body_behavioural,3.0.4,60.05952619757646,
3,I'll let you get to your gate.,3,4,,,,0,3,3,3,,,,,0,26,26,26,,,,,,,,,,,,,,,,,,,1,1.719866866999837,,,,,,,,,,022819_p1,001,2019_Feb_28_1020,body_behavioural,3.0.4,60.05952619757646,
3,"Once we’re both back on the ground, we can get all the shipments in the books.”",3,4,,,,0,3,3,3,,,,,0,27,27,27,,,,,,,,,,,,,,,,,,,1,4.036717346999467,,,,,,,,,,022819_p1,001,2019_Feb_28_1020,body_behavioural,3.0.4,60.05952619757646,
3,They parted with a wave as Jeff scanned his boarding pass at the gate. ,3,4,,,,0,3,3,3,,,,,0,28,28,28,,,,,,,,,,,,,,,,,,,1,2.619876740000109,,,,,,,,,,022819_p1,001,2019_Feb_28_1020,body_behavioural,3.0.4,60.05952619757646,
3,He walked onto the plane and sat down in his aisle seat in the business class section.,4,4,,,,0,3,3,3,,,,,0,29,29,29,,,,,,,,,,,,,,,,,,,9,2.3363664220005376,,,,,,,,,,022819_p1,001,2019_Feb_28_1020,body_behavioural,3.0.4,60.05952619757646,
3,He typed out a quick email on his phone letting the rest of his team know the good news. ,4,4,,,,0,3,3,3,,,,,0,30,30,30,,,,,,,,,,,,,,,,,,,1,1.7031209269998726,,,,,,,,,,022819_p1,001,2019_Feb_28_1020,body_behavioural,3.0.4,60.05952619757646,
3,"When the flight attendant came by, he ordered a glass of champagne to celebrate.",4,4,,,,0,3,3,3,,,,,0,31,31,31,,,,,,,,,,,,,,,,,,,1,2.0197221399994305,,,,,,,,,,022819_p1,001,2019_Feb_28_1020,body_behavioural,3.0.4,60.05952619757646,
3,,,,,,,0,3,3,3,,,,,,,,,,,,,,,,,,,,,,,,,,,,,,,,,,,,,,022819_p1,001,2019_Feb_28_1020,body_behavioural,3.0.4,60.05952619757646,
4,,,,,,,0,4,4,4,0,0,0,0,,,,,,,,,,,,,,,,,space,1.136356904999957,space,1.8694948370002749,space,0.9363498920001803,,,,,,,,,,,,022819_p1,001,2019_Feb_28_1020,body_behavioural,3.0.4,60.05952619757646,
4,,,,,,,0,4,4,4,1,0,1,0,,,,,,,,,,,,,,,,,,,,,space,1.203024182000263,,,,,,,,,,,,022819_p1,001,2019_Feb_28_1020,body_behavioural,3.0.4,60.05952619757646,
4,"Maria walked into lecture beside Henry, and she was mentally rehearsing what she should say to break up with him.",1,1,,,,0,4,4,4,,,,,0,0,0,0,,,,,,,,,,,,,,,,,,,1,17.488082105000103,,,,,,,,,,022819_p1,001,2019_Feb_28_1020,body_behavioural,3.0.4,60.05952619757646,
4,"She had been putting it off with a growing sense of dread, and now this lecture was the last chance before she had to leave campus. ",1,1,,,,0,4,4,4,,,,,0,1,1,1,,,,,,,,,,,,,,,,,,,1,4.619981225000629,,,,,,,,,,022819_p1,001,2019_Feb_28_1020,body_behavioural,3.0.4,60.05952619757646,
4,"The lecture hall was large, with a stage for the lecturer in the front of the room, and tiered seats that stretched up in 15 stacked rows. ",1,1,,,,0,4,4,4,,,,,0,2,2,2,,,,,,,,,,,,,,,,,,,9,9.001300599999922,,,,,,,,,,022819_p1,001,2019_Feb_28_1020,body_behavioural,3.0.4,60.05952619757646,
4,"The clock struck 3 pm, and Maria and Henry slid into neighboring seats near the back of the room.",1,1,,,,0,4,4,4,,,,,0,3,3,3,,,,,,,,,,,,,,,,,,,1,3.069735084999593,,,,,,,,,,022819_p1,001,2019_Feb_28_1020,body_behavioural,3.0.4,60.05952619757646,
4,"“Good afternoon, everybody,” said the professor, fiddling to connect his laptop with the projector.",2,1,,,,0,4,4,4,,,,,0,4,4,4,,,,,,,,,,,,,,,,,,,1,4.667506760000833,,,,,,,,,,022819_p1,001,2019_Feb_28_1020,body_behavioural,3.0.4,60.05952619757646,
4,“Welcome to week 4 of Intro to Ancient Philosophy. ,2,1,,,,0,4,4,4,,,,,0,5,5,5,,,,,,,,,,,,,,,,,,,1,2.7035919370000556,,,,,,,,,,022819_p1,001,2019_Feb_28_1020,body_behavioural,3.0.4,60.05952619757646,
4,Today we are going to continue our lecture on Aristotelian Philosophy.”,2,1,,,,0,4,4,4,,,,,0,6,6,6,,,,,,,,,,,,,,,,,,,1,0.8859685699999318,,,,,,,,,,022819_p1,001,2019_Feb_28_1020,body_behavioural,3.0.4,60.05952619757646,
4,Everyone in class pulled out their notebooks and settled in their seats as the slides appeared on the large front screens.,2,1,,,,0,4,4,4,,,,,0,7,7,7,,,,,,,,,,,,,,,,,,,1,3.63650736999989,,,,,,,,,,022819_p1,001,2019_Feb_28_1020,body_behavioural,3.0.4,60.05952619757646,
4,"“Henry,” Maria whispered.",2,1,,,,0,4,4,4,,,,,0,8,8,8,,,,,,,,,,,,,,,,,,,1,1.01970002500002,,,,,,,,,,022819_p1,001,2019_Feb_28_1020,body_behavioural,3.0.4,60.05952619757646,
4,"“Hmm?” he replied, distracted.",2,1,,,,0,4,4,4,,,,,0,9,9,9,,,,,,,,,,,,,,,,,,,9,0.6031649269998525,,,,,,,,,,022819_p1,001,2019_Feb_28_1020,body_behavioural,3.0.4,60.05952619757646,
4,"“Henry, I need to tell you something really important, and I don’t know when else I’ll have a chance to do it,” she said.",2,1,,,,0,4,4,4,,,,,0,10,10,10,,,,,,,,,,,,,,,,,,,1,1.2673857599993426,,,,,,,,,,022819_p1,001,2019_Feb_28_1020,body_behavioural,3.0.4,60.05952619757646,
4,"“Okay, what's up?”, he said, tilting his head close to her. ",2,1,,,,0,4,4,4,,,,,0,11,11,11,,,,,,,,,,,,,,,,,,,1,0.6864984419999018,,,,,,,,,,022819_p1,001,2019_Feb_28_1020,body_behavioural,3.0.4,60.05952619757646,
4," “Henry, I don’t think I can do long distance.",2,2,,,,0,4,4,4,,,,,0,12,12,12,,,,,,,,,,,,,,,,,,,1,1.08625389000008,,,,,,,,,,022819_p1,001,2019_Feb_28_1020,body_behavioural,3.0.4,60.05952619757646,
4,"I think what we have here is great, but I think it will be really hard when we are so far apart for such an extended period.",2,2,,,,0,4,4,4,,,,,0,13,13,13,,,,,,,,,,,,,,,,,,,1,1.1197307570000703,,,,,,,,,,022819_p1,001,2019_Feb_28_1020,body_behavioural,3.0.4,60.05952619757646,
4,"I’m sorry I’m telling you now in lecture, but I'm out of time, and it’s taken me awhile to come to this decision.",2,2,,,,0,4,4,4,,,,,0,14,14,14,,,,,,,,,,,,,,,,,,,1,1.9695171200000914,,,,,,,,,,022819_p1,001,2019_Feb_28_1020,body_behavioural,3.0.4,60.05952619757646,
4,"I really think this is best, and who knows what will happen when I get back from my study abroad.” ",2,2,,,,0,4,4,4,,,,,0,15,15,15,,,,,,,,,,,,,,,,,,,1,2.0693357500003913,,,,,,,,,,022819_p1,001,2019_Feb_28_1020,body_behavioural,3.0.4,60.05952619757646,
4,"While Henry tried to think of what to say, he and Maria stared unlistening at the professor as he started the lecture, “First we will talk about Aristotle’s work, The Categories, which is about the kinds, or categories, of things that there are.",3,2,,,,0,4,4,4,,,,,0,16,16,16,,,,,,,,,,,,,,,,,,,9,8.303274555000826,,,,,,,,,,022819_p1,001,2019_Feb_28_1020,body_behavioural,3.0.4,60.05952619757646,
4,"In fact, our term category comes from this Aristotelian context.” ",3,2,,,,0,4,4,4,,,,,0,17,17,17,,,,,,,,,,,,,,,,,,,1,2.269345300000168,,,,,,,,,,022819_p1,001,2019_Feb_28_1020,body_behavioural,3.0.4,60.05952619757646,
4,"Henry felt horrible, like the wind had just been knocked out of him.",3,2,,,,0,4,4,4,,,,,0,18,18,18,,,,,,,,,,,,,,,,,,,1,1.1029971900006785,,,,,,,,,,022819_p1,001,2019_Feb_28_1020,body_behavioural,3.0.4,60.05952619757646,
4,"A few tears started to fall down his cheeks as he whispered back, “Maria, I think we can make it work.",3,3,,,,0,4,4,4,,,,,0,19,19,19,,,,,,,,,,,,,,,,,,,9,4.336195202000454,,,,,,,,,,022819_p1,001,2019_Feb_28_1020,body_behavioural,3.0.4,60.05952619757646,
4,I’ll come visit you.,3,3,,,,0,4,4,4,,,,,0,20,20,20,,,,,,,,,,,,,,,,,,,1,1.0529066250001051,,,,,,,,,,022819_p1,001,2019_Feb_28_1020,body_behavioural,3.0.4,60.05952619757646,
4,It will be fine.,3,3,,,,0,4,4,4,,,,,0,21,21,21,,,,,,,,,,,,,,,,,,,1,1.2863634169998477,,,,,,,,,,022819_p1,001,2019_Feb_28_1020,body_behavioural,3.0.4,60.05952619757646,
4,I don’t want to break up.”,3,3,,,,0,4,4,4,,,,,0,22,22,22,,,,,,,,,,,,,,,,,,,1,0.7030548869997801,,,,,,,,,,022819_p1,001,2019_Feb_28_1020,body_behavioural,3.0.4,60.05952619757646,
4,"Maria felt so guilty that she nearly gave in, but forced herself to hold her ground, knowing that this would make things much easier for both of them in the future.",3,3,,,,0,4,4,4,,,,,0,23,23,23,,,,,,,,,,,,,,,,,,,1,4.719994585000677,,,,,,,,,,022819_p1,001,2019_Feb_28_1020,body_behavioural,3.0.4,60.05952619757646,
4,"She gave his hand a squeeze but shook her head sadly, before turning back to her laptop and half-heartedly taking notes on the lecture which they sat through in painful silence.",3,3,,,,0,4,4,4,,,,,0,24,24,24,,,,,,,,,,,,,,,,,,,1,9.6706449050007,,,,,,,,,,022819_p1,001,2019_Feb_28_1020,body_behavioural,3.0.4,60.05952619757646,
4,"Finally, the professor was wrapping up, “This is what Aristotle means when he says that an animal’s or plant’s form rather than its matter is its nature. ",4,3,,,,0,4,4,4,,,,,0,25,25,25,,,,,,,,,,,,,,,,,,,9,1.8196828179998192,,,,,,,,,,022819_p1,001,2019_Feb_28_1020,body_behavioural,3.0.4,60.05952619757646,
4,"Alright class, that’s all for today. ",4,3,,,,0,4,4,4,,,,,0,26,26,26,,,,,,,,,,,,,,,,,,,9,8.653671375000158,,,,,,,,,,022819_p1,001,2019_Feb_28_1020,body_behavioural,3.0.4,60.05952619757646,
4,"Remember the final exam is coming up next week on Tuesday on the Pre-Socratics, Plato, and Aristotle, so feel free to come by office hours to discuss if you have the inspiration.",4,3,,,,0,4,4,4,,,,,0,27,27,27,,,,,,,,,,,,,,,,,,,1,2.102693144999648,,,,,,,,,,022819_p1,001,2019_Feb_28_1020,body_behavioural,3.0.4,60.05952619757646,
4,"And if anyone is doing the 20 page paper in lieu of the final, that’s due next Tuesday as well.",4,3,,,,0,4,4,4,,,,,0,28,28,28,,,,,,,,,,,,,,,,,,,1,2.769755040000746,,,,,,,,,,022819_p1,001,2019_Feb_28_1020,body_behavioural,3.0.4,60.05952619757646,
4,"Have a good day, folks.” ",4,3,,,,0,4,4,4,,,,,0,29,29,29,,,,,,,,,,,,,,,,,,,1,1.8698643300003823,,,,,,,,,,022819_p1,001,2019_Feb_28_1020,body_behavioural,3.0.4,60.05952619757646,
4,"Maria and Henry packed up hurriedly, and slipped quickly out of the class before the rest of the crowd. ",4,3,,,,0,4,4,4,,,,,0,30,30,30,,,,,,,,,,,,,,,,,,,9,2.153230218000317,,,,,,,,,,022819_p1,001,2019_Feb_28_1020,body_behavioural,3.0.4,60.05952619757646,
4,"They hugged outside, and both of them were crying. ",4,4,,,,0,4,4,4,,,,,0,31,31,31,,,,,,,,,,,,,,,,,,,1,1.6366427970006043,,,,,,,,,,022819_p1,001,2019_Feb_28_1020,body_behavioural,3.0.4,60.05952619757646,
4,"“Maria, I don’t want you to leave.",4,4,,,,0,4,4,4,,,,,0,32,32,32,,,,,,,,,,,,,,,,,,,1,1.7026389000002382,,,,,,,,,,022819_p1,001,2019_Feb_28_1020,body_behavioural,3.0.4,60.05952619757646,
4,I don’t want this to end. ,4,4,,,,0,4,4,4,,,,,0,33,33,33,,,,,,,,,,,,,,,,,,,1,0.9861607800003185,,,,,,,,,,022819_p1,001,2019_Feb_28_1020,body_behavioural,3.0.4,60.05952619757646,
4,"But if this is what you think is best, I can’t make it otherwise.” ",4,4,,,,0,4,4,4,,,,,0,34,34,34,,,,,,,,,,,,,,,,,,,1,2.8174380649998056,,,,,,,,,,022819_p1,001,2019_Feb_28_1020,body_behavioural,3.0.4,60.05952619757646,
4,"They hugged one last time, and Maria ran off to get her things from her dorm.",4,4,,,,0,4,4,4,,,,,0,35,35,35,,,,,,,,,,,,,,,,,,,1,2.052923438000107,,,,,,,,,,022819_p1,001,2019_Feb_28_1020,body_behavioural,3.0.4,60.05952619757646,
4,Henry sadly watched her go. ,4,4,,,,0,4,4,4,,,,,0,36,36,36,,,,,,,,,,,,,,,,,,,1,1.169658580000032,,,,,,,,,,022819_p1,001,2019_Feb_28_1020,body_behavioural,3.0.4,60.05952619757646,
4,,,,,,,0,4,4,4,,,,,,,,,,,,,,,,,,,,,,,,,,,,,,,,,,,,,,022819_p1,001,2019_Feb_28_1020,body_behavioural,3.0.4,60.05952619757646,
5,,,,,,,0,5,5,5,0,0,0,0,,,,,,,,,,,,,,,,,space,1.1532850300000064,space,1.0030060019998928,space,2.1861926130004576,,,,,,,,,,,,022819_p1,001,2019_Feb_28_1020,body_behavioural,3.0.4,60.05952619757646,
5,"Simon and Carina noticed each other as they walked into the grocery store at the same time, their carts nearly colliding as they squeezed into the entrance.",1,1,,,,0,5,5,5,,,,,0,0,0,0,,,,,,,,,,,,,,,,,,,1,16.704318230000354,,,,,,,,,,022819_p1,001,2019_Feb_28_1020,body_behavioural,3.0.4,60.05952619757646,
5,"They were both new to the Boston area, and this was their first time in this store. ",1,1,,,,0,5,5,5,,,,,0,1,1,1,,,,,,,,,,,,,,,,,,,1,2.8372629670002425,,,,,,,,,,022819_p1,001,2019_Feb_28_1020,body_behavioural,3.0.4,60.05952619757646,
5,"It kind of looked like a large warehouse, with high unfurnished ceilings, industrial lights, and large packages of food. ",1,1,,,,0,5,5,5,,,,,0,2,2,2,,,,,,,,,,,,,,,,,,,9,5.186631645000489,,,,,,,,,,022819_p1,001,2019_Feb_28_1020,body_behavioural,3.0.4,60.05952619757646,
5,"They went off along separate routes, but soon ended up back together in the meat section. ",2,1,,,,0,5,5,5,,,,,0,3,3,3,,,,,,,,,,,,,,,,,,,1,1.4530196369996702,,,,,,,,,,022819_p1,001,2019_Feb_28_1020,body_behavioural,3.0.4,60.05952619757646,
5,"They were both preparing for barbecues, so they were looking over the same cuts of meat. ",2,1,,,,0,5,5,5,,,,,0,4,4,4,,,,,,,,,,,,,,,,,,,1,3.386557714999981,,,,,,,,,,022819_p1,001,2019_Feb_28_1020,body_behavioural,3.0.4,60.05952619757646,
5,"Simon really wanted to talk to Carina, and Carina really wanted to say something to Simon, but they felt embarrassed striking up a conversation with a stranger.",2,1,,,,0,5,5,5,,,,,0,5,5,5,,,,,,,,,,,,,,,,,,,9,3.8842640949997076,,,,,,,,,,022819_p1,001,2019_Feb_28_1020,body_behavioural,3.0.4,60.05952619757646,
5,"Carina suddenly turned to Simon and, pointing at a Cornish hen, asked, “Isn’t this meat cute?”",2,2,,,,0,5,5,5,,,,,0,6,6,6,,,,,,,,,,,,,,,,,,,1,1.6529798600004142,,,,,,,,,,022819_p1,001,2019_Feb_28_1020,body_behavioural,3.0.4,60.05952619757646,
5,"He laughed, and said, “It is very cute.",2,2,,,,0,5,5,5,,,,,0,7,7,7,,,,,,,,,,,,,,,,,,,1,1.1196290799998678,,,,,,,,,,022819_p1,001,2019_Feb_28_1020,body_behavioural,3.0.4,60.05952619757646,
5,"Probably the younger brother of this guy,” and he picked up a regular-sized chicken.",2,2,,,,0,5,5,5,,,,,0,8,8,8,,,,,,,,,,,,,,,,,,,1,2.269916639999792,,,,,,,,,,022819_p1,001,2019_Feb_28_1020,body_behavioural,3.0.4,60.05952619757646,
5,"“Unlucky family,” she responded. ",2,2,,,,0,5,5,5,,,,,0,9,9,9,,,,,,,,,,,,,,,,,,,1,0.9340803269997195,,,,,,,,,,022819_p1,001,2019_Feb_28_1020,body_behavioural,3.0.4,60.05952619757646,
5,They continued to chat as they picked out their groceries.,2,2,,,,0,5,5,5,,,,,0,10,10,10,,,,,,,,,,,,,,,,,,,1,1.9532268330003717,,,,,,,,,,022819_p1,001,2019_Feb_28_1020,body_behavioural,3.0.4,60.05952619757646,
5,"Simon helped Carina pick out the best ribs and his personal favorite barbeque sauce, and she helped him gather the  peppers, onions, and spices for a vegetable kabob she recommended.",2,2,,,,0,5,5,5,,,,,0,11,11,11,,,,,,,,,,,,,,,,,,,1,2.670045900000332,,,,,,,,,,022819_p1,001,2019_Feb_28_1020,body_behavioural,3.0.4,60.05952619757646,
5,"When they were both finished shopping, they went to the checkout area.",3,2,,,,0,5,5,5,,,,,0,12,12,12,,,,,,,,,,,,,,,,,,,9,6.153359257000375,,,,,,,,,,022819_p1,001,2019_Feb_28_1020,body_behavioural,3.0.4,60.05952619757646,
5,"Simon was disappointed to see that the lines were short, since he had been hoping for an excuse to spend more time with Carina.",3,2,,,,0,5,5,5,,,,,0,13,13,13,,,,,,,,,,,,,,,,,,,1,2.6364469419995658,,,,,,,,,,022819_p1,001,2019_Feb_28_1020,body_behavioural,3.0.4,60.05952619757646,
5,"They had real chemistry, and both of them could definitely see a future together despite having just met.",3,2,,,,0,5,5,5,,,,,0,14,14,14,,,,,,,,,,,,,,,,,,,1,1.7362802620000366,,,,,,,,,,022819_p1,001,2019_Feb_28_1020,body_behavioural,3.0.4,60.05952619757646,
5,"“So you haven’t been around the city much?”, Simon asked. ",3,2,,,,0,5,5,5,,,,,0,15,15,15,,,,,,,,,,,,,,,,,,,1,0.7363175800001045,,,,,,,,,,022819_p1,001,2019_Feb_28_1020,body_behavioural,3.0.4,60.05952619757646,
5,"“No, not really.",3,2,,,,0,5,5,5,,,,,0,16,16,16,,,,,,,,,,,,,,,,,,,1,0.5864479149995532,,,,,,,,,,022819_p1,001,2019_Feb_28_1020,body_behavioural,3.0.4,60.05952619757646,
5,I’ve mainly been working and setting up my apartment.”,3,2,,,,0,5,5,5,,,,,0,17,17,17,,,,,,,,,,,,,,,,,,,1,0.7862997800002631,,,,,,,,,,022819_p1,001,2019_Feb_28_1020,body_behavioural,3.0.4,60.05952619757646,
5,"Simon asked her, “Ok well, if you’d like I could pick you up next weekend, and we could go around Harvard Square and get dinner.",3,3,,,,0,5,5,5,,,,,0,18,18,18,,,,,,,,,,,,,,,,,,,1,1.90318571699936,,,,,,,,,,022819_p1,001,2019_Feb_28_1020,body_behavioural,3.0.4,60.05952619757646,
5,"There are a lot of great places around there, and it’s really nice during the summer.",3,3,,,,0,5,5,5,,,,,0,19,19,19,,,,,,,,,,,,,,,,,,,1,3.0342069170001196,,,,,,,,,,022819_p1,001,2019_Feb_28_1020,body_behavioural,3.0.4,60.05952619757646,
5,The Harvard campus is also beautiful.” ,3,3,,,,0,5,5,5,,,,,0,20,20,20,,,,,,,,,,,,,,,,,,,1,1.2364623820003544,,,,,,,,,,022819_p1,001,2019_Feb_28_1020,body_behavioural,3.0.4,60.05952619757646,
5,"Carina smiled, “I’d love to: that sounds great!”",3,3,,,,0,5,5,5,,,,,0,21,21,21,,,,,,,,,,,,,,,,,,,1,1.870001525000589,,,,,,,,,,022819_p1,001,2019_Feb_28_1020,body_behavioural,3.0.4,60.05952619757646,
5,"She quickly entered her number in his phone, since they only had to wait a couple minutes in line.",3,3,,,,0,5,5,5,,,,,0,22,22,22,,,,,,,,,,,,,,,,,,,1,2.5016130179992615,,,,,,,,,,022819_p1,001,2019_Feb_28_1020,body_behavioural,3.0.4,60.05952619757646,
5,Then it was her turn to check out with the cashier. ,4,3,,,,0,5,5,5,,,,,0,23,23,23,,,,,,,,,,,,,,,,,,,1,3.3199951900005544,,,,,,,,,,022819_p1,001,2019_Feb_28_1020,body_behavioural,3.0.4,60.05952619757646,
5,"Simon, wanting to make a gesture of his affection, lifted up the divider on the conveyor belt and said to the cashier, “Actually these are together.",4,3,,,,0,5,5,5,,,,,0,24,24,24,,,,,,,,,,,,,,,,,,,1,5.2199941549997675,,,,,,,,,,022819_p1,001,2019_Feb_28_1020,body_behavioural,3.0.4,60.05952619757646,
5,"Carina, I’ve got it.",4,3,,,,0,5,5,5,,,,,0,25,25,25,,,,,,,,,,,,,,,,,,,1,4.684325172000172,,,,,,,,,,022819_p1,001,2019_Feb_28_1020,body_behavioural,3.0.4,60.05952619757646,
5,This was kind-of a date today.”,4,3,,,,0,5,5,5,,,,,0,26,26,26,,,,,,,,,,,,,,,,,,,1,5.753226335000363,,,,,,,,,,022819_p1,001,2019_Feb_28_1020,body_behavioural,3.0.4,60.05952619757646,
5,Carina blushed and laughed; she thought this was ridiculous but also very sweet. ,4,3,,,,0,5,5,5,,,,,0,27,27,27,,,,,,,,,,,,,,,,,,,1,2.1863323400002628,,,,,,,,,,022819_p1,001,2019_Feb_28_1020,body_behavioural,3.0.4,60.05952619757646,
5,"The cashier rolled her eyes when they weren’t looking, and she scanned the rest of his items. ",4,3,,,,0,5,5,5,,,,,0,28,28,28,,,,,,,,,,,,,,,,,,,9,6.803357515000243,,,,,,,,,,022819_p1,001,2019_Feb_28_1020,body_behavioural,3.0.4,60.05952619757646,
5,"The total came to $120, and he paid with his credit card.",4,3,,,,0,5,5,5,,,,,0,29,29,29,,,,,,,,,,,,,,,,,,,1,2.269798766999884,,,,,,,,,,022819_p1,001,2019_Feb_28_1020,body_behavioural,3.0.4,60.05952619757646,
5,"Carina thanked him, and they took the groceries and walked out.",4,3,,,,0,5,5,5,,,,,0,30,30,30,,,,,,,,,,,,,,,,,,,1,1.8694920850002745,,,,,,,,,,022819_p1,001,2019_Feb_28_1020,body_behavioural,3.0.4,60.05952619757646,
5,"As they were walking towards the exit, Carina reluctantly said goodbye since she was running late for the barbeque she was hosting that afternoon.",4,4,,,,0,5,5,5,,,,,0,31,31,31,,,,,,,,,,,,,,,,,,,9,4.869971664999866,,,,,,,,,,022819_p1,001,2019_Feb_28_1020,body_behavioural,3.0.4,60.05952619757646,
5,"They hugged and parted ways, stealing glances at each other as they both walked back to their cars.",4,4,,,,0,5,5,5,,,,,0,32,32,32,,,,,,,,,,,,,,,,,,,1,1.4030745130003197,,,,,,,,,,022819_p1,001,2019_Feb_28_1020,body_behavioural,3.0.4,60.05952619757646,
5,,,,,,,0,5,5,5,,,,,,,,,,,,,,,,,,,,,,,,,,,,,,,,,,,,,,022819_p1,001,2019_Feb_28_1020,body_behavioural,3.0.4,60.05952619757646,
6,,,,,,,0,6,6,6,0,0,0,0,,,,,,,,,,,,,,,,,space,0.9199602300004699,space,1.5026276149992555,space,3.636529811999935,,,,,,,,,,,,022819_p1,001,2019_Feb_28_1020,body_behavioural,3.0.4,60.05952619757646,
6,,,,,,,0,6,6,6,1,0,1,0,,,,,,,,,,,,,,,,,,,,,space,0.4364293620001263,,,,,,,,,,,,022819_p1,001,2019_Feb_28_1020,body_behavioural,3.0.4,60.05952619757646,
6,"Alex was a distracted, sweaty mess as he walked into the grocery store with Chloe; he was hoping that she wouldn't suspect that he was about to propose.",1,1,,,,0,6,6,6,,,,,0,0,0,0,,,,,,,,,,,,,,,,,,,1,8.870331604999592,,,,,,,,,,022819_p1,001,2019_Feb_28_1020,body_behavioural,3.0.4,60.05952619757646,
6,"The grocery store was brightly lit; this was one of the nicest grocery stores in Atlanta, and sunlight poured in through the glass walls.",1,1,,,,0,6,6,6,,,,,0,1,1,1,,,,,,,,,,,,,,,,,,,1,1.086327099999835,,,,,,,,,,022819_p1,001,2019_Feb_28_1020,body_behavioural,3.0.4,60.05952619757646,
6,"The atmosphere was also bright because tomorrow was Thanksgiving, and most shoppers had carts piled high with turkey, stuffing, and pies.",1,1,,,,0,6,6,6,,,,,0,2,2,2,,,,,,,,,,,,,,,,,,,1,4.403648061999775,,,,,,,,,,022819_p1,001,2019_Feb_28_1020,body_behavioural,3.0.4,60.05952619757646,
6,Alex wanted to propose to Chloe here because he knew she would not suspect it at all. ,1,1,,,,0,6,6,6,,,,,0,3,3,3,,,,,,,,,,,,,,,,,,,9,13.803957566999998,,,,,,,,,,022819_p1,001,2019_Feb_28_1020,body_behavioural,3.0.4,60.05952619757646,
6,"Chloe loved surprises, and Alex loved the look on Chloe’s face when she was surprised. ",1,1,,,,0,6,6,6,,,,,0,4,4,4,,,,,,,,,,,,,,,,,,,1,1.719808271999682,,,,,,,,,,022819_p1,001,2019_Feb_28_1020,body_behavioural,3.0.4,60.05952619757646,
6,"“Alex, we need to get some cranberry sauce, so let’s go there first.” ",2,1,,,,0,6,6,6,,,,,0,5,5,5,,,,,,,,,,,,,,,,,,,1,1.1368715250000605,,,,,,,,,,022819_p1,001,2019_Feb_28_1020,body_behavioural,3.0.4,60.05952619757646,
6,She led the way to the section of the store that held the canned foods. ,2,1,,,,0,6,6,6,,,,,0,6,6,6,,,,,,,,,,,,,,,,,,,1,1.8029274270002134,,,,,,,,,,022819_p1,001,2019_Feb_28_1020,body_behavioural,3.0.4,60.05952619757646,
6,Alex looked like he was going to throw up. ,2,1,,,,0,6,6,6,,,,,0,7,7,7,,,,,,,,,,,,,,,,,,,1,1.7864511500001754,,,,,,,,,,022819_p1,001,2019_Feb_28_1020,body_behavioural,3.0.4,60.05952619757646,
6,"As they were walking there, Chloe asked him, “Is everything okay, dear?”",2,1,,,,0,6,6,6,,,,,0,8,8,8,,,,,,,,,,,,,,,,,,,1,3.0195545699998547,,,,,,,,,,022819_p1,001,2019_Feb_28_1020,body_behavioural,3.0.4,60.05952619757646,
6,"“Oh yeah, for sure,” he said, unconvincingly. ",2,1,,,,0,6,6,6,,,,,0,9,9,9,,,,,,,,,,,,,,,,,,,1,1.9202359350001643,,,,,,,,,,022819_p1,001,2019_Feb_28_1020,body_behavioural,3.0.4,60.05952619757646,
6,"She chuckled, “Alright, whatever you say.” ",2,1,,,,0,6,6,6,,,,,0,10,10,10,,,,,,,,,,,,,,,,,,,1,2.600824207000187,,,,,,,,,,022819_p1,001,2019_Feb_28_1020,body_behavioural,3.0.4,60.05952619757646,
6,"She was mulling over the different cans of cranberry sauce, and Alex knew she would be a while.",2,1,,,,0,6,6,6,,,,,0,11,11,11,,,,,,,,,,,,,,,,,,,1,3.503274308000073,,,,,,,,,,022819_p1,001,2019_Feb_28_1020,body_behavioural,3.0.4,60.05952619757646,
6,He turned his back to her and pulled out the ring.,2,2,,,,0,6,6,6,,,,,0,12,12,12,,,,,,,,,,,,,,,,,,,9,2.41976678500032,,,,,,,,,,022819_p1,001,2019_Feb_28_1020,body_behavioural,3.0.4,60.05952619757646,
6,He had been saving up for this for a while. ,2,2,,,,0,6,6,6,,,,,0,13,13,13,,,,,,,,,,,,,,,,,,,1,1.40274463500009,,,,,,,,,,022819_p1,001,2019_Feb_28_1020,body_behavioural,3.0.4,60.05952619757646,
6,The ring had three large diamonds with smaller ones encircling each one: all of them sparkled in the light streaming in from the windows. ,2,2,,,,0,6,6,6,,,,,0,14,14,14,,,,,,,,,,,,,,,,,,,1,1.3031414120005138,,,,,,,,,,022819_p1,001,2019_Feb_28_1020,body_behavioural,3.0.4,60.05952619757646,
6,"“Alex?”, Chloe said suspiciously. ",2,2,,,,0,6,6,6,,,,,0,15,15,15,,,,,,,,,,,,,,,,,,,1,1.9197757319998345,,,,,,,,,,022819_p1,001,2019_Feb_28_1020,body_behavioural,3.0.4,60.05952619757646,
6,He closed the box and whipped around. “Yes?”,2,2,,,,0,6,6,6,,,,,0,16,16,16,,,,,,,,,,,,,,,,,,,1,0.8363635820005584,,,,,,,,,,022819_p1,001,2019_Feb_28_1020,body_behavioural,3.0.4,60.05952619757646,
6,“Do we need anything else?”,2,2,,,,0,6,6,6,,,,,0,17,17,17,,,,,,,,,,,,,,,,,,,1,1.4695725649999076,,,,,,,,,,022819_p1,001,2019_Feb_28_1020,body_behavioural,3.0.4,60.05952619757646,
6,"“Yeah I don’t know, honey.” ",2,2,,,,0,6,6,6,,,,,0,18,18,18,,,,,,,,,,,,,,,,,,,1,1.769364434999261,,,,,,,,,,022819_p1,001,2019_Feb_28_1020,body_behavioural,3.0.4,60.05952619757646,
6,They went to the checkout and waited in a long line.,3,2,,,,0,6,6,6,,,,,0,19,19,19,,,,,,,,,,,,,,,,,,,9,3.1175415999996403,,,,,,,,,,022819_p1,001,2019_Feb_28_1020,body_behavioural,3.0.4,60.05952619757646,
6,Alex was staring intensely off into the distance. ,3,2,,,,0,6,6,6,,,,,0,20,20,20,,,,,,,,,,,,,,,,,,,1,1.3841845950000788,,,,,,,,,,022819_p1,001,2019_Feb_28_1020,body_behavioural,3.0.4,60.05952619757646,
6,Chloe was watching him trying to decide whether he looked scared or confused. ,3,2,,,,0,6,6,6,,,,,0,21,21,21,,,,,,,,,,,,,,,,,,,1,1.8864762049997807,,,,,,,,,,022819_p1,001,2019_Feb_28_1020,body_behavioural,3.0.4,60.05952619757646,
6,Alex looked over at their friends who were waiting by the entrance of the grocery store.,3,2,,,,0,6,6,6,,,,,0,22,22,22,,,,,,,,,,,,,,,,,,,1,2.036453204999816,,,,,,,,,,022819_p1,001,2019_Feb_28_1020,body_behavioural,3.0.4,60.05952619757646,
6,They got the message and walked over slowly. ,3,2,,,,0,6,6,6,,,,,0,23,23,23,,,,,,,,,,,,,,,,,,,1,4.453034254999693,,,,,,,,,,022819_p1,001,2019_Feb_28_1020,body_behavioural,3.0.4,60.05952619757646,
6,"“Honey,” he said to get her attention, “Look, Chloe, I love you so much and I want to be with you forever, I can’t imagine a day without you.”",3,2,,,,0,6,6,6,,,,,0,24,24,24,,,,,,,,,,,,,,,,,,,9,2.769816656999865,,,,,,,,,,022819_p1,001,2019_Feb_28_1020,body_behavioural,3.0.4,60.05952619757646,
6,"“Awww, Alex, me too.”",3,2,,,,0,6,6,6,,,,,0,25,25,25,,,,,,,,,,,,,,,,,,,1,0.8528547949999847,,,,,,,,,,022819_p1,001,2019_Feb_28_1020,body_behavioural,3.0.4,60.05952619757646,
6,"Alex got down on one knee, and Chloe gasped. ",3,3,,,,0,6,6,6,,,,,0,26,26,26,,,,,,,,,,,,,,,,,,,1,2.0863864070006457,,,,,,,,,,022819_p1,001,2019_Feb_28_1020,body_behavioural,3.0.4,60.05952619757646,
6,"“I am serious, Chloe. Will you marry me?”",3,3,,,,0,6,6,6,,,,,0,27,27,27,,,,,,,,,,,,,,,,,,,1,1.6027991299997666,,,,,,,,,,022819_p1,001,2019_Feb_28_1020,body_behavioural,3.0.4,60.05952619757646,
6,"The people in line around them realized what was happening, stepped back, and started taking pictures.",3,3,,,,0,6,6,6,,,,,0,28,28,28,,,,,,,,,,,,,,,,,,,1,4.4009335450000435,,,,,,,,,,022819_p1,001,2019_Feb_28_1020,body_behavioural,3.0.4,60.05952619757646,
6,Their friends were no longer trying to hide and were videotaping and taking pictures too. ,3,3,,,,0,6,6,6,,,,,0,29,29,29,,,,,,,,,,,,,,,,,,,1,1.4202227499999935,,,,,,,,,,022819_p1,001,2019_Feb_28_1020,body_behavioural,3.0.4,60.05952619757646,
6,Chloe looked around and laughed. ,3,3,,,,0,6,6,6,,,,,0,30,30,30,,,,,,,,,,,,,,,,,,,1,1.6197914880003736,,,,,,,,,,022819_p1,001,2019_Feb_28_1020,body_behavioural,3.0.4,60.05952619757646,
6,"“Yes!” she shouted, and jumped to embrace Alex in a hug. ",3,4,,,,0,6,6,6,,,,,0,31,31,31,,,,,,,,,,,,,,,,,,,1,1.6852694119997977,,,,,,,,,,022819_p1,001,2019_Feb_28_1020,body_behavioural,3.0.4,60.05952619757646,
6,Everyone in line clapped and cheered. ,3,4,,,,0,6,6,6,,,,,0,32,32,32,,,,,,,,,,,,,,,,,,,1,1.1840160429992466,,,,,,,,,,022819_p1,001,2019_Feb_28_1020,body_behavioural,3.0.4,60.05952619757646,
6,"Alex put the ring on Chloe’s finger, who was nearly spinning in excitement.",3,4,,,,0,6,6,6,,,,,0,33,33,33,,,,,,,,,,,,,,,,,,,1,1.5030728499996258,,,,,,,,,,022819_p1,001,2019_Feb_28_1020,body_behavioural,3.0.4,60.05952619757646,
6,"“I love it, oh my gosh, it’s so glittery!",3,4,,,,0,6,6,6,,,,,0,34,34,34,,,,,,,,,,,,,,,,,,,1,0.8697062170003846,,,,,,,,,,022819_p1,001,2019_Feb_28_1020,body_behavioural,3.0.4,60.05952619757646,
6,Look at this!” she said as she shoved her hand in a stranger’s face.,3,4,,,,0,6,6,6,,,,,0,35,35,35,,,,,,,,,,,,,,,,,,,1,2.184158402000321,,,,,,,,,,022819_p1,001,2019_Feb_28_1020,body_behavioural,3.0.4,60.05952619757646,
6,Her friends came over and hugged them.,3,4,,,,0,6,6,6,,,,,0,36,36,36,,,,,,,,,,,,,,,,,,,1,1.0529256849995363,,,,,,,,,,022819_p1,001,2019_Feb_28_1020,body_behavioural,3.0.4,60.05952619757646,
6,The other people let them move up to the front of the checkout line. ,3,4,,,,0,6,6,6,,,,,0,37,37,37,,,,,,,,,,,,,,,,,,,1,3.586572934999822,,,,,,,,,,022819_p1,001,2019_Feb_28_1020,body_behavioural,3.0.4,60.05952619757646,
6,The cashier congratulated them and scanned their cranberry sauce. ,4,4,,,,0,6,6,6,,,,,0,38,38,38,,,,,,,,,,,,,,,,,,,1,3.469975328000146,,,,,,,,,,022819_p1,001,2019_Feb_28_1020,body_behavioural,3.0.4,60.05952619757646,
6,The total came to $4 and Chloe paid in cash while getting distracted and staring at the ring as she pulled out the bills.,4,4,,,,0,6,6,6,,,,,0,39,39,39,,,,,,,,,,,,,,,,,,,1,5.551020542000515,,,,,,,,,,022819_p1,001,2019_Feb_28_1020,body_behavioural,3.0.4,60.05952619757646,
6,"Alex grabbed the cans, and they walked out with their friends bunched around them. ",4,4,,,,0,6,6,6,,,,,0,40,40,40,,,,,,,,,,,,,,,,,,,1,4.769837497000481,,,,,,,,,,022819_p1,001,2019_Feb_28_1020,body_behavioural,3.0.4,60.05952619757646,
6,,,,,,,0,6,6,6,,,,,,,,,,,,,,,,,,,,,,,,,,,,,,,,,,,,,,022819_p1,001,2019_Feb_28_1020,body_behavioural,3.0.4,60.05952619757646,
7,,,,,,,0,7,7,7,0,0,0,0,,,,,,,,,,,,,,,,,space,0.8863776150001286,space,0.6864588299995376,space,1.6197007400005532,,,,,,,,,,,,022819_p1,001,2019_Feb_28_1020,body_behavioural,3.0.4,60.05952619757646,
7,"James noticed Teresa immediately as she walked into the restaurant - or, more accurately as she attempted to walk into the restaurant. ",1,1,,,,0,7,7,7,,,,,0,0,0,0,,,,,,,,,,,,,,,,,,,1,8.220390855000005,,,,,,,,,,022819_p1,001,2019_Feb_28_1020,body_behavioural,3.0.4,60.05952619757646,
7,"She was typing intently on her phone and ran straight into the diner's clear, glass door with an echoing thud. ",1,1,,,,0,7,7,7,,,,,0,1,1,1,,,,,,,,,,,,,,,,,,,1,3.636257547000241,,,,,,,,,,022819_p1,001,2019_Feb_28_1020,body_behavioural,3.0.4,60.05952619757646,
7,Everyone waiting around the cash register turned to see if she was okay.,1,1,,,,0,7,7,7,,,,,0,2,2,2,,,,,,,,,,,,,,,,,,,1,2.1531252419999873,,,,,,,,,,022819_p1,001,2019_Feb_28_1020,body_behavioural,3.0.4,60.05952619757646,
7,Teresa rubbed her head.,1,1,,,,0,7,7,7,,,,,0,3,3,3,,,,,,,,,,,,,,,,,,,1,1.0863143549995584,,,,,,,,,,022819_p1,001,2019_Feb_28_1020,body_behavioural,3.0.4,60.05952619757646,
7,"While being both confused and unembarrassed, she looked mostly indignant that the door had been in her way. ",1,1,,,,0,7,7,7,,,,,0,4,4,4,,,,,,,,,,,,,,,,,,,1,4.270071534999261,,,,,,,,,,022819_p1,001,2019_Feb_28_1020,body_behavioural,3.0.4,60.05952619757646,
7,James found this quite charming and stole a couple glances at her until she noticed and wrinkled her eyebrows at him in suspicion. ,1,1,,,,0,7,7,7,,,,,0,5,5,5,,,,,,,,,,,,,,,,,,,1,2.0192896620001193,,,,,,,,,,022819_p1,001,2019_Feb_28_1020,body_behavioural,3.0.4,60.05952619757646,
7,"The restaurant they were in was a cabin-themed diner with wooden booths and bar, walls covered in plaid blankets, and antler decorations. ",1,1,,,,0,7,7,7,,,,,0,6,6,6,,,,,,,,,,,,,,,,,,,9,2.7359995000006165,,,,,,,,,,022819_p1,001,2019_Feb_28_1020,body_behavioural,3.0.4,60.05952619757646,
7,The waiter saw that James and Teresa were both alone and motioned to both of them. ,1,1,,,,0,7,7,7,,,,,0,7,7,7,,,,,,,,,,,,,,,,,,,1,2.5007179849999375,,,,,,,,,,022819_p1,001,2019_Feb_28_1020,body_behavioural,3.0.4,60.05952619757646,
7,“Right this way.,2,1,,,,0,7,7,7,,,,,0,8,8,8,,,,,,,,,,,,,,,,,,,1,0.6030480050003462,,,,,,,,,,022819_p1,001,2019_Feb_28_1020,body_behavioural,3.0.4,60.05952619757646,
7,You two don't mind sitting at the counter?” ,2,1,,,,0,7,7,7,,,,,0,9,9,9,,,,,,,,,,,,,,,,,,,1,2.069856125000115,,,,,,,,,,022819_p1,001,2019_Feb_28_1020,body_behavioural,3.0.4,60.05952619757646,
7,They sat a seat apart from each other on the split tree trunk that served as a bench.,2,1,,,,0,7,7,7,,,,,0,10,10,10,,,,,,,,,,,,,,,,,,,1,1.9698950120000518,,,,,,,,,,022819_p1,001,2019_Feb_28_1020,body_behavioural,3.0.4,60.05952619757646,
7, The waitress behind the counter gave them bright neon menus that were filled with breakfast items.,2,1,,,,0,7,7,7,,,,,0,11,11,11,,,,,,,,,,,,,,,,,,,1,2.43642886500038,,,,,,,,,,022819_p1,001,2019_Feb_28_1020,body_behavioural,3.0.4,60.05952619757646,
7,"Teresa quickly glanced through it, then pulled out a book and started reading it while James played with the salt and pepper shakers as he tried to think of an excuse to talk to Teresa.",2,1,,,,0,7,7,7,,,,,0,12,12,12,,,,,,,,,,,,,,,,,,,1,3.153577912000401,,,,,,,,,,022819_p1,001,2019_Feb_28_1020,body_behavioural,3.0.4,60.05952619757646,
7,"James eventually turned to her and asked, “Your forehead alright?”",2,2,,,,0,7,7,7,,,,,0,13,13,13,,,,,,,,,,,,,,,,,,,9,9.636885722000443,,,,,,,,,,022819_p1,001,2019_Feb_28_1020,body_behavioural,3.0.4,60.05952619757646,
7,She put down her book and gave him a smirk.,2,2,,,,0,7,7,7,,,,,0,14,14,14,,,,,,,,,,,,,,,,,,,1,1.2863986619995558,,,,,,,,,,022819_p1,001,2019_Feb_28_1020,body_behavioural,3.0.4,60.05952619757646,
7,"“Have you ever been stung by a scorpion?”, she asked him, tilting her head.",2,2,,,,0,7,7,7,,,,,0,15,15,15,,,,,,,,,,,,,,,,,,,1,3.0865628070005187,,,,,,,,,,022819_p1,001,2019_Feb_28_1020,body_behavioural,3.0.4,60.05952619757646,
7,"“What?”, he asked confusedly.",2,2,,,,0,7,7,7,,,,,0,16,16,16,,,,,,,,,,,,,,,,,,,1,1.519680784999764,,,,,,,,,,022819_p1,001,2019_Feb_28_1020,body_behavioural,3.0.4,60.05952619757646,
7, “A scorpion.”,2,2,,,,0,7,7,7,,,,,0,17,17,17,,,,,,,,,,,,,,,,,,,1,0.6526249770004142,,,,,,,,,,022819_p1,001,2019_Feb_28_1020,body_behavioural,3.0.4,60.05952619757646,
7,James began to worry that Teresa had possibly suffered a concussion in the door crash.,2,2,,,,0,7,7,7,,,,,0,18,18,18,,,,,,,,,,,,,,,,,,,1,2.603142949999892,,,,,,,,,,022819_p1,001,2019_Feb_28_1020,body_behavioural,3.0.4,60.05952619757646,
7,"“Uh no, why?” ",2,2,,,,0,7,7,7,,,,,0,19,19,19,,,,,,,,,,,,,,,,,,,1,2.7198816599993734,,,,,,,,,,022819_p1,001,2019_Feb_28_1020,body_behavioural,3.0.4,60.05952619757646,
7,"“Because I’ve been stung by one, and since then, things like bumping into doors seem like pretty small potatoes.” ",2,2,,,,0,7,7,7,,,,,0,20,20,20,,,,,,,,,,,,,,,,,,,1,7.57016633999956,,,,,,,,,,022819_p1,001,2019_Feb_28_1020,body_behavioural,3.0.4,60.05952619757646,
7,"They carried on talking, and Teresa told him all about her encounter with a Deathstalker scorpion while she was studying abroad in Egypt.",2,2,,,,0,7,7,7,,,,,0,21,21,21,,,,,,,,,,,,,,,,,,,1,4.01945998500014,,,,,,,,,,022819_p1,001,2019_Feb_28_1020,body_behavioural,3.0.4,60.05952619757646,
7,"After a few minutes, the waitress behind the counter came up to them, “Alrighty, can I take you order?” ",3,3,,,,0,7,7,7,,,,,0,22,22,22,,,,,,,,,,,,,,,,,,,9,4.903656976999628,,,,,,,,,,022819_p1,001,2019_Feb_28_1020,body_behavioural,3.0.4,60.05952619757646,
7,"She first looked at Teresa who answered, “I’ll have a Western Omelette and a glass of milk.”",3,3,,,,0,7,7,7,,,,,0,23,23,23,,,,,,,,,,,,,,,,,,,1,1.4030271900001026,,,,,,,,,,022819_p1,001,2019_Feb_28_1020,body_behavioural,3.0.4,60.05952619757646,
7,Then the waitress turned to James.,3,3,,,,0,7,7,7,,,,,0,24,24,24,,,,,,,,,,,,,,,,,,,1,0.81972166200012,,,,,,,,,,022819_p1,001,2019_Feb_28_1020,body_behavioural,3.0.4,60.05952619757646,
7,"James said, “I’ll have the chocolate chip pancakes and a coffee.” ",3,3,,,,0,7,7,7,,,,,0,25,25,25,,,,,,,,,,,,,,,,,,,1,0.7696383949996743,,,,,,,,,,022819_p1,001,2019_Feb_28_1020,body_behavioural,3.0.4,60.05952619757646,
7,"“Alrighty, comin’ right up!”",3,3,,,,0,7,7,7,,,,,0,26,26,26,,,,,,,,,,,,,,,,,,,1,0.7864196880000236,,,,,,,,,,022819_p1,001,2019_Feb_28_1020,body_behavioural,3.0.4,60.05952619757646,
7,"They picked up their conversation, and James ended up telling Teresa about a concert he was going to later. ",3,3,,,,0,7,7,7,,,,,0,27,27,27,,,,,,,,,,,,,,,,,,,9,7.003118130000075,,,,,,,,,,022819_p1,001,2019_Feb_28_1020,body_behavioural,3.0.4,60.05952619757646,
7,"He invited her to come along, promising her that the concert would be indoors and absolutely free of venomous insects.",3,3,,,,0,7,7,7,,,,,0,28,28,28,,,,,,,,,,,,,,,,,,,1,1.2532587200003036,,,,,,,,,,022819_p1,001,2019_Feb_28_1020,body_behavioural,3.0.4,60.05952619757646,
7,"Teresa agreed, gave him her number, and they worked out that James would pick her up before the concert and drive them there.",3,3,,,,0,7,7,7,,,,,0,29,29,29,,,,,,,,,,,,,,,,,,,1,1.5008461650004392,,,,,,,,,,022819_p1,001,2019_Feb_28_1020,body_behavioural,3.0.4,60.05952619757646,
7,"This was not what they had expected from their solitary lunch plans and were both excited, even though Teresa was doing a much better job of hiding it than James. ",3,3,,,,0,7,7,7,,,,,0,30,30,30,,,,,,,,,,,,,,,,,,,1,3.9866164049999497,,,,,,,,,,022819_p1,001,2019_Feb_28_1020,body_behavioural,3.0.4,60.05952619757646,
7," After awhile,  the waitress brought out their food, and James took this opportunity to scoot closer to her on the log bench. ",4,4,,,,0,7,7,7,,,,,0,31,31,31,,,,,,,,,,,,,,,,,,,1,5.303008885000054,,,,,,,,,,022819_p1,001,2019_Feb_28_1020,body_behavioural,3.0.4,60.05952619757646,
7,"Teresa was happy to share the meal with James, despite their food tasting pretty bad. ",4,4,,,,0,7,7,7,,,,,0,32,32,32,,,,,,,,,,,,,,,,,,,1,1.7030786300001637,,,,,,,,,,022819_p1,001,2019_Feb_28_1020,body_behavioural,3.0.4,60.05952619757646,
7,"Judging by how salty the pancakes tasted, they suspected that the chef had confused the salt and sugar.",4,4,,,,0,7,7,7,,,,,0,33,33,33,,,,,,,,,,,,,,,,,,,1,6.4700651399998605,,,,,,,,,,022819_p1,001,2019_Feb_28_1020,body_behavioural,3.0.4,60.05952619757646,
7,"When the meal was over, they got up, hugged, and parted ways. ",4,4,,,,0,7,7,7,,,,,0,34,34,34,,,,,,,,,,,,,,,,,,,1,1.619742546999987,,,,,,,,,,022819_p1,001,2019_Feb_28_1020,body_behavioural,3.0.4,60.05952619757646,
7,"James said,“I have to run, got to get to work.",4,4,,,,0,7,7,7,,,,,0,35,35,35,,,,,,,,,,,,,,,,,,,1,1.1364685170001394,,,,,,,,,,022819_p1,001,2019_Feb_28_1020,body_behavioural,3.0.4,60.05952619757646,
7,See you tonight!”,4,4,,,,0,7,7,7,,,,,0,36,36,36,,,,,,,,,,,,,,,,,,,1,1.2696884999995746,,,,,,,,,,022819_p1,001,2019_Feb_28_1020,body_behavioural,3.0.4,60.05952619757646,
7,"Teresa smiled and walked towards the door without looking, and almost ran into the door again. ",4,4,,,,0,7,7,7,,,,,0,37,37,37,,,,,,,,,,,,,,,,,,,1,4.836299632000191,,,,,,,,,,022819_p1,001,2019_Feb_28_1020,body_behavioural,3.0.4,60.05952619757646,
7,They both laughed and smiled once more goodbye. ,4,4,,,,0,7,7,7,,,,,0,38,38,38,,,,,,,,,,,,,,,,,,,1,1.002931945000455,,,,,,,,,,022819_p1,001,2019_Feb_28_1020,body_behavioural,3.0.4,60.05952619757646,
7,,,,,,,0,7,7,7,,,,,,,,,,,,,,,,,,,,,,,,,,,,,,,,,,,,,,022819_p1,001,2019_Feb_28_1020,body_behavioural,3.0.4,60.05952619757646,
8,,,,,,,0,8,8,8,0,0,0,0,,,,,,,,,,,,,,,,,space,2.4038179339995622,space,4.536279680000007,space,1.2363452620002136,,,,,,,,,,,,022819_p1,001,2019_Feb_28_1020,body_behavioural,3.0.4,60.05952619757646,
8,,,,,,,0,8,8,8,1,0,1,0,,,,,,,,,,,,,,,,,,,,,space,0.40305371200065565,,,,,,,,,,,,022819_p1,001,2019_Feb_28_1020,body_behavioural,3.0.4,60.05952619757646,
8,"Ms. Bianchi and Ms. Morrison walked into the grocery store at the same time, and, after a moment of mutual recognition, greeted each other and shook hands.",1,1,,,,0,8,8,8,,,,,0,0,0,0,,,,,,,,,,,,,,,,,,,1,10.203416179999294,,,,,,,,,,022819_p1,001,2019_Feb_28_1020,body_behavioural,3.0.4,60.05952619757646,
8,"“Thank you again for inviting me here to discuss my business proposal,” said Ms. Bianchi, “And it’s a pleasure to be out of the office.” ",1,1,,,,0,8,8,8,,,,,0,1,1,1,,,,,,,,,,,,,,,,,,,1,3.7696777080000174,,,,,,,,,,022819_p1,001,2019_Feb_28_1020,body_behavioural,3.0.4,60.05952619757646,
8,"As a salesperson for an Italian cheese company that was trying to expand its outreach to more mainstream grocery stores, this meeting could be a big break for her.",1,1,,,,0,8,8,8,,,,,0,2,2,2,,,,,,,,,,,,,,,,,,,9,6.73693952999929,,,,,,,,,,022819_p1,001,2019_Feb_28_1020,body_behavioural,3.0.4,60.05952619757646,
8,"Her sales target, Ms. Morrison,  who had a reputation for being a bit quirky, was a corporate buyer for a large chain grocery store. ",1,1,,,,0,8,8,8,,,,,0,3,3,3,,,,,,,,,,,,,,,,,,,1,1.5363539469999523,,,,,,,,,,022819_p1,001,2019_Feb_28_1020,body_behavioural,3.0.4,60.05952619757646,
8,"She was known for doing things unconventionally: for example, she said that she liked to make deals with suppliers in the place where the products were sold- “to keep their minds focused on what’s important.” ",1,1,,,,0,8,8,8,,,,,0,4,4,4,,,,,,,,,,,,,,,,,,,1,6.170094197000253,,,,,,,,,,022819_p1,001,2019_Feb_28_1020,body_behavioural,3.0.4,60.05952619757646,
8,"They chatted a little in the front of the grocery store, which was surrounded by pumpkins and halloween decorations set up in special displays for the holiday season.",1,1,,,,0,8,8,8,,,,,0,5,5,5,,,,,,,,,,,,,,,,,,,9,6.186805952000213,,,,,,,,,,022819_p1,001,2019_Feb_28_1020,body_behavioural,3.0.4,60.05952619757646,
8,"Ms. Bianchi and Ms. Morrison walked to the cheese section, and Ms. Morrison picked up a block of parmesan.",2,1,,,,0,8,8,8,,,,,0,6,6,6,,,,,,,,,,,,,,,,,,,1,1.2197511119993578,,,,,,,,,,022819_p1,001,2019_Feb_28_1020,body_behavioural,3.0.4,60.05952619757646,
8,“We have quite a selection here.,2,1,,,,0,8,8,8,,,,,0,7,7,7,,,,,,,,,,,,,,,,,,,1,1.819750347000081,,,,,,,,,,022819_p1,001,2019_Feb_28_1020,body_behavioural,3.0.4,60.05952619757646,
8,I don’t know that it needs an additional section for more gourmet cheeses.” ,2,1,,,,0,8,8,8,,,,,0,8,8,8,,,,,,,,,,,,,,,,,,,1,1.4030810699996437,,,,,,,,,,022819_p1,001,2019_Feb_28_1020,body_behavioural,3.0.4,60.05952619757646,
8,"Ms. Bianchi's confidence faltered for a minute at this remark, but then she launched into her prepared pitch.",2,1,,,,0,8,8,8,,,,,0,9,9,9,,,,,,,,,,,,,,,,,,,1,2.9030887900007656,,,,,,,,,,022819_p1,001,2019_Feb_28_1020,body_behavioural,3.0.4,60.05952619757646,
8," “Ms. Morrison, I think you would agree that selling food is more than just providing variety, but also about providing the highest quality.",2,2,,,,0,8,8,8,,,,,0,10,10,10,,,,,,,,,,,,,,,,,,,9,2.3031657820001783,,,,,,,,,,022819_p1,001,2019_Feb_28_1020,body_behavioural,3.0.4,60.05952619757646,
8,"You don’t have cheeses made in America that are like ours, it is true.",2,2,,,,0,8,8,8,,,,,0,11,11,11,,,,,,,,,,,,,,,,,,,1,6.2037932220000584,,,,,,,,,,022819_p1,001,2019_Feb_28_1020,body_behavioural,3.0.4,60.05952619757646,
8,Your store could be providing American consumers with a dimension in taste that they've never known before with our product.,2,2,,,,0,8,8,8,,,,,0,12,12,12,,,,,,,,,,,,,,,,,,,1,2.1864445769997474,,,,,,,,,,022819_p1,001,2019_Feb_28_1020,body_behavioural,3.0.4,60.05952619757646,
8,"I propose that you give it a shot, buy $1000 worth of cheese products for a few stores, and see how the sales increase not only in our cheeses but also in products related to cheeses: crackers, jams, olives. ",2,2,,,,0,8,8,8,,,,,0,13,13,13,,,,,,,,,,,,,,,,,,,1,8.370168925000144,,,,,,,,,,022819_p1,001,2019_Feb_28_1020,body_behavioural,3.0.4,60.05952619757646,
8,"The availability of a finer product leads to the appreciation of the product, and your consumers will start to consume in a new, more profitable way.”",2,2,,,,0,8,8,8,,,,,0,14,14,14,,,,,,,,,,,,,,,,,,,1,3.186579289999827,,,,,,,,,,022819_p1,001,2019_Feb_28_1020,body_behavioural,3.0.4,60.05952619757646,
8,"Ms. Bianchi picked up a box of crackers by the cheese section, and said, “Here, I will buy these, and we can try some of our cheeses that I've brought with me.”",2,2,,,,0,8,8,8,,,,,0,15,15,15,,,,,,,,,,,,,,,,,,,9,8.236847805000252,,,,,,,,,,022819_p1,001,2019_Feb_28_1020,body_behavioural,3.0.4,60.05952619757646,
8,"Ms. Morrison, who was thinking, nodded in agreement and said, “That sounds like a great idea.",2,2,,,,0,8,8,8,,,,,0,16,16,16,,,,,,,,,,,,,,,,,,,1,0.5026835720000236,,,,,,,,,,022819_p1,001,2019_Feb_28_1020,body_behavioural,3.0.4,60.05952619757646,
8,"Let’s head to check out, and those crackers are on me.” ",2,2,,,,0,8,8,8,,,,,0,17,17,17,,,,,,,,,,,,,,,,,,,1,1.7530877969993526,,,,,,,,,,022819_p1,001,2019_Feb_28_1020,body_behavioural,3.0.4,60.05952619757646,
8,They walked over to the checkout area.,3,2,,,,0,8,8,8,,,,,0,18,18,18,,,,,,,,,,,,,,,,,,,1,1.2363693320003222,,,,,,,,,,022819_p1,001,2019_Feb_28_1020,body_behavioural,3.0.4,60.05952619757646,
8,"There was a very long line, and it was very busy in the checkout area as people were stocking up for Halloween parties and trick-or-treating. ",3,2,,,,0,8,8,8,,,,,0,19,19,19,,,,,,,,,,,,,,,,,,,1,3.2342605470003036,,,,,,,,,,022819_p1,001,2019_Feb_28_1020,body_behavioural,3.0.4,60.05952619757646,
8,"Since they had almost a 10 minute wait in line, Ms. Bianchi handed a sheet with printed graphs to Ms. Morrison the increase in profits that several other stores had seen after starting to carry their products.",3,2,,,,0,8,8,8,,,,,0,20,20,20,,,,,,,,,,,,,,,,,,,1,7.270077666999896,,,,,,,,,,022819_p1,001,2019_Feb_28_1020,body_behavioural,3.0.4,60.05952619757646,
8,"Eventually, Ms. Morrison replied, “You know what, I think you've convinced me that this could work. ",3,3,,,,0,8,8,8,,,,,0,21,21,21,,,,,,,,,,,,,,,,,,,1,4.6032449699996505,,,,,,,,,,022819_p1,001,2019_Feb_28_1020,body_behavioural,3.0.4,60.05952619757646,
8,We've been trying to find a way to add a little European cachet to our stores.,3,3,,,,0,8,8,8,,,,,0,22,22,22,,,,,,,,,,,,,,,,,,,1,2.2361505580001904,,,,,,,,,,022819_p1,001,2019_Feb_28_1020,body_behavioural,3.0.4,60.05952619757646,
8,There's still a problem though - I'm worried we'll be paying out the nose for the import taxes.,3,3,,,,0,8,8,8,,,,,0,23,23,23,,,,,,,,,,,,,,,,,,,9,5.786647251999966,,,,,,,,,,022819_p1,001,2019_Feb_28_1020,body_behavioural,3.0.4,60.05952619757646,
8,Is that the case?",3,3,,,,0,8,8,8,,,,,0,24,24,24,,,,,,,,,,,,,,,,,,,1,0.7364140999998199,,,,,,,,,,022819_p1,001,2019_Feb_28_1020,body_behavioural,3.0.4,60.05952619757646,
8,"It was Ms. Morrison’s turn to checkout, and the two businesswomen continued to talk back and forth as she did so. ",4,3,,,,0,8,8,8,,,,,0,25,25,25,,,,,,,,,,,,,,,,,,,1,1.9698067600002105,,,,,,,,,,022819_p1,001,2019_Feb_28_1020,body_behavioural,3.0.4,60.05952619757646,
8,"The cashier scanned the crackers, and Ms. Bianchi watched in amusement as Ms. Morrison paid the $6 price entirely in quarters from a wallet bulging with change.",4,3,,,,0,8,8,8,,,,,0,26,26,26,,,,,,,,,,,,,,,,,,,1,4.067608442000164,,,,,,,,,,022819_p1,001,2019_Feb_28_1020,body_behavioural,3.0.4,60.05952619757646,
8,"They shortly came to an agreement and would have enough cheese shipments, $5000 worth, to different stores to qualify for a subsidized import tax. ",4,4,,,,0,8,8,8,,,,,0,27,27,27,,,,,,,,,,,,,,,,,,,1,6.686879541999588,,,,,,,,,,022819_p1,001,2019_Feb_28_1020,body_behavioural,3.0.4,60.05952619757646,
8,"Ms. Bianchi retrieved some of her samples from her car, and they toasted their new deal with crackers topped with fresh mozzarella. ",4,4,,,,0,8,8,8,,,,,0,28,28,28,,,,,,,,,,,,,,,,,,,9,8.31977097500021,,,,,,,,,,022819_p1,001,2019_Feb_28_1020,body_behavioural,3.0.4,60.05952619757646,
8,,,,,,,0,8,8,8,,,,,,,,,,,,,,,,,,,,,,,,,,,,,,,,,,,,,,022819_p1,001,2019_Feb_28_1020,body_behavioural,3.0.4,60.05952619757646,
9,,,,,,,0,9,9,9,0,0,0,0,,,,,,,,,,,,,,,,,space,2.6034698849998676,space,9.987050394999642,space,0.802887716999976,,,,,,,,,,,,022819_p1,001,2019_Feb_28_1020,body_behavioural,3.0.4,60.05952619757646,
9,"Sven and Isabel walked hurriedly from the cab into the Barcelona Airport after an incredible weekend with Isabel’s family, which had wiped away any doubts Sven had had about his decision to propose. ",1,1,,,,0,9,9,9,,,,,0,0,0,0,,,,,,,,,,,,,,,,,,,1,18.387712259999716,,,,,,,,,,022819_p1,001,2019_Feb_28_1020,body_behavioural,3.0.4,60.05952619757646,
9,"They were a little pressed for time, with only a little over an hour until their flight would take off to go back to the US, but they already had their online boarding passes and no checked luggage. ",1,1,,,,0,9,9,9,,,,,0,1,1,1,,,,,,,,,,,,,,,,,,,1,13.587264122000306,,,,,,,,,,022819_p1,001,2019_Feb_28_1020,body_behavioural,3.0.4,60.05952619757646,
9,"When Isabel stopped to rummage through her purse looking for her phone, Sven turned his back to her and took the velvet box out of his backpack, opening it to look at the ring he bought her.",1,2,,,,0,9,9,9,,,,,0,2,2,2,,,,,,,,,,,,,,,,,,,9,5.787407155000437,,,,,,,,,,022819_p1,001,2019_Feb_28_1020,body_behavioural,3.0.4,60.05952619757646,
9,"He had received her parents’ blessing during the trip, and he was almost giddy with excitement. ",1,2,,,,0,9,9,9,,,,,0,3,3,3,,,,,,,,,,,,,,,,,,,1,1.90336812500027,,,,,,,,,,022819_p1,001,2019_Feb_28_1020,body_behavioural,3.0.4,60.05952619757646,
9,"He tilted the ring backward and forward, despite having already studied it daily since he had purchased it a few weeks ago. ",1,2,,,,0,9,9,9,,,,,0,4,4,4,,,,,,,,,,,,,,,,,,,1,4.670522225000241,,,,,,,,,,022819_p1,001,2019_Feb_28_1020,body_behavioural,3.0.4,60.05952619757646,
9,"It was a simple design, with a clear, white diamond on a thin silver band.",1,2,,,,0,9,9,9,,,,,0,5,5,5,,,,,,,,,,,,,,,,,,,1,1.152904089999538,,,,,,,,,,022819_p1,001,2019_Feb_28_1020,body_behavioural,3.0.4,60.05952619757646,
9,"“Sven, let’s go! ” Isabel said. ",1,2,,,,0,9,9,9,,,,,0,6,6,6,,,,,,,,,,,,,,,,,,,9,1.419689622000078,,,,,,,,,,022819_p1,001,2019_Feb_28_1020,body_behavioural,3.0.4,60.05952619757646,
9,Sven discretely closed the box and put it in his pocket.,1,2,,,,0,9,9,9,,,,,0,7,7,7,,,,,,,,,,,,,,,,,,,1,1.3860746270001982,,,,,,,,,,022819_p1,001,2019_Feb_28_1020,body_behavioural,3.0.4,60.05952619757646,
9," They entered the security line, weaving through the roped walkways to the front. ",2,2,,,,0,9,9,9,,,,,0,8,8,8,,,,,,,,,,,,,,,,,,,1,2.769934160000048,,,,,,,,,,022819_p1,001,2019_Feb_28_1020,body_behavioural,3.0.4,60.05952619757646,
9,"When they were up, Isabel realized her laptop was buried somewhere in her duffle bag. ",2,2,,,,0,9,9,9,,,,,0,9,9,9,,,,,,,,,,,,,,,,,,,9,3.203238441999929,,,,,,,,,,022819_p1,001,2019_Feb_28_1020,body_behavioural,3.0.4,60.05952619757646,
9,Sven had to hold the growing mound of objects she pulled from her bag until she unearthed the laptop.,2,2,,,,0,9,9,9,,,,,0,10,10,10,,,,,,,,,,,,,,,,,,,1,1.7531515000000581,,,,,,,,,,022819_p1,001,2019_Feb_28_1020,body_behavioural,3.0.4,60.05952619757646,
9,She set it into a bin and then had to unstrap her leather boots and put everything else into the bins.,2,2,,,,0,9,9,9,,,,,0,11,11,11,,,,,,,,,,,,,,,,,,,1,2.369974000000184,,,,,,,,,,022819_p1,001,2019_Feb_28_1020,body_behavioural,3.0.4,60.05952619757646,
9,"Finally, she relieved Sven of his holding duties, and he hurriedly deposited his own backpack on the belt as the people behind them glared without shame. ",2,2,,,,0,9,9,9,,,,,0,12,12,12,,,,,,,,,,,,,,,,,,,1,4.086516743000175,,,,,,,,,,022819_p1,001,2019_Feb_28_1020,body_behavioural,3.0.4,60.05952619757646,
9,"Sven went into the millimeter wave scanner after Isabel, put his hands up, and the metal bars whirled around him.",2,2,,,,0,9,9,9,,,,,0,13,13,13,,,,,,,,,,,,,,,,,,,1,14.720537877000424,,,,,,,,,,022819_p1,001,2019_Feb_28_1020,body_behavioural,3.0.4,60.05952619757646,
9,"“Sir, please step to the side.",2,2,,,,0,9,9,9,,,,,0,14,14,14,,,,,,,,,,,,,,,,,,,1,1.2674408799994126,,,,,,,,,,022819_p1,001,2019_Feb_28_1020,body_behavioural,3.0.4,60.05952619757646,
9,"You need to empty your pockets,” the security guard said.",2,2,,,,0,9,9,9,,,,,0,15,15,15,,,,,,,,,,,,,,,,,,,1,1.8034191050001027,,,,,,,,,,022819_p1,001,2019_Feb_28_1020,body_behavioural,3.0.4,60.05952619757646,
9,"With a sinking feeling Sven realized the mistake he had made forgetting to put the ring back in his bag, as Isabel and the guard both looked at him expectantly.",2,2,,,,0,9,9,9,,,,,0,16,16,16,,,,,,,,,,,,,,,,,,,1,9.734424402000514,,,,,,,,,,022819_p1,001,2019_Feb_28_1020,body_behavioural,3.0.4,60.05952619757646,
9,"Sven,  deciding he would make the best of the situation, grabbed Isabel's hand as he reached into his pocket.",2,2,,,,0,9,9,9,,,,,0,17,17,17,,,,,,,,,,,,,,,,,,,1,2.5864631770000415,,,,,,,,,,022819_p1,001,2019_Feb_28_1020,body_behavioural,3.0.4,60.05952619757646,
9,"He got down on one knee and, giggling slightly at her confused look, said, “Isabel, this isn't quite how I'd planned this, but - will you marry me?”",2,3,,,,0,9,9,9,,,,,0,18,18,18,,,,,,,,,,,,,,,,,,,1,4.63700958300069,,,,,,,,,,022819_p1,001,2019_Feb_28_1020,body_behavioural,3.0.4,60.05952619757646,
9,The security guard gasped.,2,3,,,,0,9,9,9,,,,,0,19,19,19,,,,,,,,,,,,,,,,,,,1,1.8866495949996533,,,,,,,,,,022819_p1,001,2019_Feb_28_1020,body_behavioural,3.0.4,60.05952619757646,
9,All the people who were putting their shoes back on and gathering their belongings stopped what they were doing and walked closer to the couple.,2,3,,,,0,9,9,9,,,,,0,20,20,20,,,,,,,,,,,,,,,,,,,1,4.969787971999722,,,,,,,,,,022819_p1,001,2019_Feb_28_1020,body_behavioural,3.0.4,60.05952619757646,
9,"Isabel was astonished, and far too shy to respond in front of the backup of passengers waiting behind them.",2,3,,,,0,9,9,9,,,,,0,21,21,21,,,,,,,,,,,,,,,,,,,1,5.469817929999408,,,,,,,,,,022819_p1,001,2019_Feb_28_1020,body_behavioural,3.0.4,60.05952619757646,
9,"She attempted to stammer a response as she frantically grabbed her and Sven’s shoes, leaving Sven to retrieve their bags.",2,3,,,,0,9,9,9,,,,,0,22,22,22,,,,,,,,,,,,,,,,,,,1,4.586506837000343,,,,,,,,,,022819_p1,001,2019_Feb_28_1020,body_behavioural,3.0.4,60.05952619757646,
9,"Both of them slipping in their socked feet, she fled onto the concourse with Sven trying to catch up behind her.",3,3,,,,0,9,9,9,,,,,0,23,23,23,,,,,,,,,,,,,,,,,,,9,6.302779435000048,,,,,,,,,,022819_p1,001,2019_Feb_28_1020,body_behavioural,3.0.4,60.05952619757646,
9,"Everyone in the terminal was looking at them with confusion as Sven, holding the bags in one hand and the open ring box in the other, finally caught up to her.",3,3,,,,0,9,9,9,,,,,0,24,24,24,,,,,,,,,,,,,,,,,,,1,4.4197789660001945,,,,,,,,,,022819_p1,001,2019_Feb_28_1020,body_behavioural,3.0.4,60.05952619757646,
9,“Isabel?”,3,3,,,,0,9,9,9,,,,,0,25,25,25,,,,,,,,,,,,,,,,,,,1,0.6702673669997239,,,,,,,,,,022819_p1,001,2019_Feb_28_1020,body_behavioural,3.0.4,60.05952619757646,
9,"He watched her face as she turned, trying to read her expression.",3,3,,,,0,9,9,9,,,,,0,26,26,26,,,,,,,,,,,,,,,,,,,1,2.1198012800005017,,,,,,,,,,022819_p1,001,2019_Feb_28_1020,body_behavioural,3.0.4,60.05952619757646,
9,"Her eyes were wide, but she was smiling as she hyperventilated, “Of course yes, Sven, yes!” ",3,4,,,,0,9,9,9,,,,,0,27,27,27,,,,,,,,,,,,,,,,,,,1,2.784955860000082,,,,,,,,,,022819_p1,001,2019_Feb_28_1020,body_behavioural,3.0.4,60.05952619757646,
9,"They dropped their belongings and hugged, and Sven slipped the ring onto Isabel’s finger. ",3,4,,,,0,9,9,9,,,,,0,28,28,28,,,,,,,,,,,,,,,,,,,1,2.8034823799998776,,,,,,,,,,022819_p1,001,2019_Feb_28_1020,body_behavioural,3.0.4,60.05952619757646,
9,"After getting their shoes back on, they practically skipped to the gate, filled with joy.",3,4,,,,0,9,9,9,,,,,0,29,29,29,,,,,,,,,,,,,,,,,,,9,2.686074770000232,,,,,,,,,,022819_p1,001,2019_Feb_28_1020,body_behavioural,3.0.4,60.05952619757646,
9,Sven high-fived a confused shoe-shine attendant as they passed.,3,4,,,,0,9,9,9,,,,,0,30,30,30,,,,,,,,,,,,,,,,,,,1,4.369890514999497,,,,,,,,,,022819_p1,001,2019_Feb_28_1020,body_behavioural,3.0.4,60.05952619757646,
9,"They sat down outside their gate, having actually made good time, until the attendant called for passengers.",3,4,,,,0,9,9,9,,,,,0,31,31,31,,,,,,,,,,,,,,,,,,,1,8.936878991999947,,,,,,,,,,022819_p1,001,2019_Feb_28_1020,body_behavioural,3.0.4,60.05952619757646,
9,"They boarded, sitting together in first class, and had a glass of champagne to celebrate the departure into their new life together.",4,4,,,,0,9,9,9,,,,,0,32,32,32,,,,,,,,,,,,,,,,,,,9,3.5842386099993746,,,,,,,,,,022819_p1,001,2019_Feb_28_1020,body_behavioural,3.0.4,60.05952619757646,
9,"Some of their neighboring passengers who had witnessed the proposal congratulated them, and a woman next to them showed them that she had been live-tweeting the whole event and that it was already going viral online.",4,4,,,,0,9,9,9,,,,,0,33,33,33,,,,,,,,,,,,,,,,,,,1,3.3699441549997573,,,,,,,,,,022819_p1,001,2019_Feb_28_1020,body_behavioural,3.0.4,60.05952619757646,
9,"Isabel slid down in her seat with her hands over her face, both embarrassed and overjoyed at the same time.
",4,4,,,,0,9,9,9,,,,,0,34,34,34,,,,,,,,,,,,,,,,,,,1,4.853304774999742,,,,,,,,,,022819_p1,001,2019_Feb_28_1020,body_behavioural,3.0.4,60.05952619757646,
9,,,,,,,0,9,9,9,,,,,,,,,,,,,,,,,,,,,,,,,,,,,,,,,,,,,,022819_p1,001,2019_Feb_28_1020,body_behavioural,3.0.4,60.05952619757646,
10,,,,,,,0,10,10,10,0,0,0,0,,,,,,,,,,,,,,,,,space,1.8174311650000163,space,1.4197098020003978,space,0.5340075820004131,,,,,,,,,,,,022819_p1,001,2019_Feb_28_1020,body_behavioural,3.0.4,60.05952619757646,
10,"Leon and  Ariana hurried into the classroom at the same time, and Leon did a double-take when he saw her. ",1,1,,,,0,10,10,10,,,,,0,0,0,0,,,,,,,,,,,,,,,,,,,1,11.187221596999734,,,,,,,,,,022819_p1,001,2019_Feb_28_1020,body_behavioural,3.0.4,60.05952619757646,
10,"This was his first day after transferring to this university, and he had assumed that he wouldn’t know anyone on campus, but he couldn't shake the nagging feeling  that he had seen her somewhere before. ",1,1,,,,0,10,10,10,,,,,0,1,1,1,,,,,,,,,,,,,,,,,,,1,6.286876742000459,,,,,,,,,,022819_p1,001,2019_Feb_28_1020,body_behavioural,3.0.4,60.05952619757646,
10,"They were both a bit late, so they quickly slid into seats next to each other in the back of the small classroom.",1,1,,,,0,10,10,10,,,,,0,2,2,2,,,,,,,,,,,,,,,,,,,1,8.384563994999553,,,,,,,,,,022819_p1,001,2019_Feb_28_1020,body_behavioural,3.0.4,60.05952619757646,
10,"This room was usually used for small meetings, but had been rearranged with the table pushed to the side and chairs set up in rows to face the projector screen. ",1,1,,,,0,10,10,10,,,,,0,3,3,3,,,,,,,,,,,,,,,,,,,9,8.953634301999955,,,,,,,,,,022819_p1,001,2019_Feb_28_1020,body_behavioural,3.0.4,60.05952619757646,
10,"There were no windows in the room, since they were down in the sub-basement of the history department.",1,1,,,,0,10,10,10,,,,,0,4,4,4,,,,,,,,,,,,,,,,,,,1,5.7201531970004,,,,,,,,,,022819_p1,001,2019_Feb_28_1020,body_behavioural,3.0.4,60.05952619757646,
10,"Leon, trying to figure out where he had seen her before, could not stop looking over at Ariana.",1,1,,,,0,10,10,10,,,,,0,5,5,5,,,,,,,,,,,,,,,,,,,1,6.8010003720000896,,,,,,,,,,022819_p1,001,2019_Feb_28_1020,body_behavioural,3.0.4,60.05952619757646,
10,Ariana was oblivious to Leon’s gaze and was only focused on getting ready for class. ,1,1,,,,0,10,10,10,,,,,0,6,6,6,,,,,,,,,,,,,,,,,,,1,1.3530166549999194,,,,,,,,,,022819_p1,001,2019_Feb_28_1020,body_behavioural,3.0.4,60.05952619757646,
10,"“Good afternoon class,” the professor began.",2,1,,,,0,10,10,10,,,,,0,7,7,7,,,,,,,,,,,,,,,,,,,1,0.703069135000078,,,,,,,,,,022819_p1,001,2019_Feb_28_1020,body_behavioural,3.0.4,60.05952619757646,
10,“Welcome to Egyptian Cultural Studies. ,2,1,,,,0,10,10,10,,,,,0,8,8,8,,,,,,,,,,,,,,,,,,,9,0.8863774020001074,,,,,,,,,,022819_p1,001,2019_Feb_28_1020,body_behavioural,3.0.4,60.05952619757646,
10,"Today we will be talking about mummification, one of the most famous and often misunderstood customs in ancient Egyptian society.”",2,1,,,,0,10,10,10,,,,,0,9,9,9,,,,,,,,,,,,,,,,,,,1,3.034118712000236,,,,,,,,,,022819_p1,001,2019_Feb_28_1020,body_behavioural,3.0.4,60.05952619757646,
10,Leon pulled out his notebook and tried to concentrate on the class.,2,1,,,,0,10,10,10,,,,,0,10,10,10,,,,,,,,,,,,,,,,,,,1,2.3198330900004294,,,,,,,,,,022819_p1,001,2019_Feb_28_1020,body_behavioural,3.0.4,60.05952619757646,
10,Within a few minutes though he found his attention wandering back to Ariana.,2,1,,,,0,10,10,10,,,,,0,11,11,11,,,,,,,,,,,,,,,,,,,9,2.6697896320001746,,,,,,,,,,022819_p1,001,2019_Feb_28_1020,body_behavioural,3.0.4,60.05952619757646,
10,"He decided to do something about his hunch so he ripped off a corner of a page in his notebook, wrote a note, and set it on her desk.",2,1,,,,0,10,10,10,,,,,0,12,12,12,,,,,,,,,,,,,,,,,,,1,0.21960256500005926,,,,,,,,,,022819_p1,001,2019_Feb_28_1020,body_behavioural,3.0.4,60.05952619757646,
10,"“Hi, sorry to distract you from mummies, but you look really familiar," it read.",2,2,,,,0,10,10,10,,,,,0,13,13,13,,,,,,,,,,,,,,,,,,,1,0.8862747349994606,,,,,,,,,,022819_p1,001,2019_Feb_28_1020,body_behavioural,3.0.4,60.05952619757646,
10,It continued: “Do I know you from somewhere?”,2,2,,,,0,10,10,10,,,,,0,14,14,14,,,,,,,,,,,,,,,,,,,1,0.6863784899996972,,,,,,,,,,022819_p1,001,2019_Feb_28_1020,body_behavioural,3.0.4,60.05952619757646,
10,"She looked at the note with surprise, and then turned to notice Leon for the first time. ",2,2,,,,0,10,10,10,,,,,0,15,15,15,,,,,,,,,,,,,,,,,,,1,2.419469592000496,,,,,,,,,,022819_p1,001,2019_Feb_28_1020,body_behavioural,3.0.4,60.05952619757646,
10,"She instantly liked him when she saw him; he had very soft eyes and sharp features, a combination that made him seem  trustworthy and genuine.",2,2,,,,0,10,10,10,,,,,0,16,16,16,,,,,,,,,,,,,,,,,,,1,2.6842235200001596,,,,,,,,,,022819_p1,001,2019_Feb_28_1020,body_behavioural,3.0.4,60.05952619757646,
10,He smiled at her and she flashed him a smile back.,2,2,,,,0,10,10,10,,,,,0,17,17,17,,,,,,,,,,,,,,,,,,,1,2.053117641999961,,,,,,,,,,022819_p1,001,2019_Feb_28_1020,body_behavioural,3.0.4,60.05952619757646,
10,Then she turned the note over to the back and started to write a reply.,2,2,,,,0,10,10,10,,,,,0,18,18,18,,,,,,,,,,,,,,,,,,,1,3.8862567919995854,,,,,,,,,,022819_p1,001,2019_Feb_28_1020,body_behavioural,3.0.4,60.05952619757646,
10,"Meanwhile the professor continued, “One may well question why the ancient Egyptians spent so much time and effort on their funerary practices.",3,2,,,,0,10,10,10,,,,,0,19,19,19,,,,,,,,,,,,,,,,,,,9,1.7696899970005688,,,,,,,,,,022819_p1,001,2019_Feb_28_1020,body_behavioural,3.0.4,60.05952619757646,
10,"Not only was the mummification process itself a complicated affair, but there were also elaborate rituals before, during, and after death.",3,2,,,,0,10,10,10,,,,,0,20,20,20,,,,,,,,,,,,,,,,,,,1,1.5364506220003022,,,,,,,,,,022819_p1,001,2019_Feb_28_1020,body_behavioural,3.0.4,60.05952619757646,
10,The practice required teams of experts with years of training and took a total of 70 days to complete.” ,3,2,,,,0,10,10,10,,,,,0,21,21,21,,,,,,,,,,,,,,,,,,,1,1.1196572449998712,,,,,,,,,,022819_p1,001,2019_Feb_28_1020,body_behavioural,3.0.4,60.05952619757646,
10,"Ariana passed the note back to Leon, and she had replied, “No, but maybe my twin and I were separated at birth.”",3,2,,,,0,10,10,10,,,,,0,22,22,22,,,,,,,,,,,,,,,,,,,9,5.7344956900005855,,,,,,,,,,022819_p1,001,2019_Feb_28_1020,body_behavioural,3.0.4,60.05952619757646,
10,They passed notes back and forth the whole class like they were back in high school.,3,2,,,,0,10,10,10,,,,,0,23,23,23,,,,,,,,,,,,,,,,,,,1,1.0697973400001501,,,,,,,,,,022819_p1,001,2019_Feb_28_1020,body_behavioural,3.0.4,60.05952619757646,
10,"Near the end of the lecture, Leon wrote, “Would you like to go to dinner tonight?” ",3,3,,,,0,10,10,10,,,,,0,24,24,24,,,,,,,,,,,,,,,,,,,1,1.6674153019994264,,,,,,,,,,022819_p1,001,2019_Feb_28_1020,body_behavioural,3.0.4,60.05952619757646,
10,"Ariana read the note, and looked at him and nodded her head",3,3,,,,0,10,10,10,,,,,0,25,25,25,,,,,,,,,,,,,,,,,,,1,1.7861302800001795,,,,,,,,,,022819_p1,001,2019_Feb_28_1020,body_behavioural,3.0.4,60.05952619757646,
10,"She wrote back on the slip of paper, “Pick me up at 6 in front of Patton Hall.”",3,3,,,,0,10,10,10,,,,,0,26,26,26,,,,,,,,,,,,,,,,,,,1,1.153119902999606,,,,,,,,,,022819_p1,001,2019_Feb_28_1020,body_behavioural,3.0.4,60.05952619757646,
10,Then the professor ended the lecture and announced to the class that they would have their first quiz next class on Friday on mummification. ,4,3,,,,0,10,10,10,,,,,0,27,27,27,,,,,,,,,,,,,,,,,,,9,1.336400870000034,,,,,,,,,,022819_p1,001,2019_Feb_28_1020,body_behavioural,3.0.4,60.05952619757646,
10,"Everyone packed up and started heading out, as well as Sophie and Leon.",4,3,,,,0,10,10,10,,,,,0,28,28,28,,,,,,,,,,,,,,,,,,,1,1.450729140000476,,,,,,,,,,022819_p1,001,2019_Feb_28_1020,body_behavioural,3.0.4,60.05952619757646,
10,"They approached each other smiling, and Leon said, “Well it was great to meet you, again, or maybe not again, but regardless it was great to meet you.” ",4,3,,,,0,10,10,10,,,,,0,29,29,29,,,,,,,,,,,,,,,,,,,1,4.8676787149997836,,,,,,,,,,022819_p1,001,2019_Feb_28_1020,body_behavioural,3.0.4,60.05952619757646,
10,"She replied, “Yes, it was.",4,4,,,,0,10,10,10,,,,,0,30,30,30,,,,,,,,,,,,,,,,,,,1,1.619597259999864,,,,,,,,,,022819_p1,001,2019_Feb_28_1020,body_behavioural,3.0.4,60.05952619757646,
10,"I have to run to my next class, but I’ll see you later tonight.” ",4,4,,,,0,10,10,10,,,,,0,31,31,31,,,,,,,,,,,,,,,,,,,1,2.6031274449997,,,,,,,,,,022819_p1,001,2019_Feb_28_1020,body_behavioural,3.0.4,60.05952619757646,
