count,storyText,locationEvent,socialEvent,instructText,trials.thisRepN,trials.thisTrialN,trials.thisN,trials.thisIndex,trials_7.thisRepN,trials_7.thisTrialN,trials_7.thisN,trials_7.thisIndex,trials_2.thisRepN,trials_2.thisTrialN,trials_2.thisN,trials_2.thisIndex,trials_3.thisRepN,trials_3.thisTrialN,trials_3.thisN,trials_3.thisIndex,trials_4.thisRepN,trials_4.thisTrialN,trials_4.thisN,trials_4.thisIndex,trials_5.thisRepN,trials_5.thisTrialN,trials_5.thisN,trials_5.thisIndex,trials_6.thisRepN,trials_6.thisTrialN,trials_6.thisN,trials_6.thisIndex,trials_8.thisRepN,trials_8.thisTrialN,trials_8.thisN,trials_8.thisIndex,order of stories,order of perspectives,participant 2 order - stories,participant 2 order  - schemas types,key_resp_8.keys,key_resp_8.rt,key_resp_5.keys,key_resp_5.rt,key_resp_7.keys,key_resp_7.rt,story_presses.keys,story_presses.rt,story time,key_resp_6.keys,key_resp_6.rt,key_resp_2.keys,key_resp_2.rt,key_resp_10.keys,key_resp_10.rt,recall,recall time,key_resp_12.keys,key_resp_12.rt,key_resp_3.keys,key_resp_3.rt,key_resp_11.keys,key_resp_11.rt,question1_answer,order of question,question2_answer,question3_answer,question4_answer,question5_answer,question6_answer,question7_answer,question8_answer,questions time,key_resp_13.keys,key_resp_13.rt,participant,session,date,expName,psychopyVersion,frameRate,
0,,,,,0,0,0,0,0,0,0,0,,,,,,,,,,,,,,,,,,,,,,,,,[12 22 41 31 43 33 24 14 13 34 23 11 21 42 32 44],"['Social' 'Location' 'Location' 'Social' 'Social' 'Location' 'Social'
 'Location' 'Location' 'Location' 'Social' 'Social' 'Location' 'Location'
 'Social' 'Social']",[13 34 23 11 21 42 32 44],"['Location' 'Location' 'Social' 'Social' 'Location' 'Location' 'Social'
 'Social']",space,29.24132567000197,space,2.8197702699981164,space,1.2530887670000084,,,,,,,,,,,,,,,,,,,,,,,,,,,,,,030119_p1,001,2019_Mar_01_1215,body_behavioural,3.0.4,60.006457174885064,
0,"It didn’t help the situation that Calvin and Jessie were running late to the airport, since Jessie had already been fuming at Calvin and preparing to end things with him.",1,1,,0,0,0,0,,,,,0,0,0,0,,,,,,,,,,,,,,,,,,,,,,,,,,,,,,,9,20.337937109998165,,,,,,,,,,,,,,,,,,,,,,,,,,,,030119_p1,001,2019_Mar_01_1215,body_behavioural,3.0.4,60.006457174885064,
0,"Upon arriving, they had only 45 minutes until their international flight would depart from Jamaica for the US.",1,1,,0,0,0,0,,,,,0,1,1,1,,,,,,,,,,,,,,,,,,,,,,,,,,,,,,,9,12.770367376997456,,,,,,,,,,,,,,,,,,,,,,,,,,,,030119_p1,001,2019_Mar_01_1215,body_behavioural,3.0.4,60.006457174885064,
0,It had been a tough vacation for them.,1,1,,0,0,0,0,,,,,0,2,2,2,,,,,,,,,,,,,,,,,,,,,,,,,,,,,,,9,5.652042523997807,,,,,,,,,,,,,,,,,,,,,,,,,,,,030119_p1,001,2019_Mar_01_1215,body_behavioural,3.0.4,60.006457174885064,
0,"Jessie had really had it with Calvin’s constant ramblings about the same excruciatingly boring golfing and work stories, which he insisted on repeating to her regardless of how little interest she showed.",1,1,,0,0,0,0,,,,,0,3,3,3,,,,,,,,,,,,,,,,,,,,,,,,,,,,,,,1,13.837646736999886,,,,,,,,,,,,,,,,,,,,,,,,,,,,030119_p1,001,2019_Mar_01_1215,body_behavioural,3.0.4,60.006457174885064,
0,"Calvin knew that Jessie was upset, but wasn't sure what to do besides attempting to carry on as normal and tell stories that took up the silence. ",1,1,,0,0,0,0,,,,,0,4,4,4,,,,,,,,,,,,,,,,,,,,,,,,,,,,,,,1,11.800602819999767,,,,,,,,,,,,,,,,,,,,,,,,,,,,030119_p1,001,2019_Mar_01_1215,body_behavioural,3.0.4,60.006457174885064,
0,"The security line was luckily very short, and once the online boarding passes were scanned they were ushered quickly through the metal detector, not having to take off their shoes or remove the liquids from their bags.",2,1,,0,0,0,0,,,,,0,5,5,5,,,,,,,,,,,,,,,,,,,,,,,,,,,,,,,9,7.820175400000153,,,,,,,,,,,,,,,,,,,,,,,,,,,,030119_p1,001,2019_Mar_01_1215,body_behavioural,3.0.4,60.006457174885064,
0,"“The infrastructure of this airport is really quite poor," said Calvin as they waited for their bags to emerge from the x-ray machine.",2,1,,0,0,0,0,,,,,0,6,6,6,,,,,,,,,,,,,,,,,,,,,,,,,,,,,,,1,2.2697154319976107,,,,,,,,,,,,,,,,,,,,,,,,,,,,030119_p1,001,2019_Mar_01_1215,body_behavioural,3.0.4,60.006457174885064,
0,“I really could've hidden something in my shoes quite easily.” ,2,1,,0,0,0,0,,,,,0,7,7,7,,,,,,,,,,,,,,,,,,,,,,,,,,,,,,,1,2.6341565670009004,,,,,,,,,,,,,,,,,,,,,,,,,,,,030119_p1,001,2019_Mar_01_1215,body_behavioural,3.0.4,60.006457174885064,
0,"Jessie, exasperated at his need to broadcast his every inner thought, scowled at the conveyor belt.",2,1,,0,0,0,0,,,,,0,8,8,8,,,,,,,,,,,,,,,,,,,,,,,,,,,,,,,1,2.550923676997627,,,,,,,,,,,,,,,,,,,,,,,,,,,,030119_p1,001,2019_Mar_01_1215,body_behavioural,3.0.4,60.006457174885064,
0,"“What?”, he asked.",2,1,,0,0,0,0,,,,,0,9,9,9,,,,,,,,,,,,,,,,,,,,,,,,,,,,,,,1,3.5033275220012,,,,,,,,,,,,,,,,,,,,,,,,,,,,030119_p1,001,2019_Mar_01_1215,body_behavioural,3.0.4,60.006457174885064,
0,She balled up her fists and turned to face him.,2,1,,0,0,0,0,,,,,0,10,10,10,,,,,,,,,,,,,,,,,,,,,,,,,,,,,,,1,1.8033287750004092,,,,,,,,,,,,,,,,,,,,,,,,,,,,030119_p1,001,2019_Mar_01_1215,body_behavioural,3.0.4,60.006457174885064,
0,"“Calvin, I really don’t think I can do this anymore.",2,2,,0,0,0,0,,,,,0,11,11,11,,,,,,,,,,,,,,,,,,,,,,,,,,,,,,,9,3.086415447000036,,,,,,,,,,,,,,,,,,,,,,,,,,,,030119_p1,001,2019_Mar_01_1215,body_behavioural,3.0.4,60.006457174885064,
0,I think it’s best that once we get to the States we part ways for good.” ,2,2,,0,0,0,0,,,,,0,12,12,12,,,,,,,,,,,,,,,,,,,,,,,,,,,,,,,1,4.234207556997717,,,,,,,,,,,,,,,,,,,,,,,,,,,,030119_p1,001,2019_Mar_01_1215,body_behavioural,3.0.4,60.006457174885064,
0,Calvin said nothing as he grabbed his bag and quickly walked away.,2,2,,0,0,0,0,,,,,0,13,13,13,,,,,,,,,,,,,,,,,,,,,,,,,,,,,,,1,2.036325791999843,,,,,,,,,,,,,,,,,,,,,,,,,,,,030119_p1,001,2019_Mar_01_1215,body_behavioural,3.0.4,60.006457174885064,
0,"Jessie trailed behind him as they made their way quickly toward their gate, shouting at his back in hopes of getting a response.",3,2,,0,0,0,0,,,,,0,14,14,14,,,,,,,,,,,,,,,,,,,,,,,,,,,,,,,1,10.018043460000627,,,,,,,,,,,,,,,,,,,,,,,,,,,,030119_p1,001,2019_Mar_01_1215,body_behavioural,3.0.4,60.006457174885064,
0,“So now you have nothing to say?,3,2,,0,0,0,0,,,,,0,15,15,15,,,,,,,,,,,,,,,,,,,,,,,,,,,,,,,1,2.3697687950007094,,,,,,,,,,,,,,,,,,,,,,,,,,,,030119_p1,001,2019_Mar_01_1215,body_behavioural,3.0.4,60.006457174885064,
0,"Every time we talk, you are just looking for a way to steer the conversation back into your stories.”",3,2,,0,0,0,0,,,,,0,16,16,16,,,,,,,,,,,,,,,,,,,,,,,,,,,,,,,1,3.3865873070026282,,,,,,,,,,,,,,,,,,,,,,,,,,,,030119_p1,001,2019_Mar_01_1215,body_behavioural,3.0.4,60.006457174885064,
0,"Calvin didn't slow his pace, gritting his teeth and staring straight ahead. ",3,2,,0,0,0,0,,,,,0,17,17,17,,,,,,,,,,,,,,,,,,,,,,,,,,,,,,,1,3.8699468499980867,,,,,,,,,,,,,,,,,,,,,,,,,,,,030119_p1,001,2019_Mar_01_1215,body_behavioural,3.0.4,60.006457174885064,
0,He was very frustrated that he had been trying to appease Jessie this whole time and this was how she responded. ,3,2,,0,0,0,0,,,,,0,18,18,18,,,,,,,,,,,,,,,,,,,,,,,,,,,,,,,1,5.970163735000824,,,,,,,,,,,,,,,,,,,,,,,,,,,,030119_p1,001,2019_Mar_01_1215,body_behavioural,3.0.4,60.006457174885064,
0,The silence was punctuated only by the rapid rhythmic clacking of their suitcase wheels over the tile floor as they continued power-walking through the terminal. ,3,2,,0,0,0,0,,,,,0,19,19,19,,,,,,,,,,,,,,,,,,,,,,,,,,,,,,,1,4.536575149999408,,,,,,,,,,,,,,,,,,,,,,,,,,,,030119_p1,001,2019_Mar_01_1215,body_behavioural,3.0.4,60.006457174885064,
0,"“Well?” Jessie said, and Calvin finally turned to her.",3,2,,0,0,0,0,,,,,0,20,20,20,,,,,,,,,,,,,,,,,,,,,,,,,,,,,,,9,8.22030143200027,,,,,,,,,,,,,,,,,,,,,,,,,,,,030119_p1,001,2019_Mar_01_1215,body_behavioural,3.0.4,60.006457174885064,
0,"“Well, Jessie, this makes perfect sense. ",3,3,,0,0,0,0,,,,,0,21,21,21,,,,,,,,,,,,,,,,,,,,,,,,,,,,,,,1,1.9197671600013564,,,,,,,,,,,,,,,,,,,,,,,,,,,,030119_p1,001,2019_Mar_01_1215,body_behavioural,3.0.4,60.006457174885064,
0,"If you feel this way, then I don’t want to keep boring you, and I agree, let’s part ways once we make it back.",3,3,,0,0,0,0,,,,,0,22,22,22,,,,,,,,,,,,,,,,,,,,,,,,,,,,,,,1,5.469978185003129,,,,,,,,,,,,,,,,,,,,,,,,,,,,030119_p1,001,2019_Mar_01_1215,body_behavioural,3.0.4,60.006457174885064,
0,You should’ve spoken up about my apparent intolerability before you decided to plan this vacation.”,3,3,,0,0,0,0,,,,,0,23,23,23,,,,,,,,,,,,,,,,,,,,,,,,,,,,,,,1,2.101655506001407,,,,,,,,,,,,,,,,,,,,,,,,,,,,030119_p1,001,2019_Mar_01_1215,body_behavioural,3.0.4,60.006457174885064,
0,"He was clearly hurt, but thought it was pointless to argue. ",3,3,,0,0,0,0,,,,,0,24,24,24,,,,,,,,,,,,,,,,,,,,,,,,,,,,,,,1,2.486446304999845,,,,,,,,,,,,,,,,,,,,,,,,,,,,030119_p1,001,2019_Mar_01_1215,body_behavioural,3.0.4,60.006457174885064,
0,"They finally made it to the gate, just as they heard the final call for passengers boarding their flight.",3,3,,0,0,0,0,,,,,0,25,25,25,,,,,,,,,,,,,,,,,,,,,,,,,,,,,,,9,1.3196726370006218,,,,,,,,,,,,,,,,,,,,,,,,,,,,030119_p1,001,2019_Mar_01_1215,body_behavioural,3.0.4,60.006457174885064,
0,"They scanned their tickets, and the annoyed flight attendant shooed them onto the jet bridge and then closed the door behind them.",4,3,,0,0,0,0,,,,,0,26,26,26,,,,,,,,,,,,,,,,,,,,,,,,,,,,,,,1,3.586659939999663,,,,,,,,,,,,,,,,,,,,,,,,,,,,030119_p1,001,2019_Mar_01_1215,body_behavioural,3.0.4,60.006457174885064,
0,"Luckily, they had forgotten to arrange seats next to each other on the flight back.",4,3,,0,0,0,0,,,,,0,27,27,27,,,,,,,,,,,,,,,,,,,,,,,,,,,,,,,1,2.785841895001795,,,,,,,,,,,,,,,,,,,,,,,,,,,,030119_p1,001,2019_Mar_01_1215,body_behavioural,3.0.4,60.006457174885064,
0,"They both had first-class tickets, but Jessie was headed for seat 1B while Calvin's seat was 4F. ",4,3,,0,0,0,0,,,,,0,28,28,28,,,,,,,,,,,,,,,,,,,,,,,,,,,,,,,9,6.401000411999121,,,,,,,,,,,,,,,,,,,,,,,,,,,,030119_p1,001,2019_Mar_01_1215,body_behavioural,3.0.4,60.006457174885064,
0,"Before Jessie sat down, she took a deep breath and then awkwardly shook Calvin’s hand, mumbling, “Well, have a nice flight.” ",4,4,,0,0,0,0,,,,,0,29,29,29,,,,,,,,,,,,,,,,,,,,,,,,,,,,,,,1,2.3861559300021327,,,,,,,,,,,,,,,,,,,,,,,,,,,,030119_p1,001,2019_Mar_01_1215,body_behavioural,3.0.4,60.006457174885064,
0,He laughed in disbelief and walked to his window seat three rows back to get ready for takeoff.,4,4,,0,0,0,0,,,,,0,30,30,30,,,,,,,,,,,,,,,,,,,,,,,,,,,,,,,1,1.6530987320002168,,,,,,,,,,,,,,,,,,,,,,,,,,,,030119_p1,001,2019_Mar_01_1215,body_behavioural,3.0.4,60.006457174885064,
0,Both were upset but glad that they would have this flight to mull things over and recenter. ,4,4,,0,0,0,0,,,,,0,31,31,31,,,,,,,,,,,,,,,,,,,,,,,,,,,,,,,1,2.0675217319985677,,,,,,,,,,,,,,,,,,,,,,,,,,,,030119_p1,001,2019_Mar_01_1215,body_behavioural,3.0.4,60.006457174885064,
0,,,,,0,0,0,0,,,,,,,,,,,,,,,,,,,,,,,,,,,,,,,,,,,,,,,,,,,,,,,,,,,,,,,,,,,,,,,,,,,,030119_p1,001,2019_Mar_01_1215,body_behavioural,3.0.4,60.006457174885064,
1,,,,,0,1,1,1,0,0,0,0,,,,,,,,,,,,,,,,,,,,,,,,,,,,,space,15.651753113001178,space,3.1362212849999196,space,1.3031398029997945,,,,,,,,,,,,,,,,,,,,,,,,,,,,,,030119_p1,001,2019_Mar_01_1215,body_behavioural,3.0.4,60.006457174885064,
1,"Sven and Isabel walked hurriedly from the cab into the Barcelona Airport after an incredible weekend with Isabel’s family, which had wiped away any doubts Sven had had about his decision to propose. ",1,1,,0,1,1,1,,,,,0,0,0,0,,,,,,,,,,,,,,,,,,,,,,,,,,,,,,,9,13.420698759997322,,,,,,,,,,,,,,,,,,,,,,,,,,,,030119_p1,001,2019_Mar_01_1215,body_behavioural,3.0.4,60.006457174885064,
1,"They were a little pressed for time, with only a little over an hour until their flight would take off to go back to the US, but they already had their online boarding passes and no checked luggage. ",1,1,,0,1,1,1,,,,,0,1,1,1,,,,,,,,,,,,,,,,,,,,,,,,,,,,,,,1,7.351206999999704,,,,,,,,,,,,,,,,,,,,,,,,,,,,030119_p1,001,2019_Mar_01_1215,body_behavioural,3.0.4,60.006457174885064,
1,"When Isabel stopped to rummage through her purse looking for her phone, Sven turned his back to her and took the velvet box out of his backpack, opening it to look at the ring he bought her.",1,2,,0,1,1,1,,,,,0,2,2,2,,,,,,,,,,,,,,,,,,,,,,,,,,,,,,,1,8.817927454998426,,,,,,,,,,,,,,,,,,,,,,,,,,,,030119_p1,001,2019_Mar_01_1215,body_behavioural,3.0.4,60.006457174885064,
1,"He had received her parents’ blessing during the trip, and he was almost giddy with excitement. ",1,2,,0,1,1,1,,,,,0,3,3,3,,,,,,,,,,,,,,,,,,,,,,,,,,,,,,,1,1.5530865919972712,,,,,,,,,,,,,,,,,,,,,,,,,,,,030119_p1,001,2019_Mar_01_1215,body_behavioural,3.0.4,60.006457174885064,
1,"He tilted the ring backward and forward, despite having already studied it daily since he had purchased it a few weeks ago. ",1,2,,0,1,1,1,,,,,0,4,4,4,,,,,,,,,,,,,,,,,,,,,,,,,,,,,,,1,5.770057166999322,,,,,,,,,,,,,,,,,,,,,,,,,,,,030119_p1,001,2019_Mar_01_1215,body_behavioural,3.0.4,60.006457174885064,
1,"It was a simple design, with a clear, white diamond on a thin silver band.",1,2,,0,1,1,1,,,,,0,5,5,5,,,,,,,,,,,,,,,,,,,,,,,,,,,,,,,1,1.7029880599984608,,,,,,,,,,,,,,,,,,,,,,,,,,,,030119_p1,001,2019_Mar_01_1215,body_behavioural,3.0.4,60.006457174885064,
1,"“Sven, let’s go! ” Isabel said. ",1,2,,0,1,1,1,,,,,0,6,6,6,,,,,,,,,,,,,,,,,,,,,,,,,,,,,,,1,2.886404795000999,,,,,,,,,,,,,,,,,,,,,,,,,,,,030119_p1,001,2019_Mar_01_1215,body_behavioural,3.0.4,60.006457174885064,
1,Sven discretely closed the box and put it in his pocket.,1,2,,0,1,1,1,,,,,0,7,7,7,,,,,,,,,,,,,,,,,,,,,,,,,,,,,,,1,3.3364238220019615,,,,,,,,,,,,,,,,,,,,,,,,,,,,030119_p1,001,2019_Mar_01_1215,body_behavioural,3.0.4,60.006457174885064,
1," They entered the security line, weaving through the roped walkways to the front. ",2,2,,0,1,1,1,,,,,0,8,8,8,,,,,,,,,,,,,,,,,,,,,,,,,,,,,,,9,2.120197977001226,,,,,,,,,,,,,,,,,,,,,,,,,,,,030119_p1,001,2019_Mar_01_1215,body_behavioural,3.0.4,60.006457174885064,
1,"When they were up, Isabel realized her laptop was buried somewhere in her duffle bag. ",2,2,,0,1,1,1,,,,,0,9,9,9,,,,,,,,,,,,,,,,,,,,,,,,,,,,,,,1,3.986289766999107,,,,,,,,,,,,,,,,,,,,,,,,,,,,030119_p1,001,2019_Mar_01_1215,body_behavioural,3.0.4,60.006457174885064,
1,Sven had to hold the growing mound of objects she pulled from her bag until she unearthed the laptop.,2,2,,0,1,1,1,,,,,0,10,10,10,,,,,,,,,,,,,,,,,,,,,,,,,,,,,,,1,2.5531066799994733,,,,,,,,,,,,,,,,,,,,,,,,,,,,030119_p1,001,2019_Mar_01_1215,body_behavioural,3.0.4,60.006457174885064,
1,She set it into a bin and then had to unstrap her leather boots and put everything else into the bins.,2,2,,0,1,1,1,,,,,0,11,11,11,,,,,,,,,,,,,,,,,,,,,,,,,,,,,,,1,5.170066244998452,,,,,,,,,,,,,,,,,,,,,,,,,,,,030119_p1,001,2019_Mar_01_1215,body_behavioural,3.0.4,60.006457174885064,
1,"Finally, she relieved Sven of his holding duties, and he hurriedly deposited his own backpack on the belt as the people behind them glared without shame. ",2,2,,0,1,1,1,,,,,0,12,12,12,,,,,,,,,,,,,,,,,,,,,,,,,,,,,,,1,3.3696899699971254,,,,,,,,,,,,,,,,,,,,,,,,,,,,030119_p1,001,2019_Mar_01_1215,body_behavioural,3.0.4,60.006457174885064,
1,"Sven went into the millimeter wave scanner after Isabel, put his hands up, and the metal bars whirled around him.",2,2,,0,1,1,1,,,,,0,13,13,13,,,,,,,,,,,,,,,,,,,,,,,,,,,,,,,1,4.252781102000881,,,,,,,,,,,,,,,,,,,,,,,,,,,,030119_p1,001,2019_Mar_01_1215,body_behavioural,3.0.4,60.006457174885064,
1,"“Sir, please step to the side.",2,2,,0,1,1,1,,,,,0,14,14,14,,,,,,,,,,,,,,,,,,,,,,,,,,,,,,,1,1.1863807699992321,,,,,,,,,,,,,,,,,,,,,,,,,,,,030119_p1,001,2019_Mar_01_1215,body_behavioural,3.0.4,60.006457174885064,
1,"You need to empty your pockets,” the security guard said.",2,2,,0,1,1,1,,,,,0,15,15,15,,,,,,,,,,,,,,,,,,,,,,,,,,,,,,,1,1.1530941849996452,,,,,,,,,,,,,,,,,,,,,,,,,,,,030119_p1,001,2019_Mar_01_1215,body_behavioural,3.0.4,60.006457174885064,
1,"With a sinking feeling Sven realized the mistake he had made forgetting to put the ring back in his bag, as Isabel and the guard both looked at him expectantly.",2,2,,0,1,1,1,,,,,0,16,16,16,,,,,,,,,,,,,,,,,,,,,,,,,,,,,,,9,6.0029911900019215,,,,,,,,,,,,,,,,,,,,,,,,,,,,030119_p1,001,2019_Mar_01_1215,body_behavioural,3.0.4,60.006457174885064,
1,"Sven,  deciding he would make the best of the situation, grabbed Isabel's hand as he reached into his pocket.",2,2,,0,1,1,1,,,,,0,17,17,17,,,,,,,,,,,,,,,,,,,,,,,,,,,,,,,1,2.703065375000733,,,,,,,,,,,,,,,,,,,,,,,,,,,,030119_p1,001,2019_Mar_01_1215,body_behavioural,3.0.4,60.006457174885064,
1,"He got down on one knee and, giggling slightly at her confused look, said, “Isabel, this isn't quite how I'd planned this, but - will you marry me?”",2,3,,0,1,1,1,,,,,0,18,18,18,,,,,,,,,,,,,,,,,,,,,,,,,,,,,,,1,2.036058405003132,,,,,,,,,,,,,,,,,,,,,,,,,,,,030119_p1,001,2019_Mar_01_1215,body_behavioural,3.0.4,60.006457174885064,
1,The security guard gasped.,2,3,,0,1,1,1,,,,,0,19,19,19,,,,,,,,,,,,,,,,,,,,,,,,,,,,,,,1,1.336264942001435,,,,,,,,,,,,,,,,,,,,,,,,,,,,030119_p1,001,2019_Mar_01_1215,body_behavioural,3.0.4,60.006457174885064,
1,All the people who were putting their shoes back on and gathering their belongings stopped what they were doing and walked closer to the couple.,2,3,,0,1,1,1,,,,,0,20,20,20,,,,,,,,,,,,,,,,,,,,,,,,,,,,,,,1,4.536794686999201,,,,,,,,,,,,,,,,,,,,,,,,,,,,030119_p1,001,2019_Mar_01_1215,body_behavioural,3.0.4,60.006457174885064,
1,"Isabel was astonished, and far too shy to respond in front of the backup of passengers waiting behind them.",2,3,,0,1,1,1,,,,,0,21,21,21,,,,,,,,,,,,,,,,,,,,,,,,,,,,,,,1,1.9197032249976473,,,,,,,,,,,,,,,,,,,,,,,,,,,,030119_p1,001,2019_Mar_01_1215,body_behavioural,3.0.4,60.006457174885064,
1,"She attempted to stammer a response as she frantically grabbed her and Sven’s shoes, leaving Sven to retrieve their bags.",2,3,,0,1,1,1,,,,,0,22,22,22,,,,,,,,,,,,,,,,,,,,,,,,,,,,,,,1,4.819441661999008,,,,,,,,,,,,,,,,,,,,,,,,,,,,030119_p1,001,2019_Mar_01_1215,body_behavioural,3.0.4,60.006457174885064,
1,"Both of them slipping in their socked feet, she fled onto the concourse with Sven trying to catch up behind her.",3,3,,0,1,1,1,,,,,0,23,23,23,,,,,,,,,,,,,,,,,,,,,,,,,,,,,,,1,4.819936979998602,,,,,,,,,,,,,,,,,,,,,,,,,,,,030119_p1,001,2019_Mar_01_1215,body_behavioural,3.0.4,60.006457174885064,
1,"Everyone in the terminal was looking at them with confusion as Sven, holding the bags in one hand and the open ring box in the other, finally caught up to her.",3,3,,0,1,1,1,,,,,0,24,24,24,,,,,,,,,,,,,,,,,,,,,,,,,,,,,,,9,3.717579587999353,,,,,,,,,,,,,,,,,,,,,,,,,,,,030119_p1,001,2019_Mar_01_1215,body_behavioural,3.0.4,60.006457174885064,
1,“Isabel?”,3,3,,0,1,1,1,,,,,0,25,25,25,,,,,,,,,,,,,,,,,,,,,,,,,,,,,,,1,1.236623998000141,,,,,,,,,,,,,,,,,,,,,,,,,,,,030119_p1,001,2019_Mar_01_1215,body_behavioural,3.0.4,60.006457174885064,
1,"He watched her face as she turned, trying to read her expression.",3,3,,0,1,1,1,,,,,0,26,26,26,,,,,,,,,,,,,,,,,,,,,,,,,,,,,,,1,0.9364851200007251,,,,,,,,,,,,,,,,,,,,,,,,,,,,030119_p1,001,2019_Mar_01_1215,body_behavioural,3.0.4,60.006457174885064,
1,"Her eyes were wide, but she was smiling as she hyperventilated, “Of course yes, Sven, yes!” ",3,4,,0,1,1,1,,,,,0,27,27,27,,,,,,,,,,,,,,,,,,,,,,,,,,,,,,,1,2.4531580820003,,,,,,,,,,,,,,,,,,,,,,,,,,,,030119_p1,001,2019_Mar_01_1215,body_behavioural,3.0.4,60.006457174885064,
1,"They dropped their belongings and hugged, and Sven slipped the ring onto Isabel’s finger. ",3,4,,0,1,1,1,,,,,0,28,28,28,,,,,,,,,,,,,,,,,,,,,,,,,,,,,,,1,4.519869546998962,,,,,,,,,,,,,,,,,,,,,,,,,,,,030119_p1,001,2019_Mar_01_1215,body_behavioural,3.0.4,60.006457174885064,
1,"After getting their shoes back on, they practically skipped to the gate, filled with joy.",3,4,,0,1,1,1,,,,,0,29,29,29,,,,,,,,,,,,,,,,,,,,,,,,,,,,,,,1,1.7363467870018212,,,,,,,,,,,,,,,,,,,,,,,,,,,,030119_p1,001,2019_Mar_01_1215,body_behavioural,3.0.4,60.006457174885064,
1,Sven high-fived a confused shoe-shine attendant as they passed.,3,4,,0,1,1,1,,,,,0,30,30,30,,,,,,,,,,,,,,,,,,,,,,,,,,,,,,,1,2.153228207000211,,,,,,,,,,,,,,,,,,,,,,,,,,,,030119_p1,001,2019_Mar_01_1215,body_behavioural,3.0.4,60.006457174885064,
1,"They sat down outside their gate, having actually made good time, until the attendant called for passengers.",3,4,,0,1,1,1,,,,,0,31,31,31,,,,,,,,,,,,,,,,,,,,,,,,,,,,,,,9,2.2865453269987484,,,,,,,,,,,,,,,,,,,,,,,,,,,,030119_p1,001,2019_Mar_01_1215,body_behavioural,3.0.4,60.006457174885064,
1,"They boarded, sitting together in first class, and had a glass of champagne to celebrate the departure into their new life together.",4,4,,0,1,1,1,,,,,0,32,32,32,,,,,,,,,,,,,,,,,,,,,,,,,,,,,,,1,4.55324234499858,,,,,,,,,,,,,,,,,,,,,,,,,,,,030119_p1,001,2019_Mar_01_1215,body_behavioural,3.0.4,60.006457174885064,
1,"Some of their neighboring passengers who had witnessed the proposal congratulated them, and a woman next to them showed them that she had been live-tweeting the whole event and that it was already going viral online.",4,4,,0,1,1,1,,,,,0,33,33,33,,,,,,,,,,,,,,,,,,,,,,,,,,,,,,,1,4.353245962000074,,,,,,,,,,,,,,,,,,,,,,,,,,,,030119_p1,001,2019_Mar_01_1215,body_behavioural,3.0.4,60.006457174885064,
1,"Isabel slid down in her seat with her hands over her face, both embarrassed and overjoyed at the same time.
",4,4,,0,1,1,1,,,,,0,34,34,34,,,,,,,,,,,,,,,,,,,,,,,,,,,,,,,1,3.000331160001224,,,,,,,,,,,,,,,,,,,,,,,,,,,,030119_p1,001,2019_Mar_01_1215,body_behavioural,3.0.4,60.006457174885064,
1,,,,,0,1,1,1,,,,,,,,,,,,,,,,,,,,,,,,,,,,,,,,,,,,,,,,,,,,,,,,,,,,,,,,,,,,,,,,,,,,030119_p1,001,2019_Mar_01_1215,body_behavioural,3.0.4,60.006457174885064,
2,,,,,0,2,2,2,0,0,0,0,,,,,,,,,,,,,,,,,,,,,,,,,,,,,space,13.953768704999675,space,1.1840769219998037,space,1.6030961150026997,,,,,,,,,,,,,,,,,,,,,,,,,,,,,,030119_p1,001,2019_Mar_01_1215,body_behavioural,3.0.4,60.006457174885064,
2,"James noticed Teresa immediately as she walked into the restaurant - or, more accurately as she attempted to walk into the restaurant. ",1,1,,0,2,2,2,,,,,0,0,0,0,,,,,,,,,,,,,,,,,,,,,,,,,,,,,,,9,9.07045178000044,,,,,,,,,,,,,,,,,,,,,,,,,,,,030119_p1,001,2019_Mar_01_1215,body_behavioural,3.0.4,60.006457174885064,
2,"She was typing intently on her phone and ran straight into the diner's clear, glass door with an echoing thud. ",1,1,,0,2,2,2,,,,,0,1,1,1,,,,,,,,,,,,,,,,,,,,,,,,,,,,,,,1,2.2861025250022067,,,,,,,,,,,,,,,,,,,,,,,,,,,,030119_p1,001,2019_Mar_01_1215,body_behavioural,3.0.4,60.006457174885064,
2,Everyone waiting around the cash register turned to see if she was okay.,1,1,,0,2,2,2,,,,,0,2,2,2,,,,,,,,,,,,,,,,,,,,,,,,,,,,,,,1,1.6191475769992394,,,,,,,,,,,,,,,,,,,,,,,,,,,,030119_p1,001,2019_Mar_01_1215,body_behavioural,3.0.4,60.006457174885064,
2,Teresa rubbed her head.,1,1,,0,2,2,2,,,,,0,3,3,3,,,,,,,,,,,,,,,,,,,,,,,,,,,,,,,1,0.7530482000001939,,,,,,,,,,,,,,,,,,,,,,,,,,,,030119_p1,001,2019_Mar_01_1215,body_behavioural,3.0.4,60.006457174885064,
2,"While being both confused and unembarrassed, she looked mostly indignant that the door had been in her way. ",1,1,,0,2,2,2,,,,,0,4,4,4,,,,,,,,,,,,,,,,,,,,,,,,,,,,,,,1,3.3533982949993515,,,,,,,,,,,,,,,,,,,,,,,,,,,,030119_p1,001,2019_Mar_01_1215,body_behavioural,3.0.4,60.006457174885064,
2,James found this quite charming and stole a couple glances at her until she noticed and wrinkled her eyebrows at him in suspicion. ,1,1,,0,2,2,2,,,,,0,5,5,5,,,,,,,,,,,,,,,,,,,,,,,,,,,,,,,1,4.519951807000325,,,,,,,,,,,,,,,,,,,,,,,,,,,,030119_p1,001,2019_Mar_01_1215,body_behavioural,3.0.4,60.006457174885064,
2,"The restaurant they were in was a cabin-themed diner with wooden booths and bar, walls covered in plaid blankets, and antler decorations. ",1,1,,0,2,2,2,,,,,0,6,6,6,,,,,,,,,,,,,,,,,,,,,,,,,,,,,,,9,11.720175026999641,,,,,,,,,,,,,,,,,,,,,,,,,,,,030119_p1,001,2019_Mar_01_1215,body_behavioural,3.0.4,60.006457174885064,
2,The waiter saw that James and Teresa were both alone and motioned to both of them. ,1,1,,0,2,2,2,,,,,0,7,7,7,,,,,,,,,,,,,,,,,,,,,,,,,,,,,,,1,2.903372242999467,,,,,,,,,,,,,,,,,,,,,,,,,,,,030119_p1,001,2019_Mar_01_1215,body_behavioural,3.0.4,60.006457174885064,
2,“Right this way.,2,1,,0,2,2,2,,,,,0,8,8,8,,,,,,,,,,,,,,,,,,,,,,,,,,,,,,,1,0.7195785299991257,,,,,,,,,,,,,,,,,,,,,,,,,,,,030119_p1,001,2019_Mar_01_1215,body_behavioural,3.0.4,60.006457174885064,
2,You two don't mind sitting at the counter?” ,2,1,,0,2,2,2,,,,,0,9,9,9,,,,,,,,,,,,,,,,,,,,,,,,,,,,,,,1,3.803628200003004,,,,,,,,,,,,,,,,,,,,,,,,,,,,030119_p1,001,2019_Mar_01_1215,body_behavioural,3.0.4,60.006457174885064,
2,They sat a seat apart from each other on the split tree trunk that served as a bench.,2,1,,0,2,2,2,,,,,0,10,10,10,,,,,,,,,,,,,,,,,,,,,,,,,,,,,,,9,5.236710184999538,,,,,,,,,,,,,,,,,,,,,,,,,,,,030119_p1,001,2019_Mar_01_1215,body_behavioural,3.0.4,60.006457174885064,
2, The waitress behind the counter gave them bright neon menus that were filled with breakfast items.,2,1,,0,2,2,2,,,,,0,11,11,11,,,,,,,,,,,,,,,,,,,,,,,,,,,,,,,1,2.286529465000058,,,,,,,,,,,,,,,,,,,,,,,,,,,,030119_p1,001,2019_Mar_01_1215,body_behavioural,3.0.4,60.006457174885064,
2,"Teresa quickly glanced through it, then pulled out a book and started reading it while James played with the salt and pepper shakers as he tried to think of an excuse to talk to Teresa.",2,1,,0,2,2,2,,,,,0,12,12,12,,,,,,,,,,,,,,,,,,,,,,,,,,,,,,,1,11.220405654999922,,,,,,,,,,,,,,,,,,,,,,,,,,,,030119_p1,001,2019_Mar_01_1215,body_behavioural,3.0.4,60.006457174885064,
2,"James eventually turned to her and asked, “Your forehead alright?”",2,2,,0,2,2,2,,,,,0,13,13,13,,,,,,,,,,,,,,,,,,,,,,,,,,,,,,,9,1.6693622120001237,,,,,,,,,,,,,,,,,,,,,,,,,,,,030119_p1,001,2019_Mar_01_1215,body_behavioural,3.0.4,60.006457174885064,
2,She put down her book and gave him a smirk.,2,2,,0,2,2,2,,,,,0,14,14,14,,,,,,,,,,,,,,,,,,,,,,,,,,,,,,,1,1.2530493570011458,,,,,,,,,,,,,,,,,,,,,,,,,,,,030119_p1,001,2019_Mar_01_1215,body_behavioural,3.0.4,60.006457174885064,
2,"“Have you ever been stung by a scorpion?”, she asked him, tilting her head.",2,2,,0,2,2,2,,,,,0,15,15,15,,,,,,,,,,,,,,,,,,,,,,,,,,,,,,,1,1.9859668770004646,,,,,,,,,,,,,,,,,,,,,,,,,,,,030119_p1,001,2019_Mar_01_1215,body_behavioural,3.0.4,60.006457174885064,
2,"“What?”, he asked confusedly.",2,2,,0,2,2,2,,,,,0,16,16,16,,,,,,,,,,,,,,,,,,,,,,,,,,,,,,,1,4.569702392000181,,,,,,,,,,,,,,,,,,,,,,,,,,,,030119_p1,001,2019_Mar_01_1215,body_behavioural,3.0.4,60.006457174885064,
2, “A scorpion.”,2,2,,0,2,2,2,,,,,0,17,17,17,,,,,,,,,,,,,,,,,,,,,,,,,,,,,,,1,0.7198939679983596,,,,,,,,,,,,,,,,,,,,,,,,,,,,030119_p1,001,2019_Mar_01_1215,body_behavioural,3.0.4,60.006457174885064,
2,James began to worry that Teresa had possibly suffered a concussion in the door crash.,2,2,,0,2,2,2,,,,,0,18,18,18,,,,,,,,,,,,,,,,,,,,,,,,,,,,,,,1,2.01936182999998,,,,,,,,,,,,,,,,,,,,,,,,,,,,030119_p1,001,2019_Mar_01_1215,body_behavioural,3.0.4,60.006457174885064,
2,"“Uh no, why?” ",2,2,,0,2,2,2,,,,,0,19,19,19,,,,,,,,,,,,,,,,,,,,,,,,,,,,,,,1,0.803032402000099,,,,,,,,,,,,,,,,,,,,,,,,,,,,030119_p1,001,2019_Mar_01_1215,body_behavioural,3.0.4,60.006457174885064,
2,"“Because I’ve been stung by one, and since then, things like bumping into doors seem like pretty small potatoes.” ",2,2,,0,2,2,2,,,,,0,20,20,20,,,,,,,,,,,,,,,,,,,,,,,,,,,,,,,1,3.4198124120011926,,,,,,,,,,,,,,,,,,,,,,,,,,,,030119_p1,001,2019_Mar_01_1215,body_behavioural,3.0.4,60.006457174885064,
2,"They carried on talking, and Teresa told him all about her encounter with a Deathstalker scorpion while she was studying abroad in Egypt.",2,2,,0,2,2,2,,,,,0,21,21,21,,,,,,,,,,,,,,,,,,,,,,,,,,,,,,,9,3.4033493750030175,,,,,,,,,,,,,,,,,,,,,,,,,,,,030119_p1,001,2019_Mar_01_1215,body_behavioural,3.0.4,60.006457174885064,
2,"After a few minutes, the waitress behind the counter came up to them, “Alrighty, can I take you order?” ",3,3,,0,2,2,2,,,,,0,22,22,22,,,,,,,,,,,,,,,,,,,,,,,,,,,,,,,1,1.6193611349990533,,,,,,,,,,,,,,,,,,,,,,,,,,,,030119_p1,001,2019_Mar_01_1215,body_behavioural,3.0.4,60.006457174885064,
2,"She first looked at Teresa who answered, “I’ll have a Western Omelette and a glass of milk.”",3,3,,0,2,2,2,,,,,0,23,23,23,,,,,,,,,,,,,,,,,,,,,,,,,,,,,,,1,2.3364863249989867,,,,,,,,,,,,,,,,,,,,,,,,,,,,030119_p1,001,2019_Mar_01_1215,body_behavioural,3.0.4,60.006457174885064,
2,Then the waitress turned to James.,3,3,,0,2,2,2,,,,,0,24,24,24,,,,,,,,,,,,,,,,,,,,,,,,,,,,,,,1,1.086408750001283,,,,,,,,,,,,,,,,,,,,,,,,,,,,030119_p1,001,2019_Mar_01_1215,body_behavioural,3.0.4,60.006457174885064,
2,"James said, “I’ll have the chocolate chip pancakes and a coffee.” ",3,3,,0,2,2,2,,,,,0,25,25,25,,,,,,,,,,,,,,,,,,,,,,,,,,,,,,,1,9.201303649999318,,,,,,,,,,,,,,,,,,,,,,,,,,,,030119_p1,001,2019_Mar_01_1215,body_behavioural,3.0.4,60.006457174885064,
2,"“Alrighty, comin’ right up!”",3,3,,0,2,2,2,,,,,0,26,26,26,,,,,,,,,,,,,,,,,,,,,,,,,,,,,,,1,0.7028269399997953,,,,,,,,,,,,,,,,,,,,,,,,,,,,030119_p1,001,2019_Mar_01_1215,body_behavioural,3.0.4,60.006457174885064,
2,"They picked up their conversation, and James ended up telling Teresa about a concert he was going to later. ",3,3,,0,2,2,2,,,,,0,27,27,27,,,,,,,,,,,,,,,,,,,,,,,,,,,,,,,9,3.052798079999775,,,,,,,,,,,,,,,,,,,,,,,,,,,,030119_p1,001,2019_Mar_01_1215,body_behavioural,3.0.4,60.006457174885064,
2,"He invited her to come along, promising her that the concert would be indoors and absolutely free of venomous insects.",3,3,,0,2,2,2,,,,,0,28,28,28,,,,,,,,,,,,,,,,,,,,,,,,,,,,,,,1,3.0531954649995896,,,,,,,,,,,,,,,,,,,,,,,,,,,,030119_p1,001,2019_Mar_01_1215,body_behavioural,3.0.4,60.006457174885064,
2,"Teresa agreed, gave him her number, and they worked out that James would pick her up before the concert and drive them there.",3,3,,0,2,2,2,,,,,0,29,29,29,,,,,,,,,,,,,,,,,,,,,,,,,,,,,,,1,5.402154341001733,,,,,,,,,,,,,,,,,,,,,,,,,,,,030119_p1,001,2019_Mar_01_1215,body_behavioural,3.0.4,60.006457174885064,
2,"This was not what they had expected from their solitary lunch plans and were both excited, even though Teresa was doing a much better job of hiding it than James. ",3,3,,0,2,2,2,,,,,0,30,30,30,,,,,,,,,,,,,,,,,,,,,,,,,,,,,,,1,21.637905517000036,,,,,,,,,,,,,,,,,,,,,,,,,,,,030119_p1,001,2019_Mar_01_1215,body_behavioural,3.0.4,60.006457174885064,
2," After awhile,  the waitress brought out their food, and James took this opportunity to scoot closer to her on the log bench. ",4,4,,0,2,2,2,,,,,0,31,31,31,,,,,,,,,,,,,,,,,,,,,,,,,,,,,,,9,3.0198823569990054,,,,,,,,,,,,,,,,,,,,,,,,,,,,030119_p1,001,2019_Mar_01_1215,body_behavioural,3.0.4,60.006457174885064,
2,"Teresa was happy to share the meal with James, despite their food tasting pretty bad. ",4,4,,0,2,2,2,,,,,0,32,32,32,,,,,,,,,,,,,,,,,,,,,,,,,,,,,,,1,1.1363056800000777,,,,,,,,,,,,,,,,,,,,,,,,,,,,030119_p1,001,2019_Mar_01_1215,body_behavioural,3.0.4,60.006457174885064,
2,"Judging by how salty the pancakes tasted, they suspected that the chef had confused the salt and sugar.",4,4,,0,2,2,2,,,,,0,33,33,33,,,,,,,,,,,,,,,,,,,,,,,,,,,,,,,1,3.8342516099983186,,,,,,,,,,,,,,,,,,,,,,,,,,,,030119_p1,001,2019_Mar_01_1215,body_behavioural,3.0.4,60.006457174885064,
2,"When the meal was over, they got up, hugged, and parted ways. ",4,4,,0,2,2,2,,,,,0,34,34,34,,,,,,,,,,,,,,,,,,,,,,,,,,,,,,,1,1.419770550000976,,,,,,,,,,,,,,,,,,,,,,,,,,,,030119_p1,001,2019_Mar_01_1215,body_behavioural,3.0.4,60.006457174885064,
2,"James said,“I have to run, got to get to work.",4,4,,0,2,2,2,,,,,0,35,35,35,,,,,,,,,,,,,,,,,,,,,,,,,,,,,,,1,1.2532406150021416,,,,,,,,,,,,,,,,,,,,,,,,,,,,030119_p1,001,2019_Mar_01_1215,body_behavioural,3.0.4,60.006457174885064,
2,See you tonight!”,4,4,,0,2,2,2,,,,,0,36,36,36,,,,,,,,,,,,,,,,,,,,,,,,,,,,,,,1,2.5364893119985936,,,,,,,,,,,,,,,,,,,,,,,,,,,,030119_p1,001,2019_Mar_01_1215,body_behavioural,3.0.4,60.006457174885064,
2,"Teresa smiled and walked towards the door without looking, and almost ran into the door again. ",4,4,,0,2,2,2,,,,,0,37,37,37,,,,,,,,,,,,,,,,,,,,,,,,,,,,,,,1,2.086380167002062,,,,,,,,,,,,,,,,,,,,,,,,,,,,030119_p1,001,2019_Mar_01_1215,body_behavioural,3.0.4,60.006457174885064,
2,They both laughed and smiled once more goodbye. ,4,4,,0,2,2,2,,,,,0,38,38,38,,,,,,,,,,,,,,,,,,,,,,,,,,,,,,,1,0.9007289020009921,,,,,,,,,,,,,,,,,,,,,,,,,,,,030119_p1,001,2019_Mar_01_1215,body_behavioural,3.0.4,60.006457174885064,
2,,,,,0,2,2,2,,,,,,,,,,,,,,,,,,,,,,,,,,,,,,,,,,,,,,,,,,,,,,,,,,,,,,,,,,,,,,,,,,,,030119_p1,001,2019_Mar_01_1215,body_behavioural,3.0.4,60.006457174885064,
3,,,,,0,3,3,3,0,0,0,0,,,,,,,,,,,,,,,,,,,,,,,,,,,,,space,3.5177246050006943,space,0.7363480950007215,space,0.8196604799995839,,,,,,,,,,,,,,,,,,,,,,,,,,,,,,030119_p1,001,2019_Mar_01_1215,body_behavioural,3.0.4,60.006457174885064,
3,Mr. Shelton and Mr. Gordon shook hands inside the foyer of the restaurant: lunch today was about big business. ,1,1,,0,3,3,3,,,,,0,0,0,0,,,,,,,,,,,,,,,,,,,,,,,,,,,,,,,9,8.453841829999874,,,,,,,,,,,,,,,,,,,,,,,,,,,,030119_p1,001,2019_Mar_01_1215,body_behavioural,3.0.4,60.006457174885064,
3,Mr. Shelton and Mr. Gordon both were CEOs of airplane manufacturing companies.,1,1,,0,3,3,3,,,,,0,1,1,1,,,,,,,,,,,,,,,,,,,,,,,,,,,,,,,1,4.270093464998354,,,,,,,,,,,,,,,,,,,,,,,,,,,,030119_p1,001,2019_Mar_01_1215,body_behavioural,3.0.4,60.006457174885064,
3,"Mr. Shelton was in charge of a larger, well-established company and had been in the aviation business for decades.",1,1,,0,3,3,3,,,,,0,2,2,2,,,,,,,,,,,,,,,,,,,,,,,,,,,,,,,1,16.35301054699812,,,,,,,,,,,,,,,,,,,,,,,,,,,,030119_p1,001,2019_Mar_01_1215,body_behavioural,3.0.4,60.006457174885064,
3,"On the other hand, Mr. Gordon led a smaller but technologically-advanced company that was projected to disrupt the airplane manufacturing market. ",1,1,,0,3,3,3,,,,,0,3,3,3,,,,,,,,,,,,,,,,,,,,,,,,,,,,,,,1,5.536385152001458,,,,,,,,,,,,,,,,,,,,,,,,,,,,030119_p1,001,2019_Mar_01_1215,body_behavioural,3.0.4,60.006457174885064,
3,"The restaurant they chose to meet at was old and fancy with high ceilings, dark wood paneling, and crystal chandeliers.",1,1,,0,3,3,3,,,,,0,4,4,4,,,,,,,,,,,,,,,,,,,,,,,,,,,,,,,9,4.136665525002172,,,,,,,,,,,,,,,,,,,,,,,,,,,,030119_p1,001,2019_Mar_01_1215,body_behavioural,3.0.4,60.006457174885064,
3,"The waitress led them to their table in the back, and they settled into a private table in the corner by the fireplace. ",2,1,,0,3,3,3,,,,,0,5,5,5,,,,,,,,,,,,,,,,,,,,,,,,,,,,,,,1,15.037536348001595,,,,,,,,,,,,,,,,,,,,,,,,,,,,030119_p1,001,2019_Mar_01_1215,body_behavioural,3.0.4,60.006457174885064,
3,The waitress brought out the menus and they broke the ice with some small talk.,2,1,,0,3,3,3,,,,,0,6,6,6,,,,,,,,,,,,,,,,,,,,,,,,,,,,,,,1,1.569720783001685,,,,,,,,,,,,,,,,,,,,,,,,,,,,030119_p1,001,2019_Mar_01_1215,body_behavioural,3.0.4,60.006457174885064,
3,"Mr. Gordon took out a picture of his daughter and talked about her recent engagement, and Mr. Gordon boasted about his purchase of a Tesla. ",2,1,,0,3,3,3,,,,,0,7,7,7,,,,,,,,,,,,,,,,,,,,,,,,,,,,,,,1,31.471373775002576,,,,,,,,,,,,,,,,,,,,,,,,,,,,030119_p1,001,2019_Mar_01_1215,body_behavioural,3.0.4,60.006457174885064,
3,"They looked at the menus as well, which were full of Italian classics like Carbonara and Tiramisu, and in the back section of the menu was a lengthy drink selection.",2,1,,0,3,3,3,,,,,0,8,8,8,,,,,,,,,,,,,,,,,,,,,,,,,,,,,,,1,6.117533136999555,,,,,,,,,,,,,,,,,,,,,,,,,,,,030119_p1,001,2019_Mar_01_1215,body_behavioural,3.0.4,60.006457174885064,
3,"After awhile, Mr. Shelton brought the conversation around to business.",2,2,,0,3,3,3,,,,,0,9,9,9,,,,,,,,,,,,,,,,,,,,,,,,,,,,,,,9,1.0007286599975487,,,,,,,,,,,,,,,,,,,,,,,,,,,,030119_p1,001,2019_Mar_01_1215,body_behavioural,3.0.4,60.006457174885064,
3,"“Mr. Gordon, we really admire what you’re doing at your company.",2,2,,0,3,3,3,,,,,0,10,10,10,,,,,,,,,,,,,,,,,,,,,,,,,,,,,,,1,2.536179261998768,,,,,,,,,,,,,,,,,,,,,,,,,,,,030119_p1,001,2019_Mar_01_1215,body_behavioural,3.0.4,60.006457174885064,
3,We think it’s genius; we want to support your vision and make this tiny company of yours internationally known.,2,2,,0,3,3,3,,,,,0,11,11,11,,,,,,,,,,,,,,,,,,,,,,,,,,,,,,,1,2.153156102001958,,,,,,,,,,,,,,,,,,,,,,,,,,,,030119_p1,001,2019_Mar_01_1215,body_behavioural,3.0.4,60.006457174885064,
3,"But honestly, your company doesn’t have the resources to reach international markets right now.",2,2,,0,3,3,3,,,,,0,12,12,12,,,,,,,,,,,,,,,,,,,,,,,,,,,,,,,1,2.502796605000185,,,,,,,,,,,,,,,,,,,,,,,,,,,,030119_p1,001,2019_Mar_01_1215,body_behavioural,3.0.4,60.006457174885064,
3,"Maybe in a few years you could, but by that time, other companies may have already filled your niche.",2,2,,0,3,3,3,,,,,0,13,13,13,,,,,,,,,,,,,,,,,,,,,,,,,,,,,,,1,3.417973637999239,,,,,,,,,,,,,,,,,,,,,,,,,,,,030119_p1,001,2019_Mar_01_1215,body_behavioural,3.0.4,60.006457174885064,
3,I think we should join forces.”,2,2,,0,3,3,3,,,,,0,14,14,14,,,,,,,,,,,,,,,,,,,,,,,,,,,,,,,1,1.6201590130003751,,,,,,,,,,,,,,,,,,,,,,,,,,,,030119_p1,001,2019_Mar_01_1215,body_behavioural,3.0.4,60.006457174885064,
3,The waitress came up to them and asked if they were ready to order.,3,2,,0,3,3,3,,,,,0,15,15,15,,,,,,,,,,,,,,,,,,,,,,,,,,,,,,,9,1.936534300002677,,,,,,,,,,,,,,,,,,,,,,,,,,,,030119_p1,001,2019_Mar_01_1215,body_behavioural,3.0.4,60.006457174885064,
3,"Mr. Gordon ordered a medium-rare steak and martini, and Mr. Shelton ordered veal and a manhattan. ",3,2,,0,3,3,3,,,,,0,16,16,16,,,,,,,,,,,,,,,,,,,,,,,,,,,,,,,1,16.48756313800186,,,,,,,,,,,,,,,,,,,,,,,,,,,,030119_p1,001,2019_Mar_01_1215,body_behavioural,3.0.4,60.006457174885064,
3,"Then Mr. Shelton continued, “Look, I’ve talked to other members of the board, and we are prepared to offer $600 million to buy your company. ",3,2,,0,3,3,3,,,,,0,17,17,17,,,,,,,,,,,,,,,,,,,,,,,,,,,,,,,1,7.5202135920008,,,,,,,,,,,,,,,,,,,,,,,,,,,,030119_p1,001,2019_Mar_01_1215,body_behavioural,3.0.4,60.006457174885064,
3,"We'd keep on all of your current employees, and you would join as the director of your company branch.” ",3,2,,0,3,3,3,,,,,0,18,18,18,,,,,,,,,,,,,,,,,,,,,,,,,,,,,,,1,2.5698122850008076,,,,,,,,,,,,,,,,,,,,,,,,,,,,030119_p1,001,2019_Mar_01_1215,body_behavioural,3.0.4,60.006457174885064,
3,Mr. Gordon sat looking at Mr. Shelton for a few moments considering his response. ,3,2,,0,3,3,3,,,,,0,19,19,19,,,,,,,,,,,,,,,,,,,,,,,,,,,,,,,1,3.3028033949995006,,,,,,,,,,,,,,,,,,,,,,,,,,,,030119_p1,001,2019_Mar_01_1215,body_behavioural,3.0.4,60.006457174885064,
3,He looked at Mr. Shelton skeptically.,3,2,,0,3,3,3,,,,,0,20,20,20,,,,,,,,,,,,,,,,,,,,,,,,,,,,,,,1,1.2197809070021322,,,,,,,,,,,,,,,,,,,,,,,,,,,,030119_p1,001,2019_Mar_01_1215,body_behavioural,3.0.4,60.006457174885064,
3,"He said, “Mr. Shelton, I think that you make a compelling offer, but there are definitely some disadvantages to attaching our small, streamlined productions to a large company like yours.",3,3,,0,3,3,3,,,,,0,21,21,21,,,,,,,,,,,,,,,,,,,,,,,,,,,,,,,1,12.403656811999099,,,,,,,,,,,,,,,,,,,,,,,,,,,,030119_p1,001,2019_Mar_01_1215,body_behavioural,3.0.4,60.006457174885064,
3,"We operate in a very different way than a large company, and the kind of administrative complexity that makes the scale of your productions possible would suffocate our business.",3,3,,0,3,3,3,,,,,0,22,22,22,,,,,,,,,,,,,,,,,,,,,,,,,,,,,,,1,7.186535700002423,,,,,,,,,,,,,,,,,,,,,,,,,,,,030119_p1,001,2019_Mar_01_1215,body_behavioural,3.0.4,60.006457174885064,
3,"With our product, scaling-up doesn’t necessarily make sense.” ",3,3,,0,3,3,3,,,,,0,23,23,23,,,,,,,,,,,,,,,,,,,,,,,,,,,,,,,1,2.003374893,,,,,,,,,,,,,,,,,,,,,,,,,,,,030119_p1,001,2019_Mar_01_1215,body_behavioural,3.0.4,60.006457174885064,
3,Mr. Shelton had expected this response and had come prepared.,3,3,,0,3,3,3,,,,,0,24,24,24,,,,,,,,,,,,,,,,,,,,,,,,,,,,,,,9,4.869933024998318,,,,,,,,,,,,,,,,,,,,,,,,,,,,030119_p1,001,2019_Mar_01_1215,body_behavioural,3.0.4,60.006457174885064,
3,He began laying out the details of how he had handled similar acquisitions successfully in the past.,3,3,,0,3,3,3,,,,,0,25,25,25,,,,,,,,,,,,,,,,,,,,,,,,,,,,,,,1,2.086589054997603,,,,,,,,,,,,,,,,,,,,,,,,,,,,030119_p1,001,2019_Mar_01_1215,body_behavioural,3.0.4,60.006457174885064,
3,"Mr. Gordon was impressed, and they went back and forth hashing out what the company configuration would look like post-merger. ",3,3,,0,3,3,3,,,,,0,26,26,26,,,,,,,,,,,,,,,,,,,,,,,,,,,,,,,1,8.520180774998153,,,,,,,,,,,,,,,,,,,,,,,,,,,,030119_p1,001,2019_Mar_01_1215,body_behavioural,3.0.4,60.006457174885064,
3,"The waitress brought the food out, interrupting their animated conversation.",4,3,,0,3,3,3,,,,,0,27,27,27,,,,,,,,,,,,,,,,,,,,,,,,,,,,,,,1,1.4531439149977814,,,,,,,,,,,,,,,,,,,,,,,,,,,,030119_p1,001,2019_Mar_01_1215,body_behavioural,3.0.4,60.006457174885064,
3,“Oh this looks so good!” Mr. Gordon said. ,4,3,,0,3,3,3,,,,,0,28,28,28,,,,,,,,,,,,,,,,,,,,,,,,,,,,,,,1,3.519387207001273,,,,,,,,,,,,,,,,,,,,,,,,,,,,030119_p1,001,2019_Mar_01_1215,body_behavioural,3.0.4,60.006457174885064,
3, “Can I get you anything else?” the waitress asked.,4,3,,0,3,3,3,,,,,0,29,29,29,,,,,,,,,,,,,,,,,,,,,,,,,,,,,,,1,0.9363301599987608,,,,,,,,,,,,,,,,,,,,,,,,,,,,030119_p1,001,2019_Mar_01_1215,body_behavioural,3.0.4,60.006457174885064,
3,They declined and continued to talk.,4,3,,0,3,3,3,,,,,0,30,30,30,,,,,,,,,,,,,,,,,,,,,,,,,,,,,,,1,1.5528890620007587,,,,,,,,,,,,,,,,,,,,,,,,,,,,030119_p1,001,2019_Mar_01_1215,body_behavioural,3.0.4,60.006457174885064,
3,"The meal lived up to the reputation of the restaurant, which was known for having the best cuts of meat in the area.",4,3,,0,3,3,3,,,,,0,31,31,31,,,,,,,,,,,,,,,,,,,,,,,,,,,,,,,1,7.185055374997319,,,,,,,,,,,,,,,,,,,,,,,,,,,,030119_p1,001,2019_Mar_01_1215,body_behavioural,3.0.4,60.006457174885064,
3,"Mr. Gordon, after taking a contemplative bite of his food, said, “Mr. Shelton, I think we have a deal. ",4,4,,0,3,3,3,,,,,0,32,32,32,,,,,,,,,,,,,,,,,,,,,,,,,,,,,,,1,3.1175270099993213,,,,,,,,,,,,,,,,,,,,,,,,,,,,030119_p1,001,2019_Mar_01_1215,body_behavioural,3.0.4,60.006457174885064,
3,"If you can guarantee that I can still have the final say in the all the work done by my team, I think this could be beneficial for both of us.",4,4,,0,3,3,3,,,,,0,33,33,33,,,,,,,,,,,,,,,,,,,,,,,,,,,,,,,1,4.386199697000848,,,,,,,,,,,,,,,,,,,,,,,,,,,,030119_p1,001,2019_Mar_01_1215,body_behavioural,3.0.4,60.006457174885064,
3,I propose a toast to the merging of our companies.”,4,4,,0,3,3,3,,,,,0,34,34,34,,,,,,,,,,,,,,,,,,,,,,,,,,,,,,,1,1.436439839999366,,,,,,,,,,,,,,,,,,,,,,,,,,,,030119_p1,001,2019_Mar_01_1215,body_behavioural,3.0.4,60.006457174885064,
3,Mr. Shelton grinned and lifted his martini to clink glasses.,4,4,,0,3,3,3,,,,,0,35,35,35,,,,,,,,,,,,,,,,,,,,,,,,,,,,,,,1,2.0360867169983976,,,,,,,,,,,,,,,,,,,,,,,,,,,,030119_p1,001,2019_Mar_01_1215,body_behavioural,3.0.4,60.006457174885064,
3,"He said, “Cheers to a lifelong partnership and to the growth of your company.” ",4,4,,0,3,3,3,,,,,0,36,36,36,,,,,,,,,,,,,,,,,,,,,,,,,,,,,,,1,1.6532299169994076,,,,,,,,,,,,,,,,,,,,,,,,,,,,030119_p1,001,2019_Mar_01_1215,body_behavioural,3.0.4,60.006457174885064,
3,,,,,0,3,3,3,,,,,,,,,,,,,,,,,,,,,,,,,,,,,,,,,,,,,,,,,,,,,,,,,,,,,,,,,,,,,,,,,,,,030119_p1,001,2019_Mar_01_1215,body_behavioural,3.0.4,60.006457174885064,
4,,,,,0,4,4,4,0,0,0,0,,,,,,,,,,,,,,,,,,,,,,,,,,,,,space,3.2366280000023835,space,0.5528748420001648,space,1.0532037299999502,,,,,,,,,,,,,,,,,,,,,,,,,,,,,,030119_p1,001,2019_Mar_01_1215,body_behavioural,3.0.4,60.006457174885064,
4,"Simon and Carina noticed each other as they walked into the grocery store at the same time, their carts nearly colliding as they squeezed into the entrance.",1,1,,0,4,4,4,,,,,0,0,0,0,,,,,,,,,,,,,,,,,,,,,,,,,,,,,,,9,31.58681543700004,,,,,,,,,,,,,,,,,,,,,,,,,,,,030119_p1,001,2019_Mar_01_1215,body_behavioural,3.0.4,60.006457174885064,
4,"They were both new to the Boston area, and this was their first time in this store. ",1,1,,0,4,4,4,,,,,0,1,1,1,,,,,,,,,,,,,,,,,,,,,,,,,,,,,,,1,1.569822090001253,,,,,,,,,,,,,,,,,,,,,,,,,,,,030119_p1,001,2019_Mar_01_1215,body_behavioural,3.0.4,60.006457174885064,
4,"It kind of looked like a large warehouse, with high unfurnished ceilings, industrial lights, and large packages of food. ",1,1,,0,4,4,4,,,,,0,2,2,2,,,,,,,,,,,,,,,,,,,,,,,,,,,,,,,1,7.953526559998863,,,,,,,,,,,,,,,,,,,,,,,,,,,,030119_p1,001,2019_Mar_01_1215,body_behavioural,3.0.4,60.006457174885064,
4,"They went off along separate routes, but soon ended up back together in the meat section. ",2,1,,0,4,4,4,,,,,0,3,3,3,,,,,,,,,,,,,,,,,,,,,,,,,,,,,,,1,1.652587010001298,,,,,,,,,,,,,,,,,,,,,,,,,,,,030119_p1,001,2019_Mar_01_1215,body_behavioural,3.0.4,60.006457174885064,
4,"They were both preparing for barbecues, so they were looking over the same cuts of meat. ",2,1,,0,4,4,4,,,,,0,4,4,4,,,,,,,,,,,,,,,,,,,,,,,,,,,,,,,1,2.9698295870002767,,,,,,,,,,,,,,,,,,,,,,,,,,,,030119_p1,001,2019_Mar_01_1215,body_behavioural,3.0.4,60.006457174885064,
4,"Simon really wanted to talk to Carina, and Carina really wanted to say something to Simon, but they felt embarrassed striking up a conversation with a stranger.",2,1,,0,4,4,4,,,,,0,5,5,5,,,,,,,,,,,,,,,,,,,,,,,,,,,,,,,1,7.3200066550016345,,,,,,,,,,,,,,,,,,,,,,,,,,,,030119_p1,001,2019_Mar_01_1215,body_behavioural,3.0.4,60.006457174885064,
4,"Carina suddenly turned to Simon and, pointing at a Cornish hen, asked, “Isn’t this meat cute?”",2,2,,0,4,4,4,,,,,0,6,6,6,,,,,,,,,,,,,,,,,,,,,,,,,,,,,,,9,8.203575904997706,,,,,,,,,,,,,,,,,,,,,,,,,,,,030119_p1,001,2019_Mar_01_1215,body_behavioural,3.0.4,60.006457174885064,
4,"He laughed, and said, “It is very cute.",2,2,,0,4,4,4,,,,,0,7,7,7,,,,,,,,,,,,,,,,,,,,,,,,,,,,,,,1,1.3363422900001751,,,,,,,,,,,,,,,,,,,,,,,,,,,,030119_p1,001,2019_Mar_01_1215,body_behavioural,3.0.4,60.006457174885064,
4,"Probably the younger brother of this guy,” and he picked up a regular-sized chicken.",2,2,,0,4,4,4,,,,,0,8,8,8,,,,,,,,,,,,,,,,,,,,,,,,,,,,,,,1,4.167664020002121,,,,,,,,,,,,,,,,,,,,,,,,,,,,030119_p1,001,2019_Mar_01_1215,body_behavioural,3.0.4,60.006457174885064,
4,"“Unlucky family,” she responded. ",2,2,,0,4,4,4,,,,,0,9,9,9,,,,,,,,,,,,,,,,,,,,,,,,,,,,,,,1,2.8529982029976964,,,,,,,,,,,,,,,,,,,,,,,,,,,,030119_p1,001,2019_Mar_01_1215,body_behavioural,3.0.4,60.006457174885064,
4,They continued to chat as they picked out their groceries.,2,2,,0,4,4,4,,,,,0,10,10,10,,,,,,,,,,,,,,,,,,,,,,,,,,,,,,,1,1.4194362480011478,,,,,,,,,,,,,,,,,,,,,,,,,,,,030119_p1,001,2019_Mar_01_1215,body_behavioural,3.0.4,60.006457174885064,
4,"Simon helped Carina pick out the best ribs and his personal favorite barbeque sauce, and she helped him gather the  peppers, onions, and spices for a vegetable kabob she recommended.",2,2,,0,4,4,4,,,,,0,11,11,11,,,,,,,,,,,,,,,,,,,,,,,,,,,,,,,1,9.437037686999247,,,,,,,,,,,,,,,,,,,,,,,,,,,,030119_p1,001,2019_Mar_01_1215,body_behavioural,3.0.4,60.006457174885064,
4,"When they were both finished shopping, they went to the checkout area.",3,2,,0,4,4,4,,,,,0,12,12,12,,,,,,,,,,,,,,,,,,,,,,,,,,,,,,,1,4.4034366169980785,,,,,,,,,,,,,,,,,,,,,,,,,,,,030119_p1,001,2019_Mar_01_1215,body_behavioural,3.0.4,60.006457174885064,
4,"Simon was disappointed to see that the lines were short, since he had been hoping for an excuse to spend more time with Carina.",3,2,,0,4,4,4,,,,,0,13,13,13,,,,,,,,,,,,,,,,,,,,,,,,,,,,,,,9,2.2860605700007,,,,,,,,,,,,,,,,,,,,,,,,,,,,030119_p1,001,2019_Mar_01_1215,body_behavioural,3.0.4,60.006457174885064,
4,"They had real chemistry, and both of them could definitely see a future together despite having just met.",3,2,,0,4,4,4,,,,,0,14,14,14,,,,,,,,,,,,,,,,,,,,,,,,,,,,,,,1,2.3862126000021817,,,,,,,,,,,,,,,,,,,,,,,,,,,,030119_p1,001,2019_Mar_01_1215,body_behavioural,3.0.4,60.006457174885064,
4,"“So you haven’t been around the city much?”, Simon asked. ",3,2,,0,4,4,4,,,,,0,15,15,15,,,,,,,,,,,,,,,,,,,,,,,,,,,,,,,1,6.003240524998546,,,,,,,,,,,,,,,,,,,,,,,,,,,,030119_p1,001,2019_Mar_01_1215,body_behavioural,3.0.4,60.006457174885064,
4,"“No, not really.",3,2,,0,4,4,4,,,,,0,16,16,16,,,,,,,,,,,,,,,,,,,,,,,,,,,,,,,1,2.4860938819983858,,,,,,,,,,,,,,,,,,,,,,,,,,,,030119_p1,001,2019_Mar_01_1215,body_behavioural,3.0.4,60.006457174885064,
4,I’ve mainly been working and setting up my apartment.”,3,2,,0,4,4,4,,,,,0,17,17,17,,,,,,,,,,,,,,,,,,,,,,,,,,,,,,,1,2.950868217001698,,,,,,,,,,,,,,,,,,,,,,,,,,,,030119_p1,001,2019_Mar_01_1215,body_behavioural,3.0.4,60.006457174885064,
4,"Simon asked her, “Ok well, if you’d like I could pick you up next weekend, and we could go around Harvard Square and get dinner.",3,3,,0,4,4,4,,,,,0,18,18,18,,,,,,,,,,,,,,,,,,,,,,,,,,,,,,,1,4.58429725699898,,,,,,,,,,,,,,,,,,,,,,,,,,,,030119_p1,001,2019_Mar_01_1215,body_behavioural,3.0.4,60.006457174885064,
4,"There are a lot of great places around there, and it’s really nice during the summer.",3,3,,0,4,4,4,,,,,0,19,19,19,,,,,,,,,,,,,,,,,,,,,,,,,,,,,,,1,1.8865351249987725,,,,,,,,,,,,,,,,,,,,,,,,,,,,030119_p1,001,2019_Mar_01_1215,body_behavioural,3.0.4,60.006457174885064,
4,The Harvard campus is also beautiful.” ,3,3,,0,4,4,4,,,,,0,20,20,20,,,,,,,,,,,,,,,,,,,,,,,,,,,,,,,1,1.9698487150017172,,,,,,,,,,,,,,,,,,,,,,,,,,,,030119_p1,001,2019_Mar_01_1215,body_behavioural,3.0.4,60.006457174885064,
4,"Carina smiled, “I’d love to: that sounds great!”",3,3,,0,4,4,4,,,,,0,21,21,21,,,,,,,,,,,,,,,,,,,,,,,,,,,,,,,1,1.152745714996854,,,,,,,,,,,,,,,,,,,,,,,,,,,,030119_p1,001,2019_Mar_01_1215,body_behavioural,3.0.4,60.006457174885064,
4,"She quickly entered her number in his phone, since they only had to wait a couple minutes in line.",3,3,,0,4,4,4,,,,,0,22,22,22,,,,,,,,,,,,,,,,,,,,,,,,,,,,,,,1,1.885902616999374,,,,,,,,,,,,,,,,,,,,,,,,,,,,030119_p1,001,2019_Mar_01_1215,body_behavioural,3.0.4,60.006457174885064,
4,Then it was her turn to check out with the cashier. ,4,3,,0,4,4,4,,,,,0,23,23,23,,,,,,,,,,,,,,,,,,,,,,,,,,,,,,,1,1.5027898750013264,,,,,,,,,,,,,,,,,,,,,,,,,,,,030119_p1,001,2019_Mar_01_1215,body_behavioural,3.0.4,60.006457174885064,
4,"Simon, wanting to make a gesture of his affection, lifted up the divider on the conveyor belt and said to the cashier, “Actually these are together.",4,3,,0,4,4,4,,,,,0,24,24,24,,,,,,,,,,,,,,,,,,,,,,,,,,,,,,,9,4.437087998001516,,,,,,,,,,,,,,,,,,,,,,,,,,,,030119_p1,001,2019_Mar_01_1215,body_behavioural,3.0.4,60.006457174885064,
4,"Carina, I’ve got it.",4,3,,0,4,4,4,,,,,0,25,25,25,,,,,,,,,,,,,,,,,,,,,,,,,,,,,,,1,0.6839248700016469,,,,,,,,,,,,,,,,,,,,,,,,,,,,030119_p1,001,2019_Mar_01_1215,body_behavioural,3.0.4,60.006457174885064,
4,This was kind-of a date today.”,4,3,,0,4,4,4,,,,,0,26,26,26,,,,,,,,,,,,,,,,,,,,,,,,,,,,,,,1,0.9361785420005617,,,,,,,,,,,,,,,,,,,,,,,,,,,,030119_p1,001,2019_Mar_01_1215,body_behavioural,3.0.4,60.006457174885064,
4,Carina blushed and laughed; she thought this was ridiculous but also very sweet. ,4,3,,0,4,4,4,,,,,0,27,27,27,,,,,,,,,,,,,,,,,,,,,,,,,,,,,,,1,1.2697208469980978,,,,,,,,,,,,,,,,,,,,,,,,,,,,030119_p1,001,2019_Mar_01_1215,body_behavioural,3.0.4,60.006457174885064,
4,"The cashier rolled her eyes when they weren’t looking, and she scanned the rest of his items. ",4,3,,0,4,4,4,,,,,0,28,28,28,,,,,,,,,,,,,,,,,,,,,,,,,,,,,,,1,2.1841563769994536,,,,,,,,,,,,,,,,,,,,,,,,,,,,030119_p1,001,2019_Mar_01_1215,body_behavioural,3.0.4,60.006457174885064,
4,"The total came to $120, and he paid with his credit card.",4,3,,0,4,4,4,,,,,0,29,29,29,,,,,,,,,,,,,,,,,,,,,,,,,,,,,,,1,3.386258712002018,,,,,,,,,,,,,,,,,,,,,,,,,,,,030119_p1,001,2019_Mar_01_1215,body_behavioural,3.0.4,60.006457174885064,
4,"Carina thanked him, and they took the groceries and walked out.",4,3,,0,4,4,4,,,,,0,30,30,30,,,,,,,,,,,,,,,,,,,,,,,,,,,,,,,1,1.219697933000134,,,,,,,,,,,,,,,,,,,,,,,,,,,,030119_p1,001,2019_Mar_01_1215,body_behavioural,3.0.4,60.006457174885064,
4,"As they were walking towards the exit, Carina reluctantly said goodbye since she was running late for the barbeque she was hosting that afternoon.",4,4,,0,4,4,4,,,,,0,31,31,31,,,,,,,,,,,,,,,,,,,,,,,,,,,,,,,9,4.019984635000583,,,,,,,,,,,,,,,,,,,,,,,,,,,,030119_p1,001,2019_Mar_01_1215,body_behavioural,3.0.4,60.006457174885064,
4,"They hugged and parted ways, stealing glances at each other as they both walked back to their cars.",4,4,,0,4,4,4,,,,,0,32,32,32,,,,,,,,,,,,,,,,,,,,,,,,,,,,,,,1,2.56981254999846,,,,,,,,,,,,,,,,,,,,,,,,,,,,030119_p1,001,2019_Mar_01_1215,body_behavioural,3.0.4,60.006457174885064,
4,,,,,0,4,4,4,,,,,,,,,,,,,,,,,,,,,,,,,,,,,,,,,,,,,,,,,,,,,,,,,,,,,,,,,,,,,,,,,,,,030119_p1,001,2019_Mar_01_1215,body_behavioural,3.0.4,60.006457174885064,
5,,,,,0,5,5,5,0,0,0,0,,,,,,,,,,,,,,,,,,,,,,,,,,,,,space,4.4030460880021565,space,0.6173751749993244,space,1.2696006170008332,,,,,,,,,,,,,,,,,,,,,,,,,,,,,,030119_p1,001,2019_Mar_01_1215,body_behavioural,3.0.4,60.006457174885064,
5,"Ms. Bianchi and Ms. Morrison walked into the grocery store at the same time, and, after a moment of mutual recognition, greeted each other and shook hands.",1,1,,0,5,5,5,,,,,0,0,0,0,,,,,,,,,,,,,,,,,,,,,,,,,,,,,,,9,19.601971165000577,,,,,,,,,,,,,,,,,,,,,,,,,,,,030119_p1,001,2019_Mar_01_1215,body_behavioural,3.0.4,60.006457174885064,
5,"“Thank you again for inviting me here to discuss my business proposal,” said Ms. Bianchi, “And it’s a pleasure to be out of the office.” ",1,1,,0,5,5,5,,,,,0,1,1,1,,,,,,,,,,,,,,,,,,,,,,,,,,,,,,,1,4.16989654200006,,,,,,,,,,,,,,,,,,,,,,,,,,,,030119_p1,001,2019_Mar_01_1215,body_behavioural,3.0.4,60.006457174885064,
5,"As a salesperson for an Italian cheese company that was trying to expand its outreach to more mainstream grocery stores, this meeting could be a big break for her.",1,1,,0,5,5,5,,,,,0,2,2,2,,,,,,,,,,,,,,,,,,,,,,,,,,,,,,,1,11.353707239999494,,,,,,,,,,,,,,,,,,,,,,,,,,,,030119_p1,001,2019_Mar_01_1215,body_behavioural,3.0.4,60.006457174885064,
5,"Her sales target, Ms. Morrison,  who had a reputation for being a bit quirky, was a corporate buyer for a large chain grocery store. ",1,1,,0,5,5,5,,,,,0,3,3,3,,,,,,,,,,,,,,,,,,,,,,,,,,,,,,,9,6.903444225001294,,,,,,,,,,,,,,,,,,,,,,,,,,,,030119_p1,001,2019_Mar_01_1215,body_behavioural,3.0.4,60.006457174885064,
5,"She was known for doing things unconventionally: for example, she said that she liked to make deals with suppliers in the place where the products were sold- “to keep their minds focused on what’s important.” ",1,1,,0,5,5,5,,,,,0,4,4,4,,,,,,,,,,,,,,,,,,,,,,,,,,,,,,,1,14.488797141999385,,,,,,,,,,,,,,,,,,,,,,,,,,,,030119_p1,001,2019_Mar_01_1215,body_behavioural,3.0.4,60.006457174885064,
5,"They chatted a little in the front of the grocery store, which was surrounded by pumpkins and halloween decorations set up in special displays for the holiday season.",1,1,,0,5,5,5,,,,,0,5,5,5,,,,,,,,,,,,,,,,,,,,,,,,,,,,,,,9,8.887239820000104,,,,,,,,,,,,,,,,,,,,,,,,,,,,030119_p1,001,2019_Mar_01_1215,body_behavioural,3.0.4,60.006457174885064,
5,"Ms. Bianchi and Ms. Morrison walked to the cheese section, and Ms. Morrison picked up a block of parmesan.",2,1,,0,5,5,5,,,,,0,6,6,6,,,,,,,,,,,,,,,,,,,,,,,,,,,,,,,1,2.5866467070009094,,,,,,,,,,,,,,,,,,,,,,,,,,,,030119_p1,001,2019_Mar_01_1215,body_behavioural,3.0.4,60.006457174885064,
5,“We have quite a selection here.,2,1,,0,5,5,5,,,,,0,7,7,7,,,,,,,,,,,,,,,,,,,,,,,,,,,,,,,1,1.0845274999992398,,,,,,,,,,,,,,,,,,,,,,,,,,,,030119_p1,001,2019_Mar_01_1215,body_behavioural,3.0.4,60.006457174885064,
5,I don’t know that it needs an additional section for more gourmet cheeses.” ,2,1,,0,5,5,5,,,,,0,8,8,8,,,,,,,,,,,,,,,,,,,,,,,,,,,,,,,1,4.553180159997282,,,,,,,,,,,,,,,,,,,,,,,,,,,,030119_p1,001,2019_Mar_01_1215,body_behavioural,3.0.4,60.006457174885064,
5,"Ms. Bianchi's confidence faltered for a minute at this remark, but then she launched into her prepared pitch.",2,1,,0,5,5,5,,,,,0,9,9,9,,,,,,,,,,,,,,,,,,,,,,,,,,,,,,,1,5.436877559997811,,,,,,,,,,,,,,,,,,,,,,,,,,,,030119_p1,001,2019_Mar_01_1215,body_behavioural,3.0.4,60.006457174885064,
5," “Ms. Morrison, I think you would agree that selling food is more than just providing variety, but also about providing the highest quality.",2,2,,0,5,5,5,,,,,0,10,10,10,,,,,,,,,,,,,,,,,,,,,,,,,,,,,,,1,5.153014124996844,,,,,,,,,,,,,,,,,,,,,,,,,,,,030119_p1,001,2019_Mar_01_1215,body_behavioural,3.0.4,60.006457174885064,
5,"You don’t have cheeses made in America that are like ours, it is true.",2,2,,0,5,5,5,,,,,0,11,11,11,,,,,,,,,,,,,,,,,,,,,,,,,,,,,,,1,1.9693320549995406,,,,,,,,,,,,,,,,,,,,,,,,,,,,030119_p1,001,2019_Mar_01_1215,body_behavioural,3.0.4,60.006457174885064,
5,Your store could be providing American consumers with a dimension in taste that they've never known before with our product.,2,2,,0,5,5,5,,,,,0,12,12,12,,,,,,,,,,,,,,,,,,,,,,,,,,,,,,,1,3.752931784998509,,,,,,,,,,,,,,,,,,,,,,,,,,,,030119_p1,001,2019_Mar_01_1215,body_behavioural,3.0.4,60.006457174885064,
5,"I propose that you give it a shot, buy $1000 worth of cheese products for a few stores, and see how the sales increase not only in our cheeses but also in products related to cheeses: crackers, jams, olives. ",2,2,,0,5,5,5,,,,,0,13,13,13,,,,,,,,,,,,,,,,,,,,,,,,,,,,,,,1,9.287025357003586,,,,,,,,,,,,,,,,,,,,,,,,,,,,030119_p1,001,2019_Mar_01_1215,body_behavioural,3.0.4,60.006457174885064,
5,"The availability of a finer product leads to the appreciation of the product, and your consumers will start to consume in a new, more profitable way.”",2,2,,0,5,5,5,,,,,0,14,14,14,,,,,,,,,,,,,,,,,,,,,,,,,,,,,,,1,4.270001004999358,,,,,,,,,,,,,,,,,,,,,,,,,,,,030119_p1,001,2019_Mar_01_1215,body_behavioural,3.0.4,60.006457174885064,
5,"Ms. Bianchi picked up a box of crackers by the cheese section, and said, “Here, I will buy these, and we can try some of our cheeses that I've brought with me.”",2,2,,0,5,5,5,,,,,0,15,15,15,,,,,,,,,,,,,,,,,,,,,,,,,,,,,,,1,8.636447605000285,,,,,,,,,,,,,,,,,,,,,,,,,,,,030119_p1,001,2019_Mar_01_1215,body_behavioural,3.0.4,60.006457174885064,
5,"Ms. Morrison, who was thinking, nodded in agreement and said, “That sounds like a great idea.",2,2,,0,5,5,5,,,,,0,16,16,16,,,,,,,,,,,,,,,,,,,,,,,,,,,,,,,1,4.167597674997523,,,,,,,,,,,,,,,,,,,,,,,,,,,,030119_p1,001,2019_Mar_01_1215,body_behavioural,3.0.4,60.006457174885064,
5,"Let’s head to check out, and those crackers are on me.” ",2,2,,0,5,5,5,,,,,0,17,17,17,,,,,,,,,,,,,,,,,,,,,,,,,,,,,,,1,1.9199210799997672,,,,,,,,,,,,,,,,,,,,,,,,,,,,030119_p1,001,2019_Mar_01_1215,body_behavioural,3.0.4,60.006457174885064,
5,They walked over to the checkout area.,3,2,,0,5,5,5,,,,,0,18,18,18,,,,,,,,,,,,,,,,,,,,,,,,,,,,,,,9,1.7696438969978772,,,,,,,,,,,,,,,,,,,,,,,,,,,,030119_p1,001,2019_Mar_01_1215,body_behavioural,3.0.4,60.006457174885064,
5,"There was a very long line, and it was very busy in the checkout area as people were stocking up for Halloween parties and trick-or-treating. ",3,2,,0,5,5,5,,,,,0,19,19,19,,,,,,,,,,,,,,,,,,,,,,,,,,,,,,,1,11.669175645001815,,,,,,,,,,,,,,,,,,,,,,,,,,,,030119_p1,001,2019_Mar_01_1215,body_behavioural,3.0.4,60.006457174885064,
5,"Since they had almost a 10 minute wait in line, Ms. Bianchi handed a sheet with printed graphs to Ms. Morrison the increase in profits that several other stores had seen after starting to carry their products.",3,2,,0,5,5,5,,,,,0,20,20,20,,,,,,,,,,,,,,,,,,,,,,,,,,,,,,,1,7.0706968669983326,,,,,,,,,,,,,,,,,,,,,,,,,,,,030119_p1,001,2019_Mar_01_1215,body_behavioural,3.0.4,60.006457174885064,
5,"Eventually, Ms. Morrison replied, “You know what, I think you've convinced me that this could work. ",3,3,,0,5,5,5,,,,,0,21,21,21,,,,,,,,,,,,,,,,,,,,,,,,,,,,,,,1,4.969882689998485,,,,,,,,,,,,,,,,,,,,,,,,,,,,030119_p1,001,2019_Mar_01_1215,body_behavioural,3.0.4,60.006457174885064,
5,We've been trying to find a way to add a little European cachet to our stores.,3,3,,0,5,5,5,,,,,0,22,22,22,,,,,,,,,,,,,,,,,,,,,,,,,,,,,,,1,2.119754692001152,,,,,,,,,,,,,,,,,,,,,,,,,,,,030119_p1,001,2019_Mar_01_1215,body_behavioural,3.0.4,60.006457174885064,
5,There's still a problem though - I'm worried we'll be paying out the nose for the import taxes.,3,3,,0,5,5,5,,,,,0,23,23,23,,,,,,,,,,,,,,,,,,,,,,,,,,,,,,,1,2.6698222670020186,,,,,,,,,,,,,,,,,,,,,,,,,,,,030119_p1,001,2019_Mar_01_1215,body_behavioural,3.0.4,60.006457174885064,
5,Is that the case?",3,3,,0,5,5,5,,,,,0,24,24,24,,,,,,,,,,,,,,,,,,,,,,,,,,,,,,,1,0.7529847820005671,,,,,,,,,,,,,,,,,,,,,,,,,,,,030119_p1,001,2019_Mar_01_1215,body_behavioural,3.0.4,60.006457174885064,
5,"It was Ms. Morrison’s turn to checkout, and the two businesswomen continued to talk back and forth as she did so. ",4,3,,0,5,5,5,,,,,0,25,25,25,,,,,,,,,,,,,,,,,,,,,,,,,,,,,,,9,2.8531019049987663,,,,,,,,,,,,,,,,,,,,,,,,,,,,030119_p1,001,2019_Mar_01_1215,body_behavioural,3.0.4,60.006457174885064,
5,"The cashier scanned the crackers, and Ms. Bianchi watched in amusement as Ms. Morrison paid the $6 price entirely in quarters from a wallet bulging with change.",4,3,,0,5,5,5,,,,,0,26,26,26,,,,,,,,,,,,,,,,,,,,,,,,,,,,,,,1,26.2382414599997,,,,,,,,,,,,,,,,,,,,,,,,,,,,030119_p1,001,2019_Mar_01_1215,body_behavioural,3.0.4,60.006457174885064,
5,"They shortly came to an agreement and would have enough cheese shipments, $5000 worth, to different stores to qualify for a subsidized import tax. ",4,4,,0,5,5,5,,,,,0,27,27,27,,,,,,,,,,,,,,,,,,,,,,,,,,,,,,,1,6.83679838000171,,,,,,,,,,,,,,,,,,,,,,,,,,,,030119_p1,001,2019_Mar_01_1215,body_behavioural,3.0.4,60.006457174885064,
5,"Ms. Bianchi retrieved some of her samples from her car, and they toasted their new deal with crackers topped with fresh mozzarella. ",4,4,,0,5,5,5,,,,,0,28,28,28,,,,,,,,,,,,,,,,,,,,,,,,,,,,,,,1,2.71977265500027,,,,,,,,,,,,,,,,,,,,,,,,,,,,030119_p1,001,2019_Mar_01_1215,body_behavioural,3.0.4,60.006457174885064,
5,,,,,0,5,5,5,,,,,,,,,,,,,,,,,,,,,,,,,,,,,,,,,,,,,,,,,,,,,,,,,,,,,,,,,,,,,,,,,,,,030119_p1,001,2019_Mar_01_1215,body_behavioural,3.0.4,60.006457174885064,
6,,,,,0,6,6,6,0,0,0,0,,,,,,,,,,,,,,,,,,,,,,,,,,,,,space,5.2366850819998945,space,0.566563339001732,space,0.7527226360034547,,,,,,,,,,,,,,,,,,,,,,,,,,,,,,030119_p1,001,2019_Mar_01_1215,body_behavioural,3.0.4,60.006457174885064,
6,"Lana walked into lecture holding hands with her boyfriend, Aaron, who was trying to contain his excitement and anticipation for proposing to Lana in this class. ",1,1,,0,6,6,6,,,,,0,0,0,0,,,,,,,,,,,,,,,,,,,,,,,,,,,,,,,9,14.9209016599998,,,,,,,,,,,,,,,,,,,,,,,,,,,,030119_p1,001,2019_Mar_01_1215,body_behavioural,3.0.4,60.006457174885064,
6,"Lana was lost in thought, still puzzling over a calculus problem on her problem set due that night.",1,1,,0,6,6,6,,,,,0,1,1,1,,,,,,,,,,,,,,,,,,,,,,,,,,,,,,,1,5.800637655000173,,,,,,,,,,,,,,,,,,,,,,,,,,,,030119_p1,001,2019_Mar_01_1215,body_behavioural,3.0.4,60.006457174885064,
6,"The lecture hall was the fanciest one at Princeton, with chandeliers, high ceilings, wood floors and double-decker chalkboards.",1,1,,0,6,6,6,,,,,0,2,2,2,,,,,,,,,,,,,,,,,,,,,,,,,,,,,,,1,10.020112467998842,,,,,,,,,,,,,,,,,,,,,,,,,,,,030119_p1,001,2019_Mar_01_1215,body_behavioural,3.0.4,60.006457174885064,
6,"This is where Aaron and Lana had met two years ago during an economics class, and now they were back together in the same lecture hall for their Chemistry class. ",1,1,,0,6,6,6,,,,,0,3,3,3,,,,,,,,,,,,,,,,,,,,,,,,,,,,,,,1,2.7204152029989928,,,,,,,,,,,,,,,,,,,,,,,,,,,,030119_p1,001,2019_Mar_01_1215,body_behavioural,3.0.4,60.006457174885064,
6,The professor caught Aaron's eye as he walked up to the front of the classroom and gave him a wink before the lecture began. ,1,1,,0,6,6,6,,,,,0,4,4,4,,,,,,,,,,,,,,,,,,,,,,,,,,,,,,,9,4.60344687000179,,,,,,,,,,,,,,,,,,,,,,,,,,,,030119_p1,001,2019_Mar_01_1215,body_behavioural,3.0.4,60.006457174885064,
6,Aaron responded with a huge grin. ,1,1,,0,6,6,6,,,,,0,5,5,5,,,,,,,,,,,,,,,,,,,,,,,,,,,,,,,1,1.0871554010009277,,,,,,,,,,,,,,,,,,,,,,,,,,,,030119_p1,001,2019_Mar_01_1215,body_behavioural,3.0.4,60.006457174885064,
6,"The professor cleared his throat and said,“Alright, good afternoon, everyone!",2,1,,0,6,6,6,,,,,0,6,6,6,,,,,,,,,,,,,,,,,,,,,,,,,,,,,,,1,1.8507896670016635,,,,,,,,,,,,,,,,,,,,,,,,,,,,030119_p1,001,2019_Mar_01_1215,body_behavioural,3.0.4,60.006457174885064,
6,"Last week we talked about the structure of the periodic table, and this week the topic is ions.",2,1,,0,6,6,6,,,,,0,7,7,7,,,,,,,,,,,,,,,,,,,,,,,,,,,,,,,1,2.403174470000522,,,,,,,,,,,,,,,,,,,,,,,,,,,,030119_p1,001,2019_Mar_01_1215,body_behavioural,3.0.4,60.006457174885064,
6,These are atoms or molecules in which the number of electrons does not equal the number of protons.,2,1,,0,6,6,6,,,,,0,8,8,8,,,,,,,,,,,,,,,,,,,,,,,,,,,,,,,1,15.38737376499921,,,,,,,,,,,,,,,,,,,,,,,,,,,,030119_p1,001,2019_Mar_01_1215,body_behavioural,3.0.4,60.006457174885064,
6,"Now, let me get my computer set up, one moment, class.”",2,1,,0,6,6,6,,,,,0,9,9,9,,,,,,,,,,,,,,,,,,,,,,,,,,,,,,,1,1.2364437649994215,,,,,,,,,,,,,,,,,,,,,,,,,,,,030119_p1,001,2019_Mar_01_1215,body_behavioural,3.0.4,60.006457174885064,
6,Lana pulled out her Calculus problem set and puzzled over it.,2,1,,0,6,6,6,,,,,0,10,10,10,,,,,,,,,,,,,,,,,,,,,,,,,,,,,,,1,3.1367709999976796,,,,,,,,,,,,,,,,,,,,,,,,,,,,030119_p1,001,2019_Mar_01_1215,body_behavioural,3.0.4,60.006457174885064,
6,"While she was distracted, Aaron unzipped the small pocket in his backpack and pulled out the ring box.",2,2,,0,6,6,6,,,,,0,11,11,11,,,,,,,,,,,,,,,,,,,,,,,,,,,,,,,9,0.9687144970012014,,,,,,,,,,,,,,,,,,,,,,,,,,,,030119_p1,001,2019_Mar_01_1215,body_behavioural,3.0.4,60.006457174885064,
6,He opened it up and looked at the ring.,2,2,,0,6,6,6,,,,,0,12,12,12,,,,,,,,,,,,,,,,,,,,,,,,,,,,,,,1,1.1687216680002166,,,,,,,,,,,,,,,,,,,,,,,,,,,,030119_p1,001,2019_Mar_01_1215,body_behavioural,3.0.4,60.006457174885064,
6,"Instead of one large diamond, there were 5 diamonds embedded in a thick band. ",2,2,,0,6,6,6,,,,,0,13,13,13,,,,,,,,,,,,,,,,,,,,,,,,,,,,,,,1,5.136304620998999,,,,,,,,,,,,,,,,,,,,,,,,,,,,030119_p1,001,2019_Mar_01_1215,body_behavioural,3.0.4,60.006457174885064,
6,He knew Lana would like this because her style was not flashy but more about simple elegance.,2,2,,0,6,6,6,,,,,0,14,14,14,,,,,,,,,,,,,,,,,,,,,,,,,,,,,,,1,3.1700254020033753,,,,,,,,,,,,,,,,,,,,,,,,,,,,030119_p1,001,2019_Mar_01_1215,body_behavioural,3.0.4,60.006457174885064,
6,Aaron put the ring back into the bag as the professor began the lecture. ,3,2,,0,6,6,6,,,,,0,15,15,15,,,,,,,,,,,,,,,,,,,,,,,,,,,,,,,1,1.1696845750011562,,,,,,,,,,,,,,,,,,,,,,,,,,,,030119_p1,001,2019_Mar_01_1215,body_behavioural,3.0.4,60.006457174885064,
6,“Recall from previous lectures that the number of protons determines the identity of the element. ,3,2,,0,6,6,6,,,,,0,16,16,16,,,,,,,,,,,,,,,,,,,,,,,,,,,,,,,9,4.084334217997821,,,,,,,,,,,,,,,,,,,,,,,,,,,,030119_p1,001,2019_Mar_01_1215,body_behavioural,3.0.4,60.006457174885064,
6,"So for example, all atoms of sodium have 11 protons in the nucleus. ",3,2,,0,6,6,6,,,,,0,17,17,17,,,,,,,,,,,,,,,,,,,,,,,,,,,,,,,1,4.419632002998696,,,,,,,,,,,,,,,,,,,,,,,,,,,,030119_p1,001,2019_Mar_01_1215,body_behavioural,3.0.4,60.006457174885064,
6,"And if you look on the periodic table, the atomic number for sodium, the symbol is Na, is eleven.”",3,2,,0,6,6,6,,,,,0,18,18,18,,,,,,,,,,,,,,,,,,,,,,,,,,,,,,,1,6.036465719997068,,,,,,,,,,,,,,,,,,,,,,,,,,,,030119_p1,001,2019_Mar_01_1215,body_behavioural,3.0.4,60.006457174885064,
6,Lana was taking notes while Aaron was texting all of his friends in the class to get ready for the proposal. ,3,2,,0,6,6,6,,,,,0,19,19,19,,,,,,,,,,,,,,,,,,,,,,,,,,,,,,,9,4.571093170001404,,,,,,,,,,,,,,,,,,,,,,,,,,,,030119_p1,001,2019_Mar_01_1215,body_behavioural,3.0.4,60.006457174885064,
6,"Right after talking about how two ions bond into one stable molecule by covalent bonds, the professor stopped the lecture and asked Lana to come to the front of the class to do a demonstration. ",3,2,,0,6,6,6,,,,,0,20,20,20,,,,,,,,,,,,,,,,,,,,,,,,,,,,,,,1,17.937931623000622,,,,,,,,,,,,,,,,,,,,,,,,,,,,030119_p1,001,2019_Mar_01_1215,body_behavioural,3.0.4,60.006457174885064,
6,"She walked to the front of the class confused, and the professor asked her to stand in the middle of the stage.",3,2,,0,6,6,6,,,,,0,21,21,21,,,,,,,,,,,,,,,,,,,,,,,,,,,,,,,1,9.253638972000772,,,,,,,,,,,,,,,,,,,,,,,,,,,,030119_p1,001,2019_Mar_01_1215,body_behavioural,3.0.4,60.006457174885064,
6,"Then Aaron walked up and, taking Lana’s hand, got down on one knee. ",3,3,,0,6,6,6,,,,,0,22,22,22,,,,,,,,,,,,,,,,,,,,,,,,,,,,,,,1,1.169447157997638,,,,,,,,,,,,,,,,,,,,,,,,,,,,030119_p1,001,2019_Mar_01_1215,body_behavioural,3.0.4,60.006457174885064,
6,"“It's time for us to make a bond of our own, Lana.",3,3,,0,6,6,6,,,,,0,23,23,23,,,,,,,,,,,,,,,,,,,,,,,,,,,,,,,1,2.1530610420013545,,,,,,,,,,,,,,,,,,,,,,,,,,,,030119_p1,001,2019_Mar_01_1215,body_behavioural,3.0.4,60.006457174885064,
6,Will you marry me?” ,3,3,,0,6,6,6,,,,,0,24,24,24,,,,,,,,,,,,,,,,,,,,,,,,,,,,,,,1,0.9864668049995089,,,,,,,,,,,,,,,,,,,,,,,,,,,,030119_p1,001,2019_Mar_01_1215,body_behavioural,3.0.4,60.006457174885064,
6,Lana gasped and put her other hand to her mouth and started looking around the room as if trying to convince herself that this was really happening.,3,3,,0,6,6,6,,,,,0,25,25,25,,,,,,,,,,,,,,,,,,,,,,,,,,,,,,,1,2.5527443069950095,,,,,,,,,,,,,,,,,,,,,,,,,,,,030119_p1,001,2019_Mar_01_1215,body_behavioural,3.0.4,60.006457174885064,
6,For a few moments everyone was in suspense waiting for the Lana’s shock to wear off and for her to answer. ,3,3,,0,6,6,6,,,,,0,26,26,26,,,,,,,,,,,,,,,,,,,,,,,,,,,,,,,1,1.401347924998845,,,,,,,,,,,,,,,,,,,,,,,,,,,,030119_p1,001,2019_Mar_01_1215,body_behavioural,3.0.4,60.006457174885064,
6,"Finally, she said, “Yes!”",3,4,,0,6,6,6,,,,,0,27,27,27,,,,,,,,,,,,,,,,,,,,,,,,,,,,,,,1,1.1365038000003551,,,,,,,,,,,,,,,,,,,,,,,,,,,,030119_p1,001,2019_Mar_01_1215,body_behavioural,3.0.4,60.006457174885064,
6,"Aaron put the ring on her finger, and they hugged while the whole class clapped. ",3,4,,0,6,6,6,,,,,0,28,28,28,,,,,,,,,,,,,,,,,,,,,,,,,,,,,,,1,2.686543415002234,,,,,,,,,,,,,,,,,,,,,,,,,,,,030119_p1,001,2019_Mar_01_1215,body_behavioural,3.0.4,60.006457174885064,
6,"Their friends came up and hugged both of them, and the professor gave Aaron a celebratory handshake.",3,4,,0,6,6,6,,,,,0,29,29,29,,,,,,,,,,,,,,,,,,,,,,,,,,,,,,,9,2.0696955649982556,,,,,,,,,,,,,,,,,,,,,,,,,,,,030119_p1,001,2019_Mar_01_1215,body_behavioural,3.0.4,60.006457174885064,
6,"They made their way back to their seats, Lana and Aaron hand-in-hand and beaming. ",3,4,,0,6,6,6,,,,,0,30,30,30,,,,,,,,,,,,,,,,,,,,,,,,,,,,,,,1,1.1531480049961829,,,,,,,,,,,,,,,,,,,,,,,,,,,,030119_p1,001,2019_Mar_01_1215,body_behavioural,3.0.4,60.006457174885064,
6,"The professor then dismissed the class, saying, “That was enough excitement for today!",4,4,,0,6,6,6,,,,,0,31,31,31,,,,,,,,,,,,,,,,,,,,,,,,,,,,,,,1,2.0008364799941774,,,,,,,,,,,,,,,,,,,,,,,,,,,,030119_p1,001,2019_Mar_01_1215,body_behavioural,3.0.4,60.006457174885064,
6,Don’t forget there’s an exam next week on the first two chapters of the textbook.”,4,4,,0,6,6,6,,,,,0,32,32,32,,,,,,,,,,,,,,,,,,,,,,,,,,,,,,,1,2.2365332819972537,,,,,,,,,,,,,,,,,,,,,,,,,,,,030119_p1,001,2019_Mar_01_1215,body_behavioural,3.0.4,60.006457174885064,
6,"As everyone was packing up their notebooks and leaving, Lana was already on her phone calling her family members to tell them the exciting news.",4,4,,0,6,6,6,,,,,0,33,33,33,,,,,,,,,,,,,,,,,,,,,,,,,,,,,,,1,2.669826475001173,,,,,,,,,,,,,,,,,,,,,,,,,,,,030119_p1,001,2019_Mar_01_1215,body_behavioural,3.0.4,60.006457174885064,
6,,,,,0,6,6,6,,,,,,,,,,,,,,,,,,,,,,,,,,,,,,,,,,,,,,,,,,,,,,,,,,,,,,,,,,,,,,,,,,,,030119_p1,001,2019_Mar_01_1215,body_behavioural,3.0.4,60.006457174885064,
7,,,,,0,7,7,7,0,0,0,0,,,,,,,,,,,,,,,,,,,,,,,,,,,,,space,0.9865234569952008,space,0.5025250549952034,space,0.8528596399992239,,,,,,,,,,,,,,,,,,,,,,,,,,,,,,030119_p1,001,2019_Mar_01_1215,body_behavioural,3.0.4,60.006457174885064,
7,"Maria walked into lecture beside Henry, and she was mentally rehearsing what she should say to break up with him.",1,1,,0,7,7,7,,,,,0,0,0,0,,,,,,,,,,,,,,,,,,,,,,,,,,,,,,,9,13.671046441995713,,,,,,,,,,,,,,,,,,,,,,,,,,,,030119_p1,001,2019_Mar_01_1215,body_behavioural,3.0.4,60.006457174885064,
7,"She had been putting it off with a growing sense of dread, and now this lecture was the last chance before she had to leave campus. ",1,1,,0,7,7,7,,,,,0,1,1,1,,,,,,,,,,,,,,,,,,,,,,,,,,,,,,,1,2.967685949995939,,,,,,,,,,,,,,,,,,,,,,,,,,,,030119_p1,001,2019_Mar_01_1215,body_behavioural,3.0.4,60.006457174885064,
7,"The lecture hall was large, with a stage for the lecturer in the front of the room, and tiered seats that stretched up in 15 stacked rows. ",1,1,,0,7,7,7,,,,,0,2,2,2,,,,,,,,,,,,,,,,,,,,,,,,,,,,,,,1,3.6367650449974462,,,,,,,,,,,,,,,,,,,,,,,,,,,,030119_p1,001,2019_Mar_01_1215,body_behavioural,3.0.4,60.006457174885064,
7,"The clock struck 3 pm, and Maria and Henry slid into neighboring seats near the back of the room.",1,1,,0,7,7,7,,,,,0,3,3,3,,,,,,,,,,,,,,,,,,,,,,,,,,,,,,,1,4.787051546998555,,,,,,,,,,,,,,,,,,,,,,,,,,,,030119_p1,001,2019_Mar_01_1215,body_behavioural,3.0.4,60.006457174885064,
7,"“Good afternoon, everybody,” said the professor, fiddling to connect his laptop with the projector.",2,1,,0,7,7,7,,,,,0,4,4,4,,,,,,,,,,,,,,,,,,,,,,,,,,,,,,,9,1.4192191119946074,,,,,,,,,,,,,,,,,,,,,,,,,,,,030119_p1,001,2019_Mar_01_1215,body_behavioural,3.0.4,60.006457174885064,
7,“Welcome to week 4 of Intro to Ancient Philosophy. ,2,1,,0,7,7,7,,,,,0,5,5,5,,,,,,,,,,,,,,,,,,,,,,,,,,,,,,,1,6.119921523000812,,,,,,,,,,,,,,,,,,,,,,,,,,,,030119_p1,001,2019_Mar_01_1215,body_behavioural,3.0.4,60.006457174885064,
7,Today we are going to continue our lecture on Aristotelian Philosophy.”,2,1,,0,7,7,7,,,,,0,6,6,6,,,,,,,,,,,,,,,,,,,,,,,,,,,,,,,1,5.236277092000819,,,,,,,,,,,,,,,,,,,,,,,,,,,,030119_p1,001,2019_Mar_01_1215,body_behavioural,3.0.4,60.006457174885064,
7,Everyone in class pulled out their notebooks and settled in their seats as the slides appeared on the large front screens.,2,1,,0,7,7,7,,,,,0,7,7,7,,,,,,,,,,,,,,,,,,,,,,,,,,,,,,,1,2.019536537998647,,,,,,,,,,,,,,,,,,,,,,,,,,,,030119_p1,001,2019_Mar_01_1215,body_behavioural,3.0.4,60.006457174885064,
7,"“Henry,” Maria whispered.",2,1,,0,7,7,7,,,,,0,8,8,8,,,,,,,,,,,,,,,,,,,,,,,,,,,,,,,9,2.7863257549979608,,,,,,,,,,,,,,,,,,,,,,,,,,,,030119_p1,001,2019_Mar_01_1215,body_behavioural,3.0.4,60.006457174885064,
7,"“Hmm?” he replied, distracted.",2,1,,0,7,7,7,,,,,0,9,9,9,,,,,,,,,,,,,,,,,,,,,,,,,,,,,,,1,0.8679039599956013,,,,,,,,,,,,,,,,,,,,,,,,,,,,030119_p1,001,2019_Mar_01_1215,body_behavioural,3.0.4,60.006457174885064,
7,"“Henry, I need to tell you something really important, and I don’t know when else I’ll have a chance to do it,” she said.",2,1,,0,7,7,7,,,,,0,10,10,10,,,,,,,,,,,,,,,,,,,,,,,,,,,,,,,1,2.985297487997741,,,,,,,,,,,,,,,,,,,,,,,,,,,,030119_p1,001,2019_Mar_01_1215,body_behavioural,3.0.4,60.006457174885064,
7,"“Okay, what's up?”, he said, tilting his head close to her. ",2,1,,0,7,7,7,,,,,0,11,11,11,,,,,,,,,,,,,,,,,,,,,,,,,,,,,,,1,2.0031638120053685,,,,,,,,,,,,,,,,,,,,,,,,,,,,030119_p1,001,2019_Mar_01_1215,body_behavioural,3.0.4,60.006457174885064,
7," “Henry, I don’t think I can do long distance.",2,2,,0,7,7,7,,,,,0,12,12,12,,,,,,,,,,,,,,,,,,,,,,,,,,,,,,,1,0.7183095889995457,,,,,,,,,,,,,,,,,,,,,,,,,,,,030119_p1,001,2019_Mar_01_1215,body_behavioural,3.0.4,60.006457174885064,
7,"I think what we have here is great, but I think it will be really hard when we are so far apart for such an extended period.",2,2,,0,7,7,7,,,,,0,13,13,13,,,,,,,,,,,,,,,,,,,,,,,,,,,,,,,1,3.820441338000819,,,,,,,,,,,,,,,,,,,,,,,,,,,,030119_p1,001,2019_Mar_01_1215,body_behavioural,3.0.4,60.006457174885064,
7,"I’m sorry I’m telling you now in lecture, but I'm out of time, and it’s taken me awhile to come to this decision.",2,2,,0,7,7,7,,,,,0,14,14,14,,,,,,,,,,,,,,,,,,,,,,,,,,,,,,,1,3.0031369619973702,,,,,,,,,,,,,,,,,,,,,,,,,,,,030119_p1,001,2019_Mar_01_1215,body_behavioural,3.0.4,60.006457174885064,
7,"I really think this is best, and who knows what will happen when I get back from my study abroad.” ",2,2,,0,7,7,7,,,,,0,15,15,15,,,,,,,,,,,,,,,,,,,,,,,,,,,,,,,1,3.202223022002727,,,,,,,,,,,,,,,,,,,,,,,,,,,,030119_p1,001,2019_Mar_01_1215,body_behavioural,3.0.4,60.006457174885064,
7,"While Henry tried to think of what to say, he and Maria stared unlistening at the professor as he started the lecture, “First we will talk about Aristotle’s work, The Categories.",3,2,,0,7,7,7,,,,,0,16,16,16,,,,,,,,,,,,,,,,,,,,,,,,,,,,,,,9,7.753695917002915,,,,,,,,,,,,,,,,,,,,,,,,,,,,030119_p1,001,2019_Mar_01_1215,body_behavioural,3.0.4,60.006457174885064,
7,"This text, as you might have been able to guess, is about the kinds, or categories, of things that there are.",3,2,,0,7,7,7,,,,,0,17,17,17,,,,,,,,,,,,,,,,,,,,,,,,,,,,,,,1,4.103084604998003,,,,,,,,,,,,,,,,,,,,,,,,,,,,030119_p1,001,2019_Mar_01_1215,body_behavioural,3.0.4,60.006457174885064,
7,"In fact, our term category comes from this Aristotelian context.” ",3,2,,0,7,7,7,,,,,0,18,18,18,,,,,,,,,,,,,,,,,,,,,,,,,,,,,,,1,2.686601850000443,,,,,,,,,,,,,,,,,,,,,,,,,,,,030119_p1,001,2019_Mar_01_1215,body_behavioural,3.0.4,60.006457174885064,
7,"Henry felt horrible, like the wind had just been knocked out of him.",3,2,,0,7,7,7,,,,,0,19,19,19,,,,,,,,,,,,,,,,,,,,,,,,,,,,,,,9,1.9008207519946154,,,,,,,,,,,,,,,,,,,,,,,,,,,,030119_p1,001,2019_Mar_01_1215,body_behavioural,3.0.4,60.006457174885064,
7,"A few tears started to fall down his cheeks as he whispered back, “Maria, I think we can make it work.",3,3,,0,7,7,7,,,,,0,20,20,20,,,,,,,,,,,,,,,,,,,,,,,,,,,,,,,1,2.2031276380002964,,,,,,,,,,,,,,,,,,,,,,,,,,,,030119_p1,001,2019_Mar_01_1215,body_behavioural,3.0.4,60.006457174885064,
7,I’ll come visit you.,3,3,,0,7,7,7,,,,,0,21,21,21,,,,,,,,,,,,,,,,,,,,,,,,,,,,,,,1,0.6361094800013234,,,,,,,,,,,,,,,,,,,,,,,,,,,,030119_p1,001,2019_Mar_01_1215,body_behavioural,3.0.4,60.006457174885064,
7,It will be fine.,3,3,,0,7,7,7,,,,,0,22,22,22,,,,,,,,,,,,,,,,,,,,,,,,,,,,,,,1,0.6860767269972712,,,,,,,,,,,,,,,,,,,,,,,,,,,,030119_p1,001,2019_Mar_01_1215,body_behavioural,3.0.4,60.006457174885064,
7,I don’t want to break up.”,3,3,,0,7,7,7,,,,,0,23,23,23,,,,,,,,,,,,,,,,,,,,,,,,,,,,,,,1,1.9197816199957742,,,,,,,,,,,,,,,,,,,,,,,,,,,,030119_p1,001,2019_Mar_01_1215,body_behavioural,3.0.4,60.006457174885064,
7,"Maria felt so guilty that she nearly gave in, but forced herself to hold her ground, knowing that this would make things much easier for both of them in the future.",3,3,,0,7,7,7,,,,,0,24,24,24,,,,,,,,,,,,,,,,,,,,,,,,,,,,,,,1,4.03662702699512,,,,,,,,,,,,,,,,,,,,,,,,,,,,030119_p1,001,2019_Mar_01_1215,body_behavioural,3.0.4,60.006457174885064,
7,"She gave his hand a squeeze but shook her head sadly, before turning back to her laptop and half-heartedly taking notes on the lecture which they sat through in painful silence.",3,3,,0,7,7,7,,,,,0,25,25,25,,,,,,,,,,,,,,,,,,,,,,,,,,,,,,,1,4.137153392999608,,,,,,,,,,,,,,,,,,,,,,,,,,,,030119_p1,001,2019_Mar_01_1215,body_behavioural,3.0.4,60.006457174885064,
7,"Finally, the professor was wrapping up, “This is what Aristotle means when he says that an animal’s or plant’s form rather than its matter is its nature. ",4,3,,0,7,7,7,,,,,0,26,26,26,,,,,,,,,,,,,,,,,,,,,,,,,,,,,,,9,12.387536304995592,,,,,,,,,,,,,,,,,,,,,,,,,,,,030119_p1,001,2019_Mar_01_1215,body_behavioural,3.0.4,60.006457174885064,
7,"Alright class, that’s all for today. ",4,3,,0,7,7,7,,,,,0,27,27,27,,,,,,,,,,,,,,,,,,,,,,,,,,,,,,,1,1.1363860669953283,,,,,,,,,,,,,,,,,,,,,,,,,,,,030119_p1,001,2019_Mar_01_1215,body_behavioural,3.0.4,60.006457174885064,
7,"Remember the final exam is coming up next week on Tuesday on the Pre-Socratics, Plato, and Aristotle, so feel free to come by office hours to discuss if you have the inspiration.",4,3,,0,7,7,7,,,,,0,28,28,28,,,,,,,,,,,,,,,,,,,,,,,,,,,,,,,1,6.3532688269988284,,,,,,,,,,,,,,,,,,,,,,,,,,,,030119_p1,001,2019_Mar_01_1215,body_behavioural,3.0.4,60.006457174885064,
7,"And if anyone is doing the 20 page paper in lieu of the final, that’s due next Tuesday as well.",4,3,,0,7,7,7,,,,,0,29,29,29,,,,,,,,,,,,,,,,,,,,,,,,,,,,,,,1,3.086405652000394,,,,,,,,,,,,,,,,,,,,,,,,,,,,030119_p1,001,2019_Mar_01_1215,body_behavioural,3.0.4,60.006457174885064,
7,"Have a good day, folks.” ",4,3,,0,7,7,7,,,,,0,30,30,30,,,,,,,,,,,,,,,,,,,,,,,,,,,,,,,1,0.6526519370017922,,,,,,,,,,,,,,,,,,,,,,,,,,,,030119_p1,001,2019_Mar_01_1215,body_behavioural,3.0.4,60.006457174885064,
7,"Maria and Henry packed up hurriedly, and slipped quickly out of the class before the rest of the crowd. ",4,3,,0,7,7,7,,,,,0,31,31,31,,,,,,,,,,,,,,,,,,,,,,,,,,,,,,,1,2.500880550003785,,,,,,,,,,,,,,,,,,,,,,,,,,,,030119_p1,001,2019_Mar_01_1215,body_behavioural,3.0.4,60.006457174885064,
7,"They hugged outside, and both of them were crying. ",4,4,,0,7,7,7,,,,,0,32,32,32,,,,,,,,,,,,,,,,,,,,,,,,,,,,,,,1,1.0673892220002017,,,,,,,,,,,,,,,,,,,,,,,,,,,,030119_p1,001,2019_Mar_01_1215,body_behavioural,3.0.4,60.006457174885064,
7,"“Maria, I don’t want you to leave.",4,4,,0,7,7,7,,,,,0,33,33,33,,,,,,,,,,,,,,,,,,,,,,,,,,,,,,,9,3.554056879998825,,,,,,,,,,,,,,,,,,,,,,,,,,,,030119_p1,001,2019_Mar_01_1215,body_behavioural,3.0.4,60.006457174885064,
7,I don’t want this to end. ,4,4,,0,7,7,7,,,,,0,34,34,34,,,,,,,,,,,,,,,,,,,,,,,,,,,,,,,1,0.5365280819969485,,,,,,,,,,,,,,,,,,,,,,,,,,,,030119_p1,001,2019_Mar_01_1215,body_behavioural,3.0.4,60.006457174885064,
7,"But if this is what you think is best, I can’t make it otherwise.” ",4,4,,0,7,7,7,,,,,0,35,35,35,,,,,,,,,,,,,,,,,,,,,,,,,,,,,,,1,1.3012093400029698,,,,,,,,,,,,,,,,,,,,,,,,,,,,030119_p1,001,2019_Mar_01_1215,body_behavioural,3.0.4,60.006457174885064,
7,"They hugged one last time, and Maria ran off to get her things from her dorm.",4,4,,0,7,7,7,,,,,0,36,36,36,,,,,,,,,,,,,,,,,,,,,,,,,,,,,,,1,1.737178272996971,,,,,,,,,,,,,,,,,,,,,,,,,,,,030119_p1,001,2019_Mar_01_1215,body_behavioural,3.0.4,60.006457174885064,
7,Henry sadly watched her go. ,4,4,,0,7,7,7,,,,,0,37,37,37,,,,,,,,,,,,,,,,,,,,,,,,,,,,,,,1,0.619348895001167,,,,,,,,,,,,,,,,,,,,,,,,,,,,030119_p1,001,2019_Mar_01_1215,body_behavioural,3.0.4,60.006457174885064,
7,,,,,0,7,7,7,,,,,,,,,,,,,,,,,,,,,,,,,,,,,,,,,,,,,,,,,,,,,,,,,,,,,,,,,,,,,,,,,,,,030119_p1,001,2019_Mar_01_1215,body_behavioural,3.0.4,60.006457174885064,
,,,,,,,,,,,,,,,,,,,,,,,,,,,,,,,,,,,,,,,,,,,,,,,,,1510.6034439270006,space,1.1870353170015733,,,,,,,,,,,,,,,,,,,,,,,,,030119_p1,001,2019_Mar_01_1215,body_behavioural,3.0.4,60.006457174885064,
,,,,The next task in the experiment is to recall each story to the best of your ability.,,,,,,,,,,,,,0,0,0,0,,,,,,,,,,,,,,,,,,,,,,,,,,,,,,,,space,1.869926236999163,,,,,,,,,,,,,,,,,,,,,,,030119_p1,001,2019_Mar_01_1215,body_behavioural,3.0.4,60.006457174885064,
,,,,"You will be presented with the story title, names, the images, and a blank text box for each story.",,,,,,,,,,,,,0,1,1,1,,,,,,,,,,,,,,,,,,,,,,,,,,,,,,,,space,3.2349905820010463,,,,,,,,,,,,,,,,,,,,,,,030119_p1,001,2019_Mar_01_1215,body_behavioural,3.0.4,60.006457174885064,
,,,,Describe the story with as many details as you can remember in the space provided. ,,,,,,,,,,,,,0,2,2,2,,,,,,,,,,,,,,,,,,,,,,,,,,,,,,,,space,1.9698129949974827,,,,,,,,,,,,,,,,,,,,,,,030119_p1,001,2019_Mar_01_1215,body_behavioural,3.0.4,60.006457174885064,
,,,,"When you are finished recalling one story, to move onto the next one hit ‘return’. ",,,,,,,,,,,,,0,3,3,3,,,,,,,,,,,,,,,,,,,,,,,,,,,,,,,,space,1.7697559970038128,,,,,,,,,,,,,,,,,,,,,,,030119_p1,001,2019_Mar_01_1215,body_behavioural,3.0.4,60.006457174885064,
,,,,There is a 5 minute time limit to make your response. ,,,,,,,,,,,,,0,4,4,4,,,,,,,,,,,,,,,,,,,,,,,,,,,,,,,,space,1.153116225003032,,,,,,,,,,,,,,,,,,,,,,,030119_p1,001,2019_Mar_01_1215,body_behavioural,3.0.4,60.006457174885064,
0,,,,,,,,,,,,,,,,,,,,,0,0,0,0,,,,,,,,,,,,,,,,,,,,,,,,,,,,,,space,0.553121065000596,"They are flying back from jamaica after a horrible vacation, where calvin has annoyed jessie constantly by talking about boring stuff like golf and work. they are late when they get to the airport, which makes jessie even angrier. at the security check, calvin makes a comment about how easy it would be to sneak a weapon in with his shoe, which makes her even more angry. she tells him that she's done with his stupid stories and his need to share everything. he is mad, and says that he was just trying to appease her. they talk it out at the gate and decide the breakup is for the best. on the plane, they have different seats. one seat has the number 4 in it and another might have the letter f, i'm not certain. they shake hands before going to their own seats and preparing to go home.",,,,,,,,,,,,,,,,,,,,030119_p1,001,2019_Mar_01_1215,body_behavioural,3.0.4,60.006457174885064,
1,,,,,,,,,,,,,,,,,,,,,0,1,1,1,,,,,,,,,,,,,,,,,,,,,,,,,,,,,,space,0.9697857450009906,"Sven and isabel had a fantastic week in barcelona with isabel's family, and now sven is certain he wants to propose to her. they are slightly short on time at the airport but have already checked in and have no checked luggage. sven looks at the ring he bought and feels very excited. he has already spoken to her parents about proposing. they go to security and isabel realizes she has a laptop in the bottom of her duffel bag, so she has to take everything out and pile it on top of sven while she digs it out. she then has to take off her boots, which takes a long time. sven puts his stuff on the little security belt thing and then goes through the metal detector. because he has the ring in his pocket, he is pulled aside and made to empty his pockets. he is forced to propose to isabel on the spot. she is shocked and runs off towards the gate. at the gate she says yes, and they are very happy. they get on the flight and have a glass of champagne to celebrate. other customers who watched the proposal happen congratulate them. ",,,,,,,,,,,,,,,,,,,,030119_p1,001,2019_Mar_01_1215,body_behavioural,3.0.4,60.006457174885064,
2,,,,,,,,,,,,,,,,,,,,,0,2,2,2,,,,,,,,,,,,,,,,,,,,,,,,,,,,,,space,1.0174412120031775,"Teresa runs into the glass door of the restaurant trying to walk in, which james finds very endearing. they are both alone and so are taken to the counter to sit next to eachother to eat. the restaurant is cabin themed and has wood panneling, flannel on the walls, and dead animals hung up for deccoration. teresa sits and reads a book and james asks her about her head in order to initiate a conversation. she tells him that she has been stung by a scorpion before while studying abroad in egypt, and so little pains like hitting her head don't hurt that much for her. she orders a western omlet and a glass of milk, and james orders two pancakes and hot chocolate. they continue to chat, and james invites her to a concert he is going to later. she says yes. james moves closer to her when the food arrives and they share their meals, both of which are awful because they think the chef mixed up salt and sugar.",,,,,,,,,,,,,,,,,,,,030119_p1,001,2019_Mar_01_1215,body_behavioural,3.0.4,60.006457174885064,
3,,,,,,,,,,,,,,,,,,,,,0,3,3,3,,,,,,,,,,,,,,,,,,,,,,,,,,,,,,space,0.7864913130033528,"Mr shelton has a large, international airplane manufacturing company. mr gordon's is smaller but with tech that is predicted to disrupt the airplane manufacturing industry. they are having lunch in a very fancy restaurant with high ceilings and chandeliers, and they sit next to the fireplace. the menu has italian food such as tiramasu. mr shelton orders medium rare steak and a martini. mr gordon orders veal and a manhattan. mr shelton proposes buying mr gordon's company and keeping him on as director, because he knows that mr gordon's compary does not have the resources for international reach right now, and that by the time they get those resources other competitors will have taken advantage of their special tech. mr gordon says he does not think his company is ready to become part of such a large scale company and that he's worried about it being suffocated. mr shelton prepared for this and begins to tell him about all the other small companies he's bought and merged under his. mr gordon becomes more and more convinced and after making certain he will still be in charge of making decisions and his workers will stay on, he agrees to the deal.",,,,,,,,,,,,,,,,,,,,030119_p1,001,2019_Mar_01_1215,body_behavioural,3.0.4,60.006457174885064,
4,,,,,,,,,,,,,,,,,,,,,0,4,4,4,,,,,,,,,,,,,,,,,,,,,,,,,,,,,,space,1.1537968100019498,"Simon and carina enter the grocery store at the same time. it is large and industrial, with food in big packages and factory-like ceilings. they part ways but reunite at the meat section. they both want to talk to eachother but are uncertain how. carina makes a comment about one of the meat products, calling it cute. simon says it is the little brother of the chicken they are also selling. carina says it is an unlucky family. they keep chatting and getting along as they move towards the check out line. the line is very short, which dissapoints them, because it meants they have less time to talk. simon proposes taking carina out for dinner in harvard square, because she has not had time to see much of the city yet. she agrees and is very happy. as a grand gesture simon pays for her groceries too, and tells her their time in the store has been sort of like a date. the total is 120 dollars and he pays with credit card. carina has to go first because she has to go to a barbeque for a hospital, or something like that. i don't fully remember why she leaves. ",,,,,,,,,,,,,,,,,,,,030119_p1,001,2019_Mar_01_1215,body_behavioural,3.0.4,60.006457174885064,
5,,,,,,,,,,,,,,,,,,,,,0,5,5,5,,,,,,,,,,,,,,,,,,,,,,,,,,,,,,space,0.7365336020011455,"Ms bianchi makes italian cheeses and wants them sold in grocery stores. ms morrison does something important and business related for these grocery stores. she is known for being quirky and wants to hold the meeting in the place where the products will be sold, so they are standing outside a grocery store. there are halloween deccorations outside. they go inside and look at the cheese section. ms morrison picks up a parmesan and says that they already have so much cheese and may not need ms. bianchi's. ms. bianchi is made nervous by that comment, but tells her that the international aspect of her cheese will place them above regular american cheese, and says that within a short amount of time of selling her cheese, both cheese sales and cheese product sales, for example crackers, will have gone up. to convince ms morrison, she says she will buy some of the crackers sold and they will taste her cheese on top of them. ms morrison agrees and says she will pay for it. there is a long line at the checkout and so ms bianchi has more time to talk to ms morrison and show her charts to further convince her. ms morrison is convinced but worried about taxes. they decide ms morrison's company will order 5000 dollars worth in order to get some sort of tax break. ms morrison then pays 6 dollars for the crackers in all quarters, and they celebrate by eating mozzerella on top of the crackers in the parking lot.",,,,,,,,,,,,,,,,,,,,030119_p1,001,2019_Mar_01_1215,body_behavioural,3.0.4,60.006457174885064,
6,,,,,,,,,,,,,,,,,,,,,0,6,6,6,,,,,,,,,,,,,,,,,,,,,,,,,,,,,,space,0.6695780849986477,"Aaron and lana are going to chemistry in the fanciest lecture hall in princeton, which has high ceilings and chandeliers. aaron wants to propose to lana here, because they met in this lecture hall two years ago. he has spoken with the professor and has it all planned out. lana is stressed about a problem set and trying to work on it as the lecture begins. they are talking about ionic bonds, and the professor uses sodium as an example, talking about its atomic number and its symbol on the periodic table. aaron is texting all of his friends to tell them to get ready for the proposal. the professor begins to talk about covalent bonds, and asks lana to come to the front of the room for an example. aaron goes up and proposes, saying they need to make their own bond. the ring has 5 diamonds in the band instead of 1 large diamond, because lana likes things simple and elegant. she says yes, and they are very happy. the professor says that was enough excitement for the day and that class is over, and reminds them that they have an exam next week on chapters 1 and 2. ",,,,,,,,,,,,,,,,,,,,030119_p1,001,2019_Mar_01_1215,body_behavioural,3.0.4,60.006457174885064,
7,,,,,,,,,,,,,,,,,,,,,0,7,7,7,,,,,,,,,,,,,,,,,,,,,,,,,,,,,,space,0.6525965620021452,"Maria and henry are going into their intro to ancient philosophy class. maria knows she needs to break up with henry. the lecture hall is large and has rows of stacked seats. the professor  begins the lecture by saying they will be talking about aristotle's categories. maria whispers to henry that they need to break up because she doesn't think they can do long distance while she is abroad. henry is shocked and starts crying, asking her not to do this. she is upset too but holds her ground and insists on them breaking up. she then begins half heartedly taking notes as the professor talks about how the true essence of the plant or animal is the form, not the matter. the lecture ends and the professor reminds the class that there is an exam on tuesday on the pre-socratics, plato, and aristotle. there is also an option to write a 20 page paper instead of taking the exam, which is also due on tuesday. outside, maria and henry agree that the breakup is for the best and hug eachother. ",,,,,,,,,,,,,,,,,,,,030119_p1,001,2019_Mar_01_1215,body_behavioural,3.0.4,60.006457174885064,
,,,,,,,,,,,,,,,,,,,,,,,,,,,,,,,,,,,,,,,,,,,,,,,,,,,,,,,,,2967.0013152570027,space,0.8530238070015912,,,,,,,,,,,,,,,,,030119_p1,001,2019_Mar_01_1215,body_behavioural,3.0.4,60.006457174885064,
,,,,The next part of the task is to answer 8 questions about each story.,,,,,,,,,,,,,,,,,,,,,0,0,0,0,,,,,,,,,,,,,,,,,,,,,,,,,,,,,,,,space,2.4033542949982802,,,,,,,,,,,,,,,030119_p1,001,2019_Mar_01_1215,body_behavioural,3.0.4,60.006457174885064,
,,,,Some of the questions are not related to the perspective you were asked to assume.,,,,,,,,,,,,,,,,,,,,,0,1,1,1,,,,,,,,,,,,,,,,,,,,,,,,,,,,,,,,space,2.536457021997194,,,,,,,,,,,,,,,030119_p1,001,2019_Mar_01_1215,body_behavioural,3.0.4,60.006457174885064,
,,,,"We realize that we did not tell you to think of these questions during the story, but do your best to answer them.",,,,,,,,,,,,,,,,,,,,,0,2,2,2,,,,,,,,,,,,,,,,,,,,,,,,,,,,,,,,space,2.5864446319974377,,,,,,,,,,,,,,,030119_p1,001,2019_Mar_01_1215,body_behavioural,3.0.4,60.006457174885064,
,,,,"When you have finished typing your answer, hit ‘return’ to submit your answer and move onto the next question. ",,,,,,,,,,,,,,,,,,,,,0,3,3,3,,,,,,,,,,,,,,,,,,,,,,,,,,,,,,,,space,2.369889335001062,,,,,,,,,,,,,,,030119_p1,001,2019_Mar_01_1215,body_behavioural,3.0.4,60.006457174885064,
0,,,,,,,,,,,,,,,,,,,,,,,,,,,,,0,0,0,0,,,,,,,,,,,,,,,,,,,,,,,,"Kind of, they agree the breakup is necessary and shake hands.",,,,,,space,0.7364719800025341,45 minutes,non-primed first,"Very little, not even take their shoes off",Deeply unhappy and angry,"One sits in 4f, and one in 1b. these are guesses but i vaguely remember those numbers being somewhere in the story.","Jessie is very frusterated with calvin and has been for sometime, and is irritated with his behavior at the airport.","Calvin has a need to constantly share boring and annoying stories, such as his stories about golf and work.","He is first very quiet and then very angry and lashes out, saying he was just trying to appease her with his stories.","Kind of, they agree the breakup is necessary and shake hands.",,,,030119_p1,001,2019_Mar_01_1215,body_behavioural,3.0.4,60.006457174885064,
1,,,,,,,,,,,,,,,,,,,,,,,,,,,,,0,1,1,1,,,,,,,,,,,,,,,,,,,,,,,,"They sit next to eachother, maybe near the front",,,,,,space,1.2866147699969588,"He is very nervous but loves isabel and has been preparing for this moment, although not in the way it happens.",non-primed first,Pretty,"He spoke with her parents beforehand, but no one helps except the tsa officer indirectly by pulling him aside and making him empty his pockets.",Everyone in line or working at the security checkpoint.,A little over an hour,Take their shoes off and their laptops out of their bags,"Shocked, happy","They sit next to eachother, maybe near the front",,,,030119_p1,001,2019_Mar_01_1215,body_behavioural,3.0.4,60.006457174885064,
2,,,,,,,,,,,,,,,,,,,,,,,,,,,,,0,2,2,2,,,,,,,,,,,,,,,,,,,,,,,,It is terrible,,,,,,space,0.8363023450001492,James notices teresa because she is cute and because she walks into a door,non-primed first,James asks teresa how her head is,James proposes going to a concert,James leaves first for work,"It is like a cabin and has wood panneling, flannels, and dead animals hung up",It is mainly breakfast food,"Teresa orders a western style omlet and a glass of milk, james orders pancakes and hot chocolate",It is terrible,,,,030119_p1,001,2019_Mar_01_1215,body_behavioural,3.0.4,60.006457174885064,
3,,,,,,,,,,,,,,,,,,,,,,,,,,,,,0,3,3,3,,,,,,,,,,,,,,,,,,,,,,,,They reach a deal,,,,,,space,0.6526890419991105,"It is super fancy, with high ceilings, chandeliers, and a fire place.",non-primed first,"There is a lot of italian food on them, and i would assume there is a lot of meat because that is what the restaurant is known for","Mr shelton orders medium rare steak and a martini, mr gordon orders veal and a manhattan","It is delicious, the restaurant is known for its meat",Airplane manufacturing ,"Mr shelton wants to buy mr gordon's smaller, tech-focused company. there is a lot of money at stake","Mr gordon initially says that he does not think his company is ready to become so large and international, but mr shelton is able to convince him by showing him how he has handled taking on smaller companies before",They reach a deal,,,,030119_p1,001,2019_Mar_01_1215,body_behavioural,3.0.4,60.006457174885064,
4,,,,,,,,,,,,,,,,,,,,,,,,,,,,,0,4,4,4,,,,,,,,,,,,,,,,,,,,,,,,"They are 120 dollars, simon pays with a credit card",,,,,,space,0.6369448770055897,They notice each other at the same time because they almost crash into each other,primed first,Carina makes a comment about a meat product,Simon proposes taking carina out to dinner in harvard square,Carina leaves first for some work event involving a barbeque and a hospital,"It is large and kind of looks like a factory, it has something industrial about its ceilings and food in large packages",Meat,It is very short,"They are 120 dollars, simon pays with a credit card",,,,030119_p1,001,2019_Mar_01_1215,body_behavioural,3.0.4,60.006457174885064,
5,,,,,,,,,,,,,,,,,,,,,,,,,,,,,0,5,5,5,,,,,,,,,,,,,,,,,,,,,,,,"They reach a deal, ms morrison will order 5000 dollars worth of cheese and distribute it amongst stores in order to have a tax break",,,,,,space,0.4691261099942494,It is nice and deccorated for halloween,primed first,Ms morrison picks up a parmesan cheese but does not buy it. ms bianchi picks out a box of crackers,"It is very long, they wait for 20 minutes","They are 6 dollars, ms morrison pays in quarters",Food production/grocery store managing,Ms bianchi wants to sell her italian cheese in more grocery stores,"Ms morrison says she is worried about the taxes, but is then convinced","They reach a deal, ms morrison will order 5000 dollars worth of cheese and distribute it amongst stores in order to have a tax break",,,,030119_p1,001,2019_Mar_01_1215,body_behavioural,3.0.4,60.006457174885064,
6,,,,,,,,,,,,,,,,,,,,,,,,,,,,,0,6,6,6,,,,,,,,,,,,,,,,,,,,,,,,The whole class,,,,,,space,0.6037934129999485,"It is large and very fancy, with high ceilings and chandeliers",non-primed first,"They are in chemistry, they are talking about bonds. specifically they talk about ionic and covalent bonds","Sodium's atomic number is 11, its symbol is na",Next week there is an exam on chapters 1 and 2,"Aaron is very nervous, but excited",It has 5 diamonds along the band instead of 1 large one,The professor helps by bringing lana to the front of the room. aaron's friends also know it is happening,The whole class,,,,030119_p1,001,2019_Mar_01_1215,body_behavioural,3.0.4,60.006457174885064,
