count,storyText,locationEvent,socialEvent,locationEventSize,socialEventSize,instructText,trials.thisRepN,trials.thisTrialN,trials.thisN,trials.thisIndex,trials_7.thisRepN,trials_7.thisTrialN,trials_7.thisN,trials_7.thisIndex,trials_2.thisRepN,trials_2.thisTrialN,trials_2.thisN,trials_2.thisIndex,trials_3.thisRepN,trials_3.thisTrialN,trials_3.thisN,trials_3.thisIndex,trials_4.thisRepN,trials_4.thisTrialN,trials_4.thisN,trials_4.thisIndex,trials_5.thisRepN,trials_5.thisTrialN,trials_5.thisN,trials_5.thisIndex,trials_6.thisRepN,trials_6.thisTrialN,trials_6.thisN,trials_6.thisIndex,trials_8.thisRepN,trials_8.thisTrialN,trials_8.thisN,trials_8.thisIndex,order of stories,order of perspectives,key_resp_8.keys,key_resp_8.rt,key_resp_5.keys,key_resp_5.rt,key_resp_7.keys,key_resp_7.rt,story_presses.keys,story_presses.rt,story time,key_resp_6.keys,key_resp_6.rt,key_resp_2.keys,key_resp_2.rt,key_resp_10.keys,key_resp_10.rt,recall,recall time,key_resp_12.keys,key_resp_12.rt,key_resp_3.keys,key_resp_3.rt,key_resp_11.keys,key_resp_11.rt,question1_answer,order of question,question2_answer,question3_answer,question4_answer,question5_answer,question6_answer,question7_answer,question8_answer,questions time,key_resp_13.keys,key_resp_13.rt,participant,session,date,expName,psychopyVersion,frameRate,
0,,,,,,,0,0,0,0,0,0,0,0,,,,,,,,,,,,,,,,,,,,,,,,,[34 21 41 33 42 22 13 14],"['Location' 'Social' 'Location' 'Social' 'Social' 'Location' 'Location'
 'Social']",space,20.25646990700625,space,1.2526685370030464,space,1.4698192670039134,,,,,,,,,,,,,,,,,,,,,,,,,,,,,,030419_p1,001,2019_Mar_04_1017,body_behavioural,3.0.4,59.965027196159745,
0,,,,,,,0,0,0,0,1,0,1,0,,,,,,,,,,,,,,,,,,,,,,,,,,,,,,,space,0.6695274750018143,,,,,,,,,,,,,,,,,,,,,,,,,,,,,,030419_p1,001,2019_Mar_04_1017,body_behavioural,3.0.4,59.965027196159745,
0,Charlie saw Alma as they walked into class and he motioned for her to come sit in the back next to him: they had business to discuss.,1,1,,,,0,0,0,0,,,,,0,0,0,0,,,,,,,,,,,,,,,,,,,,,,,,,,,,,1,31.505607524995867,,,,,,,,,,,,,,,,,,,,,,,,,,,,030419_p1,001,2019_Mar_04_1017,body_behavioural,3.0.4,59.965027196159745,
0,Charlie and Alma were both economics students with entrepreneurial bents.,1,1,,,,0,0,0,0,,,,,0,1,1,1,,,,,,,,,,,,,,,,,,,,,,,,,,,,,1,3.336611061997246,,,,,,,,,,,,,,,,,,,,,,,,,,,,030419_p1,001,2019_Mar_04_1017,body_behavioural,3.0.4,59.965027196159745,
0,They were also both very busy and in the same class.,1,1,,,,0,0,0,0,,,,,0,2,2,2,,,,,,,,,,,,,,,,,,,,,,,,,,,,,1,1.719458712002961,,,,,,,,,,,,,,,,,,,,,,,,,,,,030419_p1,001,2019_Mar_04_1017,body_behavioural,3.0.4,59.965027196159745,
0,"After talking at a party, Charlie had discovered that Alma was looking for financing for her web development company.",1,1,,,,0,0,0,0,,,,,0,3,3,3,,,,,,,,,,,,,,,,,,,,,,,,,,,,,9,5.3533455899960245,,,,,,,,,,,,,,,,,,,,,,,,,,,,030419_p1,001,2019_Mar_04_1017,body_behavioural,3.0.4,59.965027196159745,
0,It was serendipitous because he had been talking with other members of his venture capital group about making an investment. ,1,1,,,,0,0,0,0,,,,,0,4,4,4,,,,,,,,,,,,,,,,,,,,,,,,,,,,,9,2.4361738820007304,,,,,,,,,,,,,,,,,,,,,,,,,,,,030419_p1,001,2019_Mar_04_1017,body_behavioural,3.0.4,59.965027196159745,
0,"His financial group had come to a decision that morning about Alma’s idea, and he didn't want to wait until after class to discuss the proposal with her. ",1,1,,,,0,0,0,0,,,,,0,5,5,5,,,,,,,,,,,,,,,,,,,,,,,,,,,,,9,9.286981739998737,,,,,,,,,,,,,,,,,,,,,,,,,,,,030419_p1,001,2019_Mar_04_1017,body_behavioural,3.0.4,59.965027196159745,
0,"The class was in a large auditorium with small, foldable desks on the side of each cushioned chair. ",1,1,,,,0,0,0,0,,,,,0,6,6,6,,,,,,,,,,,,,,,,,,,,,,,,,,,,,1,1.8030359070035047,,,,,,,,,,,,,,,,,,,,,,,,,,,,030419_p1,001,2019_Mar_04_1017,body_behavioural,3.0.4,59.965027196159745,
0,"There were large windows on both sides of the hall, and they could see the first flurries of a winter storm starting outside. ",1,1,,,,0,0,0,0,,,,,0,7,7,7,,,,,,,,,,,,,,,,,,,,,,,,,,,,,1,1.9027066670023487,,,,,,,,,,,,,,,,,,,,,,,,,,,,030419_p1,001,2019_Mar_04_1017,body_behavioural,3.0.4,59.965027196159745,
0,"“Here we are at Lecture Seven already in History of the Eternal City,” said the professor. ",2,1,,,,0,0,0,0,,,,,0,8,8,8,,,,,,,,,,,,,,,,,,,,,,,,,,,,,1,2.886464999995951,,,,,,,,,,,,,,,,,,,,,,,,,,,,030419_p1,001,2019_Mar_04_1017,body_behavioural,3.0.4,59.965027196159745,
0,“We're going to talk today about the age of the first Roman emperor: Augustus.” ,2,1,,,,0,0,0,0,,,,,0,9,9,9,,,,,,,,,,,,,,,,,,,,,,,,,,,,,1,1.18631438799639,,,,,,,,,,,,,,,,,,,,,,,,,,,,030419_p1,001,2019_Mar_04_1017,body_behavioural,3.0.4,59.965027196159745,
0,"She went into some recap of the last lecture, and Charlie took this as an opportunity to start talking to Alma.",2,1,,,,0,0,0,0,,,,,0,10,10,10,,,,,,,,,,,,,,,,,,,,,,,,,,,,,1,2.3531057050058735,,,,,,,,,,,,,,,,,,,,,,,,,,,,030419_p1,001,2019_Mar_04_1017,body_behavioural,3.0.4,59.965027196159745,
0,"“Okay so I’ve been thinking about your startup idea, and I have talked about it with my fellow investors.",2,2,,,,0,0,0,0,,,,,0,11,11,11,,,,,,,,,,,,,,,,,,,,,,,,,,,,,9,1.318730532999325,,,,,,,,,,,,,,,,,,,,,,,,,,,,030419_p1,001,2019_Mar_04_1017,body_behavioural,3.0.4,59.965027196159745,
0,We’d like to invest half of what you originally suggested.,2,2,,,,0,0,0,0,,,,,0,12,12,12,,,,,,,,,,,,,,,,,,,,,,,,,,,,,9,1.5870626350006205,,,,,,,,,,,,,,,,,,,,,,,,,,,,030419_p1,001,2019_Mar_04_1017,body_behavioural,3.0.4,59.965027196159745,
0,"Rather than $30,000, we start with $15,000.",2,2,,,,0,0,0,0,,,,,0,13,13,13,,,,,,,,,,,,,,,,,,,,,,,,,,,,,9,1.219712696998613,,,,,,,,,,,,,,,,,,,,,,,,,,,,030419_p1,001,2019_Mar_04_1017,body_behavioural,3.0.4,59.965027196159745,
0,We would see how the company does and then invest the other half later.” ,2,2,,,,0,0,0,0,,,,,0,14,14,14,,,,,,,,,,,,,,,,,,,,,,,,,,,,,9,1.5031638749933336,,,,,,,,,,,,,,,,,,,,,,,,,,,,030419_p1,001,2019_Mar_04_1017,body_behavioural,3.0.4,59.965027196159745,
0,"Alma, tapping her pen on her notebook, narrowed her eyes and pursed her lips.",2,2,,,,0,0,0,0,,,,,0,15,15,15,,,,,,,,,,,,,,,,,,,,,,,,,,,,,9,1.5008489020037814,,,,,,,,,,,,,,,,,,,,,,,,,,,,030419_p1,001,2019_Mar_04_1017,body_behavioural,3.0.4,59.965027196159745,
0,She turned back to the lecture as she considered this.,2,2,,,,0,0,0,0,,,,,0,16,16,16,,,,,,,,,,,,,,,,,,,,,,,,,,,,,9,1.4201161070013768,,,,,,,,,,,,,,,,,,,,,,,,,,,,030419_p1,001,2019_Mar_04_1017,body_behavioural,3.0.4,59.965027196159745,
0,"The professor was going on: “The senate had conferred upon him the title of Augustus the sacred and revered one, the restorer of traditional values, the city’s new religious leader, the restorer of temples. ",3,2,,,,0,0,0,0,,,,,0,17,17,17,,,,,,,,,,,,,,,,,,,,,,,,,,,,,1,4.520794038995518,,,,,,,,,,,,,,,,,,,,,,,,,,,,030419_p1,001,2019_Mar_04_1017,body_behavioural,3.0.4,59.965027196159745,
0,"Augustus also sought to beautify Rome, make it into a new Athens, and dispel the criticisms of Rome as disorganized and ugly.”",3,2,,,,0,0,0,0,,,,,0,18,18,18,,,,,,,,,,,,,,,,,,,,,,,,,,,,,1,3.7032928750049905,,,,,,,,,,,,,,,,,,,,,,,,,,,,030419_p1,001,2019_Mar_04_1017,body_behavioural,3.0.4,59.965027196159745,
0,"Alma turned back to Charlie and offered her rebuttal, “I don’t know about that: it’s not going to be possible to implement our ideas effectively unless the project is fully funded. ",3,3,,,,0,0,0,0,,,,,0,19,19,19,,,,,,,,,,,,,,,,,,,,,,,,,,,,,9,5.58642119999422,,,,,,,,,,,,,,,,,,,,,,,,,,,,030419_p1,001,2019_Mar_04_1017,body_behavioural,3.0.4,59.965027196159745,
0,We would have to find other investors and that would set us back in our timeline. ,3,3,,,,0,0,0,0,,,,,0,20,20,20,,,,,,,,,,,,,,,,,,,,,,,,,,,,,9,2.0362379670041264,,,,,,,,,,,,,,,,,,,,,,,,,,,,030419_p1,001,2019_Mar_04_1017,body_behavioural,3.0.4,59.965027196159745,
0,"Our profit projections assumed we'd be starting relatively soon, not months down the line.” ",3,3,,,,0,0,0,0,,,,,0,21,21,21,,,,,,,,,,,,,,,,,,,,,,,,,,,,,9,6.617828362002911,,,,,,,,,,,,,,,,,,,,,,,,,,,,030419_p1,001,2019_Mar_04_1017,body_behavioural,3.0.4,59.965027196159745,
0,They whispered back and forth during the whole class in order to work out a compromise. ,3,3,,,,0,0,0,0,,,,,0,22,22,22,,,,,,,,,,,,,,,,,,,,,,,,,,,,,9,1.8696164170032716,,,,,,,,,,,,,,,,,,,,,,,,,,,,030419_p1,001,2019_Mar_04_1017,body_behavioural,3.0.4,59.965027196159745,
0,"Finally, the class ended, and the professor dismissed the students with a reminder that the midterm paper was due on Thursday and that they should email their papers to the TA.",4,3,,,,0,0,0,0,,,,,0,23,23,23,,,,,,,,,,,,,,,,,,,,,,,,,,,,,1,3.886651642002107,,,,,,,,,,,,,,,,,,,,,,,,,,,,030419_p1,001,2019_Mar_04_1017,body_behavioural,3.0.4,59.965027196159745,
0,"Everyone, except Charlie and Alma, packed up their things and headed out of the lecture hall to get to their next class. ",4,3,,,,0,0,0,0,,,,,0,24,24,24,,,,,,,,,,,,,,,,,,,,,,,,,,,,,1,2.819773212002474,,,,,,,,,,,,,,,,,,,,,,,,,,,,030419_p1,001,2019_Mar_04_1017,body_behavioural,3.0.4,59.965027196159745,
0,"“Alright, so we’ll have the $30,000 wired to you by tomorrow,” Charlie said. ",4,4,,,,0,0,0,0,,,,,0,25,25,25,,,,,,,,,,,,,,,,,,,,,,,,,,,,,1,4.186745205006446,,,,,,,,,,,,,,,,,,,,,,,,,,,,030419_p1,001,2019_Mar_04_1017,body_behavioural,3.0.4,59.965027196159745,
0,"This wasn't ideal for Charlie, but Alma had refused to budge, and his investment group had told him they were willing to pay the full amount if necessary. ",4,4,,,,0,0,0,0,,,,,0,26,26,26,,,,,,,,,,,,,,,,,,,,,,,,,,,,,1,4.551034987001913,,,,,,,,,,,,,,,,,,,,,,,,,,,,030419_p1,001,2019_Mar_04_1017,body_behavioural,3.0.4,59.965027196159745,
0,"They shook hands, walked out of the now-empty lecture hall, and made plans to sign the official paperwork the next day.",4,4,,,,0,0,0,0,,,,,0,27,27,27,,,,,,,,,,,,,,,,,,,,,,,,,,,,,1,2.7363302869998734,,,,,,,,,,,,,,,,,,,,,,,,,,,,030419_p1,001,2019_Mar_04_1017,body_behavioural,3.0.4,59.965027196159745,
0,,,,,,,0,0,0,0,,,,,,,,,,,,,,,,,,,,,,,,,,,,,,,,,,,,,,,,,,,,,,,,,,,,,,,,,,,,,,,,,,030419_p1,001,2019_Mar_04_1017,body_behavioural,3.0.4,59.965027196159745,
1,,,,,,,0,1,1,1,0,0,0,0,,,,,,,,,,,,,,,,,,,,,,,,,,,space,1.5674300449973089,space,0.8863137970038224,space,1.1531756519980263,,,,,,,,,,,,,,,,,,,,,,,,,,,,,,030419_p1,001,2019_Mar_04_1017,body_behavioural,3.0.4,59.965027196159745,
1,"Alvira and Senna walked into the restaurant hand in sweaty hand with quite different expectations: Senna was going to propose tonight, and Alvira had no idea.",1,1,None,None,,0,1,1,1,,,,,0,0,0,0,,,,,,,,,,,,,,,,,,,,,,,,,,,,,1,17.904016165004577,,,,,,,,,,,,,,,,,,,,,,,,,,,,030419_p1,001,2019_Mar_04_1017,body_behavioural,3.0.4,59.965027196159745,
1,"He took a deep breath, trying to calm his nerves as worst case scenarios ran through his mind. ",1,1,None,None,,0,1,1,1,,,,,0,1,1,1,,,,,,,,,,,,,,,,,,,,,,,,,,,,,1,2.0367225970039726,,,,,,,,,,,,,,,,,,,,,,,,,,,,030419_p1,001,2019_Mar_04_1017,body_behavioural,3.0.4,59.965027196159745,
1,The entrance of the restaurant was dazzling; chandeliers spread their warm light onto the delicate place settings of all the tables filled with guests dressed to the nines. ,1,1,None,None,,0,1,1,1,,,,,0,2,2,2,,,,,,,,,,,,,,,,,,,,,,,,,,,,,9,3.1508536620021914,,,,,,,,,,,,,,,,,,,,,,,,,,,,030419_p1,001,2019_Mar_04_1017,body_behavioural,3.0.4,59.965027196159745,
1,"Through the floor-to-ceiling arched windows of the back wall, they saw the sun setting onto the Pacific ocean.",1,1,None,None,,0,1,1,1,,,,,0,3,3,3,,,,,,,,,,,,,,,,,,,,,,,,,,,,,9,1.9029598469933262,,,,,,,,,,,,,,,,,,,,,,,,,,,,030419_p1,001,2019_Mar_04_1017,body_behavioural,3.0.4,59.965027196159745,
1,"This was surely one of the best restaurants on the west coast, situated right on the beach.",1,1,None,None,,0,1,1,1,,,,,0,4,4,4,,,,,,,,,,,,,,,,,,,,,,,,,,,,,9,1.986452189994452,,,,,,,,,,,,,,,,,,,,,,,,,,,,030419_p1,001,2019_Mar_04_1017,body_behavioural,3.0.4,59.965027196159745,
1,"Senna gave his name to the host, who quickly located their reservation with an almost comically wide customer-service smile.",1,1,7.0,None,,0,1,1,1,,,,,0,5,5,5,,,,,,,,,,,,,,,,,,,,,,,,,,,,,1,2.618477964999329,,,,,,,,,,,,,,,,,,,,,,,,,,,,030419_p1,001,2019_Mar_04_1017,body_behavioural,3.0.4,59.965027196159745,
1,He led them to a table right by the window.,2,1,None,None,,0,1,1,1,,,,,0,6,6,6,,,,,,,,,,,,,,,,,,,,,,,,,,,,,1,1.3369897169977776,,,,,,,,,,,,,,,,,,,,,,,,,,,,030419_p1,001,2019_Mar_04_1017,body_behavioural,3.0.4,59.965027196159745,
1,"He brought out some very small menus, with a short list of the celebrity chef's carefully selected daily dishes written in a loopy, cursive font unadorned by any mention of prices.",2,1,None,9.0,,0,1,1,1,,,,,0,7,7,7,,,,,,,,,,,,,,,,,,,,,,,,,,,,,1,3.2340823269987595,,,,,,,,,,,,,,,,,,,,,,,,,,,,030419_p1,001,2019_Mar_04_1017,body_behavioural,3.0.4,59.965027196159745,
1,Senna slipped off to the bathroom to check to make sure the ring was in order.,2,2,None,None,,0,1,1,1,,,,,0,8,8,8,,,,,,,,,,,,,,,,,,,,,,,,,,,,,1,1.9171469920038362,,,,,,,,,,,,,,,,,,,,,,,,,,,,030419_p1,001,2019_Mar_04_1017,body_behavioural,3.0.4,59.965027196159745,
1,"The ring contained a canary diamond that had been in his grandmother’s wedding ring, and it was a brilliant stone that was accentuated by the small white diamonds encircling it.",2,2,None,None,,0,1,1,1,,,,,0,9,9,9,,,,,,,,,,,,,,,,,,,,,,,,,,,,,1,3.869580747996224,,,,,,,,,,,,,,,,,,,,,,,,,,,,030419_p1,001,2019_Mar_04_1017,body_behavioural,3.0.4,59.965027196159745,
1,"He walked back to the table after handing the small, velvet box to a waiter at the front podium.",2,2,6.0,None,,0,1,1,1,,,,,0,10,10,10,,,,,,,,,,,,,,,,,,,,,,,,,,,,,1,1.81966015999933,,,,,,,,,,,,,,,,,,,,,,,,,,,,030419_p1,001,2019_Mar_04_1017,body_behavioural,3.0.4,59.965027196159745,
1,He came back just as their waiter was approaching the table to get their order.,3,2,None,None,,0,1,1,1,,,,,0,11,11,11,,,,,,,,,,,,,,,,,,,,,,,,,,,,,1,1.5198630699960631,,,,,,,,,,,,,,,,,,,,,,,,,,,,030419_p1,001,2019_Mar_04_1017,body_behavioural,3.0.4,59.965027196159745,
1,"Senna ordered the oysters with garlic-parmesan sauce, and Alvira ordered the sauteed sea scallops with caramelized apples. ",3,2,None,None,,0,1,1,1,,,,,0,12,12,12,,,,,,,,,,,,,,,,,,,,,,,,,,,,,9,2.0531562570031383,,,,,,,,,,,,,,,,,,,,,,,,,,,,030419_p1,001,2019_Mar_04_1017,body_behavioural,3.0.4,59.965027196159745,
1,"“Excellent choices,” the waiter said with a subsequent brisk spin away from the table.",3,2,None,None,,0,1,1,1,,,,,0,13,13,13,,,,,,,,,,,,,,,,,,,,,,,,,,,,,9,1.519967029998952,,,,,,,,,,,,,,,,,,,,,,,,,,,,030419_p1,001,2019_Mar_04_1017,body_behavioural,3.0.4,59.965027196159745,
1,"“What a beautiful place, Senna. ",3,2,None,None,,0,1,1,1,,,,,0,14,14,14,,,,,,,,,,,,,,,,,,,,,,,,,,,,,9,1.4364225030003581,,,,,,,,,,,,,,,,,,,,,,,,,,,,030419_p1,001,2019_Mar_04_1017,body_behavioural,3.0.4,59.965027196159745,
1,"Really this is too much just to celebrate the first tomatoes I grew in the garden, like, this is absurd,” Alvira said.",3,2,None,None,,0,1,1,1,,,,,0,15,15,15,,,,,,,,,,,,,,,,,,,,,,,,,,,,,9,2.836513592999836,,,,,,,,,,,,,,,,,,,,,,,,,,,,030419_p1,001,2019_Mar_04_1017,body_behavioural,3.0.4,59.965027196159745,
1,"Senna laughed and said, “No, those were really the best tomatoes I’ve ever had. ",3,2,None,None,,0,1,1,1,,,,,0,16,16,16,,,,,,,,,,,,,,,,,,,,,,,,,,,,,9,2.0862265870018746,,,,,,,,,,,,,,,,,,,,,,,,,,,,030419_p1,001,2019_Mar_04_1017,body_behavioural,3.0.4,59.965027196159745,
1,We had to celebrate.” ,3,2,None,None,,0,1,1,1,,,,,0,17,17,17,,,,,,,,,,,,,,,,,,,,,,,,,,,,,9,1.686585172006744,,,,,,,,,,,,,,,,,,,,,,,,,,,,030419_p1,001,2019_Mar_04_1017,body_behavioural,3.0.4,59.965027196159745,
1,"They talked and laughed as the sun sank below the horizon, and the glow from the ocean was replaced by the glow from the chandeliers.",3,2,8.0,None,,0,1,1,1,,,,,0,18,18,18,,,,,,,,,,,,,,,,,,,,,,,,,,,,,1,2.633709129993804,,,,,,,,,,,,,,,,,,,,,,,,,,,,030419_p1,001,2019_Mar_04_1017,body_behavioural,3.0.4,59.965027196159745,
1,"The waiter eventually returned with their meals, and everything was even more delicious than they had expected, especially the oysters, which Senna said tasted like the ocean. ",4,2,None,None,,0,1,1,1,,,,,0,19,19,19,,,,,,,,,,,,,,,,,,,,,,,,,,,,,1,3.1862662230050773,,,,,,,,,,,,,,,,,,,,,,,,,,,,030419_p1,001,2019_Mar_04_1017,body_behavioural,3.0.4,59.965027196159745,
1,Then he paused and looked at Alvira meaningfully. ,4,2,None,None,,0,1,1,1,,,,,0,20,20,20,,,,,,,,,,,,,,,,,,,,,,,,,,,,,1,1.548871089995373,,,,,,,,,,,,,,,,,,,,,,,,,,,,030419_p1,001,2019_Mar_04_1017,body_behavioural,3.0.4,59.965027196159745,
1, “It’s really been the best three years of my life with you.,4,2,None,None,,0,1,1,1,,,,,0,21,21,21,,,,,,,,,,,,,,,,,,,,,,,,,,,,,1,2.000817205000203,,,,,,,,,,,,,,,,,,,,,,,,,,,,030419_p1,001,2019_Mar_04_1017,body_behavioural,3.0.4,59.965027196159745,
1,"I couldn’t imagine it any other way, and I don’t want to.",4,2,None,None,,0,1,1,1,,,,,0,22,22,22,,,,,,,,,,,,,,,,,,,,,,,,,,,,,1,1.9225215199985541,,,,,,,,,,,,,,,,,,,,,,,,,,,,030419_p1,001,2019_Mar_04_1017,body_behavioural,3.0.4,59.965027196159745,
1,"I really want to spend the rest of my years eating garden tomatoes, whatever it is, with you.” ",4,2,None,None,,0,1,1,1,,,,,0,23,23,23,,,,,,,,,,,,,,,,,,,,,,,,,,,,,1,2.1007599330041558,,,,,,,,,,,,,,,,,,,,,,,,,,,,030419_p1,001,2019_Mar_04_1017,body_behavioural,3.0.4,59.965027196159745,
1,"Alvira smiled, “I want the same with you too, Senna.” ",4,2,None,17.0,,0,1,1,1,,,,,0,24,24,24,,,,,,,,,,,,,,,,,,,,,,,,,,,,,1,1.6049846839960082,,,,,,,,,,,,,,,,,,,,,,,,,,,,030419_p1,001,2019_Mar_04_1017,body_behavioural,3.0.4,59.965027196159745,
1,"Senna nodded at the waiter who had been watching attentively, and he quickly strode over to place a small, elegant cake topped with the ring in front of Alvira. ",4,3,None,None,,0,1,1,1,,,,,0,25,25,25,,,,,,,,,,,,,,,,,,,,,,,,,,,,,1,5.238962455005094,,,,,,,,,,,,,,,,,,,,,,,,,,,,030419_p1,001,2019_Mar_04_1017,body_behavioural,3.0.4,59.965027196159745,
1,Her eyes widened in shock when she realized what she was looking at.,4,3,None,None,,0,1,1,1,,,,,0,26,26,26,,,,,,,,,,,,,,,,,,,,,,,,,,,,,1,1.8546199150005123,,,,,,,,,,,,,,,,,,,,,,,,,,,,030419_p1,001,2019_Mar_04_1017,body_behavioural,3.0.4,59.965027196159745,
1,"“Alvira, will you marry me? ",4,3,None,None,,0,1,1,1,,,,,0,27,27,27,,,,,,,,,,,,,,,,,,,,,,,,,,,,,1,1.5049680449956213,,,,,,,,,,,,,,,,,,,,,,,,,,,,030419_p1,001,2019_Mar_04_1017,body_behavioural,3.0.4,59.965027196159745,
1,"I love you, and I will never stop loving you.” ",4,3,None,None,,0,1,1,1,,,,,0,28,28,28,,,,,,,,,,,,,,,,,,,,,,,,,,,,,1,1.2047865579952486,,,,,,,,,,,,,,,,,,,,,,,,,,,,030419_p1,001,2019_Mar_04_1017,body_behavioural,3.0.4,59.965027196159745,
1,Alvira started to cry.,4,3,None,None,,0,1,1,1,,,,,0,29,29,29,,,,,,,,,,,,,,,,,,,,,,,,,,,,,1,1.1048752249989775,,,,,,,,,,,,,,,,,,,,,,,,,,,,030419_p1,001,2019_Mar_04_1017,body_behavioural,3.0.4,59.965027196159745,
1,"The room became silent, and everyone turned to their table. ",4,3,None,5.0,,0,1,1,1,,,,,0,30,30,30,,,,,,,,,,,,,,,,,,,,,,,,,,,,,1,1.6214537369960453,,,,,,,,,,,,,,,,,,,,,,,,,,,,030419_p1,001,2019_Mar_04_1017,body_behavioural,3.0.4,59.965027196159745,
1,"“Yes, of course, yes!” she shouted as she wiped away tears.",4,4,None,None,,0,1,1,1,,,,,0,31,31,31,,,,,,,,,,,,,,,,,,,,,,,,,,,,,1,1.3217747820017394,,,,,,,,,,,,,,,,,,,,,,,,,,,,030419_p1,001,2019_Mar_04_1017,body_behavioural,3.0.4,59.965027196159745,
1,The neighboring tables exploded in applause.,4,4,None,None,,0,1,1,1,,,,,0,32,32,32,,,,,,,,,,,,,,,,,,,,,,,,,,,,,1,1.4215003919962328,,,,,,,,,,,,,,,,,,,,,,,,,,,,030419_p1,001,2019_Mar_04_1017,body_behavioural,3.0.4,59.965027196159745,
1,The waiter returned with a bottle of champagne and popped it. ,4,4,None,None,,0,1,1,1,,,,,0,33,33,33,,,,,,,,,,,,,,,,,,,,,,,,,,,,,1,1.8549009850030416,,,,,,,,,,,,,,,,,,,,,,,,,,,,030419_p1,001,2019_Mar_04_1017,body_behavioural,3.0.4,59.965027196159745,
1,"All of this went unnoticed by Senna and Alvira as they looked into each others’ eyes, and he slipped the ring onto her finger. ",4,4,None,None,,0,1,1,1,,,,,0,34,34,34,,,,,,,,,,,,,,,,,,,,,,,,,,,,,1,4.955076997001015,,,,,,,,,,,,,,,,,,,,,,,,,,,,030419_p1,001,2019_Mar_04_1017,body_behavioural,3.0.4,59.965027196159745,
1,"She held up her hand to admire it, and her glittering tears of joy matched the shine from her ring.   
",4,4,17.0,5.0,,0,1,1,1,,,,,0,35,35,35,,,,,,,,,,,,,,,,,,,,,,,,,,,,,1,2.2045349599939073,,,,,,,,,,,,,,,,,,,,,,,,,,,,030419_p1,001,2019_Mar_04_1017,body_behavioural,3.0.4,59.965027196159745,
1,,,,,,,0,1,1,1,,,,,,,,,,,,,,,,,,,,,,,,,,,,,,,,,,,,,,,,,,,,,,,,,,,,,,,,,,,,,,,,,,030419_p1,001,2019_Mar_04_1017,body_behavioural,3.0.4,59.965027196159745,
2,,,,,,,0,2,2,2,0,0,0,0,,,,,,,,,,,,,,,,,,,,,,,,,,,space,1.1379962749997503,space,0.7877480099996319,space,0.7879412949987454,,,,,,,,,,,,,,,,,,,,,,,,,,,,,,030419_p1,001,2019_Mar_04_1017,body_behavioural,3.0.4,59.965027196159745,
2,"James noticed Teresa immediately as she walked into the restaurant - or, more accurately as she attempted to walk into the restaurant. ",1,1,,,,0,2,2,2,,,,,0,0,0,0,,,,,,,,,,,,,,,,,,,,,,,,,,,,,1,5.305185141995025,,,,,,,,,,,,,,,,,,,,,,,,,,,,030419_p1,001,2019_Mar_04_1017,body_behavioural,3.0.4,59.965027196159745,
2,"She was typing intently on her phone and ran straight into the diner's clear, glass door with an echoing thud. ",1,1,,,,0,2,2,2,,,,,0,1,1,1,,,,,,,,,,,,,,,,,,,,,,,,,,,,,1,2.7213530169974547,,,,,,,,,,,,,,,,,,,,,,,,,,,,030419_p1,001,2019_Mar_04_1017,body_behavioural,3.0.4,59.965027196159745,
2,Everyone waiting around the cash register turned to see if she was okay.,1,1,,,,0,2,2,2,,,,,0,2,2,2,,,,,,,,,,,,,,,,,,,,,,,,,,,,,1,2.0504006249975646,,,,,,,,,,,,,,,,,,,,,,,,,,,,030419_p1,001,2019_Mar_04_1017,body_behavioural,3.0.4,59.965027196159745,
2,Teresa rubbed her head.,1,1,,,,0,2,2,2,,,,,0,3,3,3,,,,,,,,,,,,,,,,,,,,,,,,,,,,,1,1.3382318419971853,,,,,,,,,,,,,,,,,,,,,,,,,,,,030419_p1,001,2019_Mar_04_1017,body_behavioural,3.0.4,59.965027196159745,
2,"While being both confused and unembarrassed, she looked mostly indignant that the door had been in her way. ",1,1,,,,0,2,2,2,,,,,0,4,4,4,,,,,,,,,,,,,,,,,,,,,,,,,,,,,1,3.2381586999981664,,,,,,,,,,,,,,,,,,,,,,,,,,,,030419_p1,001,2019_Mar_04_1017,body_behavioural,3.0.4,59.965027196159745,
2,James found this quite charming and stole a couple glances at her until she noticed and wrinkled her eyebrows at him in suspicion. ,1,1,,,,0,2,2,2,,,,,0,5,5,5,,,,,,,,,,,,,,,,,,,,,,,,,,,,,1,2.954949991995818,,,,,,,,,,,,,,,,,,,,,,,,,,,,030419_p1,001,2019_Mar_04_1017,body_behavioural,3.0.4,59.965027196159745,
2,"The restaurant they were in was a cabin-themed diner with wooden booths and bar, walls covered in plaid blankets, and antler decorations. ",1,1,,,,0,2,2,2,,,,,0,6,6,6,,,,,,,,,,,,,,,,,,,,,,,,,,,,,9,2.938164012004563,,,,,,,,,,,,,,,,,,,,,,,,,,,,030419_p1,001,2019_Mar_04_1017,body_behavioural,3.0.4,59.965027196159745,
2,The waiter saw that James and Teresa were both alone and motioned to both of them. ,1,1,,,,0,2,2,2,,,,,0,7,7,7,,,,,,,,,,,,,,,,,,,,,,,,,,,,,9,3.871367382002063,,,,,,,,,,,,,,,,,,,,,,,,,,,,030419_p1,001,2019_Mar_04_1017,body_behavioural,3.0.4,59.965027196159745,
2,“Right this way.,2,1,,,,0,2,2,2,,,,,0,8,8,8,,,,,,,,,,,,,,,,,,,,,,,,,,,,,9,1.0214621749983053,,,,,,,,,,,,,,,,,,,,,,,,,,,,030419_p1,001,2019_Mar_04_1017,body_behavioural,3.0.4,59.965027196159745,
2,You two don't mind sitting at the counter?” ,2,1,,,,0,2,2,2,,,,,0,9,9,9,,,,,,,,,,,,,,,,,,,,,,,,,,,,,9,1.1050300300048548,,,,,,,,,,,,,,,,,,,,,,,,,,,,030419_p1,001,2019_Mar_04_1017,body_behavioural,3.0.4,59.965027196159745,
2,They sat a seat apart from each other on the split tree trunk that served as a bench.,2,1,,,,0,2,2,2,,,,,0,10,10,10,,,,,,,,,,,,,,,,,,,,,,,,,,,,,9,6.854910907000885,,,,,,,,,,,,,,,,,,,,,,,,,,,,030419_p1,001,2019_Mar_04_1017,body_behavioural,3.0.4,59.965027196159745,
2, The waitress behind the counter gave them bright neon menus that were filled with breakfast items.,2,1,,,,0,2,2,2,,,,,0,11,11,11,,,,,,,,,,,,,,,,,,,,,,,,,,,,,1,4.121130480001739,,,,,,,,,,,,,,,,,,,,,,,,,,,,030419_p1,001,2019_Mar_04_1017,body_behavioural,3.0.4,59.965027196159745,
2,"Teresa quickly glanced through it, then pulled out a book and started reading it while James played with the salt and pepper shakers as he tried to think of an excuse to talk to Teresa.",2,1,,,,0,2,2,2,,,,,0,12,12,12,,,,,,,,,,,,,,,,,,,,,,,,,,,,,1,3.9049479399982374,,,,,,,,,,,,,,,,,,,,,,,,,,,,030419_p1,001,2019_Mar_04_1017,body_behavioural,3.0.4,59.965027196159745,
2,"James eventually turned to her and asked, “Your forehead alright?”",2,2,,,,0,2,2,2,,,,,0,13,13,13,,,,,,,,,,,,,,,,,,,,,,,,,,,,,1,1.9546981219973532,,,,,,,,,,,,,,,,,,,,,,,,,,,,030419_p1,001,2019_Mar_04_1017,body_behavioural,3.0.4,59.965027196159745,
2,She put down her book and gave him a smirk.,2,2,,,,0,2,2,2,,,,,0,14,14,14,,,,,,,,,,,,,,,,,,,,,,,,,,,,,1,1.588109379998059,,,,,,,,,,,,,,,,,,,,,,,,,,,,030419_p1,001,2019_Mar_04_1017,body_behavioural,3.0.4,59.965027196159745,
2,"“Have you ever been stung by a scorpion?”, she asked him, tilting her head.",2,2,,,,0,2,2,2,,,,,0,15,15,15,,,,,,,,,,,,,,,,,,,,,,,,,,,,,1,1.5716211179969832,,,,,,,,,,,,,,,,,,,,,,,,,,,,030419_p1,001,2019_Mar_04_1017,body_behavioural,3.0.4,59.965027196159745,
2,"“What?”, he asked confusedly.",2,2,,,,0,2,2,2,,,,,0,16,16,16,,,,,,,,,,,,,,,,,,,,,,,,,,,,,1,1.6840035850036656,,,,,,,,,,,,,,,,,,,,,,,,,,,,030419_p1,001,2019_Mar_04_1017,body_behavioural,3.0.4,59.965027196159745,
2, “A scorpion.”,2,2,,,,0,2,2,2,,,,,0,17,17,17,,,,,,,,,,,,,,,,,,,,,,,,,,,,,1,1.350933294997958,,,,,,,,,,,,,,,,,,,,,,,,,,,,030419_p1,001,2019_Mar_04_1017,body_behavioural,3.0.4,59.965027196159745,
2,James began to worry that Teresa had possibly suffered a concussion in the door crash.,2,2,,,,0,2,2,2,,,,,0,18,18,18,,,,,,,,,,,,,,,,,,,,,,,,,,,,,1,2.1377734249981586,,,,,,,,,,,,,,,,,,,,,,,,,,,,030419_p1,001,2019_Mar_04_1017,body_behavioural,3.0.4,59.965027196159745,
2,"“Uh no, why?” ",2,2,,,,0,2,2,2,,,,,0,19,19,19,,,,,,,,,,,,,,,,,,,,,,,,,,,,,1,1.4710847769965767,,,,,,,,,,,,,,,,,,,,,,,,,,,,030419_p1,001,2019_Mar_04_1017,body_behavioural,3.0.4,59.965027196159745,
2,"“Because I’ve been stung by one, and since then, things like bumping into doors seem like pretty small potatoes.” ",2,2,,,,0,2,2,2,,,,,0,20,20,20,,,,,,,,,,,,,,,,,,,,,,,,,,,,,1,1.9718959719975828,,,,,,,,,,,,,,,,,,,,,,,,,,,,030419_p1,001,2019_Mar_04_1017,body_behavioural,3.0.4,59.965027196159745,
2,"They carried on talking, and Teresa told him all about her encounter with a Deathstalker scorpion while she was studying abroad in Egypt.",2,2,,,,0,2,2,2,,,,,0,21,21,21,,,,,,,,,,,,,,,,,,,,,,,,,,,,,1,3.20460998499766,,,,,,,,,,,,,,,,,,,,,,,,,,,,030419_p1,001,2019_Mar_04_1017,body_behavioural,3.0.4,59.965027196159745,
2,"After a few minutes, the waitress behind the counter came up to them, “Alrighty, can I take you order?” ",3,3,,,,0,2,2,2,,,,,0,22,22,22,,,,,,,,,,,,,,,,,,,,,,,,,,,,,9,1.2548164000036195,,,,,,,,,,,,,,,,,,,,,,,,,,,,030419_p1,001,2019_Mar_04_1017,body_behavioural,3.0.4,59.965027196159745,
2,"She first looked at Teresa who answered, “I’ll have a Western Omelette and a glass of milk.”",3,3,,,,0,2,2,2,,,,,0,23,23,23,,,,,,,,,,,,,,,,,,,,,,,,,,,,,9,2.0007718320048298,,,,,,,,,,,,,,,,,,,,,,,,,,,,030419_p1,001,2019_Mar_04_1017,body_behavioural,3.0.4,59.965027196159745,
2,Then the waitress turned to James.,3,3,,,,0,2,2,2,,,,,0,24,24,24,,,,,,,,,,,,,,,,,,,,,,,,,,,,,9,1.088024630000291,,,,,,,,,,,,,,,,,,,,,,,,,,,,030419_p1,001,2019_Mar_04_1017,body_behavioural,3.0.4,59.965027196159745,
2,"James said, “I’ll have the chocolate chip pancakes and a coffee.” ",3,3,,,,0,2,2,2,,,,,0,25,25,25,,,,,,,,,,,,,,,,,,,,,,,,,,,,,9,1.234425127004215,,,,,,,,,,,,,,,,,,,,,,,,,,,,030419_p1,001,2019_Mar_04_1017,body_behavioural,3.0.4,59.965027196159745,
2,"“Alrighty, comin’ right up!”",3,3,,,,0,2,2,2,,,,,0,26,26,26,,,,,,,,,,,,,,,,,,,,,,,,,,,,,9,1.0547079219977604,,,,,,,,,,,,,,,,,,,,,,,,,,,,030419_p1,001,2019_Mar_04_1017,body_behavioural,3.0.4,59.965027196159745,
2,"They picked up their conversation, and James ended up telling Teresa about a concert he was going to later. ",3,3,,,,0,2,2,2,,,,,0,27,27,27,,,,,,,,,,,,,,,,,,,,,,,,,,,,,9,1.4219067320009344,,,,,,,,,,,,,,,,,,,,,,,,,,,,030419_p1,001,2019_Mar_04_1017,body_behavioural,3.0.4,59.965027196159745,
2,"He invited her to come along, promising her that the concert would be indoors and absolutely free of venomous insects.",3,3,,,,0,2,2,2,,,,,0,28,28,28,,,,,,,,,,,,,,,,,,,,,,,,,,,,,9,1.6382505999936257,,,,,,,,,,,,,,,,,,,,,,,,,,,,030419_p1,001,2019_Mar_04_1017,body_behavioural,3.0.4,59.965027196159745,
2,"Teresa agreed, gave him her number, and they worked out that James would pick her up before the concert and drive them there.",3,3,,,,0,2,2,2,,,,,0,29,29,29,,,,,,,,,,,,,,,,,,,,,,,,,,,,,1,2.9883095100012724,,,,,,,,,,,,,,,,,,,,,,,,,,,,030419_p1,001,2019_Mar_04_1017,body_behavioural,3.0.4,59.965027196159745,
2,"This was not what they had expected from their solitary lunch plans and were both excited, even though Teresa was doing a much better job of hiding it than James. ",3,3,,,,0,2,2,2,,,,,0,30,30,30,,,,,,,,,,,,,,,,,,,,,,,,,,,,,1,6.388088274994516,,,,,,,,,,,,,,,,,,,,,,,,,,,,030419_p1,001,2019_Mar_04_1017,body_behavioural,3.0.4,59.965027196159745,
2," After awhile,  the waitress brought out their food, and James took this opportunity to scoot closer to her on the log bench. ",4,4,,,,0,2,2,2,,,,,0,31,31,31,,,,,,,,,,,,,,,,,,,,,,,,,,,,,9,1.7865938920003828,,,,,,,,,,,,,,,,,,,,,,,,,,,,030419_p1,001,2019_Mar_04_1017,body_behavioural,3.0.4,59.965027196159745,
2,"Teresa was happy to share the meal with James, despite their food tasting pretty bad. ",4,4,,,,0,2,2,2,,,,,0,32,32,32,,,,,,,,,,,,,,,,,,,,,,,,,,,,,9,1.2884547210051096,,,,,,,,,,,,,,,,,,,,,,,,,,,,030419_p1,001,2019_Mar_04_1017,body_behavioural,3.0.4,59.965027196159745,
2,"Judging by how salty the pancakes tasted, they suspected that the chef had confused the salt and sugar.",4,4,,,,0,2,2,2,,,,,0,33,33,33,,,,,,,,,,,,,,,,,,,,,,,,,,,,,1,2.5343030099975294,,,,,,,,,,,,,,,,,,,,,,,,,,,,030419_p1,001,2019_Mar_04_1017,body_behavioural,3.0.4,59.965027196159745,
2,"When the meal was over, they got up, hugged, and parted ways. ",4,4,,,,0,2,2,2,,,,,0,34,34,34,,,,,,,,,,,,,,,,,,,,,,,,,,,,,1,0.9845203279983252,,,,,,,,,,,,,,,,,,,,,,,,,,,,030419_p1,001,2019_Mar_04_1017,body_behavioural,3.0.4,59.965027196159745,
2,"James said,“I have to run, got to get to work.",4,4,,,,0,2,2,2,,,,,0,35,35,35,,,,,,,,,,,,,,,,,,,,,,,,,,,,,1,0.9547995050015743,,,,,,,,,,,,,,,,,,,,,,,,,,,,030419_p1,001,2019_Mar_04_1017,body_behavioural,3.0.4,59.965027196159745,
2,See you tonight!”,4,4,,,,0,2,2,2,,,,,0,36,36,36,,,,,,,,,,,,,,,,,,,,,,,,,,,,,1,0.6673608970013447,,,,,,,,,,,,,,,,,,,,,,,,,,,,030419_p1,001,2019_Mar_04_1017,body_behavioural,3.0.4,59.965027196159745,
2,"Teresa smiled and walked towards the door without looking, and almost ran into the door again. ",4,4,,,,0,2,2,2,,,,,0,37,37,37,,,,,,,,,,,,,,,,,,,,,,,,,,,,,1,1.37177016500209,,,,,,,,,,,,,,,,,,,,,,,,,,,,030419_p1,001,2019_Mar_04_1017,body_behavioural,3.0.4,59.965027196159745,
2,They both laughed and smiled once more goodbye. ,4,4,,,,0,2,2,2,,,,,0,38,38,38,,,,,,,,,,,,,,,,,,,,,,,,,,,,,1,1.021291924000252,,,,,,,,,,,,,,,,,,,,,,,,,,,,030419_p1,001,2019_Mar_04_1017,body_behavioural,3.0.4,59.965027196159745,
2,,,,,,,0,2,2,2,,,,,,,,,,,,,,,,,,,,,,,,,,,,,,,,,,,,,,,,,,,,,,,,,,,,,,,,,,,,,,,,,,030419_p1,001,2019_Mar_04_1017,body_behavioural,3.0.4,59.965027196159745,
3,,,,,,,0,3,3,3,0,0,0,0,,,,,,,,,,,,,,,,,,,,,,,,,,,space,1.2844112980019418,space,0.7544755670023733,space,0.9047501480017672,,,,,,,,,,,,,,,,,,,,,,,,,,,,,,030419_p1,001,2019_Mar_04_1017,body_behavioural,3.0.4,59.965027196159745,
3,,,,,,,0,3,3,3,1,0,1,0,,,,,,,,,,,,,,,,,,,,,,,,,,,,,,,space,0.7379102600025362,,,,,,,,,,,,,,,,,,,,,,,,,,,,,,030419_p1,001,2019_Mar_04_1017,body_behavioural,3.0.4,59.965027196159745,
3,,,,,,,0,3,3,3,2,0,2,0,,,,,,,,,,,,,,,,,,,,,,,,,,,,,,,space,0.4864307230018312,,,,,,,,,,,,,,,,,,,,,,,,,,,,,,030419_p1,001,2019_Mar_04_1017,body_behavioural,3.0.4,59.965027196159745,
3,"Ms. Bianchi and Ms. Morrison walked into the grocery store at the same time, and, after a moment of mutual recognition, greeted each other and shook hands.",1,1,,,,0,3,3,3,,,,,0,0,0,0,,,,,,,,,,,,,,,,,,,,,,,,,,,,,1,3.9217559850003454,,,,,,,,,,,,,,,,,,,,,,,,,,,,030419_p1,001,2019_Mar_04_1017,body_behavioural,3.0.4,59.965027196159745,
3,"“Thank you again for inviting me here to discuss my business proposal,” said Ms. Bianchi, “And it’s a pleasure to be out of the office.” ",1,1,,,,0,3,3,3,,,,,0,1,1,1,,,,,,,,,,,,,,,,,,,,,,,,,,,,,1,1.6214234599974588,,,,,,,,,,,,,,,,,,,,,,,,,,,,030419_p1,001,2019_Mar_04_1017,body_behavioural,3.0.4,59.965027196159745,
3,"As a salesperson for an Italian cheese company that was trying to expand its outreach to more mainstream grocery stores, this meeting could be a big break for her.",1,1,,,,0,3,3,3,,,,,0,2,2,2,,,,,,,,,,,,,,,,,,,,,,,,,,,,,9,4.588644172996283,,,,,,,,,,,,,,,,,,,,,,,,,,,,030419_p1,001,2019_Mar_04_1017,body_behavioural,3.0.4,59.965027196159745,
3,"Her sales target, Ms. Morrison,  who had a reputation for being a bit quirky, was a corporate buyer for a large chain grocery store. ",1,1,,,,0,3,3,3,,,,,0,3,3,3,,,,,,,,,,,,,,,,,,,,,,,,,,,,,9,2.2547672300061095,,,,,,,,,,,,,,,,,,,,,,,,,,,,030419_p1,001,2019_Mar_04_1017,body_behavioural,3.0.4,59.965027196159745,
3,"She was known for doing things unconventionally: for example, she said that she liked to make deals with suppliers in the place where the products were sold- “to keep their minds focused on what’s important.” ",1,1,,,,0,3,3,3,,,,,0,4,4,4,,,,,,,,,,,,,,,,,,,,,,,,,,,,,1,3.504915606994473,,,,,,,,,,,,,,,,,,,,,,,,,,,,030419_p1,001,2019_Mar_04_1017,body_behavioural,3.0.4,59.965027196159745,
3,"They chatted a little in the front of the grocery store, which was surrounded by pumpkins and halloween decorations set up in special displays for the holiday season.",1,1,,,,0,3,3,3,,,,,0,5,5,5,,,,,,,,,,,,,,,,,,,,,,,,,,,,,1,4.0508371719988645,,,,,,,,,,,,,,,,,,,,,,,,,,,,030419_p1,001,2019_Mar_04_1017,body_behavioural,3.0.4,59.965027196159745,
3,"Ms. Bianchi and Ms. Morrison walked to the cheese section, and Ms. Morrison picked up a block of parmesan.",2,1,,,,0,3,3,3,,,,,0,6,6,6,,,,,,,,,,,,,,,,,,,,,,,,,,,,,1,1.3060729920034646,,,,,,,,,,,,,,,,,,,,,,,,,,,,030419_p1,001,2019_Mar_04_1017,body_behavioural,3.0.4,59.965027196159745,
3,“We have quite a selection here.,2,1,,,,0,3,3,3,,,,,0,7,7,7,,,,,,,,,,,,,,,,,,,,,,,,,,,,,1,0.7551424600023893,,,,,,,,,,,,,,,,,,,,,,,,,,,,030419_p1,001,2019_Mar_04_1017,body_behavioural,3.0.4,59.965027196159745,
3,I don’t know that it needs an additional section for more gourmet cheeses.” ,2,1,,,,0,3,3,3,,,,,0,8,8,8,,,,,,,,,,,,,,,,,,,,,,,,,,,,,1,1.4882276150019607,,,,,,,,,,,,,,,,,,,,,,,,,,,,030419_p1,001,2019_Mar_04_1017,body_behavioural,3.0.4,59.965027196159745,
3,"Ms. Bianchi's confidence faltered for a minute at this remark, but then she launched into her prepared pitch.",2,1,,,,0,3,3,3,,,,,0,9,9,9,,,,,,,,,,,,,,,,,,,,,,,,,,,,,1,2.4396438039984787,,,,,,,,,,,,,,,,,,,,,,,,,,,,030419_p1,001,2019_Mar_04_1017,body_behavioural,3.0.4,59.965027196159745,
3," “Ms. Morrison, I think you would agree that selling food is more than just providing variety, but also about providing the highest quality.",2,2,,,,0,3,3,3,,,,,0,10,10,10,,,,,,,,,,,,,,,,,,,,,,,,,,,,,1,3.0715692100056913,,,,,,,,,,,,,,,,,,,,,,,,,,,,030419_p1,001,2019_Mar_04_1017,body_behavioural,3.0.4,59.965027196159745,
3,"You don’t have cheeses made in America that are like ours, it is true.",2,2,,,,0,3,3,3,,,,,0,11,11,11,,,,,,,,,,,,,,,,,,,,,,,,,,,,,1,1.6215672050020657,,,,,,,,,,,,,,,,,,,,,,,,,,,,030419_p1,001,2019_Mar_04_1017,body_behavioural,3.0.4,59.965027196159745,
3,Your store could be providing American consumers with a dimension in taste that they've never known before with our product.,2,2,,,,0,3,3,3,,,,,0,12,12,12,,,,,,,,,,,,,,,,,,,,,,,,,,,,,1,1.451143674996274,,,,,,,,,,,,,,,,,,,,,,,,,,,,030419_p1,001,2019_Mar_04_1017,body_behavioural,3.0.4,59.965027196159745,
3,"I propose that you give it a shot, buy $1000 worth of cheese products for a few stores, and see how the sales increase not only in our cheeses but also in products related to cheeses: crackers, jams, olives. ",2,2,,,,0,3,3,3,,,,,0,13,13,13,,,,,,,,,,,,,,,,,,,,,,,,,,,,,1,5.372270239997306,,,,,,,,,,,,,,,,,,,,,,,,,,,,030419_p1,001,2019_Mar_04_1017,body_behavioural,3.0.4,59.965027196159745,
3,"The availability of a finer product leads to the appreciation of the product, and your consumers will start to consume in a new, more profitable way.”",2,2,,,,0,3,3,3,,,,,0,14,14,14,,,,,,,,,,,,,,,,,,,,,,,,,,,,,1,3.688334862003103,,,,,,,,,,,,,,,,,,,,,,,,,,,,030419_p1,001,2019_Mar_04_1017,body_behavioural,3.0.4,59.965027196159745,
3,"Ms. Bianchi picked up a box of crackers by the cheese section, and said, “Here, I will buy these, and we can try some of our cheeses that I've brought with me.”",2,2,,,,0,3,3,3,,,,,0,15,15,15,,,,,,,,,,,,,,,,,,,,,,,,,,,,,1,3.3719066949997796,,,,,,,,,,,,,,,,,,,,,,,,,,,,030419_p1,001,2019_Mar_04_1017,body_behavioural,3.0.4,59.965027196159745,
3,"Ms. Morrison, who was thinking, nodded in agreement and said, “That sounds like a great idea.",2,2,,,,0,3,3,3,,,,,0,16,16,16,,,,,,,,,,,,,,,,,,,,,,,,,,,,,1,1.617485119997582,,,,,,,,,,,,,,,,,,,,,,,,,,,,030419_p1,001,2019_Mar_04_1017,body_behavioural,3.0.4,59.965027196159745,
3,"Let’s head to check out, and those crackers are on me.” ",2,2,,,,0,3,3,3,,,,,0,17,17,17,,,,,,,,,,,,,,,,,,,,,,,,,,,,,1,1.0698687240001163,,,,,,,,,,,,,,,,,,,,,,,,,,,,030419_p1,001,2019_Mar_04_1017,body_behavioural,3.0.4,59.965027196159745,
3,They walked over to the checkout area.,3,2,,,,0,3,3,3,,,,,0,18,18,18,,,,,,,,,,,,,,,,,,,,,,,,,,,,,1,1.138205149996793,,,,,,,,,,,,,,,,,,,,,,,,,,,,030419_p1,001,2019_Mar_04_1017,body_behavioural,3.0.4,59.965027196159745,
3,"There was a very long line, and it was very busy in the checkout area as people were stocking up for Halloween parties and trick-or-treating. ",3,2,,,,0,3,3,3,,,,,0,19,19,19,,,,,,,,,,,,,,,,,,,,,,,,,,,,,9,1.7215685870032758,,,,,,,,,,,,,,,,,,,,,,,,,,,,030419_p1,001,2019_Mar_04_1017,body_behavioural,3.0.4,59.965027196159745,
3,"Since they had almost a 10 minute wait in line, Ms. Bianchi handed a sheet with printed graphs to Ms. Morrison the increase in profits that several other stores had seen after starting to carry their products.",3,2,,,,0,3,3,3,,,,,0,20,20,20,,,,,,,,,,,,,,,,,,,,,,,,,,,,,1,3.7507204249995993,,,,,,,,,,,,,,,,,,,,,,,,,,,,030419_p1,001,2019_Mar_04_1017,body_behavioural,3.0.4,59.965027196159745,
3,"Eventually, Ms. Morrison replied, “You know what, I think you've convinced me that this could work. ",3,3,,,,0,3,3,3,,,,,0,21,21,21,,,,,,,,,,,,,,,,,,,,,,,,,,,,,1,1.3549956470014877,,,,,,,,,,,,,,,,,,,,,,,,,,,,030419_p1,001,2019_Mar_04_1017,body_behavioural,3.0.4,59.965027196159745,
3,We've been trying to find a way to add a little European cachet to our stores.,3,3,,,,0,3,3,3,,,,,0,22,22,22,,,,,,,,,,,,,,,,,,,,,,,,,,,,,1,1.638783943002636,,,,,,,,,,,,,,,,,,,,,,,,,,,,030419_p1,001,2019_Mar_04_1017,body_behavioural,3.0.4,59.965027196159745,
3,There's still a problem though - I'm worried we'll be paying out the nose for the import taxes.,3,3,,,,0,3,3,3,,,,,0,23,23,23,,,,,,,,,,,,,,,,,,,,,,,,,,,,,1,2.3882308799948078,,,,,,,,,,,,,,,,,,,,,,,,,,,,030419_p1,001,2019_Mar_04_1017,body_behavioural,3.0.4,59.965027196159745,
3,Is that the case?",3,3,,,,0,3,3,3,,,,,0,24,24,24,,,,,,,,,,,,,,,,,,,,,,,,,,,,,1,1.387724171996524,,,,,,,,,,,,,,,,,,,,,,,,,,,,030419_p1,001,2019_Mar_04_1017,body_behavioural,3.0.4,59.965027196159745,
3,"It was Ms. Morrison’s turn to checkout, and the two businesswomen continued to talk back and forth as she did so. ",4,3,,,,0,3,3,3,,,,,0,25,25,25,,,,,,,,,,,,,,,,,,,,,,,,,,,,,1,2.538176250003744,,,,,,,,,,,,,,,,,,,,,,,,,,,,030419_p1,001,2019_Mar_04_1017,body_behavioural,3.0.4,59.965027196159745,
3,"The cashier scanned the crackers, and Ms. Bianchi watched in amusement as Ms. Morrison paid the $6 price entirely in quarters from a wallet bulging with change.",4,3,,,,0,3,3,3,,,,,0,26,26,26,,,,,,,,,,,,,,,,,,,,,,,,,,,,,9,4.354912855000293,,,,,,,,,,,,,,,,,,,,,,,,,,,,030419_p1,001,2019_Mar_04_1017,body_behavioural,3.0.4,59.965027196159745,
3,"They shortly came to an agreement and would have enough cheese shipments, $5000 worth, to different stores to qualify for a subsidized import tax. ",4,4,,,,0,3,3,3,,,,,0,27,27,27,,,,,,,,,,,,,,,,,,,,,,,,,,,,,1,2.6546255470020697,,,,,,,,,,,,,,,,,,,,,,,,,,,,030419_p1,001,2019_Mar_04_1017,body_behavioural,3.0.4,59.965027196159745,
3,"Ms. Bianchi retrieved some of her samples from her car, and they toasted their new deal with crackers topped with fresh mozzarella. ",4,4,,,,0,3,3,3,,,,,0,28,28,28,,,,,,,,,,,,,,,,,,,,,,,,,,,,,1,4.237866021998343,,,,,,,,,,,,,,,,,,,,,,,,,,,,030419_p1,001,2019_Mar_04_1017,body_behavioural,3.0.4,59.965027196159745,
3,,,,,,,0,3,3,3,,,,,,,,,,,,,,,,,,,,,,,,,,,,,,,,,,,,,,,,,,,,,,,,,,,,,,,,,,,,,,,,,,030419_p1,001,2019_Mar_04_1017,body_behavioural,3.0.4,59.965027196159745,
4,,,,,,,0,4,4,4,0,0,0,0,,,,,,,,,,,,,,,,,,,,,,,,,,,space,1.3215752219985006,space,0.7045791150012519,space,0.6840169100032654,,,,,,,,,,,,,,,,,,,,,,,,,,,,,,030419_p1,001,2019_Mar_04_1017,body_behavioural,3.0.4,59.965027196159745,
4,David saw Anna for the first time when she burst into the airport with her bag skidding behind her half-zipped. ,1,1,,,,0,4,4,4,,,,,0,0,0,0,,,,,,,,,,,,,,,,,,,,,,,,,,,,,1,5.9676850179967005,,,,,,,,,,,,,,,,,,,,,,,,,,,,030419_p1,001,2019_Mar_04_1017,body_behavioural,3.0.4,59.965027196159745,
4,"He had three hours until his flight, but she clearly had less than one.",1,1,,,,0,4,4,4,,,,,0,1,1,1,,,,,,,,,,,,,,,,,,,,,,,,,,,,,1,1.539225403997989,,,,,,,,,,,,,,,,,,,,,,,,,,,,030419_p1,001,2019_Mar_04_1017,body_behavioural,3.0.4,59.965027196159745,
4,"Anna’s yoga class had ran over, and afterwards, she, forgetting the time, had lingered to talk with friends. ",1,1,,,,0,4,4,4,,,,,0,2,2,2,,,,,,,,,,,,,,,,,,,,,,,,,,,,,1,2.9174532780016307,,,,,,,,,,,,,,,,,,,,,,,,,,,,030419_p1,001,2019_Mar_04_1017,body_behavioural,3.0.4,59.965027196159745,
4,"Despite Anna's frazzled state, David was instantly intrigued by her.",1,1,,,,0,4,4,4,,,,,0,3,3,3,,,,,,,,,,,,,,,,,,,,,,,,,,,,,1,1.3547094719979214,,,,,,,,,,,,,,,,,,,,,,,,,,,,030419_p1,001,2019_Mar_04_1017,body_behavioural,3.0.4,59.965027196159745,
4,"He thought she was beautiful, and she reminded him of one of his favorite paintings.",1,1,,,,0,4,4,4,,,,,0,4,4,4,,,,,,,,,,,,,,,,,,,,,,,,,,,,,1,2.0044251500003156,,,,,,,,,,,,,,,,,,,,,,,,,,,,030419_p1,001,2019_Mar_04_1017,body_behavioural,3.0.4,59.965027196159745,
4,"Anna, a few strides into the airport, suddenly realized her shoes were untied, so she hunched over to tie them.",1,1,,,,0,4,4,4,,,,,0,5,5,5,,,,,,,,,,,,,,,,,,,,,,,,,,,,,1,3.3045581039987155,,,,,,,,,,,,,,,,,,,,,,,,,,,,030419_p1,001,2019_Mar_04_1017,body_behavioural,3.0.4,59.965027196159745,
4,David observed that someone with a tall cart of luggage was heading straight for where Anna was kneeling. ,1,1,,,,0,4,4,4,,,,,0,6,6,6,,,,,,,,,,,,,,,,,,,,,,,,,,,,,1,2.154897622000135,,,,,,,,,,,,,,,,,,,,,,,,,,,,030419_p1,001,2019_Mar_04_1017,body_behavioural,3.0.4,59.965027196159745,
4,Both Anna and the person driving the cart were oblivious to the impending collision. ,1,1,,,,0,4,4,4,,,,,0,7,7,7,,,,,,,,,,,,,,,,,,,,,,,,,,,,,1,1.9213750700000674,,,,,,,,,,,,,,,,,,,,,,,,,,,,030419_p1,001,2019_Mar_04_1017,body_behavioural,3.0.4,59.965027196159745,
4,"David had to intervene, and he ran in front of the cart pushing her out of the way just in the nick of time, and they tumbled on the airport floor. ",1,2,,,,0,4,4,4,,,,,0,8,8,8,,,,,,,,,,,,,,,,,,,,,,,,,,,,,1,2.185994874998869,,,,,,,,,,,,,,,,,,,,,,,,,,,,030419_p1,001,2019_Mar_04_1017,body_behavioural,3.0.4,59.965027196159745,
4,"Anna, bewildered, looked up and saw the cart pass by and then looked over at David. ",1,2,,,,0,4,4,4,,,,,0,9,9,9,,,,,,,,,,,,,,,,,,,,,,,,,,,,,1,1.667250790000253,,,,,,,,,,,,,,,,,,,,,,,,,,,,030419_p1,001,2019_Mar_04_1017,body_behavioural,3.0.4,59.965027196159745,
4,He gave a smile back.,1,2,,,,0,4,4,4,,,,,0,10,10,10,,,,,,,,,,,,,,,,,,,,,,,,,,,,,1,1.2698910050021368,,,,,,,,,,,,,,,,,,,,,,,,,,,,030419_p1,001,2019_Mar_04_1017,body_behavioural,3.0.4,59.965027196159745,
4,"“You alright?”, he said.",1,2,,,,0,4,4,4,,,,,0,11,11,11,,,,,,,,,,,,,,,,,,,,,,,,,,,,,9,1.8530213619960705,,,,,,,,,,,,,,,,,,,,,,,,,,,,030419_p1,001,2019_Mar_04_1017,body_behavioural,3.0.4,59.965027196159745,
4,"She whispered, “Uh yeah.",1,2,,,,0,4,4,4,,,,,0,12,12,12,,,,,,,,,,,,,,,,,,,,,,,,,,,,,1,1.2174973779983702,,,,,,,,,,,,,,,,,,,,,,,,,,,,030419_p1,001,2019_Mar_04_1017,body_behavioural,3.0.4,59.965027196159745,
4,I almost got smooshed by that cart.”,1,2,,,,0,4,4,4,,,,,0,13,13,13,,,,,,,,,,,,,,,,,,,,,,,,,,,,,1,0.9030544050037861,,,,,,,,,,,,,,,,,,,,,,,,,,,,030419_p1,001,2019_Mar_04_1017,body_behavioural,3.0.4,59.965027196159745,
4,Her head was still spinning as she stared at the handsome stranger who had saved her. ,1,2,,,,0,4,4,4,,,,,0,14,14,14,,,,,,,,,,,,,,,,,,,,,,,,,,,,,1,1.8531409600036568,,,,,,,,,,,,,,,,,,,,,,,,,,,,030419_p1,001,2019_Mar_04_1017,body_behavioural,3.0.4,59.965027196159745,
4,David helped her up and had to keep holding on to her arms to steady her even once they were standing.,1,2,,,,0,4,4,4,,,,,0,15,15,15,,,,,,,,,,,,,,,,,,,,,,,,,,,,,1,2.869395601999713,,,,,,,,,,,,,,,,,,,,,,,,,,,,030419_p1,001,2019_Mar_04_1017,body_behavioural,3.0.4,59.965027196159745,
4,"“I’m really late for my flight,” she said. ",1,2,,,,0,4,4,4,,,,,0,16,16,16,,,,,,,,,,,,,,,,,,,,,,,,,,,,,1,1.153077820003091,,,,,,,,,,,,,,,,,,,,,,,,,,,,030419_p1,001,2019_Mar_04_1017,body_behavioural,3.0.4,59.965027196159745,
4,"“Don't worry,” said David, "let me help you get to your gate." ",1,2,,,,0,4,4,4,,,,,0,17,17,17,,,,,,,,,,,,,,,,,,,,,,,,,,,,,1,1.1201944179993006,,,,,,,,,,,,,,,,,,,,,,,,,,,,030419_p1,001,2019_Mar_04_1017,body_behavioural,3.0.4,59.965027196159745,
4,He waved off her half-hearted protests. ,1,2,,,,0,4,4,4,,,,,0,18,18,18,,,,,,,,,,,,,,,,,,,,,,,,,,,,,1,1.3523694469986367,,,,,,,,,,,,,,,,,,,,,,,,,,,,030419_p1,001,2019_Mar_04_1017,body_behavioural,3.0.4,59.965027196159745,
4,"“Really , I have plenty of time and nothing better to do.”",1,2,,,,0,4,4,4,,,,,0,19,19,19,,,,,,,,,,,,,,,,,,,,,,,,,,,,,1,1.2871739600013825,,,,,,,,,,,,,,,,,,,,,,,,,,,,030419_p1,001,2019_Mar_04_1017,body_behavioural,3.0.4,59.965027196159745,
4,They headed to the security line. ,2,2,,,,0,4,4,4,,,,,0,20,20,20,,,,,,,,,,,,,,,,,,,,,,,,,,,,,1,1.6526538070029346,,,,,,,,,,,,,,,,,,,,,,,,,,,,030419_p1,001,2019_Mar_04_1017,body_behavioural,3.0.4,59.965027196159745,
4,"The line was not long, and they spent the time chatting and getting to know each other.",2,2,,,,0,4,4,4,,,,,0,21,21,21,,,,,,,,,,,,,,,,,,,,,,,,,,,,,1,1.5698393519996898,,,,,,,,,,,,,,,,,,,,,,,,,,,,030419_p1,001,2019_Mar_04_1017,body_behavioural,3.0.4,59.965027196159745,
4,It turned out that Anna and David went to the same high school but Anna had been 3 years older.,2,2,,,,0,4,4,4,,,,,0,22,22,22,,,,,,,,,,,,,,,,,,,,,,,,,,,,,9,2.4705065570014995,,,,,,,,,,,,,,,,,,,,,,,,,,,,030419_p1,001,2019_Mar_04_1017,body_behavioural,3.0.4,59.965027196159745,
4,When they got to the front of the line they took off their shoes and pulled off their coats.,2,3,,,,0,4,4,4,,,,,0,23,23,23,,,,,,,,,,,,,,,,,,,,,,,,,,,,,1,1.6341348719943198,,,,,,,,,,,,,,,,,,,,,,,,,,,,030419_p1,001,2019_Mar_04_1017,body_behavioural,3.0.4,59.965027196159745,
4,Both of them went through the metal detector without any problems. ,2,3,,,,0,4,4,4,,,,,0,24,24,24,,,,,,,,,,,,,,,,,,,,,,,,,,,,,1,1.3192911900041508,,,,,,,,,,,,,,,,,,,,,,,,,,,,030419_p1,001,2019_Mar_04_1017,body_behavioural,3.0.4,59.965027196159745,
4,"Anna’s flight was in 20 minutes, and as she was rushing to put her shoes and coat back on, David asked her, “So when are you coming back?”",2,3,,,,0,4,4,4,,,,,0,25,25,25,,,,,,,,,,,,,,,,,,,,,,,,,,,,,1,3.086140815001272,,,,,,,,,,,,,,,,,,,,,,,,,,,,030419_p1,001,2019_Mar_04_1017,body_behavioural,3.0.4,59.965027196159745,
4,"“In a week, it’s a short trip,” Anna replied. ",2,3,,,,0,4,4,4,,,,,0,26,26,26,,,,,,,,,,,,,,,,,,,,,,,,,,,,,1,1.1864024099995731,,,,,,,,,,,,,,,,,,,,,,,,,,,,030419_p1,001,2019_Mar_04_1017,body_behavioural,3.0.4,59.965027196159745,
4,"“Me too,” David said.",2,3,,,,0,4,4,4,,,,,0,27,27,27,,,,,,,,,,,,,,,,,,,,,,,,,,,,,1,0.9692252320019179,,,,,,,,,,,,,,,,,,,,,,,,,,,,030419_p1,001,2019_Mar_04_1017,body_behavioural,3.0.4,59.965027196159745,
4,"He continued, “When we're back in town, is there any chance you'd want to get dinner?",2,3,,,,0,4,4,4,,,,,0,28,28,28,,,,,,,,,,,,,,,,,,,,,,,,,,,,,1,1.1697355919968686,,,,,,,,,,,,,,,,,,,,,,,,,,,,030419_p1,001,2019_Mar_04_1017,body_behavioural,3.0.4,59.965027196159745,
4,"I know we just met, but when life throws a luggage cart at you it seems like we should listen. “",2,3,,,,0,4,4,4,,,,,0,29,29,29,,,,,,,,,,,,,,,,,,,,,,,,,,,,,1,1.919702884995786,,,,,,,,,,,,,,,,,,,,,,,,,,,,030419_p1,001,2019_Mar_04_1017,body_behavioural,3.0.4,59.965027196159745,
4,"She stopped packing, and said with a smile, “Yes I would love that.”",2,3,,,,0,4,4,4,,,,,0,30,30,30,,,,,,,,,,,,,,,,,,,,,,,,,,,,,1,1.8532041950020357,,,,,,,,,,,,,,,,,,,,,,,,,,,,030419_p1,001,2019_Mar_04_1017,body_behavioural,3.0.4,59.965027196159745,
4,Then they ran off to Anna’s gate which was at the end of the terminal. ,3,3,,,,0,4,4,4,,,,,0,31,31,31,,,,,,,,,,,,,,,,,,,,,,,,,,,,,1,1.2693136879970552,,,,,,,,,,,,,,,,,,,,,,,,,,,,030419_p1,001,2019_Mar_04_1017,body_behavioural,3.0.4,59.965027196159745,
4,"David took put on her backpack, grabbed her hand, and navigated quickly through the crowds of people.",3,3,,,,0,4,4,4,,,,,0,32,32,32,,,,,,,,,,,,,,,,,,,,,,,,,,,,,1,1.8696560820026207,,,,,,,,,,,,,,,,,,,,,,,,,,,,030419_p1,001,2019_Mar_04_1017,body_behavioural,3.0.4,59.965027196159745,
4,Anna was amazed at everything that was happening; she had arrived at the airport doubtful that she would make it and was now confident that she would due to this handsome and kind man she just met.,3,3,,,,0,4,4,4,,,,,0,33,33,33,,,,,,,,,,,,,,,,,,,,,,,,,,,,,9,1.9696151899988763,,,,,,,,,,,,,,,,,,,,,,,,,,,,030419_p1,001,2019_Mar_04_1017,body_behavioural,3.0.4,59.965027196159745,
4,"As they approached her gate, Anna fished out a crumbled business card from her pocket and handed it to David, who handed her the backpack, and he promised to call her next week.",3,4,,,,0,4,4,4,,,,,0,34,34,34,,,,,,,,,,,,,,,,,,,,,,,,,,,,,1,2.636388751998311,,,,,,,,,,,,,,,,,,,,,,,,,,,,030419_p1,001,2019_Mar_04_1017,body_behavioural,3.0.4,59.965027196159745,
4,She gave him one last embarrassed smile and approached the flight attendant who scanned her ticket. ,3,4,,,,0,4,4,4,,,,,0,35,35,35,,,,,,,,,,,,,,,,,,,,,,,,,,,,,1,1.8508112819981761,,,,,,,,,,,,,,,,,,,,,,,,,,,,030419_p1,001,2019_Mar_04_1017,body_behavioural,3.0.4,59.965027196159745,
4,"Finally, she boarded the plane, sliding into her window seat located all the way in the back of the plane.",4,4,,,,0,4,4,4,,,,,0,36,36,36,,,,,,,,,,,,,,,,,,,,,,,,,,,,,1,1.4691096840033424,,,,,,,,,,,,,,,,,,,,,,,,,,,,030419_p1,001,2019_Mar_04_1017,body_behavioural,3.0.4,59.965027196159745,
4,"Barely containing her glee, she ignored the grumbles of complaint as she squeezed past the other passengers in her row and settled back in her seat. ",4,4,,,,0,4,4,4,,,,,0,37,37,37,,,,,,,,,,,,,,,,,,,,,,,,,,,,,1,2.150831681996351,,,,,,,,,,,,,,,,,,,,,,,,,,,,030419_p1,001,2019_Mar_04_1017,body_behavioural,3.0.4,59.965027196159745,
4,"She was thankful that she had not only made it onto the plane in time, but also that she had been clumsy enough to forget to tie her shoes.",4,4,,,,0,4,4,4,,,,,0,38,38,38,,,,,,,,,,,,,,,,,,,,,,,,,,,,,1,2.519766024997807,,,,,,,,,,,,,,,,,,,,,,,,,,,,030419_p1,001,2019_Mar_04_1017,body_behavioural,3.0.4,59.965027196159745,
4,,,,,,,0,4,4,4,,,,,,,,,,,,,,,,,,,,,,,,,,,,,,,,,,,,,,,,,,,,,,,,,,,,,,,,,,,,,,,,,,030419_p1,001,2019_Mar_04_1017,body_behavioural,3.0.4,59.965027196159745,
5,,,,,,,0,5,5,5,0,0,0,0,,,,,,,,,,,,,,,,,,,,,,,,,,,space,1.1507371179977781,space,0.7858586949951132,space,0.6528659969990258,,,,,,,,,,,,,,,,,,,,,,,,,,,,,,030419_p1,001,2019_Mar_04_1017,body_behavioural,3.0.4,59.965027196159745,
5,"Sven and Isabel walked hurriedly from the cab into the Barcelona Airport after an incredible weekend with Isabel’s family, which had wiped away any doubts Sven had had about his decision to propose. ",1,1,,,,0,5,5,5,,,,,0,0,0,0,,,,,,,,,,,,,,,,,,,,,,,,,,,,,1,7.51180481800111,,,,,,,,,,,,,,,,,,,,,,,,,,,,030419_p1,001,2019_Mar_04_1017,body_behavioural,3.0.4,59.965027196159745,
5,"They were a little pressed for time, with only a little over an hour until their flight would take off to go back to the US, but they already had their online boarding passes and no checked luggage. ",1,1,,,,0,5,5,5,,,,,0,1,1,1,,,,,,,,,,,,,,,,,,,,,,,,,,,,,1,3.3875351949973265,,,,,,,,,,,,,,,,,,,,,,,,,,,,030419_p1,001,2019_Mar_04_1017,body_behavioural,3.0.4,59.965027196159745,
5,"When Isabel stopped to rummage through her purse looking for her phone, Sven turned his back to her and took the velvet box out of his backpack, opening it to look at the ring he bought her.",1,2,,,,0,5,5,5,,,,,0,2,2,2,,,,,,,,,,,,,,,,,,,,,,,,,,,,,1,3.2367198949941667,,,,,,,,,,,,,,,,,,,,,,,,,,,,030419_p1,001,2019_Mar_04_1017,body_behavioural,3.0.4,59.965027196159745,
5,"He had received her parents’ blessing during the trip, and he was almost giddy with excitement. ",1,2,,,,0,5,5,5,,,,,0,3,3,3,,,,,,,,,,,,,,,,,,,,,,,,,,,,,1,1.9197691320005106,,,,,,,,,,,,,,,,,,,,,,,,,,,,030419_p1,001,2019_Mar_04_1017,body_behavioural,3.0.4,59.965027196159745,
5,"He tilted the ring backward and forward, despite having already studied it daily since he had purchased it a few weeks ago. ",1,2,,,,0,5,5,5,,,,,0,4,4,4,,,,,,,,,,,,,,,,,,,,,,,,,,,,,1,2.5188281549999374,,,,,,,,,,,,,,,,,,,,,,,,,,,,030419_p1,001,2019_Mar_04_1017,body_behavioural,3.0.4,59.965027196159745,
5,"It was a simple design, with a clear, white diamond on a thin silver band.",1,2,,,,0,5,5,5,,,,,0,5,5,5,,,,,,,,,,,,,,,,,,,,,,,,,,,,,1,1.3040514789972804,,,,,,,,,,,,,,,,,,,,,,,,,,,,030419_p1,001,2019_Mar_04_1017,body_behavioural,3.0.4,59.965027196159745,
5,"“Sven, let’s go! ” Isabel said. ",1,2,,,,0,5,5,5,,,,,0,6,6,6,,,,,,,,,,,,,,,,,,,,,,,,,,,,,1,0.9697461270043277,,,,,,,,,,,,,,,,,,,,,,,,,,,,030419_p1,001,2019_Mar_04_1017,body_behavioural,3.0.4,59.965027196159745,
5,Sven discretely closed the box and put it in his pocket.,1,2,,,,0,5,5,5,,,,,0,7,7,7,,,,,,,,,,,,,,,,,,,,,,,,,,,,,1,1.0671405999964918,,,,,,,,,,,,,,,,,,,,,,,,,,,,030419_p1,001,2019_Mar_04_1017,body_behavioural,3.0.4,59.965027196159745,
5," They entered the security line, weaving through the roped walkways to the front. ",2,2,,,,0,5,5,5,,,,,0,8,8,8,,,,,,,,,,,,,,,,,,,,,,,,,,,,,1,1.6861738699954003,,,,,,,,,,,,,,,,,,,,,,,,,,,,030419_p1,001,2019_Mar_04_1017,body_behavioural,3.0.4,59.965027196159745,
5,"When they were up, Isabel realized her laptop was buried somewhere in her duffle bag. ",2,2,,,,0,5,5,5,,,,,0,9,9,9,,,,,,,,,,,,,,,,,,,,,,,,,,,,,1,2.4029327480020584,,,,,,,,,,,,,,,,,,,,,,,,,,,,030419_p1,001,2019_Mar_04_1017,body_behavioural,3.0.4,59.965027196159745,
5,Sven had to hold the growing mound of objects she pulled from her bag until she unearthed the laptop.,2,2,,,,0,5,5,5,,,,,0,10,10,10,,,,,,,,,,,,,,,,,,,,,,,,,,,,,1,2.184950172995741,,,,,,,,,,,,,,,,,,,,,,,,,,,,030419_p1,001,2019_Mar_04_1017,body_behavioural,3.0.4,59.965027196159745,
5,She set it into a bin and then had to unstrap her leather boots and put everything else into the bins.,2,2,,,,0,5,5,5,,,,,0,11,11,11,,,,,,,,,,,,,,,,,,,,,,,,,,,,,1,2.4204328170017106,,,,,,,,,,,,,,,,,,,,,,,,,,,,030419_p1,001,2019_Mar_04_1017,body_behavioural,3.0.4,59.965027196159745,
5,"Finally, she relieved Sven of his holding duties, and he hurriedly deposited his own backpack on the belt as the people behind them glared without shame. ",2,2,,,,0,5,5,5,,,,,0,12,12,12,,,,,,,,,,,,,,,,,,,,,,,,,,,,,1,4.586526064995269,,,,,,,,,,,,,,,,,,,,,,,,,,,,030419_p1,001,2019_Mar_04_1017,body_behavioural,3.0.4,59.965027196159745,
5,"Sven went into the millimeter wave scanner after Isabel, put his hands up, and the metal bars whirled around him.",2,2,,,,0,5,5,5,,,,,0,13,13,13,,,,,,,,,,,,,,,,,,,,,,,,,,,,,1,1.735305057001824,,,,,,,,,,,,,,,,,,,,,,,,,,,,030419_p1,001,2019_Mar_04_1017,body_behavioural,3.0.4,59.965027196159745,
5,"“Sir, please step to the side.",2,2,,,,0,5,5,5,,,,,0,14,14,14,,,,,,,,,,,,,,,,,,,,,,,,,,,,,1,0.9871071800007485,,,,,,,,,,,,,,,,,,,,,,,,,,,,030419_p1,001,2019_Mar_04_1017,body_behavioural,3.0.4,59.965027196159745,
5,"You need to empty your pockets,” the security guard said.",2,2,,,,0,5,5,5,,,,,0,15,15,15,,,,,,,,,,,,,,,,,,,,,,,,,,,,,1,1.086843871002202,,,,,,,,,,,,,,,,,,,,,,,,,,,,030419_p1,001,2019_Mar_04_1017,body_behavioural,3.0.4,59.965027196159745,
5,"With a sinking feeling Sven realized the mistake he had made forgetting to put the ring back in his bag, as Isabel and the guard both looked at him expectantly.",2,2,,,,0,5,5,5,,,,,0,16,16,16,,,,,,,,,,,,,,,,,,,,,,,,,,,,,9,4.970797732996289,,,,,,,,,,,,,,,,,,,,,,,,,,,,030419_p1,001,2019_Mar_04_1017,body_behavioural,3.0.4,59.965027196159745,
5,"Sven,  deciding he would make the best of the situation, grabbed Isabel's hand as he reached into his pocket.",2,2,,,,0,5,5,5,,,,,0,17,17,17,,,,,,,,,,,,,,,,,,,,,,,,,,,,,1,1.7197516020023613,,,,,,,,,,,,,,,,,,,,,,,,,,,,030419_p1,001,2019_Mar_04_1017,body_behavioural,3.0.4,59.965027196159745,
5,"He got down on one knee and, giggling slightly at her confused look, said, “Isabel, this isn't quite how I'd planned this, but - will you marry me?”",2,3,,,,0,5,5,5,,,,,0,18,18,18,,,,,,,,,,,,,,,,,,,,,,,,,,,,,1,2.7864466449973406,,,,,,,,,,,,,,,,,,,,,,,,,,,,030419_p1,001,2019_Mar_04_1017,body_behavioural,3.0.4,59.965027196159745,
5,The security guard gasped.,2,3,,,,0,5,5,5,,,,,0,19,19,19,,,,,,,,,,,,,,,,,,,,,,,,,,,,,1,1.0521301420012605,,,,,,,,,,,,,,,,,,,,,,,,,,,,030419_p1,001,2019_Mar_04_1017,body_behavioural,3.0.4,59.965027196159745,
5,All the people who were putting their shoes back on and gathering their belongings stopped what they were doing and walked closer to the couple.,2,3,,,,0,5,5,5,,,,,0,20,20,20,,,,,,,,,,,,,,,,,,,,,,,,,,,,,1,3.7023338840008364,,,,,,,,,,,,,,,,,,,,,,,,,,,,030419_p1,001,2019_Mar_04_1017,body_behavioural,3.0.4,59.965027196159745,
5,"Isabel was astonished, and far too shy to respond in front of the backup of passengers waiting behind them.",2,3,,,,0,5,5,5,,,,,0,21,21,21,,,,,,,,,,,,,,,,,,,,,,,,,,,,,1,2.0696378130014637,,,,,,,,,,,,,,,,,,,,,,,,,,,,030419_p1,001,2019_Mar_04_1017,body_behavioural,3.0.4,59.965027196159745,
5,"She attempted to stammer a response as she frantically grabbed her and Sven’s shoes, leaving Sven to retrieve their bags.",2,3,,,,0,5,5,5,,,,,0,22,22,22,,,,,,,,,,,,,,,,,,,,,,,,,,,,,1,2.820527908006625,,,,,,,,,,,,,,,,,,,,,,,,,,,,030419_p1,001,2019_Mar_04_1017,body_behavioural,3.0.4,59.965027196159745,
5,"Both of them slipping in their socked feet, she fled onto the concourse with Sven trying to catch up behind her.",3,3,,,,0,5,5,5,,,,,0,23,23,23,,,,,,,,,,,,,,,,,,,,,,,,,,,,,1,3.136370087006071,,,,,,,,,,,,,,,,,,,,,,,,,,,,030419_p1,001,2019_Mar_04_1017,body_behavioural,3.0.4,59.965027196159745,
5,"Everyone in the terminal was looking at them with confusion as Sven, holding the bags in one hand and the open ring box in the other, finally caught up to her.",3,3,,,,0,5,5,5,,,,,0,24,24,24,,,,,,,,,,,,,,,,,,,,,,,,,,,,,1,3.2196743129970855,,,,,,,,,,,,,,,,,,,,,,,,,,,,030419_p1,001,2019_Mar_04_1017,body_behavioural,3.0.4,59.965027196159745,
5,“Isabel?”,3,3,,,,0,5,5,5,,,,,0,25,25,25,,,,,,,,,,,,,,,,,,,,,,,,,,,,,1,0.7863533249983448,,,,,,,,,,,,,,,,,,,,,,,,,,,,030419_p1,001,2019_Mar_04_1017,body_behavioural,3.0.4,59.965027196159745,
5,"He watched her face as she turned, trying to read her expression.",3,3,,,,0,5,5,5,,,,,0,26,26,26,,,,,,,,,,,,,,,,,,,,,,,,,,,,,1,0.6524230169961811,,,,,,,,,,,,,,,,,,,,,,,,,,,,030419_p1,001,2019_Mar_04_1017,body_behavioural,3.0.4,59.965027196159745,
5,"Her eyes were wide, but she was smiling as she hyperventilated, “Of course yes, Sven, yes!” ",3,4,,,,0,5,5,5,,,,,0,27,27,27,,,,,,,,,,,,,,,,,,,,,,,,,,,,,1,2.3187343850004254,,,,,,,,,,,,,,,,,,,,,,,,,,,,030419_p1,001,2019_Mar_04_1017,body_behavioural,3.0.4,59.965027196159745,
5,"They dropped their belongings and hugged, and Sven slipped the ring onto Isabel’s finger. ",3,4,,,,0,5,5,5,,,,,0,28,28,28,,,,,,,,,,,,,,,,,,,,,,,,,,,,,1,1.9505328980012564,,,,,,,,,,,,,,,,,,,,,,,,,,,,030419_p1,001,2019_Mar_04_1017,body_behavioural,3.0.4,59.965027196159745,
5,"After getting their shoes back on, they practically skipped to the gate, filled with joy.",3,4,,,,0,5,5,5,,,,,0,29,29,29,,,,,,,,,,,,,,,,,,,,,,,,,,,,,1,2.070535826002015,,,,,,,,,,,,,,,,,,,,,,,,,,,,030419_p1,001,2019_Mar_04_1017,body_behavioural,3.0.4,59.965027196159745,
5,Sven high-fived a confused shoe-shine attendant as they passed.,3,4,,,,0,5,5,5,,,,,0,30,30,30,,,,,,,,,,,,,,,,,,,,,,,,,,,,,1,1.419999949997873,,,,,,,,,,,,,,,,,,,,,,,,,,,,030419_p1,001,2019_Mar_04_1017,body_behavioural,3.0.4,59.965027196159745,
5,"They sat down outside their gate, having actually made good time, until the attendant called for passengers.",3,4,,,,0,5,5,5,,,,,0,31,31,31,,,,,,,,,,,,,,,,,,,,,,,,,,,,,1,4.0172030000030645,,,,,,,,,,,,,,,,,,,,,,,,,,,,030419_p1,001,2019_Mar_04_1017,body_behavioural,3.0.4,59.965027196159745,
5,"They boarded, sitting together in first class, and had a glass of champagne to celebrate the departure into their new life together.",4,4,,,,0,5,5,5,,,,,0,32,32,32,,,,,,,,,,,,,,,,,,,,,,,,,,,,,1,2.2195343989951652,,,,,,,,,,,,,,,,,,,,,,,,,,,,030419_p1,001,2019_Mar_04_1017,body_behavioural,3.0.4,59.965027196159745,
5,"Some of their neighboring passengers who had witnessed the proposal congratulated them, and a woman next to them showed them that she had been live-tweeting the whole event and that it was already going viral online.",4,4,,,,0,5,5,5,,,,,0,33,33,33,,,,,,,,,,,,,,,,,,,,,,,,,,,,,1,5.10390832000121,,,,,,,,,,,,,,,,,,,,,,,,,,,,030419_p1,001,2019_Mar_04_1017,body_behavioural,3.0.4,59.965027196159745,
5,"Isabel slid down in her seat with her hands over her face, both embarrassed and overjoyed at the same time.
",4,4,,,,0,5,5,5,,,,,0,34,34,34,,,,,,,,,,,,,,,,,,,,,,,,,,,,,1,1.968878774001496,,,,,,,,,,,,,,,,,,,,,,,,,,,,030419_p1,001,2019_Mar_04_1017,body_behavioural,3.0.4,59.965027196159745,
5,,,,,,,0,5,5,5,,,,,,,,,,,,,,,,,,,,,,,,,,,,,,,,,,,,,,,,,,,,,,,,,,,,,,,,,,,,,,,,,,030419_p1,001,2019_Mar_04_1017,body_behavioural,3.0.4,59.965027196159745,
6,,,,,,,0,6,6,6,0,0,0,0,,,,,,,,,,,,,,,,,,,,,,,,,,,space,1.0016808099971968,space,0.6526447099968209,space,0.7863940429961076,,,,,,,,,,,,,,,,,,,,,,,,,,,,,,030419_p1,001,2019_Mar_04_1017,body_behavioural,3.0.4,59.965027196159745,
6,,,,,,,0,6,6,6,1,0,1,0,,,,,,,,,,,,,,,,,,,,,,,,,,,,,,,space,0.5673497070019948,,,,,,,,,,,,,,,,,,,,,,,,,,,,,,030419_p1,001,2019_Mar_04_1017,body_behavioural,3.0.4,59.965027196159745,
6,,,,,,,0,6,6,6,2,0,2,0,,,,,,,,,,,,,,,,,,,,,,,,,,,,,,,space,0.3860645970053156,,,,,,,,,,,,,,,,,,,,,,,,,,,,,,030419_p1,001,2019_Mar_04_1017,body_behavioural,3.0.4,59.965027196159745,
6,The grocery store was not the place Emmanuella and Liam wanted to be at the moment considering they had been fighting beforehand to the point where Emmanuella was thinking of breaking up with Liam.,1,1,,,,0,6,6,6,,,,,0,0,0,0,,,,,,,,,,,,,,,,,,,,,,,,,,,,,1,6.1370223150006495,,,,,,,,,,,,,,,,,,,,,,,,,,,,030419_p1,001,2019_Mar_04_1017,body_behavioural,3.0.4,59.965027196159745,
6,"However, they had to go grocery shopping because they were hosting a dinner party for friends that evening and had no groceries. ",1,1,,,,0,6,6,6,,,,,0,1,1,1,,,,,,,,,,,,,,,,,,,,,,,,,,,,,1,1.7031290250015445,,,,,,,,,,,,,,,,,,,,,,,,,,,,030419_p1,001,2019_Mar_04_1017,body_behavioural,3.0.4,59.965027196159745,
6,The grocery store was dimly lit and had dark wood paneling for all the shelves.,1,1,,,,0,6,6,6,,,,,0,2,2,2,,,,,,,,,,,,,,,,,,,,,,,,,,,,,1,1.2337117780043627,,,,,,,,,,,,,,,,,,,,,,,,,,,,030419_p1,001,2019_Mar_04_1017,body_behavioural,3.0.4,59.965027196159745,
6,"The store specialized in organic produce and products catering to desires for high-end products, such as imported cheeses and sauces. ",1,1,,,,0,6,6,6,,,,,0,3,3,3,,,,,,,,,,,,,,,,,,,,,,,,,,,,,1,3.1532178970010136,,,,,,,,,,,,,,,,,,,,,,,,,,,,030419_p1,001,2019_Mar_04_1017,body_behavioural,3.0.4,59.965027196159745,
6,"Emmanuella felt angry as she headed immediately for the pasta section, and Liam trailed behind her. ",2,1,,,,0,6,6,6,,,,,0,4,4,4,,,,,,,,,,,,,,,,,,,,,,,,,,,,,1,1.7198103569971863,,,,,,,,,,,,,,,,,,,,,,,,,,,,030419_p1,001,2019_Mar_04_1017,body_behavioural,3.0.4,59.965027196159745,
6,Emmanuella selected a few boxes of linguine.,2,1,,,,0,6,6,6,,,,,0,5,5,5,,,,,,,,,,,,,,,,,,,,,,,,,,,,,1,2.787336632994993,,,,,,,,,,,,,,,,,,,,,,,,,,,,030419_p1,001,2019_Mar_04_1017,body_behavioural,3.0.4,59.965027196159745,
6,"“I guess we are having pasta tonight,” Liam said.",2,1,,,,0,6,6,6,,,,,0,6,6,6,,,,,,,,,,,,,,,,,,,,,,,,,,,,,1,1.3362389120011358,,,,,,,,,,,,,,,,,,,,,,,,,,,,030419_p1,001,2019_Mar_04_1017,body_behavioural,3.0.4,59.965027196159745,
6,"Emmanuella looked back at him and said, “Well if you were going to actually help cook, I would be fine with something else.”",2,1,,,,0,6,6,6,,,,,0,7,7,7,,,,,,,,,,,,,,,,,,,,,,,,,,,,,1,2.1364004319984815,,,,,,,,,,,,,,,,,,,,,,,,,,,,030419_p1,001,2019_Mar_04_1017,body_behavioural,3.0.4,59.965027196159745,
6,"Liam sighed, and finally said, “You don’t want me to help.",2,1,,,,0,6,6,6,,,,,0,8,8,8,,,,,,,,,,,,,,,,,,,,,,,,,,,,,1,1.953221224997833,,,,,,,,,,,,,,,,,,,,,,,,,,,,030419_p1,001,2019_Mar_04_1017,body_behavioural,3.0.4,59.965027196159745,
6,"I try to, but it seems like I always get in the way!” ",2,1,,,,0,6,6,6,,,,,0,9,9,9,,,,,,,,,,,,,,,,,,,,,,,,,,,,,1,1.719766560003336,,,,,,,,,,,,,,,,,,,,,,,,,,,,030419_p1,001,2019_Mar_04_1017,body_behavioural,3.0.4,59.965027196159745,
6,"Emmanuella angrily threw the pasta into the cart, losing her temper.",2,1,,,,0,6,6,6,,,,,0,10,10,10,,,,,,,,,,,,,,,,,,,,,,,,,,,,,1,3.903190232005727,,,,,,,,,,,,,,,,,,,,,,,,,,,,030419_p1,001,2019_Mar_04_1017,body_behavioural,3.0.4,59.965027196159745,
6," “Liam, you don’t even try!",2,1,,,,0,6,6,6,,,,,0,11,11,11,,,,,,,,,,,,,,,,,,,,,,,,,,,,,1,0.9695686169943656,,,,,,,,,,,,,,,,,,,,,,,,,,,,030419_p1,001,2019_Mar_04_1017,body_behavioural,3.0.4,59.965027196159745,
6,You know what?,2,1,,,,0,6,6,6,,,,,0,12,12,12,,,,,,,,,,,,,,,,,,,,,,,,,,,,,1,0.9370661900029518,,,,,,,,,,,,,,,,,,,,,,,,,,,,030419_p1,001,2019_Mar_04_1017,body_behavioural,3.0.4,59.965027196159745,
6,I don’t think I can do this anymore. ,2,2,,,,0,6,6,6,,,,,0,13,13,13,,,,,,,,,,,,,,,,,,,,,,,,,,,,,1,0.903670970001258,,,,,,,,,,,,,,,,,,,,,,,,,,,,030419_p1,001,2019_Mar_04_1017,body_behavioural,3.0.4,59.965027196159745,
6,"I was going to wait until after this unfortunately-timed dinner party tonight to talk about this, but I might as well say it now: I don’t want to be in a relationship with you anymore.",2,2,,,,0,6,6,6,,,,,0,14,14,14,,,,,,,,,,,,,,,,,,,,,,,,,,,,,1,2.736720411994611,,,,,,,,,,,,,,,,,,,,,,,,,,,,030419_p1,001,2019_Mar_04_1017,body_behavioural,3.0.4,59.965027196159745,
6," I’m tired of the constant fighting, and I feel like when we try to do anything fun anymore it ends up unpleasant for the stupidest reasons, and I am just past  trying to work things out.”",2,2,,,,0,6,6,6,,,,,0,15,15,15,,,,,,,,,,,,,,,,,,,,,,,,,,,,,1,4.520074125000974,,,,,,,,,,,,,,,,,,,,,,,,,,,,030419_p1,001,2019_Mar_04_1017,body_behavioural,3.0.4,59.965027196159745,
6,"Liam refused to look at her as she picked out sauces for the pasta, and then she threw up her hands, saying, “You know what, if this party is still happening we are going to just eat pasta.”",2,2,,,,0,6,6,6,,,,,0,16,16,16,,,,,,,,,,,,,,,,,,,,,,,,,,,,,1,4.753356786997756,,,,,,,,,,,,,,,,,,,,,,,,,,,,030419_p1,001,2019_Mar_04_1017,body_behavioural,3.0.4,59.965027196159745,
6,They headed to the checkout area where there was only one station open but it was not crowded at all.,3,2,,,,0,6,6,6,,,,,0,17,17,17,,,,,,,,,,,,,,,,,,,,,,,,,,,,,9,1.9364628180046566,,,,,,,,,,,,,,,,,,,,,,,,,,,,030419_p1,001,2019_Mar_04_1017,body_behavioural,3.0.4,59.965027196159745,
6,Emmanuella sighed and got in line while Liam pretended to be interested in the magazine racks as he thought. ,3,2,,,,0,6,6,6,,,,,0,18,18,18,,,,,,,,,,,,,,,,,,,,,,,,,,,,,1,2.186416625001584,,,,,,,,,,,,,,,,,,,,,,,,,,,,030419_p1,001,2019_Mar_04_1017,body_behavioural,3.0.4,59.965027196159745,
6,"Finally he turned to her and sighed, “Yes, I was thinking the same thing - I think we could definitely be happier with other people.” ",3,3,,,,0,6,6,6,,,,,0,19,19,19,,,,,,,,,,,,,,,,,,,,,,,,,,,,,1,2.334151094997651,,,,,,,,,,,,,,,,,,,,,,,,,,,,030419_p1,001,2019_Mar_04_1017,body_behavioural,3.0.4,59.965027196159745,
6,"As if she hadn't heard him, Emmanuella looked at their cart and said, “I'm not sure this will be enough, could you grab another box of pasta?”",3,3,,,,0,6,6,6,,,,,0,20,20,20,,,,,,,,,,,,,,,,,,,,,,,,,,,,,1,3.3532559749946813,,,,,,,,,,,,,,,,,,,,,,,,,,,,030419_p1,001,2019_Mar_04_1017,body_behavioural,3.0.4,59.965027196159745,
6, Liam scoffed and walked off to quickly get it.,3,3,,,,0,6,6,6,,,,,0,21,21,21,,,,,,,,,,,,,,,,,,,,,,,,,,,,,1,1.4030476499974611,,,,,,,,,,,,,,,,,,,,,,,,,,,,030419_p1,001,2019_Mar_04_1017,body_behavioural,3.0.4,59.965027196159745,
6,"As Emmanuella waited in line, she took a moment to compose herself, deciding that there was no reason to continue making a scene in the store. ",3,3,,,,0,6,6,6,,,,,0,22,22,22,,,,,,,,,,,,,,,,,,,,,,,,,,,,,1,2.485552521997306,,,,,,,,,,,,,,,,,,,,,,,,,,,,030419_p1,001,2019_Mar_04_1017,body_behavioural,3.0.4,59.965027196159745,
6," Right when Liam came back with the pasta, the cashier started scanning their groceries.",4,3,,,,0,6,6,6,,,,,0,23,23,23,,,,,,,,,,,,,,,,,,,,,,,,,,,,,1,1.9030477600026643,,,,,,,,,,,,,,,,,,,,,,,,,,,,030419_p1,001,2019_Mar_04_1017,body_behavioural,3.0.4,59.965027196159745,
6,"The cost came to $30, and Emmanuella paid with her credit card.",4,3,,,,0,6,6,6,,,,,0,24,24,24,,,,,,,,,,,,,,,,,,,,,,,,,,,,,1,2.5864771070046118,,,,,,,,,,,,,,,,,,,,,,,,,,,,030419_p1,001,2019_Mar_04_1017,body_behavioural,3.0.4,59.965027196159745,
6,"She asked Liam politely to take the bags, and he obliged, following her to toward the exit. ",4,3,,,,0,6,6,6,,,,,0,25,25,25,,,,,,,,,,,,,,,,,,,,,,,,,,,,,1,2.2531347449985333,,,,,,,,,,,,,,,,,,,,,,,,,,,,030419_p1,001,2019_Mar_04_1017,body_behavioural,3.0.4,59.965027196159745,
6,"“Liam, I think we are making the right decision.",4,4,,,,0,6,6,6,,,,,0,26,26,26,,,,,,,,,,,,,,,,,,,,,,,,,,,,,1,1.1197201969989692,,,,,,,,,,,,,,,,,,,,,,,,,,,,030419_p1,001,2019_Mar_04_1017,body_behavioural,3.0.4,59.965027196159745,
6,This is good.” ,4,4,,,,0,6,6,6,,,,,0,27,27,27,,,,,,,,,,,,,,,,,,,,,,,,,,,,,1,0.9029465599960531,,,,,,,,,,,,,,,,,,,,,,,,,,,,030419_p1,001,2019_Mar_04_1017,body_behavioural,3.0.4,59.965027196159745,
6,"“I agree,” he said, visibly relieved at the thought that they had gotten through the last fight they would ever need to have.",4,4,,,,0,6,6,6,,,,,0,28,28,28,,,,,,,,,,,,,,,,,,,,,,,,,,,,,1,2.86980179999955,,,,,,,,,,,,,,,,,,,,,,,,,,,,030419_p1,001,2019_Mar_04_1017,body_behavioural,3.0.4,59.965027196159745,
6,"“I think we can still host this dinner tonight, as long as you're still on board,” Emmanuella said.",4,4,,,,0,6,6,6,,,,,0,29,29,29,,,,,,,,,,,,,,,,,,,,,,,,,,,,,1,4.170044942002278,,,,,,,,,,,,,,,,,,,,,,,,,,,,030419_p1,001,2019_Mar_04_1017,body_behavioural,3.0.4,59.965027196159745,
6,"Liam nodded, “Yes, let’s just not tell anyone yet.” ",4,4,,,,0,6,6,6,,,,,0,30,30,30,,,,,,,,,,,,,,,,,,,,,,,,,,,,,1,1.1189979250048054,,,,,,,,,,,,,,,,,,,,,,,,,,,,030419_p1,001,2019_Mar_04_1017,body_behavioural,3.0.4,59.965027196159745,
6,"Emmanuella laughed, “Whoever leaks it loses their rights to the cat.”",4,4,,,,0,6,6,6,,,,,0,31,31,31,,,,,,,,,,,,,,,,,,,,,,,,,,,,,1,2.433896911999909,,,,,,,,,,,,,,,,,,,,,,,,,,,,030419_p1,001,2019_Mar_04_1017,body_behavioural,3.0.4,59.965027196159745,
6,"Liam rolled his eyes and managed a weak chuckle, knowing the cat would be a whole other issue to sort out later.
",4,4,,,,0,6,6,6,,,,,0,32,32,32,,,,,,,,,,,,,,,,,,,,,,,,,,,,,1,4.050934729995788,,,,,,,,,,,,,,,,,,,,,,,,,,,,030419_p1,001,2019_Mar_04_1017,body_behavioural,3.0.4,59.965027196159745,
6,,,,,,,0,6,6,6,,,,,,,,,,,,,,,,,,,,,,,,,,,,,,,,,,,,,,,,,,,,,,,,,,,,,,,,,,,,,,,,,,030419_p1,001,2019_Mar_04_1017,body_behavioural,3.0.4,59.965027196159745,
7,,,,,,,0,7,7,7,0,0,0,0,,,,,,,,,,,,,,,,,,,,,,,,,,,space,0.9863414779974846,space,0.8030130669940263,space,1.2362402400030987,,,,,,,,,,,,,,,,,,,,,,,,,,,,,,030419_p1,001,2019_Mar_04_1017,body_behavioural,3.0.4,59.965027196159745,
7,,,,,,,0,7,7,7,1,0,1,0,,,,,,,,,,,,,,,,,,,,,,,,,,,,,,,space,0.5377219000001787,,,,,,,,,,,,,,,,,,,,,,,,,,,,,,030419_p1,001,2019_Mar_04_1017,body_behavioural,3.0.4,59.965027196159745,
7,,,,,,,0,7,7,7,2,0,2,0,,,,,,,,,,,,,,,,,,,,,,,,,,,,,,,space,0.3697394369955873,,,,,,,,,,,,,,,,,,,,,,,,,,,,,,030419_p1,001,2019_Mar_04_1017,body_behavioural,3.0.4,59.965027196159745,
7,,,,,,,0,7,7,7,3,0,3,0,,,,,,,,,,,,,,,,,,,,,,,,,,,,,,,space,0.40290630500385305,,,,,,,,,,,,,,,,,,,,,,,,,,,,,,030419_p1,001,2019_Mar_04_1017,body_behavioural,3.0.4,59.965027196159745,
7,"Maria walked into lecture beside Henry, and she was mentally rehearsing what she should say to break up with him.",1,1,,,,0,7,7,7,,,,,0,0,0,0,,,,,,,,,,,,,,,,,,,,,,,,,,,,,1,5.5865743850008585,,,,,,,,,,,,,,,,,,,,,,,,,,,,030419_p1,001,2019_Mar_04_1017,body_behavioural,3.0.4,59.965027196159745,
7,"She had been putting it off with a growing sense of dread, and now this lecture was the last chance before she had to leave campus. ",1,1,,,,0,7,7,7,,,,,0,1,1,1,,,,,,,,,,,,,,,,,,,,,,,,,,,,,1,2.153226194997842,,,,,,,,,,,,,,,,,,,,,,,,,,,,030419_p1,001,2019_Mar_04_1017,body_behavioural,3.0.4,59.965027196159745,
7,"The lecture hall was large, with a stage for the lecturer in the front of the room, and tiered seats that stretched up in 15 stacked rows. ",1,1,,,,0,7,7,7,,,,,0,2,2,2,,,,,,,,,,,,,,,,,,,,,,,,,,,,,1,3.5031137320038397,,,,,,,,,,,,,,,,,,,,,,,,,,,,030419_p1,001,2019_Mar_04_1017,body_behavioural,3.0.4,59.965027196159745,
7,"The clock struck 3 pm, and Maria and Henry slid into neighboring seats near the back of the room.",1,1,,,,0,7,7,7,,,,,0,3,3,3,,,,,,,,,,,,,,,,,,,,,,,,,,,,,1,2.3364964549982687,,,,,,,,,,,,,,,,,,,,,,,,,,,,030419_p1,001,2019_Mar_04_1017,body_behavioural,3.0.4,59.965027196159745,
7,"“Good afternoon, everybody,” said the professor, fiddling to connect his laptop with the projector.",2,1,,,,0,7,7,7,,,,,0,4,4,4,,,,,,,,,,,,,,,,,,,,,,,,,,,,,1,2.069781817001058,,,,,,,,,,,,,,,,,,,,,,,,,,,,030419_p1,001,2019_Mar_04_1017,body_behavioural,3.0.4,59.965027196159745,
7,“Welcome to week 4 of Intro to Ancient Philosophy. ,2,1,,,,0,7,7,7,,,,,0,5,5,5,,,,,,,,,,,,,,,,,,,,,,,,,,,,,1,1.5174391719992855,,,,,,,,,,,,,,,,,,,,,,,,,,,,030419_p1,001,2019_Mar_04_1017,body_behavioural,3.0.4,59.965027196159745,
7,Today we are going to continue our lecture on Aristotelian Philosophy.”,2,1,,,,0,7,7,7,,,,,0,6,6,6,,,,,,,,,,,,,,,,,,,,,,,,,,,,,1,1.7031031520018587,,,,,,,,,,,,,,,,,,,,,,,,,,,,030419_p1,001,2019_Mar_04_1017,body_behavioural,3.0.4,59.965027196159745,
7,Everyone in class pulled out their notebooks and settled in their seats as the slides appeared on the large front screens.,2,1,,,,0,7,7,7,,,,,0,7,7,7,,,,,,,,,,,,,,,,,,,,,,,,,,,,,9,1.2030961020063842,,,,,,,,,,,,,,,,,,,,,,,,,,,,030419_p1,001,2019_Mar_04_1017,body_behavioural,3.0.4,59.965027196159745,
7,"“Henry,” Maria whispered.",2,1,,,,0,7,7,7,,,,,0,8,8,8,,,,,,,,,,,,,,,,,,,,,,,,,,,,,1,1.3526529570008279,,,,,,,,,,,,,,,,,,,,,,,,,,,,030419_p1,001,2019_Mar_04_1017,body_behavioural,3.0.4,59.965027196159745,
7,"“Hmm?” he replied, distracted.",2,1,,,,0,7,7,7,,,,,0,9,9,9,,,,,,,,,,,,,,,,,,,,,,,,,,,,,1,0.986360014998354,,,,,,,,,,,,,,,,,,,,,,,,,,,,030419_p1,001,2019_Mar_04_1017,body_behavioural,3.0.4,59.965027196159745,
7,"“Henry, I need to tell you something really important, and I don’t know when else I’ll have a chance to do it,” she said.",2,1,,,,0,7,7,7,,,,,0,10,10,10,,,,,,,,,,,,,,,,,,,,,,,,,,,,,1,1.6364697349999915,,,,,,,,,,,,,,,,,,,,,,,,,,,,030419_p1,001,2019_Mar_04_1017,body_behavioural,3.0.4,59.965027196159745,
7,"“Okay, what's up?”, he said, tilting his head close to her. ",2,1,,,,0,7,7,7,,,,,0,11,11,11,,,,,,,,,,,,,,,,,,,,,,,,,,,,,1,1.7863897219940554,,,,,,,,,,,,,,,,,,,,,,,,,,,,030419_p1,001,2019_Mar_04_1017,body_behavioural,3.0.4,59.965027196159745,
7," “Henry, I don’t think I can do long distance.",2,2,,,,0,7,7,7,,,,,0,12,12,12,,,,,,,,,,,,,,,,,,,,,,,,,,,,,1,1.2363318450006773,,,,,,,,,,,,,,,,,,,,,,,,,,,,030419_p1,001,2019_Mar_04_1017,body_behavioural,3.0.4,59.965027196159745,
7,"I think what we have here is great, but I think it will be really hard when we are so far apart for such an extended period.",2,2,,,,0,7,7,7,,,,,0,13,13,13,,,,,,,,,,,,,,,,,,,,,,,,,,,,,1,1.986092892002489,,,,,,,,,,,,,,,,,,,,,,,,,,,,030419_p1,001,2019_Mar_04_1017,body_behavioural,3.0.4,59.965027196159745,
7,"I’m sorry I’m telling you now in lecture, but I'm out of time, and it’s taken me awhile to come to this decision.",2,2,,,,0,7,7,7,,,,,0,14,14,14,,,,,,,,,,,,,,,,,,,,,,,,,,,,,1,2.919615988001169,,,,,,,,,,,,,,,,,,,,,,,,,,,,030419_p1,001,2019_Mar_04_1017,body_behavioural,3.0.4,59.965027196159745,
7,"I really think this is best, and who knows what will happen when I get back from my study abroad.” ",2,2,,,,0,7,7,7,,,,,0,15,15,15,,,,,,,,,,,,,,,,,,,,,,,,,,,,,1,3.8363074279986904,,,,,,,,,,,,,,,,,,,,,,,,,,,,030419_p1,001,2019_Mar_04_1017,body_behavioural,3.0.4,59.965027196159745,
7,"While Henry tried to think of what to say, he and Maria stared unlistening at the professor as he started the lecture, “First we will talk about Aristotle’s work, The Categories.",3,2,,,,0,7,7,7,,,,,0,16,16,16,,,,,,,,,,,,,,,,,,,,,,,,,,,,,9,3.9699653499992564,,,,,,,,,,,,,,,,,,,,,,,,,,,,030419_p1,001,2019_Mar_04_1017,body_behavioural,3.0.4,59.965027196159745,
7,"This text, as you might have been able to guess, is about the kinds, or categories, of things that there are.",3,2,,,,0,7,7,7,,,,,0,17,17,17,,,,,,,,,,,,,,,,,,,,,,,,,,,,,1,2.0031279570030165,,,,,,,,,,,,,,,,,,,,,,,,,,,,030419_p1,001,2019_Mar_04_1017,body_behavioural,3.0.4,59.965027196159745,
7,"In fact, our term category comes from this Aristotelian context.” ",3,2,,,,0,7,7,7,,,,,0,18,18,18,,,,,,,,,,,,,,,,,,,,,,,,,,,,,1,1.1692704369997955,,,,,,,,,,,,,,,,,,,,,,,,,,,,030419_p1,001,2019_Mar_04_1017,body_behavioural,3.0.4,59.965027196159745,
7,"Henry felt horrible, like the wind had just been knocked out of him.",3,2,,,,0,7,7,7,,,,,0,19,19,19,,,,,,,,,,,,,,,,,,,,,,,,,,,,,1,1.3532896750039072,,,,,,,,,,,,,,,,,,,,,,,,,,,,030419_p1,001,2019_Mar_04_1017,body_behavioural,3.0.4,59.965027196159745,
7,"A few tears started to fall down his cheeks as he whispered back, “Maria, I think we can make it work.",3,3,,,,0,7,7,7,,,,,0,20,20,20,,,,,,,,,,,,,,,,,,,,,,,,,,,,,1,1.386384937002731,,,,,,,,,,,,,,,,,,,,,,,,,,,,030419_p1,001,2019_Mar_04_1017,body_behavioural,3.0.4,59.965027196159745,
7,I’ll come visit you.,3,3,,,,0,7,7,7,,,,,0,21,21,21,,,,,,,,,,,,,,,,,,,,,,,,,,,,,1,1.2697613800046383,,,,,,,,,,,,,,,,,,,,,,,,,,,,030419_p1,001,2019_Mar_04_1017,body_behavioural,3.0.4,59.965027196159745,
7,It will be fine.,3,3,,,,0,7,7,7,,,,,0,22,22,22,,,,,,,,,,,,,,,,,,,,,,,,,,,,,1,1.1530039700010093,,,,,,,,,,,,,,,,,,,,,,,,,,,,030419_p1,001,2019_Mar_04_1017,body_behavioural,3.0.4,59.965027196159745,
7,I don’t want to break up.”,3,3,,,,0,7,7,7,,,,,0,23,23,23,,,,,,,,,,,,,,,,,,,,,,,,,,,,,1,1.2174134899978526,,,,,,,,,,,,,,,,,,,,,,,,,,,,030419_p1,001,2019_Mar_04_1017,body_behavioural,3.0.4,59.965027196159745,
7,"Maria felt so guilty that she nearly gave in, but forced herself to hold her ground, knowing that this would make things much easier for both of them in the future.",3,3,,,,0,7,7,7,,,,,0,24,24,24,,,,,,,,,,,,,,,,,,,,,,,,,,,,,9,3.3371199879984488,,,,,,,,,,,,,,,,,,,,,,,,,,,,030419_p1,001,2019_Mar_04_1017,body_behavioural,3.0.4,59.965027196159745,
7,"She gave his hand a squeeze but shook her head sadly, before turning back to her laptop and half-heartedly taking notes on the lecture which they sat through in painful silence.",3,3,,,,0,7,7,7,,,,,0,25,25,25,,,,,,,,,,,,,,,,,,,,,,,,,,,,,1,3.536489014994004,,,,,,,,,,,,,,,,,,,,,,,,,,,,030419_p1,001,2019_Mar_04_1017,body_behavioural,3.0.4,59.965027196159745,
7,"Finally, the professor was wrapping up, “This is what Aristotle means when he says that an animal’s or plant’s form rather than its matter is its nature. ",4,3,,,,0,7,7,7,,,,,0,26,26,26,,,,,,,,,,,,,,,,,,,,,,,,,,,,,1,5.454091219995462,,,,,,,,,,,,,,,,,,,,,,,,,,,,030419_p1,001,2019_Mar_04_1017,body_behavioural,3.0.4,59.965027196159745,
7,"Alright class, that’s all for today. ",4,3,,,,0,7,7,7,,,,,0,27,27,27,,,,,,,,,,,,,,,,,,,,,,,,,,,,,1,0.8360847799995099,,,,,,,,,,,,,,,,,,,,,,,,,,,,030419_p1,001,2019_Mar_04_1017,body_behavioural,3.0.4,59.965027196159745,
7,"Remember the final exam is coming up next week on Tuesday on the Pre-Socratics, Plato, and Aristotle, so feel free to come by office hours to discuss if you have the inspiration.",4,3,,,,0,7,7,7,,,,,0,28,28,28,,,,,,,,,,,,,,,,,,,,,,,,,,,,,1,3.052634460000263,,,,,,,,,,,,,,,,,,,,,,,,,,,,030419_p1,001,2019_Mar_04_1017,body_behavioural,3.0.4,59.965027196159745,
7,"And if anyone is doing the 20 page paper in lieu of the final, that’s due next Tuesday as well.",4,3,,,,0,7,7,7,,,,,0,29,29,29,,,,,,,,,,,,,,,,,,,,,,,,,,,,,1,2.336283220000041,,,,,,,,,,,,,,,,,,,,,,,,,,,,030419_p1,001,2019_Mar_04_1017,body_behavioural,3.0.4,59.965027196159745,
7,"Have a good day, folks.” ",4,3,,,,0,7,7,7,,,,,0,30,30,30,,,,,,,,,,,,,,,,,,,,,,,,,,,,,1,1.2029420749968267,,,,,,,,,,,,,,,,,,,,,,,,,,,,030419_p1,001,2019_Mar_04_1017,body_behavioural,3.0.4,59.965027196159745,
7,"Maria and Henry packed up hurriedly, and slipped quickly out of the class before the rest of the crowd. ",4,3,,,,0,7,7,7,,,,,0,31,31,31,,,,,,,,,,,,,,,,,,,,,,,,,,,,,9,1.5863480170010007,,,,,,,,,,,,,,,,,,,,,,,,,,,,030419_p1,001,2019_Mar_04_1017,body_behavioural,3.0.4,59.965027196159745,
7,"They hugged outside, and both of them were crying. ",4,4,,,,0,7,7,7,,,,,0,32,32,32,,,,,,,,,,,,,,,,,,,,,,,,,,,,,1,0.969609154999489,,,,,,,,,,,,,,,,,,,,,,,,,,,,030419_p1,001,2019_Mar_04_1017,body_behavioural,3.0.4,59.965027196159745,
7,"“Maria, I don’t want you to leave.",4,4,,,,0,7,7,7,,,,,0,33,33,33,,,,,,,,,,,,,,,,,,,,,,,,,,,,,1,1.186544802003482,,,,,,,,,,,,,,,,,,,,,,,,,,,,030419_p1,001,2019_Mar_04_1017,body_behavioural,3.0.4,59.965027196159745,
7,I don’t want this to end. ,4,4,,,,0,7,7,7,,,,,0,34,34,34,,,,,,,,,,,,,,,,,,,,,,,,,,,,,1,0.9864276099979179,,,,,,,,,,,,,,,,,,,,,,,,,,,,030419_p1,001,2019_Mar_04_1017,body_behavioural,3.0.4,59.965027196159745,
7,"But if this is what you think is best, I can’t make it otherwise.” ",4,4,,,,0,7,7,7,,,,,0,35,35,35,,,,,,,,,,,,,,,,,,,,,,,,,,,,,1,1.0672597419979866,,,,,,,,,,,,,,,,,,,,,,,,,,,,030419_p1,001,2019_Mar_04_1017,body_behavioural,3.0.4,59.965027196159745,
7,"They hugged one last time, and Maria ran off to get her things from her dorm.",4,4,,,,0,7,7,7,,,,,0,36,36,36,,,,,,,,,,,,,,,,,,,,,,,,,,,,,1,1.8032732569990912,,,,,,,,,,,,,,,,,,,,,,,,,,,,030419_p1,001,2019_Mar_04_1017,body_behavioural,3.0.4,59.965027196159745,
7,Henry sadly watched her go. ,4,4,,,,0,7,7,7,,,,,0,37,37,37,,,,,,,,,,,,,,,,,,,,,,,,,,,,,1,1.0363321370023186,,,,,,,,,,,,,,,,,,,,,,,,,,,,030419_p1,001,2019_Mar_04_1017,body_behavioural,3.0.4,59.965027196159745,
7,,,,,,,0,7,7,7,,,,,,,,,,,,,,,,,,,,,,,,,,,,,,,,,,,,,,,,,,,,,,,,,,,,,,,,,,,,,,,,,,030419_p1,001,2019_Mar_04_1017,body_behavioural,3.0.4,59.965027196159745,
,,,,,,,,,,,,,,,,,,,,,,,,,,,,,,,,,,,,,,,,,,,,,,,,,1006.8660263290003,space,1.2030863100007991,,,,,,,,,,,,,,,,,,,,,,,,,030419_p1,001,2019_Mar_04_1017,body_behavioural,3.0.4,59.965027196159745,
,,,,,,The next task in the experiment is to recall each story to the best of your ability.,,,,,,,,,,,,,0,0,0,0,,,,,,,,,,,,,,,,,,,,,,,,,,,,,,space,1.5531506769984844,,,,,,,,,,,,,,,,,,,,,,,030419_p1,001,2019_Mar_04_1017,body_behavioural,3.0.4,59.965027196159745,
,,,,,,"You will be presented with the story title, names, the images, and a blank text box for each story.",,,,,,,,,,,,,0,1,1,1,,,,,,,,,,,,,,,,,,,,,,,,,,,,,,space,2.4029893080005422,,,,,,,,,,,,,,,,,,,,,,,030419_p1,001,2019_Mar_04_1017,body_behavioural,3.0.4,59.965027196159745,
,,,,,,Describe the story with as many details as you can remember in the space provided. ,,,,,,,,,,,,,0,2,2,2,,,,,,,,,,,,,,,,,,,,,,,,,,,,,,space,1.5694222879974404,,,,,,,,,,,,,,,,,,,,,,,030419_p1,001,2019_Mar_04_1017,body_behavioural,3.0.4,59.965027196159745,
,,,,,,"When you are finished recalling one story, to move onto the next one hit ‘return’. ",,,,,,,,,,,,,0,3,3,3,,,,,,,,,,,,,,,,,,,,,,,,,,,,,,space,1.400807555000938,,,,,,,,,,,,,,,,,,,,,,,030419_p1,001,2019_Mar_04_1017,body_behavioural,3.0.4,59.965027196159745,
,,,,,,There is a 5 minute time limit to make your response. ,,,,,,,,,,,,,0,4,4,4,,,,,,,,,,,,,,,,,,,,,,,,,,,,,,space,1.3531947580049746,,,,,,,,,,,,,,,,,,,,,,,030419_p1,001,2019_Mar_04_1017,body_behavioural,3.0.4,59.965027196159745,
0,,,,,,,,,,,,,,,,,,,,,,,0,0,0,0,,,,,,,,,,,,,,,,,,,,,,,,,,,,space,1.0530542800042895,"Charlie and alma are classmates. alma is starting a business and has asked charlie to invest. during a lecture they have together, charlie tells alma that his venture capitalist group cannot invest as much money as they want to in the organization. alma says that she needs to speak with her team, because if they don't have enough money the whole thing needs to be re-arranged. they are in a class about the history of the roman empire. the professor reminds the class that they have a midterm on thursday and should talk to their ta.  ",,,,,,,,,,,,,,,,,,,,030419_p1,001,2019_Mar_04_1017,body_behavioural,3.0.4,59.965027196159745,
1,,,,,,,,,,,,,,,,,,,,,,,0,1,1,1,,,,,,,,,,,,,,,,,,,,,,,,,,,,space,1.336373572004959,"Senna and alvira have been dating for three years. senna takes alvira to a very nice seafood restaurant that overlooks the ocean in order to propose. after ordering, senna tells alvira how much he loves her and how he wants to spend the rest of his life with her. alvira is surprised and jokes that he is flattering her tomatoes too much that she recently grew. senna jokes back that the tomatoes were truly fantastic. the waiter then brings the ring on top of a little cake and presents it to alvira. alvira is shocked and surprised, but tears streaming down her face, is very happy and says she will definitely marry senna. the whole restaurant cheers. ",,,,,,,,,,,,,,,,,,,,030419_p1,001,2019_Mar_04_1017,body_behavioural,3.0.4,59.965027196159745,
2,,,,,,,,,,,,,,,,,,,,,,,0,2,2,2,,,,,,,,,,,,,,,,,,,,,,,,,,,,space,0.8512247380058398,"Teresa and james meet at a diner. james is inside the restaurant when teresa arrives. she clumsily smacks herself into the glass sliding door. she and james joke about it while they eat breakfast. james orders chocolate chip pancakes and teresa orders an omelette and milk. there are neon menus. the waitress is jolly. after eating, they both leave the restaurant. teresa makes another clumsy move. ",,,,,,,,,,,,,,,,,,,,030419_p1,001,2019_Mar_04_1017,body_behavioural,3.0.4,59.965027196159745,
3,,,,,,,,,,,,,,,,,,,,,,,0,3,3,3,,,,,,,,,,,,,,,,,,,,,,,,,,,,space,0.886371076994692,"Ms. bianchi is a european cheese maker trying to sell her cheese to ms. morrison's grocery store chain. ms. bianchi makes the sales pitch that ms. morrison should invest in her cheese because it will increase the amount of olives and crackers and jam sold as well as cheese. ms. morrison says that she has wanted to add a european tint to her grocery stores anyways, so she decides to buy 500 dollars worth of ms. bianchi's cheese. after ms. morrison pays for some crackers all in coins, they go to ms. bianchi's car and eat crackers with fresh mozzarella. ",,,,,,,,,,,,,,,,,,,,030419_p1,001,2019_Mar_04_1017,body_behavioural,3.0.4,59.965027196159745,
4,,,,,,,,,,,,,,,,,,,,,,,0,4,4,4,,,,,,,,,,,,,,,,,,,,,,,,,,,,space,0.7863248650028254,"David and anna are at an airport. anna is clumsy and did not tie her shoes properly that morning. she falls and david catches her. david had seen her from across the room before anna has noticed him. when anna does, she notices how handsome he is. when they start talking, anna thanks him for saving her. later, david asks her whether or not he can help her to her gate. she agrees. david then asks how long her trip is. she says hers is only one week long and he says that his is also short. they agree to have dinner after they both come back when david asks. she hastily gives him her business card. while boarding the plane, anna thinks about how happy she is she didn't tie her shoes correctly that morning. ",,,,,,,,,,,,,,,,,,,,030419_p1,001,2019_Mar_04_1017,body_behavioural,3.0.4,59.965027196159745,
5,,,,,,,,,,,,,,,,,,,,,,,0,5,5,5,,,,,,,,,,,,,,,,,,,,,,,,,,,,space,0.8865562549981405,"Sven wants to propose to isabel and he just got her parents' wishes. they are in the airport on the way back from barcelona after seeing isabel's parents. sven is planning to propose, and puts the ring he wants to use in his coat pocket. unfortunately, when he gets to security at the airport, he forgets to put his ring back in his bag. instead of isabel seeing the ring box randomly, he decides to propose right then and there. he apologizes for the proposal being at a weird time. isabel is surprised and confused and runs away. sven catches up with her and she says yes. they run back to security happily and grab their bags. ",,,,,,,,,,,,,,,,,,,,030419_p1,001,2019_Mar_04_1017,body_behavioural,3.0.4,59.965027196159745,
6,,,,,,,,,,,,,,,,,,,,,,,0,6,6,6,,,,,,,,,,,,,,,,,,,,,,,,,,,,space,1.5040900919993874,"Emmanuella and liam are very unhappy with eachother. they have been dating for a long time but are constantly fighting. however, because they are hosting a dinner with friends at night, they are at the grocery store together shopping for ingredients. emmanuella finally gets really annoyed and tells liam that she wants to have a break-up and can't stand being with him any longer. liam agrees and says he thinks they will both be happier with other people, especially with people they will fight less with. at the checkout line, emmanuella asks liam to go grab more linguini. liam reluctantly goes. then they joke about deciding who gets the cat and liam is forlorn that they will have to have another fight. ",,,,,,,,,,,,,,,,,,,,030419_p1,001,2019_Mar_04_1017,body_behavioural,3.0.4,59.965027196159745,
7,,,,,,,,,,,,,,,,,,,,,,,0,7,7,7,,,,,,,,,,,,,,,,,,,,,,,,,,,,space,0.9530574000018532,"Maria and henry are students in the same lecture, and they have also been dating for a while. maria is studying abroad the next semester and decides that she can't do long distance. she decides to break up with henry during lecture. henry starts to cry when maria tells him that she does not want to continue dating him. he protests and says that they can handle the long distance and that he loves maria. maria can barely take notes during lecture. the lecture is on aristotle. when lecture ends,the professor reminds them that they have an exam on tuesday. maria and henry hug after lecture and both cry. then maria runs back to her dorm and grabs her things. ",,,,,,,,,,,,,,,,,,,,030419_p1,001,2019_Mar_04_1017,body_behavioural,3.0.4,59.965027196159745,
,,,,,,,,,,,,,,,,,,,,,,,,,,,,,,,,,,,,,,,,,,,,,,,,,,,,,,,,,2190.627958999001,space,1.169253945001401,,,,,,,,,,,,,,,,,030419_p1,001,2019_Mar_04_1017,body_behavioural,3.0.4,59.965027196159745,
,,,,,,The next part of the task is to answer 8 questions about each story.,,,,,,,,,,,,,,,,,,,,,0,0,0,0,,,,,,,,,,,,,,,,,,,,,,,,,,,,,,space,1.4698927370045567,,,,,,,,,,,,,,,030419_p1,001,2019_Mar_04_1017,body_behavioural,3.0.4,59.965027196159745,
,,,,,,Some of the questions are not related to the perspective you were asked to assume.,,,,,,,,,,,,,,,,,,,,,0,1,1,1,,,,,,,,,,,,,,,,,,,,,,,,,,,,,,space,1.6698058449983364,,,,,,,,,,,,,,,030419_p1,001,2019_Mar_04_1017,body_behavioural,3.0.4,59.965027196159745,
,,,,,,"We realize that we did not tell you to think of these questions during the story, but do your best to answer them.",,,,,,,,,,,,,,,,,,,,,0,2,2,2,,,,,,,,,,,,,,,,,,,,,,,,,,,,,,space,3.68656581799587,,,,,,,,,,,,,,,030419_p1,001,2019_Mar_04_1017,body_behavioural,3.0.4,59.965027196159745,
,,,,,,"When you have finished typing your answer, hit ‘return’ to submit your answer and move onto the next question. ",,,,,,,,,,,,,,,,,,,,,0,3,3,3,,,,,,,,,,,,,,,,,,,,,,,,,,,,,,space,1.5865526950001367,,,,,,,,,,,,,,,030419_p1,001,2019_Mar_04_1017,body_behavioural,3.0.4,59.965027196159745,
0,,,,,,,,,,,,,,,,,,,,,,,,,,,,,,,0,0,0,0,,,,,,,,,,,,,,,,,,,,,,A midterm on thbursday,,,,,,space,0.7361192370008212,Entrepreneurship,non-primed first,The amount of invest charlie will put in alma's company. 30000 at stake,Charlie cannot invest the full amount ,Alma has to discuss with her team,No idea,A lecture about roman history ,"Something about roman history, don't know the specifics ",A midterm on thbursday,,,,030419_p1,001,2019_Mar_04_1017,body_behavioural,3.0.4,59.965027196159745,
1,,,,,,,,,,,,,,,,,,,,,,,,,,,,,,,0,1,1,1,,,,,,,,,,,,,,,,,,,,,,Everyone in the restaurant ,,,,,,space,0.9196884399934788,Not sure ,non-primed first,Very small ,Senna gets oysters and alvira gets pasta,They love the food and senna says the oysters taste like the sea,He's very excited ,Not sure,The waiter,Everyone in the restaurant ,,,,030419_p1,001,2019_Mar_04_1017,body_behavioural,3.0.4,59.965027196159745,
2,,,,,,,,,,,,,,,,,,,,,,,,,,,,,,,0,2,2,2,,,,,,,,,,,,,,,,,,,,,,One of them has a meeting,,,,,,space,0.8197447330021532,Not sure,primed first,Neon,Teresa gets an omellete with milk and james gets chocolate chip pancakes and coffee maybe,They like it ,James notices teresa first because she bangs into the glass sliding door ,Don't remember ,Don't remember ,One of them has a meeting,,,,030419_p1,001,2019_Mar_04_1017,body_behavioural,3.0.4,59.965027196159745,
3,,,,,,,,,,,,,,,,,,,,,,,,,,,,,,,0,3,3,3,,,,,,,,,,,,,,,,,,,,,,They strike a good deal and are both happy about it,,,,,,space,0.9030428799960646,Not sure ,non-primed first,Cheese and crackers ,Not long ,Crackers are $6 and ms. bianchi or ms. morrison parenleftnot sureparenright pays in coins ,Ms. bianchi is a cheese maker and ms. morrison owns grocery store chains ,$1000 worth of cheese,They agree to do it ,They strike a good deal and are both happy about it,,,,030419_p1,001,2019_Mar_04_1017,body_behavioural,3.0.4,59.965027196159745,
4,,,,,,,,,,,,,,,,,,,,,,,,,,,,,,,0,4,4,4,,,,,,,,,,,,,,,,,,,,,,Anna leaves first because her plane is leaving ,,,,,,space,0.7363518549973378,Anna only has 20 minutes ,non-primed first,Take off their shoes ,Very excited that they have met but anna is also worried that she might miss her flight ,Not sure,"David notices anna first, when she almost gets hit, and anna notices him when david saves her",After david saves her,David proposes going on an actual date and asks anna out to dinner ,Anna leaves first because her plane is leaving ,,,,030419_p1,001,2019_Mar_04_1017,body_behavioural,3.0.4,59.965027196159745,
5,,,,,,,,,,,,,,,,,,,,,,,,,,,,,,,0,5,5,5,,,,,,,,,,,,,,,,,,,,,,Story doesn't say,,,,,,space,0.8863046819969895,Sven is nervous before proposing,non-primed first,Dont remember,No,Everyone in the security line,Not a lot of itme,They must remove all metal from their pockets ,Nervous i think,Story doesn't say,,,,030419_p1,001,2019_Mar_04_1017,body_behavioural,3.0.4,59.965027196159745,
6,,,,,,,,,,,,,,,,,,,,,,,,,,,,,,,0,6,6,6,,,,,,,,,,,,,,,,,,,,,,Yes,,,,,,space,1.219792755000526,Not sure ,primed first,Linguini ,Not sure,Not sure,Emmanuella is mad that she has to do it right then and there,They are constantly fighting ,Liam agrees and is happy she brings it up ,Yes,,,,030419_p1,001,2019_Mar_04_1017,body_behavioural,3.0.4,59.965027196159745,
7,,,,,,,,,,,,,,,,,,,,,,,,,,,,,,,0,7,7,7,,,,,,,,,,,,,,,,,,,,,,"More or less, but both very sad",,,,,,space,1.4194495050032856,Not sure ,non-primed first,A class about aristotle ,Not sure ,Tuesday,Maria feels awful that she has to break up with henry but knows that she has to ,She is studying abroad and doesn't want to do long distance ,Henry is very upset and doesn't want to break up. he starts crying,"More or less, but both very sad",,,,030419_p1,001,2019_Mar_04_1017,body_behavioural,3.0.4,59.965027196159745,
,,,,,,,,,,,,,,,,,,,,,,,,,,,,,,,,,,,,,,,,,,,,,,,,,,,,,,,,,,,,,,,,,,,,,,,,,2711.280366996005,space,0.8530355420007254,030419_p1,001,2019_Mar_04_1017,body_behavioural,3.0.4,59.965027196159745,
,,,,,,,,,,,,,,,,,,,,,,,,,,,,,,,,,,,0,0,0,0,,,,,,,,,,,,,,,,,,,,,,,,,,,,,,,,,,,,,,030419_p1,001,2019_Mar_04_1017,body_behavioural,3.0.4,59.965027196159745,
,,,,,,,,,,,,,,,,,,,,,,,,,,,,,,,,,,,1,0,1,0,,,,,,,,,,,,,,,,,,,,,,,,,,,,,,,,,,,,,,030419_p1,001,2019_Mar_04_1017,body_behavioural,3.0.4,59.965027196159745,
,,,,,,,,,,,,,,,,,,,,,,,,,,,,,,,,,,,2,0,2,0,,,,,,,,,,,,,,,,,,,,,,,,,,,,,,,,,,,,,,030419_p1,001,2019_Mar_04_1017,body_behavioural,3.0.4,59.965027196159745,
,,,,,,,,,,,,,,,,,,,,,,,,,,,,,,,,,,,3,0,3,0,,,,,,,,,,,,,,,,,,,,,,,,,,,,,,,,,,,,,,030419_p1,001,2019_Mar_04_1017,body_behavioural,3.0.4,59.965027196159745,
,,,,,,,,,,,,,,,,,,,,,,,,,,,,,,,,,,,4,0,4,0,,,,,,,,,,,,,,,,,,,,,,,,,,,,,,,,,,,,,,030419_p1,001,2019_Mar_04_1017,body_behavioural,3.0.4,59.965027196159745,
