count,storyText,locationEvent,socialEvent,locationEventSize,socialEventSize,instructText,trials.thisRepN,trials.thisTrialN,trials.thisN,trials.thisIndex,trials_7.thisRepN,trials_7.thisTrialN,trials_7.thisN,trials_7.thisIndex,trials_2.thisRepN,trials_2.thisTrialN,trials_2.thisN,trials_2.thisIndex,trials_3.thisRepN,trials_3.thisTrialN,trials_3.thisN,trials_3.thisIndex,trials_4.thisRepN,trials_4.thisTrialN,trials_4.thisN,trials_4.thisIndex,trials_5.thisRepN,trials_5.thisTrialN,trials_5.thisN,trials_5.thisIndex,trials_6.thisRepN,trials_6.thisTrialN,trials_6.thisN,trials_6.thisIndex,order of stories,order of perspectives,key_resp_8.keys,key_resp_8.rt,key_resp_5.keys,key_resp_5.rt,key_resp_7.keys,key_resp_7.rt,story_presses.keys,story_presses.rt,story time,key_resp_6.keys,key_resp_6.rt,key_resp_2.keys,key_resp_2.rt,key_resp_10.keys,key_resp_10.rt,recall,recall time,key_resp_12.keys,key_resp_12.rt,key_resp_3.keys,key_resp_3.rt,key_resp_11.keys,key_resp_11.rt,question1_answer,order of question,question2_answer,question3_answer,question4_answer,question5_answer,question6_answer,question7_answer,question8_answer,participant,session,date,expName,psychopyVersion,frameRate,
0,,,,,,,0,0,0,0,0,0,0,0,,,,,,,,,,,,,,,,,,,,,[42 23 22 31 34 14 11 43],"['Social' 'Social' 'Location' 'Social' 'Location' 'Social' 'Location'
 'Location']",space,3.5225908200009144,space,1.6032855929952348,space,3.2183840650031925,,,,,,,,,,,,,,,,,,,,,,,,,,,030319_p3,001,2019_Mar_04_1544,body_behavioural,3.0.4,60.03766583118145,
0,David saw Anna for the first time when she burst into the airport with her bag skidding behind her half-zipped. ,1,1,,,,0,0,0,0,,,,,0,0,0,0,,,,,,,,,,,,,,,,,,,,,,,,,9,20.53845740199904,,,,,,,,,,,,,,,,,,,,,,,,,030319_p3,001,2019_Mar_04_1544,body_behavioural,3.0.4,60.03766583118145,
0,"He had three hours until his flight, but she clearly had less than one.",1,1,,,,0,0,0,0,,,,,0,1,1,1,,,,,,,,,,,,,,,,,,,,,,,,,1,5.437410286998784,,,,,,,,,,,,,,,,,,,,,,,,,030319_p3,001,2019_Mar_04_1544,body_behavioural,3.0.4,60.03766583118145,
0,"Anna’s yoga class had ran over, and afterwards, she, forgetting the time, had lingered to talk with friends. ",1,1,,,,0,0,0,0,,,,,0,2,2,2,,,,,,,,,,,,,,,,,,,,,,,,,1,6.818042006998439,,,,,,,,,,,,,,,,,,,,,,,,,030319_p3,001,2019_Mar_04_1544,body_behavioural,3.0.4,60.03766583118145,
0,"Despite Anna's frazzled state, David was instantly intrigued by her.",1,1,,,,0,0,0,0,,,,,0,3,3,3,,,,,,,,,,,,,,,,,,,,,,,,,9,4.636673259999952,,,,,,,,,,,,,,,,,,,,,,,,,030319_p3,001,2019_Mar_04_1544,body_behavioural,3.0.4,60.03766583118145,
0,"He thought she was beautiful, and she reminded him of one of his favorite paintings.",1,1,,,,0,0,0,0,,,,,0,4,4,4,,,,,,,,,,,,,,,,,,,,,,,,,1,1.8865003200044157,,,,,,,,,,,,,,,,,,,,,,,,,030319_p3,001,2019_Mar_04_1544,body_behavioural,3.0.4,60.03766583118145,
0,"Anna, a few strides into the airport, suddenly realized her shoes were untied, so she hunched over to tie them.",1,1,,,,0,0,0,0,,,,,0,5,5,5,,,,,,,,,,,,,,,,,,,,,,,,,9,4.169620239998039,,,,,,,,,,,,,,,,,,,,,,,,,030319_p3,001,2019_Mar_04_1544,body_behavioural,3.0.4,60.03766583118145,
0,David observed that someone with a tall cart of luggage was heading straight for where Anna was kneeling. ,1,1,,,,0,0,0,0,,,,,0,6,6,6,,,,,,,,,,,,,,,,,,,,,,,,,1,3.6702787589965737,,,,,,,,,,,,,,,,,,,,,,,,,030319_p3,001,2019_Mar_04_1544,body_behavioural,3.0.4,60.03766583118145,
0,Both Anna and the person driving the cart were oblivious to the impending collision. ,1,1,,,,0,0,0,0,,,,,0,7,7,7,,,,,,,,,,,,,,,,,,,,,,,,,1,2.2694497300035437,,,,,,,,,,,,,,,,,,,,,,,,,030319_p3,001,2019_Mar_04_1544,body_behavioural,3.0.4,60.03766583118145,
0,"David had to intervene, and he ran in front of the cart pushing her out of the way just in the nick of time, and they tumbled on the airport floor. ",1,2,,,,0,0,0,0,,,,,0,8,8,8,,,,,,,,,,,,,,,,,,,,,,,,,1,2.9036042299994733,,,,,,,,,,,,,,,,,,,,,,,,,030319_p3,001,2019_Mar_04_1544,body_behavioural,3.0.4,60.03766583118145,
0,"Anna, bewildered, looked up and saw the cart pass by and then looked over at David. ",1,2,,,,0,0,0,0,,,,,0,9,9,9,,,,,,,,,,,,,,,,,,,,,,,,,1,3.7031304679985624,,,,,,,,,,,,,,,,,,,,,,,,,030319_p3,001,2019_Mar_04_1544,body_behavioural,3.0.4,60.03766583118145,
0,He gave a smile back.,1,2,,,,0,0,0,0,,,,,0,10,10,10,,,,,,,,,,,,,,,,,,,,,,,,,1,1.6696484650019556,,,,,,,,,,,,,,,,,,,,,,,,,030319_p3,001,2019_Mar_04_1544,body_behavioural,3.0.4,60.03766583118145,
0,"“You alright?”, he said.",1,2,,,,0,0,0,0,,,,,0,11,11,11,,,,,,,,,,,,,,,,,,,,,,,,,9,9.136974831999396,,,,,,,,,,,,,,,,,,,,,,,,,030319_p3,001,2019_Mar_04_1544,body_behavioural,3.0.4,60.03766583118145,
0,"She whispered, “Uh yeah.",1,2,,,,0,0,0,0,,,,,0,12,12,12,,,,,,,,,,,,,,,,,,,,,,,,,1,1.069622340000933,,,,,,,,,,,,,,,,,,,,,,,,,030319_p3,001,2019_Mar_04_1544,body_behavioural,3.0.4,60.03766583118145,
0,I almost got smooshed by that cart.”,1,2,,,,0,0,0,0,,,,,0,13,13,13,,,,,,,,,,,,,,,,,,,,,,,,,1,1.2864984800035018,,,,,,,,,,,,,,,,,,,,,,,,,030319_p3,001,2019_Mar_04_1544,body_behavioural,3.0.4,60.03766583118145,
0,Her head was still spinning as she stared at the handsome stranger who had saved her. ,1,2,,,,0,0,0,0,,,,,0,14,14,14,,,,,,,,,,,,,,,,,,,,,,,,,9,2.4857491600050707,,,,,,,,,,,,,,,,,,,,,,,,,030319_p3,001,2019_Mar_04_1544,body_behavioural,3.0.4,60.03766583118145,
0,David helped her up and had to keep holding on to her arms to steady her even once they were standing.,1,2,,,,0,0,0,0,,,,,0,15,15,15,,,,,,,,,,,,,,,,,,,,,,,,,1,2.0869808429997647,,,,,,,,,,,,,,,,,,,,,,,,,030319_p3,001,2019_Mar_04_1544,body_behavioural,3.0.4,60.03766583118145,
0,"“I’m really late for my flight,” she said. ",1,2,,,,0,0,0,0,,,,,0,16,16,16,,,,,,,,,,,,,,,,,,,,,,,,,1,2.0865416429951438,,,,,,,,,,,,,,,,,,,,,,,,,030319_p3,001,2019_Mar_04_1544,body_behavioural,3.0.4,60.03766583118145,
0,"“Don't worry,” said David, "let me help you get to your gate." ",1,2,,,,0,0,0,0,,,,,0,17,17,17,,,,,,,,,,,,,,,,,,,,,,,,,1,4.937088004997349,,,,,,,,,,,,,,,,,,,,,,,,,030319_p3,001,2019_Mar_04_1544,body_behavioural,3.0.4,60.03766583118145,
0,He waved off her half-hearted protests. ,1,2,,,,0,0,0,0,,,,,0,18,18,18,,,,,,,,,,,,,,,,,,,,,,,,,1,2.853121402004035,,,,,,,,,,,,,,,,,,,,,,,,,030319_p3,001,2019_Mar_04_1544,body_behavioural,3.0.4,60.03766583118145,
0,"“Really , I have plenty of time and nothing better to do.”",1,2,,,,0,0,0,0,,,,,0,19,19,19,,,,,,,,,,,,,,,,,,,,,,,,,1,1.61983792999672,,,,,,,,,,,,,,,,,,,,,,,,,030319_p3,001,2019_Mar_04_1544,body_behavioural,3.0.4,60.03766583118145,
0,They headed to the security line. ,2,2,,,,0,0,0,0,,,,,0,20,20,20,,,,,,,,,,,,,,,,,,,,,,,,,1,6.570080614998005,,,,,,,,,,,,,,,,,,,,,,,,,030319_p3,001,2019_Mar_04_1544,body_behavioural,3.0.4,60.03766583118145,
0,"The line was not long, and they spent the time chatting and getting to know each other.",2,2,,,,0,0,0,0,,,,,0,21,21,21,,,,,,,,,,,,,,,,,,,,,,,,,1,4.369832770003995,,,,,,,,,,,,,,,,,,,,,,,,,030319_p3,001,2019_Mar_04_1544,body_behavioural,3.0.4,60.03766583118145,
0,It turned out that Anna and David went to the same high school but Anna had been 3 years older.,2,2,,,,0,0,0,0,,,,,0,22,22,22,,,,,,,,,,,,,,,,,,,,,,,,,1,5.651061154996569,,,,,,,,,,,,,,,,,,,,,,,,,030319_p3,001,2019_Mar_04_1544,body_behavioural,3.0.4,60.03766583118145,
0,When they got to the front of the line they took off their shoes and pulled off their coats.,2,3,,,,0,0,0,0,,,,,0,23,23,23,,,,,,,,,,,,,,,,,,,,,,,,,1,6.736865613005648,,,,,,,,,,,,,,,,,,,,,,,,,030319_p3,001,2019_Mar_04_1544,body_behavioural,3.0.4,60.03766583118145,
0,Both of them went through the metal detector without any problems. ,2,3,,,,0,0,0,0,,,,,0,24,24,24,,,,,,,,,,,,,,,,,,,,,,,,,1,1.9019929540008889,,,,,,,,,,,,,,,,,,,,,,,,,030319_p3,001,2019_Mar_04_1544,body_behavioural,3.0.4,60.03766583118145,
0,"Anna’s flight was in 20 minutes, and as she was rushing to put her shoes and coat back on, David asked her, “So when are you coming back?”",2,3,,,,0,0,0,0,,,,,0,25,25,25,,,,,,,,,,,,,,,,,,,,,,,,,1,8.43760420000035,,,,,,,,,,,,,,,,,,,,,,,,,030319_p3,001,2019_Mar_04_1544,body_behavioural,3.0.4,60.03766583118145,
0,"“In a week, it’s a short trip,” Anna replied. ",2,3,,,,0,0,0,0,,,,,0,26,26,26,,,,,,,,,,,,,,,,,,,,,,,,,1,1.1529479649980203,,,,,,,,,,,,,,,,,,,,,,,,,030319_p3,001,2019_Mar_04_1544,body_behavioural,3.0.4,60.03766583118145,
0,"“Me too,” David said.",2,3,,,,0,0,0,0,,,,,0,27,27,27,,,,,,,,,,,,,,,,,,,,,,,,,1,1.5197673500006204,,,,,,,,,,,,,,,,,,,,,,,,,030319_p3,001,2019_Mar_04_1544,body_behavioural,3.0.4,60.03766583118145,
0,"He continued, “When we're back in town, is there any chance you'd want to get dinner?",2,3,,,,0,0,0,0,,,,,0,28,28,28,,,,,,,,,,,,,,,,,,,,,,,,,1,3.1178086180007085,,,,,,,,,,,,,,,,,,,,,,,,,030319_p3,001,2019_Mar_04_1544,body_behavioural,3.0.4,60.03766583118145,
0,"I know we just met, but when life throws a luggage cart at you it seems like we should listen. “",2,3,,,,0,0,0,0,,,,,0,29,29,29,,,,,,,,,,,,,,,,,,,,,,,,,1,2.936366559995804,,,,,,,,,,,,,,,,,,,,,,,,,030319_p3,001,2019_Mar_04_1544,body_behavioural,3.0.4,60.03766583118145,
0,"She stopped packing, and said with a smile, “Yes I would love that.”",2,3,,,,0,0,0,0,,,,,0,30,30,30,,,,,,,,,,,,,,,,,,,,,,,,,1,1.2194705649962998,,,,,,,,,,,,,,,,,,,,,,,,,030319_p3,001,2019_Mar_04_1544,body_behavioural,3.0.4,60.03766583118145,
0,Then they ran off to Anna’s gate which was at the end of the terminal. ,3,3,,,,0,0,0,0,,,,,0,31,31,31,,,,,,,,,,,,,,,,,,,,,,,,,1,2.0531492899972363,,,,,,,,,,,,,,,,,,,,,,,,,030319_p3,001,2019_Mar_04_1544,body_behavioural,3.0.4,60.03766583118145,
0,"David took put on her backpack, grabbed her hand, and navigated quickly through the crowds of people.",3,3,,,,0,0,0,0,,,,,0,32,32,32,,,,,,,,,,,,,,,,,,,,,,,,,9,5.68665515199973,,,,,,,,,,,,,,,,,,,,,,,,,030319_p3,001,2019_Mar_04_1544,body_behavioural,3.0.4,60.03766583118145,
0,Anna was amazed at everything that was happening; she had arrived at the airport doubtful that she would make it and was now confident that she would due to this handsome and kind man she just met.,3,3,,,,0,0,0,0,,,,,0,33,33,33,,,,,,,,,,,,,,,,,,,,,,,,,1,4.886509937001392,,,,,,,,,,,,,,,,,,,,,,,,,030319_p3,001,2019_Mar_04_1544,body_behavioural,3.0.4,60.03766583118145,
0,"As they approached her gate, Anna fished out a crumbled business card from her pocket and handed it to David, who handed her the backpack, and he promised to call her next week.",3,4,,,,0,0,0,0,,,,,0,34,34,34,,,,,,,,,,,,,,,,,,,,,,,,,1,5.53477291699528,,,,,,,,,,,,,,,,,,,,,,,,,030319_p3,001,2019_Mar_04_1544,body_behavioural,3.0.4,60.03766583118145,
0,She gave him one last embarrassed smile and approached the flight attendant who scanned her ticket. ,3,4,,,,0,0,0,0,,,,,0,35,35,35,,,,,,,,,,,,,,,,,,,,,,,,,1,2.602738187997602,,,,,,,,,,,,,,,,,,,,,,,,,030319_p3,001,2019_Mar_04_1544,body_behavioural,3.0.4,60.03766583118145,
0,"Finally, she boarded the plane, sliding into her window seat located all the way in the back of the plane.",4,4,,,,0,0,0,0,,,,,0,36,36,36,,,,,,,,,,,,,,,,,,,,,,,,,9,2.5863483200009796,,,,,,,,,,,,,,,,,,,,,,,,,030319_p3,001,2019_Mar_04_1544,body_behavioural,3.0.4,60.03766583118145,
0,"Barely containing her glee, she ignored the grumbles of complaint as she squeezed past the other passengers in her row and settled back in her seat. ",4,4,,,,0,0,0,0,,,,,0,37,37,37,,,,,,,,,,,,,,,,,,,,,,,,,1,7.65348890999303,,,,,,,,,,,,,,,,,,,,,,,,,030319_p3,001,2019_Mar_04_1544,body_behavioural,3.0.4,60.03766583118145,
0,"She was thankful that she had not only made it onto the plane in time, but also that she had been clumsy enough to forget to tie her shoes.",4,4,,,,0,0,0,0,,,,,0,38,38,38,,,,,,,,,,,,,,,,,,,,,,,,,1,2.036391139998159,,,,,,,,,,,,,,,,,,,,,,,,,030319_p3,001,2019_Mar_04_1544,body_behavioural,3.0.4,60.03766583118145,
0,,,,,,,0,0,0,0,,,,,,,,,,,,,,,,,,,,,,,,,,,,,,,,,,,,,,,,,,,,,,,,,,,,,,,,,,,030319_p3,001,2019_Mar_04_1544,body_behavioural,3.0.4,60.03766583118145,
1,,,,,,,0,1,1,1,0,0,0,0,,,,,,,,,,,,,,,,,,,,,,,space,1.9707053960009944,space,0.8695564919980825,space,0.9507696170039708,,,,,,,,,,,,,,,,,,,,,,,,,,,030319_p3,001,2019_Mar_04_1544,body_behavioural,3.0.4,60.03766583118145,
1,"Alex was a distracted, sweaty mess as he walked into the grocery store with Chloe; he was hoping that she wouldn't suspect that he was about to propose.",1,1,,,,0,1,1,1,,,,,0,0,0,0,,,,,,,,,,,,,,,,,,,,,,,,,9,5.919997111996054,,,,,,,,,,,,,,,,,,,,,,,,,030319_p3,001,2019_Mar_04_1544,body_behavioural,3.0.4,60.03766583118145,
1,"The grocery store was brightly lit; this was one of the nicest grocery stores in Atlanta, and sunlight poured in through the glass walls.",1,1,,,,0,1,1,1,,,,,0,1,1,1,,,,,,,,,,,,,,,,,,,,,,,,,1,3.186842715003877,,,,,,,,,,,,,,,,,,,,,,,,,030319_p3,001,2019_Mar_04_1544,body_behavioural,3.0.4,60.03766583118145,
1,"The atmosphere was also bright because tomorrow was Thanksgiving, and most shoppers had carts piled high with turkey, stuffing, and pies.",1,1,,,,0,1,1,1,,,,,0,2,2,2,,,,,,,,,,,,,,,,,,,,,,,,,1,5.003551677997166,,,,,,,,,,,,,,,,,,,,,,,,,030319_p3,001,2019_Mar_04_1544,body_behavioural,3.0.4,60.03766583118145,
1,Alex wanted to propose to Chloe here because he knew she would not suspect it at all. ,1,1,,,,0,1,1,1,,,,,0,3,3,3,,,,,,,,,,,,,,,,,,,,,,,,,1,5.75334207200649,,,,,,,,,,,,,,,,,,,,,,,,,030319_p3,001,2019_Mar_04_1544,body_behavioural,3.0.4,60.03766583118145,
1,"Chloe loved surprises, and Alex loved the look on Chloe’s face when she was surprised. ",1,1,,,,0,1,1,1,,,,,0,4,4,4,,,,,,,,,,,,,,,,,,,,,,,,,1,1.9364672400042764,,,,,,,,,,,,,,,,,,,,,,,,,030319_p3,001,2019_Mar_04_1544,body_behavioural,3.0.4,60.03766583118145,
1,"“Alex, we need to get some cranberry sauce, so let’s go there first.” ",2,1,,,,0,1,1,1,,,,,0,5,5,5,,,,,,,,,,,,,,,,,,,,,,,,,9,3.6531825170022785,,,,,,,,,,,,,,,,,,,,,,,,,030319_p3,001,2019_Mar_04_1544,body_behavioural,3.0.4,60.03766583118145,
1,She led the way to the section of the store that held the canned foods. ,2,1,,,,0,1,1,1,,,,,0,6,6,6,,,,,,,,,,,,,,,,,,,,,,,,,1,2.1857210480011418,,,,,,,,,,,,,,,,,,,,,,,,,030319_p3,001,2019_Mar_04_1544,body_behavioural,3.0.4,60.03766583118145,
1,Alex looked like he was going to throw up. ,2,1,,,,0,1,1,1,,,,,0,7,7,7,,,,,,,,,,,,,,,,,,,,,,,,,1,2.4371398449948174,,,,,,,,,,,,,,,,,,,,,,,,,030319_p3,001,2019_Mar_04_1544,body_behavioural,3.0.4,60.03766583118145,
1,"As they were walking there, Chloe asked him, “Is everything okay, dear?”",2,1,,,,0,1,1,1,,,,,0,8,8,8,,,,,,,,,,,,,,,,,,,,,,,,,1,1.5197635000004084,,,,,,,,,,,,,,,,,,,,,,,,,030319_p3,001,2019_Mar_04_1544,body_behavioural,3.0.4,60.03766583118145,
1,"“Oh yeah, for sure,” he said, unconvincingly. ",2,1,,,,0,1,1,1,,,,,0,9,9,9,,,,,,,,,,,,,,,,,,,,,,,,,1,1.2509165899973596,,,,,,,,,,,,,,,,,,,,,,,,,030319_p3,001,2019_Mar_04_1544,body_behavioural,3.0.4,60.03766583118145,
1,"She chuckled, “Alright, whatever you say.” ",2,1,,,,0,1,1,1,,,,,0,10,10,10,,,,,,,,,,,,,,,,,,,,,,,,,1,1.203091236995533,,,,,,,,,,,,,,,,,,,,,,,,,030319_p3,001,2019_Mar_04_1544,body_behavioural,3.0.4,60.03766583118145,
1,"She was mulling over the different cans of cranberry sauce, and Alex knew she would be a while.",2,1,,,,0,1,1,1,,,,,0,11,11,11,,,,,,,,,,,,,,,,,,,,,,,,,9,4.937129750003805,,,,,,,,,,,,,,,,,,,,,,,,,030319_p3,001,2019_Mar_04_1544,body_behavioural,3.0.4,60.03766583118145,
1,He turned his back to her and pulled out the ring.,2,2,,,,0,1,1,1,,,,,0,12,12,12,,,,,,,,,,,,,,,,,,,,,,,,,1,5.636800795000454,,,,,,,,,,,,,,,,,,,,,,,,,030319_p3,001,2019_Mar_04_1544,body_behavioural,3.0.4,60.03766583118145,
1,He had been saving up for this for a while. ,2,2,,,,0,1,1,1,,,,,0,13,13,13,,,,,,,,,,,,,,,,,,,,,,,,,1,1.1670095599984052,,,,,,,,,,,,,,,,,,,,,,,,,030319_p3,001,2019_Mar_04_1544,body_behavioural,3.0.4,60.03766583118145,
1,The ring had three large diamonds with smaller ones encircling each one: all of them sparkled in the light streaming in from the windows. ,2,2,,,,0,1,1,1,,,,,0,14,14,14,,,,,,,,,,,,,,,,,,,,,,,,,1,2.9040975870011607,,,,,,,,,,,,,,,,,,,,,,,,,030319_p3,001,2019_Mar_04_1544,body_behavioural,3.0.4,60.03766583118145,
1,"“Alex?”, Chloe said suspiciously. ",2,2,,,,0,1,1,1,,,,,0,15,15,15,,,,,,,,,,,,,,,,,,,,,,,,,1,4.81810544799373,,,,,,,,,,,,,,,,,,,,,,,,,030319_p3,001,2019_Mar_04_1544,body_behavioural,3.0.4,60.03766583118145,
1,He closed the box and whipped around. “Yes?”,2,2,,,,0,1,1,1,,,,,0,16,16,16,,,,,,,,,,,,,,,,,,,,,,,,,1,1.9697143950033933,,,,,,,,,,,,,,,,,,,,,,,,,030319_p3,001,2019_Mar_04_1544,body_behavioural,3.0.4,60.03766583118145,
1,“Do we need anything else?”,2,2,,,,0,1,1,1,,,,,0,17,17,17,,,,,,,,,,,,,,,,,,,,,,,,,1,1.6197815150007955,,,,,,,,,,,,,,,,,,,,,,,,,030319_p3,001,2019_Mar_04_1544,body_behavioural,3.0.4,60.03766583118145,
1,"“Yeah I don’t know, honey.” ",2,2,,,,0,1,1,1,,,,,0,18,18,18,,,,,,,,,,,,,,,,,,,,,,,,,1,1.152536390000023,,,,,,,,,,,,,,,,,,,,,,,,,030319_p3,001,2019_Mar_04_1544,body_behavioural,3.0.4,60.03766583118145,
1,They went to the checkout and waited in a long line.,3,2,,,,0,1,1,1,,,,,0,19,19,19,,,,,,,,,,,,,,,,,,,,,,,,,9,18.67096552700241,,,,,,,,,,,,,,,,,,,,,,,,,030319_p3,001,2019_Mar_04_1544,body_behavioural,3.0.4,60.03766583118145,
1,Alex was staring intensely off into the distance. ,3,2,,,,0,1,1,1,,,,,0,20,20,20,,,,,,,,,,,,,,,,,,,,,,,,,1,6.053825689996302,,,,,,,,,,,,,,,,,,,,,,,,,030319_p3,001,2019_Mar_04_1544,body_behavioural,3.0.4,60.03766583118145,
1,Chloe was watching him trying to decide whether he looked scared or confused. ,3,2,,,,0,1,1,1,,,,,0,21,21,21,,,,,,,,,,,,,,,,,,,,,,,,,1,1.6023409080007696,,,,,,,,,,,,,,,,,,,,,,,,,030319_p3,001,2019_Mar_04_1544,body_behavioural,3.0.4,60.03766583118145,
1,Alex looked over at their friends who were waiting by the entrance of the grocery store.,3,2,,,,0,1,1,1,,,,,0,22,22,22,,,,,,,,,,,,,,,,,,,,,,,,,1,1.4697668849985348,,,,,,,,,,,,,,,,,,,,,,,,,030319_p3,001,2019_Mar_04_1544,body_behavioural,3.0.4,60.03766583118145,
1,They got the message and walked over slowly. ,3,2,,,,0,1,1,1,,,,,0,23,23,23,,,,,,,,,,,,,,,,,,,,,,,,,1,1.6361057719987002,,,,,,,,,,,,,,,,,,,,,,,,,030319_p3,001,2019_Mar_04_1544,body_behavioural,3.0.4,60.03766583118145,
1,"“Honey,” he said to get her attention, “Look, Chloe, I love you so much and I want to be with you forever, I can’t imagine a day without you.”",3,2,,,,0,1,1,1,,,,,0,24,24,24,,,,,,,,,,,,,,,,,,,,,,,,,9,2.550905905001855,,,,,,,,,,,,,,,,,,,,,,,,,030319_p3,001,2019_Mar_04_1544,body_behavioural,3.0.4,60.03766583118145,
1,"“Awww, Alex, me too.”",3,2,,,,0,1,1,1,,,,,0,25,25,25,,,,,,,,,,,,,,,,,,,,,,,,,1,1.3694645299983677,,,,,,,,,,,,,,,,,,,,,,,,,030319_p3,001,2019_Mar_04_1544,body_behavioural,3.0.4,60.03766583118145,
1,"Alex got down on one knee, and Chloe gasped. ",3,3,,,,0,1,1,1,,,,,0,26,26,26,,,,,,,,,,,,,,,,,,,,,,,,,1,2.903134804997535,,,,,,,,,,,,,,,,,,,,,,,,,030319_p3,001,2019_Mar_04_1544,body_behavioural,3.0.4,60.03766583118145,
1,"“I am serious, Chloe. Will you marry me?”",3,3,,,,0,1,1,1,,,,,0,27,27,27,,,,,,,,,,,,,,,,,,,,,,,,,1,1.0362217649962986,,,,,,,,,,,,,,,,,,,,,,,,,030319_p3,001,2019_Mar_04_1544,body_behavioural,3.0.4,60.03766583118145,
1,"The people in line around them realized what was happening, stepped back, and started taking pictures.",3,3,,,,0,1,1,1,,,,,0,28,28,28,,,,,,,,,,,,,,,,,,,,,,,,,1,1.4365261800048756,,,,,,,,,,,,,,,,,,,,,,,,,030319_p3,001,2019_Mar_04_1544,body_behavioural,3.0.4,60.03766583118145,
1,Their friends were no longer trying to hide and were videotaping and taking pictures too. ,3,3,,,,0,1,1,1,,,,,0,29,29,29,,,,,,,,,,,,,,,,,,,,,,,,,1,2.0867332000052556,,,,,,,,,,,,,,,,,,,,,,,,,030319_p3,001,2019_Mar_04_1544,body_behavioural,3.0.4,60.03766583118145,
1,Chloe looked around and laughed. ,3,3,,,,0,1,1,1,,,,,0,30,30,30,,,,,,,,,,,,,,,,,,,,,,,,,1,1.0833726350028883,,,,,,,,,,,,,,,,,,,,,,,,,030319_p3,001,2019_Mar_04_1544,body_behavioural,3.0.4,60.03766583118145,
1,"“Yes!” she shouted, and jumped to embrace Alex in a hug. ",3,4,,,,0,1,1,1,,,,,0,31,31,31,,,,,,,,,,,,,,,,,,,,,,,,,9,2.3879597410050337,,,,,,,,,,,,,,,,,,,,,,,,,030319_p3,001,2019_Mar_04_1544,body_behavioural,3.0.4,60.03766583118145,
1,Everyone in line clapped and cheered. ,3,4,,,,0,1,1,1,,,,,0,32,32,32,,,,,,,,,,,,,,,,,,,,,,,,,1,0.8235520670059486,,,,,,,,,,,,,,,,,,,,,,,,,030319_p3,001,2019_Mar_04_1544,body_behavioural,3.0.4,60.03766583118145,
1,"Alex put the ring on Chloe’s finger, who was nearly spinning in excitement.",3,4,,,,0,1,1,1,,,,,0,33,33,33,,,,,,,,,,,,,,,,,,,,,,,,,1,1.850455111998599,,,,,,,,,,,,,,,,,,,,,,,,,030319_p3,001,2019_Mar_04_1544,body_behavioural,3.0.4,60.03766583118145,
1,"“I love it, oh my gosh, it’s so glittery!",3,4,,,,0,1,1,1,,,,,0,34,34,34,,,,,,,,,,,,,,,,,,,,,,,,,1,0.953076764002617,,,,,,,,,,,,,,,,,,,,,,,,,030319_p3,001,2019_Mar_04_1544,body_behavioural,3.0.4,60.03766583118145,
1,Look at this!” she said as she shoved her hand in a stranger’s face.,3,4,,,,0,1,1,1,,,,,0,35,35,35,,,,,,,,,,,,,,,,,,,,,,,,,1,1.5854115649999585,,,,,,,,,,,,,,,,,,,,,,,,,030319_p3,001,2019_Mar_04_1544,body_behavioural,3.0.4,60.03766583118145,
1,Her friends came over and hugged them.,3,4,,,,0,1,1,1,,,,,0,36,36,36,,,,,,,,,,,,,,,,,,,,,,,,,1,0.8358693039990612,,,,,,,,,,,,,,,,,,,,,,,,,030319_p3,001,2019_Mar_04_1544,body_behavioural,3.0.4,60.03766583118145,
1,The other people let them move up to the front of the checkout line. ,3,4,,,,0,1,1,1,,,,,0,37,37,37,,,,,,,,,,,,,,,,,,,,,,,,,1,2.78783001100237,,,,,,,,,,,,,,,,,,,,,,,,,030319_p3,001,2019_Mar_04_1544,body_behavioural,3.0.4,60.03766583118145,
1,The cashier congratulated them and scanned their cranberry sauce. ,4,4,,,,0,1,1,1,,,,,0,38,38,38,,,,,,,,,,,,,,,,,,,,,,,,,1,4.300905193995277,,,,,,,,,,,,,,,,,,,,,,,,,030319_p3,001,2019_Mar_04_1544,body_behavioural,3.0.4,60.03766583118145,
1,The total came to $4 and Chloe paid in cash while getting distracted and staring at the ring as she pulled out the bills.,4,4,,,,0,1,1,1,,,,,0,39,39,39,,,,,,,,,,,,,,,,,,,,,,,,,1,4.437727511998673,,,,,,,,,,,,,,,,,,,,,,,,,030319_p3,001,2019_Mar_04_1544,body_behavioural,3.0.4,60.03766583118145,
1,"Alex grabbed the cans, and they walked out with their friends bunched around them. ",4,4,,,,0,1,1,1,,,,,0,40,40,40,,,,,,,,,,,,,,,,,,,,,,,,,1,1.8202579200005857,,,,,,,,,,,,,,,,,,,,,,,,,030319_p3,001,2019_Mar_04_1544,body_behavioural,3.0.4,60.03766583118145,
1,,,,,,,0,1,1,1,,,,,,,,,,,,,,,,,,,,,,,,,,,,,,,,,,,,,,,,,,,,,,,,,,,,,,,,,,,030319_p3,001,2019_Mar_04_1544,body_behavioural,3.0.4,60.03766583118145,
2,,,,,,,0,2,2,2,0,0,0,0,,,,,,,,,,,,,,,,,,,,,,,space,1.0363768549941597,space,0.5024612869965495,space,0.8006909920004546,,,,,,,,,,,,,,,,,,,,,,,,,,,030319_p3,001,2019_Mar_04_1544,body_behavioural,3.0.4,60.03766583118145,
2,"Sven and Isabel walked hurriedly from the cab into the Barcelona Airport after an incredible weekend with Isabel’s family, which had wiped away any doubts Sven had had about his decision to propose. ",1,1,,,,0,2,2,2,,,,,0,0,0,0,,,,,,,,,,,,,,,,,,,,,,,,,9,10.701102077000542,,,,,,,,,,,,,,,,,,,,,,,,,030319_p3,001,2019_Mar_04_1544,body_behavioural,3.0.4,60.03766583118145,
2,"They were a little pressed for time, with only a little over an hour until their flight would take off to go back to the US, but they already had their online boarding passes and no checked luggage. ",1,1,,,,0,2,2,2,,,,,0,1,1,1,,,,,,,,,,,,,,,,,,,,,,,,,1,5.853465606996906,,,,,,,,,,,,,,,,,,,,,,,,,030319_p3,001,2019_Mar_04_1544,body_behavioural,3.0.4,60.03766583118145,
2,"When Isabel stopped to rummage through her purse looking for her phone, Sven turned his back to her and took the velvet box out of his backpack, opening it to look at the ring he bought her.",1,2,,,,0,2,2,2,,,,,0,2,2,2,,,,,,,,,,,,,,,,,,,,,,,,,1,2.7342379479960073,,,,,,,,,,,,,,,,,,,,,,,,,030319_p3,001,2019_Mar_04_1544,body_behavioural,3.0.4,60.03766583118145,
2,"He had received her parents’ blessing during the trip, and he was almost giddy with excitement. ",1,2,,,,0,2,2,2,,,,,0,3,3,3,,,,,,,,,,,,,,,,,,,,,,,,,1,2.3533003449992975,,,,,,,,,,,,,,,,,,,,,,,,,030319_p3,001,2019_Mar_04_1544,body_behavioural,3.0.4,60.03766583118145,
2,"He tilted the ring backward and forward, despite having already studied it daily since he had purchased it a few weeks ago. ",1,2,,,,0,2,2,2,,,,,0,4,4,4,,,,,,,,,,,,,,,,,,,,,,,,,1,3.8700670699981856,,,,,,,,,,,,,,,,,,,,,,,,,030319_p3,001,2019_Mar_04_1544,body_behavioural,3.0.4,60.03766583118145,
2,"It was a simple design, with a clear, white diamond on a thin silver band.",1,2,,,,0,2,2,2,,,,,0,5,5,5,,,,,,,,,,,,,,,,,,,,,,,,,1,1.1186741159981466,,,,,,,,,,,,,,,,,,,,,,,,,030319_p3,001,2019_Mar_04_1544,body_behavioural,3.0.4,60.03766583118145,
2,"“Sven, let’s go! ” Isabel said. ",1,2,,,,0,2,2,2,,,,,0,6,6,6,,,,,,,,,,,,,,,,,,,,,,,,,1,4.186969006994332,,,,,,,,,,,,,,,,,,,,,,,,,030319_p3,001,2019_Mar_04_1544,body_behavioural,3.0.4,60.03766583118145,
2,Sven discretely closed the box and put it in his pocket.,1,2,,,,0,2,2,2,,,,,0,7,7,7,,,,,,,,,,,,,,,,,,,,,,,,,1,0.7031782620033482,,,,,,,,,,,,,,,,,,,,,,,,,030319_p3,001,2019_Mar_04_1544,body_behavioural,3.0.4,60.03766583118145,
2," They entered the security line, weaving through the roped walkways to the front. ",2,2,,,,0,2,2,2,,,,,0,8,8,8,,,,,,,,,,,,,,,,,,,,,,,,,9,2.419902376997925,,,,,,,,,,,,,,,,,,,,,,,,,030319_p3,001,2019_Mar_04_1544,body_behavioural,3.0.4,60.03766583118145,
2,"When they were up, Isabel realized her laptop was buried somewhere in her duffle bag. ",2,2,,,,0,2,2,2,,,,,0,9,9,9,,,,,,,,,,,,,,,,,,,,,,,,,1,1.8531470599991735,,,,,,,,,,,,,,,,,,,,,,,,,030319_p3,001,2019_Mar_04_1544,body_behavioural,3.0.4,60.03766583118145,
2,Sven had to hold the growing mound of objects she pulled from her bag until she unearthed the laptop.,2,2,,,,0,2,2,2,,,,,0,10,10,10,,,,,,,,,,,,,,,,,,,,,,,,,1,5.853113752003992,,,,,,,,,,,,,,,,,,,,,,,,,030319_p3,001,2019_Mar_04_1544,body_behavioural,3.0.4,60.03766583118145,
2,She set it into a bin and then had to unstrap her leather boots and put everything else into the bins.,2,2,,,,0,2,2,2,,,,,0,11,11,11,,,,,,,,,,,,,,,,,,,,,,,,,1,1.9529555449989857,,,,,,,,,,,,,,,,,,,,,,,,,030319_p3,001,2019_Mar_04_1544,body_behavioural,3.0.4,60.03766583118145,
2,"Finally, she relieved Sven of his holding duties, and he hurriedly deposited his own backpack on the belt as the people behind them glared without shame. ",2,2,,,,0,2,2,2,,,,,0,12,12,12,,,,,,,,,,,,,,,,,,,,,,,,,1,6.103432082003565,,,,,,,,,,,,,,,,,,,,,,,,,030319_p3,001,2019_Mar_04_1544,body_behavioural,3.0.4,60.03766583118145,
2,"Sven went into the millimeter wave scanner after Isabel, put his hands up, and the metal bars whirled around him.",2,2,,,,0,2,2,2,,,,,0,13,13,13,,,,,,,,,,,,,,,,,,,,,,,,,1,4.069788387998415,,,,,,,,,,,,,,,,,,,,,,,,,030319_p3,001,2019_Mar_04_1544,body_behavioural,3.0.4,60.03766583118145,
2,"“Sir, please step to the side.",2,2,,,,0,2,2,2,,,,,0,14,14,14,,,,,,,,,,,,,,,,,,,,,,,,,1,1.1674275820041657,,,,,,,,,,,,,,,,,,,,,,,,,030319_p3,001,2019_Mar_04_1544,body_behavioural,3.0.4,60.03766583118145,
2,"You need to empty your pockets,” the security guard said.",2,2,,,,0,2,2,2,,,,,0,15,15,15,,,,,,,,,,,,,,,,,,,,,,,,,1,1.2030901799953426,,,,,,,,,,,,,,,,,,,,,,,,,030319_p3,001,2019_Mar_04_1544,body_behavioural,3.0.4,60.03766583118145,
2,"With a sinking feeling Sven realized the mistake he had made forgetting to put the ring back in his bag, as Isabel and the guard both looked at him expectantly.",2,2,,,,0,2,2,2,,,,,0,16,16,16,,,,,,,,,,,,,,,,,,,,,,,,,1,5.820373798000219,,,,,,,,,,,,,,,,,,,,,,,,,030319_p3,001,2019_Mar_04_1544,body_behavioural,3.0.4,60.03766583118145,
2,"Sven,  deciding he would make the best of the situation, grabbed Isabel's hand as he reached into his pocket.",2,2,,,,0,2,2,2,,,,,0,17,17,17,,,,,,,,,,,,,,,,,,,,,,,,,1,5.370084055000916,,,,,,,,,,,,,,,,,,,,,,,,,030319_p3,001,2019_Mar_04_1544,body_behavioural,3.0.4,60.03766583118145,
2,"He got down on one knee and, giggling slightly at her confused look, said, “Isabel, this isn't quite how I'd planned this, but - will you marry me?”",2,3,,,,0,2,2,2,,,,,0,18,18,18,,,,,,,,,,,,,,,,,,,,,,,,,1,2.603353166996385,,,,,,,,,,,,,,,,,,,,,,,,,030319_p3,001,2019_Mar_04_1544,body_behavioural,3.0.4,60.03766583118145,
2,The security guard gasped.,2,3,,,,0,2,2,2,,,,,0,19,19,19,,,,,,,,,,,,,,,,,,,,,,,,,1,1.503182412001479,,,,,,,,,,,,,,,,,,,,,,,,,030319_p3,001,2019_Mar_04_1544,body_behavioural,3.0.4,60.03766583118145,
2,All the people who were putting their shoes back on and gathering their belongings stopped what they were doing and walked closer to the couple.,2,3,,,,0,2,2,2,,,,,0,20,20,20,,,,,,,,,,,,,,,,,,,,,,,,,1,2.952954756998224,,,,,,,,,,,,,,,,,,,,,,,,,030319_p3,001,2019_Mar_04_1544,body_behavioural,3.0.4,60.03766583118145,
2,"Isabel was astonished, and far too shy to respond in front of the backup of passengers waiting behind them.",2,3,,,,0,2,2,2,,,,,0,21,21,21,,,,,,,,,,,,,,,,,,,,,,,,,1,2.4863467030008906,,,,,,,,,,,,,,,,,,,,,,,,,030319_p3,001,2019_Mar_04_1544,body_behavioural,3.0.4,60.03766583118145,
2,"She attempted to stammer a response as she frantically grabbed her and Sven’s shoes, leaving Sven to retrieve their bags.",2,3,,,,0,2,2,2,,,,,0,22,22,22,,,,,,,,,,,,,,,,,,,,,,,,,1,4.770138397994742,,,,,,,,,,,,,,,,,,,,,,,,,030319_p3,001,2019_Mar_04_1544,body_behavioural,3.0.4,60.03766583118145,
2,"Both of them slipping in their socked feet, she fled onto the concourse with Sven trying to catch up behind her.",3,3,,,,0,2,2,2,,,,,0,23,23,23,,,,,,,,,,,,,,,,,,,,,,,,,1,4.135549737002293,,,,,,,,,,,,,,,,,,,,,,,,,030319_p3,001,2019_Mar_04_1544,body_behavioural,3.0.4,60.03766583118145,
2,"Everyone in the terminal was looking at them with confusion as Sven, holding the bags in one hand and the open ring box in the other, finally caught up to her.",3,3,,,,0,2,2,2,,,,,0,24,24,24,,,,,,,,,,,,,,,,,,,,,,,,,1,3.336914766994596,,,,,,,,,,,,,,,,,,,,,,,,,030319_p3,001,2019_Mar_04_1544,body_behavioural,3.0.4,60.03766583118145,
2,“Isabel?”,3,3,,,,0,2,2,2,,,,,0,25,25,25,,,,,,,,,,,,,,,,,,,,,,,,,1,3.9369060970057035,,,,,,,,,,,,,,,,,,,,,,,,,030319_p3,001,2019_Mar_04_1544,body_behavioural,3.0.4,60.03766583118145,
2,"He watched her face as she turned, trying to read her expression.",3,3,,,,0,2,2,2,,,,,0,26,26,26,,,,,,,,,,,,,,,,,,,,,,,,,1,2.3199460830001044,,,,,,,,,,,,,,,,,,,,,,,,,030319_p3,001,2019_Mar_04_1544,body_behavioural,3.0.4,60.03766583118145,
2,"Her eyes were wide, but she was smiling as she hyperventilated, “Of course yes, Sven, yes!” ",3,4,,,,0,2,2,2,,,,,0,27,27,27,,,,,,,,,,,,,,,,,,,,,,,,,1,2.552668320000521,,,,,,,,,,,,,,,,,,,,,,,,,030319_p3,001,2019_Mar_04_1544,body_behavioural,3.0.4,60.03766583118145,
2,"They dropped their belongings and hugged, and Sven slipped the ring onto Isabel’s finger. ",3,4,,,,0,2,2,2,,,,,0,28,28,28,,,,,,,,,,,,,,,,,,,,,,,,,1,1.7197674870039918,,,,,,,,,,,,,,,,,,,,,,,,,030319_p3,001,2019_Mar_04_1544,body_behavioural,3.0.4,60.03766583118145,
2,"After getting their shoes back on, they practically skipped to the gate, filled with joy.",3,4,,,,0,2,2,2,,,,,0,29,29,29,,,,,,,,,,,,,,,,,,,,,,,,,1,1.6670169709977927,,,,,,,,,,,,,,,,,,,,,,,,,030319_p3,001,2019_Mar_04_1544,body_behavioural,3.0.4,60.03766583118145,
2,Sven high-fived a confused shoe-shine attendant as they passed.,3,4,,,,0,2,2,2,,,,,0,30,30,30,,,,,,,,,,,,,,,,,,,,,,,,,1,2.920401342002151,,,,,,,,,,,,,,,,,,,,,,,,,030319_p3,001,2019_Mar_04_1544,body_behavioural,3.0.4,60.03766583118145,
2,"They sat down outside their gate, having actually made good time, until the attendant called for passengers.",3,4,,,,0,2,2,2,,,,,0,31,31,31,,,,,,,,,,,,,,,,,,,,,,,,,9,2.902950906995102,,,,,,,,,,,,,,,,,,,,,,,,,030319_p3,001,2019_Mar_04_1544,body_behavioural,3.0.4,60.03766583118145,
2,"They boarded, sitting together in first class, and had a glass of champagne to celebrate the departure into their new life together.",4,4,,,,0,2,2,2,,,,,0,32,32,32,,,,,,,,,,,,,,,,,,,,,,,,,1,4.00327908500185,,,,,,,,,,,,,,,,,,,,,,,,,030319_p3,001,2019_Mar_04_1544,body_behavioural,3.0.4,60.03766583118145,
2,"Some of their neighboring passengers who had witnessed the proposal congratulated them, and a woman next to them showed them that she had been live-tweeting the whole event and that it was already going viral online.",4,4,,,,0,2,2,2,,,,,0,33,33,33,,,,,,,,,,,,,,,,,,,,,,,,,1,5.2539122399975895,,,,,,,,,,,,,,,,,,,,,,,,,030319_p3,001,2019_Mar_04_1544,body_behavioural,3.0.4,60.03766583118145,
2,"Isabel slid down in her seat with her hands over her face, both embarrassed and overjoyed at the same time.
",4,4,,,,0,2,2,2,,,,,0,34,34,34,,,,,,,,,,,,,,,,,,,,,,,,,1,2.1865066519967513,,,,,,,,,,,,,,,,,,,,,,,,,030319_p3,001,2019_Mar_04_1544,body_behavioural,3.0.4,60.03766583118145,
2,,,,,,,0,2,2,2,,,,,,,,,,,,,,,,,,,,,,,,,,,,,,,,,,,,,,,,,,,,,,,,,,,,,,,,,,,030319_p3,001,2019_Mar_04_1544,body_behavioural,3.0.4,60.03766583118145,
3,,,,,,,0,3,3,3,0,0,0,0,,,,,,,,,,,,,,,,,,,,,,,space,1.9507303499995032,space,0.9196001349992002,space,2.8360027500020806,,,,,,,,,,,,,,,,,,,,,,,,,,,030319_p3,001,2019_Mar_04_1544,body_behavioural,3.0.4,60.03766583118145,
3,Mr. Shelton and Mr. Gordon shook hands inside the foyer of the restaurant: lunch today was about big business. ,1,1,,,,0,3,3,3,,,,,0,0,0,0,,,,,,,,,,,,,,,,,,,,,,,,,9,4.7034172949934145,,,,,,,,,,,,,,,,,,,,,,,,,030319_p3,001,2019_Mar_04_1544,body_behavioural,3.0.4,60.03766583118145,
3,Mr. Shelton and Mr. Gordon both were CEOs of airplane manufacturing companies.,1,1,,,,0,3,3,3,,,,,0,1,1,1,,,,,,,,,,,,,,,,,,,,,,,,,1,7.303578157006996,,,,,,,,,,,,,,,,,,,,,,,,,030319_p3,001,2019_Mar_04_1544,body_behavioural,3.0.4,60.03766583118145,
3,"Mr. Shelton was in charge of a larger, well-established company and had been in the aviation business for decades.",1,1,,,,0,3,3,3,,,,,0,2,2,2,,,,,,,,,,,,,,,,,,,,,,,,,1,6.101592890001484,,,,,,,,,,,,,,,,,,,,,,,,,030319_p3,001,2019_Mar_04_1544,body_behavioural,3.0.4,60.03766583118145,
3,"On the other hand, Mr. Gordon led a smaller but technologically-advanced company that was projected to disrupt the airplane manufacturing market. ",1,1,,,,0,3,3,3,,,,,0,3,3,3,,,,,,,,,,,,,,,,,,,,,,,,,1,2.1365976899978705,,,,,,,,,,,,,,,,,,,,,,,,,030319_p3,001,2019_Mar_04_1544,body_behavioural,3.0.4,60.03766583118145,
3,"The restaurant they chose to meet at was old and fancy with high ceilings, dark wood paneling, and crystal chandeliers.",1,1,,,,0,3,3,3,,,,,0,4,4,4,,,,,,,,,,,,,,,,,,,,,,,,,1,4.070022394997068,,,,,,,,,,,,,,,,,,,,,,,,,030319_p3,001,2019_Mar_04_1544,body_behavioural,3.0.4,60.03766583118145,
3,"The waitress led them to their table in the back, and they settled into a private table in the corner by the fireplace. ",2,1,,,,0,3,3,3,,,,,0,5,5,5,,,,,,,,,,,,,,,,,,,,,,,,,1,3.8675462669998524,,,,,,,,,,,,,,,,,,,,,,,,,030319_p3,001,2019_Mar_04_1544,body_behavioural,3.0.4,60.03766583118145,
3,The waitress brought out the menus and they broke the ice with some small talk.,2,1,,,,0,3,3,3,,,,,0,6,6,6,,,,,,,,,,,,,,,,,,,,,,,,,1,2.369744786999945,,,,,,,,,,,,,,,,,,,,,,,,,030319_p3,001,2019_Mar_04_1544,body_behavioural,3.0.4,60.03766583118145,
3,"Mr. Gordon took out a picture of his daughter and talked about her recent engagement, and Mr. Gordon boasted about his purchase of a Tesla. ",2,1,,,,0,3,3,3,,,,,0,7,7,7,,,,,,,,,,,,,,,,,,,,,,,,,1,2.2369198500018683,,,,,,,,,,,,,,,,,,,,,,,,,030319_p3,001,2019_Mar_04_1544,body_behavioural,3.0.4,60.03766583118145,
3,"They looked at the menus as well, which were full of Italian classics like Carbonara and Tiramisu, and in the back section of the menu was a lengthy drink selection.",2,1,,,,0,3,3,3,,,,,0,8,8,8,,,,,,,,,,,,,,,,,,,,,,,,,1,3.153078444993298,,,,,,,,,,,,,,,,,,,,,,,,,030319_p3,001,2019_Mar_04_1544,body_behavioural,3.0.4,60.03766583118145,
3,"After awhile, Mr. Shelton brought the conversation around to business.",2,2,,,,0,3,3,3,,,,,0,9,9,9,,,,,,,,,,,,,,,,,,,,,,,,,9,1.8367746360017918,,,,,,,,,,,,,,,,,,,,,,,,,030319_p3,001,2019_Mar_04_1544,body_behavioural,3.0.4,60.03766583118145,
3,"“Mr. Gordon, we really admire what you’re doing at your company.",2,2,,,,0,3,3,3,,,,,0,10,10,10,,,,,,,,,,,,,,,,,,,,,,,,,1,2.969933435000712,,,,,,,,,,,,,,,,,,,,,,,,,030319_p3,001,2019_Mar_04_1544,body_behavioural,3.0.4,60.03766583118145,
3,We think it’s genius; we want to support your vision and make this tiny company of yours internationally known.,2,2,,,,0,3,3,3,,,,,0,11,11,11,,,,,,,,,,,,,,,,,,,,,,,,,1,6.5370840480027255,,,,,,,,,,,,,,,,,,,,,,,,,030319_p3,001,2019_Mar_04_1544,body_behavioural,3.0.4,60.03766583118145,
3,"But honestly, your company doesn’t have the resources to reach international markets right now.",2,2,,,,0,3,3,3,,,,,0,12,12,12,,,,,,,,,,,,,,,,,,,,,,,,,1,5.503087492994382,,,,,,,,,,,,,,,,,,,,,,,,,030319_p3,001,2019_Mar_04_1544,body_behavioural,3.0.4,60.03766583118145,
3,"Maybe in a few years you could, but by that time, other companies may have already filled your niche.",2,2,,,,0,3,3,3,,,,,0,13,13,13,,,,,,,,,,,,,,,,,,,,,,,,,1,4.486061265000899,,,,,,,,,,,,,,,,,,,,,,,,,030319_p3,001,2019_Mar_04_1544,body_behavioural,3.0.4,60.03766583118145,
3,I think we should join forces.”,2,2,,,,0,3,3,3,,,,,0,14,14,14,,,,,,,,,,,,,,,,,,,,,,,,,1,1.2028509869996924,,,,,,,,,,,,,,,,,,,,,,,,,030319_p3,001,2019_Mar_04_1544,body_behavioural,3.0.4,60.03766583118145,
3,The waitress came up to them and asked if they were ready to order.,3,2,,,,0,3,3,3,,,,,0,15,15,15,,,,,,,,,,,,,,,,,,,,,,,,,9,2.9530140019996907,,,,,,,,,,,,,,,,,,,,,,,,,030319_p3,001,2019_Mar_04_1544,body_behavioural,3.0.4,60.03766583118145,
3,"Mr. Gordon ordered a medium-rare steak and martini, and Mr. Shelton ordered veal and a manhattan. ",3,2,,,,0,3,3,3,,,,,0,16,16,16,,,,,,,,,,,,,,,,,,,,,,,,,1,2.368418630998349,,,,,,,,,,,,,,,,,,,,,,,,,030319_p3,001,2019_Mar_04_1544,body_behavioural,3.0.4,60.03766583118145,
3,"Then Mr. Shelton continued, “Look, I’ve talked to other members of the board, and we are prepared to offer $600 million to buy your company. ",3,2,,,,0,3,3,3,,,,,0,17,17,17,,,,,,,,,,,,,,,,,,,,,,,,,9,3.9704489310024655,,,,,,,,,,,,,,,,,,,,,,,,,030319_p3,001,2019_Mar_04_1544,body_behavioural,3.0.4,60.03766583118145,
3,"We'd keep on all of your current employees, and you would join as the director of your company branch.” ",3,2,,,,0,3,3,3,,,,,0,18,18,18,,,,,,,,,,,,,,,,,,,,,,,,,1,3.7039092049963074,,,,,,,,,,,,,,,,,,,,,,,,,030319_p3,001,2019_Mar_04_1544,body_behavioural,3.0.4,60.03766583118145,
3,Mr. Gordon sat looking at Mr. Shelton for a few moments considering his response. ,3,2,,,,0,3,3,3,,,,,0,19,19,19,,,,,,,,,,,,,,,,,,,,,,,,,1,4.469944930002384,,,,,,,,,,,,,,,,,,,,,,,,,030319_p3,001,2019_Mar_04_1544,body_behavioural,3.0.4,60.03766583118145,
3,He looked at Mr. Shelton skeptically.,3,2,,,,0,3,3,3,,,,,0,20,20,20,,,,,,,,,,,,,,,,,,,,,,,,,1,1.0361423700014711,,,,,,,,,,,,,,,,,,,,,,,,,030319_p3,001,2019_Mar_04_1544,body_behavioural,3.0.4,60.03766583118145,
3,"He said, “Mr. Shelton, I think that you make a compelling offer, but there are definitely some disadvantages to attaching our small, streamlined productions to a large company like yours.",3,3,,,,0,3,3,3,,,,,0,21,21,21,,,,,,,,,,,,,,,,,,,,,,,,,9,7.703216497997346,,,,,,,,,,,,,,,,,,,,,,,,,030319_p3,001,2019_Mar_04_1544,body_behavioural,3.0.4,60.03766583118145,
3,"We operate in a very different way than a large company, and the kind of administrative complexity that makes the scale of your productions possible would suffocate our business.",3,3,,,,0,3,3,3,,,,,0,22,22,22,,,,,,,,,,,,,,,,,,,,,,,,,1,3.486329269995622,,,,,,,,,,,,,,,,,,,,,,,,,030319_p3,001,2019_Mar_04_1544,body_behavioural,3.0.4,60.03766583118145,
3,"With our product, scaling-up doesn’t necessarily make sense.” ",3,3,,,,0,3,3,3,,,,,0,23,23,23,,,,,,,,,,,,,,,,,,,,,,,,,1,3.2365043479949236,,,,,,,,,,,,,,,,,,,,,,,,,030319_p3,001,2019_Mar_04_1544,body_behavioural,3.0.4,60.03766583118145,
3,Mr. Shelton had expected this response and had come prepared.,3,3,,,,0,3,3,3,,,,,0,24,24,24,,,,,,,,,,,,,,,,,,,,,,,,,1,1.7027591950027272,,,,,,,,,,,,,,,,,,,,,,,,,030319_p3,001,2019_Mar_04_1544,body_behavioural,3.0.4,60.03766583118145,
3,He began laying out the details of how he had handled similar acquisitions successfully in the past.,3,3,,,,0,3,3,3,,,,,0,25,25,25,,,,,,,,,,,,,,,,,,,,,,,,,1,3.666672576997371,,,,,,,,,,,,,,,,,,,,,,,,,030319_p3,001,2019_Mar_04_1544,body_behavioural,3.0.4,60.03766583118145,
3,"Mr. Gordon was impressed, and they went back and forth hashing out what the company configuration would look like post-merger. ",3,3,,,,0,3,3,3,,,,,0,26,26,26,,,,,,,,,,,,,,,,,,,,,,,,,1,4.868481994999456,,,,,,,,,,,,,,,,,,,,,,,,,030319_p3,001,2019_Mar_04_1544,body_behavioural,3.0.4,60.03766583118145,
3,"The waitress brought the food out, interrupting their animated conversation.",4,3,,,,0,3,3,3,,,,,0,27,27,27,,,,,,,,,,,,,,,,,,,,,,,,,1,1.2684325720038032,,,,,,,,,,,,,,,,,,,,,,,,,030319_p3,001,2019_Mar_04_1544,body_behavioural,3.0.4,60.03766583118145,
3,“Oh this looks so good!” Mr. Gordon said. ,4,3,,,,0,3,3,3,,,,,0,28,28,28,,,,,,,,,,,,,,,,,,,,,,,,,1,0.7865105470045819,,,,,,,,,,,,,,,,,,,,,,,,,030319_p3,001,2019_Mar_04_1544,body_behavioural,3.0.4,60.03766583118145,
3, “Can I get you anything else?” the waitress asked.,4,3,,,,0,3,3,3,,,,,0,29,29,29,,,,,,,,,,,,,,,,,,,,,,,,,1,0.8026963570009684,,,,,,,,,,,,,,,,,,,,,,,,,030319_p3,001,2019_Mar_04_1544,body_behavioural,3.0.4,60.03766583118145,
3,They declined and continued to talk.,4,3,,,,0,3,3,3,,,,,0,30,30,30,,,,,,,,,,,,,,,,,,,,,,,,,1,0.7196852069973829,,,,,,,,,,,,,,,,,,,,,,,,,030319_p3,001,2019_Mar_04_1544,body_behavioural,3.0.4,60.03766583118145,
3,"The meal lived up to the reputation of the restaurant, which was known for having the best cuts of meat in the area.",4,3,,,,0,3,3,3,,,,,0,31,31,31,,,,,,,,,,,,,,,,,,,,,,,,,1,2.15320931700262,,,,,,,,,,,,,,,,,,,,,,,,,030319_p3,001,2019_Mar_04_1544,body_behavioural,3.0.4,60.03766583118145,
3,"Mr. Gordon, after taking a contemplative bite of his food, said, “Mr. Shelton, I think we have a deal. ",4,4,,,,0,3,3,3,,,,,0,32,32,32,,,,,,,,,,,,,,,,,,,,,,,,,9,2.6869831629956025,,,,,,,,,,,,,,,,,,,,,,,,,030319_p3,001,2019_Mar_04_1544,body_behavioural,3.0.4,60.03766583118145,
3,"If you can guarantee that I can still have the final say in the all the work done by my team, I think this could be beneficial for both of us.",4,4,,,,0,3,3,3,,,,,0,33,33,33,,,,,,,,,,,,,,,,,,,,,,,,,1,3.0527316919979057,,,,,,,,,,,,,,,,,,,,,,,,,030319_p3,001,2019_Mar_04_1544,body_behavioural,3.0.4,60.03766583118145,
3,I propose a toast to the merging of our companies.”,4,4,,,,0,3,3,3,,,,,0,34,34,34,,,,,,,,,,,,,,,,,,,,,,,,,1,1.8697133519963245,,,,,,,,,,,,,,,,,,,,,,,,,030319_p3,001,2019_Mar_04_1544,body_behavioural,3.0.4,60.03766583118145,
3,Mr. Shelton grinned and lifted his martini to clink glasses.,4,4,,,,0,3,3,3,,,,,0,35,35,35,,,,,,,,,,,,,,,,,,,,,,,,,1,2.469845081999665,,,,,,,,,,,,,,,,,,,,,,,,,030319_p3,001,2019_Mar_04_1544,body_behavioural,3.0.4,60.03766583118145,
3,"He said, “Cheers to a lifelong partnership and to the growth of your company.” ",4,4,,,,0,3,3,3,,,,,0,36,36,36,,,,,,,,,,,,,,,,,,,,,,,,,1,1.5700132950005354,,,,,,,,,,,,,,,,,,,,,,,,,030319_p3,001,2019_Mar_04_1544,body_behavioural,3.0.4,60.03766583118145,
3,,,,,,,0,3,3,3,,,,,,,,,,,,,,,,,,,,,,,,,,,,,,,,,,,,,,,,,,,,,,,,,,,,,,,,,,,030319_p3,001,2019_Mar_04_1544,body_behavioural,3.0.4,60.03766583118145,
4,,,,,,,0,4,4,4,0,0,0,0,,,,,,,,,,,,,,,,,,,,,,,space,1.5362030250034877,space,0.8031915550018311,space,0.6840694299971801,,,,,,,,,,,,,,,,,,,,,,,,,,,030319_p3,001,2019_Mar_04_1544,body_behavioural,3.0.4,60.03766583118145,
4,Charlie saw Alma as they walked into class and he motioned for her to come sit in the back next to him: they had business to discuss.,1,1,,,,0,4,4,4,,,,,0,0,0,0,,,,,,,,,,,,,,,,,,,,,,,,,9,14.803820830005861,,,,,,,,,,,,,,,,,,,,,,,,,030319_p3,001,2019_Mar_04_1544,body_behavioural,3.0.4,60.03766583118145,
4,Charlie and Alma were both economics students with entrepreneurial bents.,1,1,,,,0,4,4,4,,,,,0,1,1,1,,,,,,,,,,,,,,,,,,,,,,,,,1,3.4031869629980065,,,,,,,,,,,,,,,,,,,,,,,,,030319_p3,001,2019_Mar_04_1544,body_behavioural,3.0.4,60.03766583118145,
4,They were also both very busy and in the same class.,1,1,,,,0,4,4,4,,,,,0,2,2,2,,,,,,,,,,,,,,,,,,,,,,,,,1,2.0198104720038828,,,,,,,,,,,,,,,,,,,,,,,,,030319_p3,001,2019_Mar_04_1544,body_behavioural,3.0.4,60.03766583118145,
4,"After talking at a party, Charlie had discovered that Alma was looking for financing for her web development company.",1,1,,,,0,4,4,4,,,,,0,3,3,3,,,,,,,,,,,,,,,,,,,,,,,,,1,7.221138014996541,,,,,,,,,,,,,,,,,,,,,,,,,030319_p3,001,2019_Mar_04_1544,body_behavioural,3.0.4,60.03766583118145,
4,It was serendipitous because he had been talking with other members of his venture capital group about making an investment. ,1,1,,,,0,4,4,4,,,,,0,4,4,4,,,,,,,,,,,,,,,,,,,,,,,,,1,3.4862381650018506,,,,,,,,,,,,,,,,,,,,,,,,,030319_p3,001,2019_Mar_04_1544,body_behavioural,3.0.4,60.03766583118145,
4,"His financial group had come to a decision that morning about Alma’s idea, and he didn't want to wait until after class to discuss the proposal with her. ",1,1,,,,0,4,4,4,,,,,0,5,5,5,,,,,,,,,,,,,,,,,,,,,,,,,1,4.503898859999026,,,,,,,,,,,,,,,,,,,,,,,,,030319_p3,001,2019_Mar_04_1544,body_behavioural,3.0.4,60.03766583118145,
4,"The class was in a large auditorium with small, foldable desks on the side of each cushioned chair. ",1,1,,,,0,4,4,4,,,,,0,6,6,6,,,,,,,,,,,,,,,,,,,,,,,,,9,2.8361880149968783,,,,,,,,,,,,,,,,,,,,,,,,,030319_p3,001,2019_Mar_04_1544,body_behavioural,3.0.4,60.03766583118145,
4,"There were large windows on both sides of the hall, and they could see the first flurries of a winter storm starting outside. ",1,1,,,,0,4,4,4,,,,,0,7,7,7,,,,,,,,,,,,,,,,,,,,,,,,,1,4.4032889349982725,,,,,,,,,,,,,,,,,,,,,,,,,030319_p3,001,2019_Mar_04_1544,body_behavioural,3.0.4,60.03766583118145,
4,"“Here we are at Lecture Seven already in History of the Eternal City,” said the professor. ",2,1,,,,0,4,4,4,,,,,0,8,8,8,,,,,,,,,,,,,,,,,,,,,,,,,9,7.7368594169965945,,,,,,,,,,,,,,,,,,,,,,,,,030319_p3,001,2019_Mar_04_1544,body_behavioural,3.0.4,60.03766583118145,
4,“We're going to talk today about the age of the first Roman emperor: Augustus.” ,2,1,,,,0,4,4,4,,,,,0,9,9,9,,,,,,,,,,,,,,,,,,,,,,,,,1,1.6697016100006294,,,,,,,,,,,,,,,,,,,,,,,,,030319_p3,001,2019_Mar_04_1544,body_behavioural,3.0.4,60.03766583118145,
4,"She went into some recap of the last lecture, and Charlie took this as an opportunity to start talking to Alma.",2,1,,,,0,4,4,4,,,,,0,10,10,10,,,,,,,,,,,,,,,,,,,,,,,,,1,2.8198472919975757,,,,,,,,,,,,,,,,,,,,,,,,,030319_p3,001,2019_Mar_04_1544,body_behavioural,3.0.4,60.03766583118145,
4,"“Okay so I’ve been thinking about your startup idea, and I have talked about it with my fellow investors.",2,2,,,,0,4,4,4,,,,,0,11,11,11,,,,,,,,,,,,,,,,,,,,,,,,,1,2.1029360400061705,,,,,,,,,,,,,,,,,,,,,,,,,030319_p3,001,2019_Mar_04_1544,body_behavioural,3.0.4,60.03766583118145,
4,We’d like to invest half of what you originally suggested.,2,2,,,,0,4,4,4,,,,,0,12,12,12,,,,,,,,,,,,,,,,,,,,,,,,,1,4.053332600000431,,,,,,,,,,,,,,,,,,,,,,,,,030319_p3,001,2019_Mar_04_1544,body_behavioural,3.0.4,60.03766583118145,
4,"Rather than $30,000, we start with $15,000.",2,2,,,,0,4,4,4,,,,,0,13,13,13,,,,,,,,,,,,,,,,,,,,,,,,,1,1.2840859119969537,,,,,,,,,,,,,,,,,,,,,,,,,030319_p3,001,2019_Mar_04_1544,body_behavioural,3.0.4,60.03766583118145,
4,We would see how the company does and then invest the other half later.” ,2,2,,,,0,4,4,4,,,,,0,14,14,14,,,,,,,,,,,,,,,,,,,,,,,,,1,1.5363145299997996,,,,,,,,,,,,,,,,,,,,,,,,,030319_p3,001,2019_Mar_04_1544,body_behavioural,3.0.4,60.03766583118145,
4,"Alma, tapping her pen on her notebook, narrowed her eyes and pursed her lips.",2,2,,,,0,4,4,4,,,,,0,15,15,15,,,,,,,,,,,,,,,,,,,,,,,,,1,2.3031498700001976,,,,,,,,,,,,,,,,,,,,,,,,,030319_p3,001,2019_Mar_04_1544,body_behavioural,3.0.4,60.03766583118145,
4,She turned back to the lecture as she considered this.,2,2,,,,0,4,4,4,,,,,0,16,16,16,,,,,,,,,,,,,,,,,,,,,,,,,1,2.369943069999863,,,,,,,,,,,,,,,,,,,,,,,,,030319_p3,001,2019_Mar_04_1544,body_behavioural,3.0.4,60.03766583118145,
4,"The professor was going on: “The senate had conferred upon him the title of Augustus the sacred and revered one, the restorer of traditional values, the city’s new religious leader, the restorer of temples. ",3,2,,,,0,4,4,4,,,,,0,17,17,17,,,,,,,,,,,,,,,,,,,,,,,,,9,9.853589997001109,,,,,,,,,,,,,,,,,,,,,,,,,030319_p3,001,2019_Mar_04_1544,body_behavioural,3.0.4,60.03766583118145,
4,"Augustus also sought to beautify Rome, make it into a new Athens, and dispel the criticisms of Rome as disorganized and ugly.”",3,2,,,,0,4,4,4,,,,,0,18,18,18,,,,,,,,,,,,,,,,,,,,,,,,,1,11.086848079998163,,,,,,,,,,,,,,,,,,,,,,,,,030319_p3,001,2019_Mar_04_1544,body_behavioural,3.0.4,60.03766583118145,
4,"Alma turned back to Charlie and offered her rebuttal, “I don’t know about that: it’s not going to be possible to implement our ideas effectively unless the project is fully funded. ",3,3,,,,0,4,4,4,,,,,0,19,19,19,,,,,,,,,,,,,,,,,,,,,,,,,1,4.1209171949958545,,,,,,,,,,,,,,,,,,,,,,,,,030319_p3,001,2019_Mar_04_1544,body_behavioural,3.0.4,60.03766583118145,
4,We would have to find other investors and that would set us back in our timeline. ,3,3,,,,0,4,4,4,,,,,0,20,20,20,,,,,,,,,,,,,,,,,,,,,,,,,1,1.4011701729978085,,,,,,,,,,,,,,,,,,,,,,,,,030319_p3,001,2019_Mar_04_1544,body_behavioural,3.0.4,60.03766583118145,
4,"Our profit projections assumed we'd be starting relatively soon, not months down the line.” ",3,3,,,,0,4,4,4,,,,,0,21,21,21,,,,,,,,,,,,,,,,,,,,,,,,,1,3.6362111950002145,,,,,,,,,,,,,,,,,,,,,,,,,030319_p3,001,2019_Mar_04_1544,body_behavioural,3.0.4,60.03766583118145,
4,They whispered back and forth during the whole class in order to work out a compromise. ,3,3,,,,0,4,4,4,,,,,0,22,22,22,,,,,,,,,,,,,,,,,,,,,,,,,1,3.5195690379987354,,,,,,,,,,,,,,,,,,,,,,,,,030319_p3,001,2019_Mar_04_1544,body_behavioural,3.0.4,60.03766583118145,
4,"Finally, the class ended, and the professor dismissed the students with a reminder that the midterm paper was due on Thursday and that they should email their papers to the TA.",4,3,,,,0,4,4,4,,,,,0,23,23,23,,,,,,,,,,,,,,,,,,,,,,,,,9,6.751095751998946,,,,,,,,,,,,,,,,,,,,,,,,,030319_p3,001,2019_Mar_04_1544,body_behavioural,3.0.4,60.03766583118145,
4,"Everyone, except Charlie and Alma, packed up their things and headed out of the lecture hall to get to their next class. ",4,3,,,,0,4,4,4,,,,,0,24,24,24,,,,,,,,,,,,,,,,,,,,,,,,,1,2.453109771995514,,,,,,,,,,,,,,,,,,,,,,,,,030319_p3,001,2019_Mar_04_1544,body_behavioural,3.0.4,60.03766583118145,
4,"“Alright, so we’ll have the $30,000 wired to you by tomorrow,” Charlie said. ",4,4,,,,0,4,4,4,,,,,0,25,25,25,,,,,,,,,,,,,,,,,,,,,,,,,1,2.0033827799998107,,,,,,,,,,,,,,,,,,,,,,,,,030319_p3,001,2019_Mar_04_1544,body_behavioural,3.0.4,60.03766583118145,
4,"This wasn't ideal for Charlie, but Alma had refused to budge, and his investment group had told him they were willing to pay the full amount if necessary. ",4,4,,,,0,4,4,4,,,,,0,26,26,26,,,,,,,,,,,,,,,,,,,,,,,,,1,5.367631414999778,,,,,,,,,,,,,,,,,,,,,,,,,030319_p3,001,2019_Mar_04_1544,body_behavioural,3.0.4,60.03766583118145,
4,"They shook hands, walked out of the now-empty lecture hall, and made plans to sign the official paperwork the next day.",4,4,,,,0,4,4,4,,,,,0,27,27,27,,,,,,,,,,,,,,,,,,,,,,,,,1,2.90313326499745,,,,,,,,,,,,,,,,,,,,,,,,,030319_p3,001,2019_Mar_04_1544,body_behavioural,3.0.4,60.03766583118145,
4,,,,,,,0,4,4,4,,,,,,,,,,,,,,,,,,,,,,,,,,,,,,,,,,,,,,,,,,,,,,,,,,,,,,,,,,,030319_p3,001,2019_Mar_04_1544,body_behavioural,3.0.4,60.03766583118145,
5,,,,,,,0,5,5,5,0,0,0,0,,,,,,,,,,,,,,,,,,,,,,,space,1.336292340005457,space,0.6029672799995751,space,0.4863227599998936,,,,,,,,,,,,,,,,,,,,,,,,,,,030319_p3,001,2019_Mar_04_1544,body_behavioural,3.0.4,60.03766583118145,
5,"Maria walked into lecture beside Henry, and she was mentally rehearsing what she should say to break up with him.",1,1,,,,0,5,5,5,,,,,0,0,0,0,,,,,,,,,,,,,,,,,,,,,,,,,9,4.536530804994982,,,,,,,,,,,,,,,,,,,,,,,,,030319_p3,001,2019_Mar_04_1544,body_behavioural,3.0.4,60.03766583118145,
5,"She had been putting it off with a growing sense of dread, and now this lecture was the last chance before she had to leave campus. ",1,1,,,,0,5,5,5,,,,,0,1,1,1,,,,,,,,,,,,,,,,,,,,,,,,,1,2.7351530310043017,,,,,,,,,,,,,,,,,,,,,,,,,030319_p3,001,2019_Mar_04_1544,body_behavioural,3.0.4,60.03766583118145,
5,"The lecture hall was large, with a stage for the lecturer in the front of the room, and tiered seats that stretched up in 15 stacked rows. ",1,1,,,,0,5,5,5,,,,,0,2,2,2,,,,,,,,,,,,,,,,,,,,,,,,,1,2.720233649997681,,,,,,,,,,,,,,,,,,,,,,,,,030319_p3,001,2019_Mar_04_1544,body_behavioural,3.0.4,60.03766583118145,
5,"The clock struck 3 pm, and Maria and Henry slid into neighboring seats near the back of the room.",1,1,,,,0,5,5,5,,,,,0,3,3,3,,,,,,,,,,,,,,,,,,,,,,,,,1,4.183461562002776,,,,,,,,,,,,,,,,,,,,,,,,,030319_p3,001,2019_Mar_04_1544,body_behavioural,3.0.4,60.03766583118145,
5,"“Good afternoon, everybody,” said the professor, fiddling to connect his laptop with the projector.",2,1,,,,0,5,5,5,,,,,0,4,4,4,,,,,,,,,,,,,,,,,,,,,,,,,1,7.003856434006593,,,,,,,,,,,,,,,,,,,,,,,,,030319_p3,001,2019_Mar_04_1544,body_behavioural,3.0.4,60.03766583118145,
5,“Welcome to week 4 of Intro to Ancient Philosophy. ,2,1,,,,0,5,5,5,,,,,0,5,5,5,,,,,,,,,,,,,,,,,,,,,,,,,1,1.03692718000093,,,,,,,,,,,,,,,,,,,,,,,,,030319_p3,001,2019_Mar_04_1544,body_behavioural,3.0.4,60.03766583118145,
5,Today we are going to continue our lecture on Aristotelian Philosophy.”,2,1,,,,0,5,5,5,,,,,0,6,6,6,,,,,,,,,,,,,,,,,,,,,,,,,1,3.1360922129970277,,,,,,,,,,,,,,,,,,,,,,,,,030319_p3,001,2019_Mar_04_1544,body_behavioural,3.0.4,60.03766583118145,
5,Everyone in class pulled out their notebooks and settled in their seats as the slides appeared on the large front screens.,2,1,,,,0,5,5,5,,,,,0,7,7,7,,,,,,,,,,,,,,,,,,,,,,,,,1,2.03682455499802,,,,,,,,,,,,,,,,,,,,,,,,,030319_p3,001,2019_Mar_04_1544,body_behavioural,3.0.4,60.03766583118145,
5,"“Henry,” Maria whispered.",2,1,,,,0,5,5,5,,,,,0,8,8,8,,,,,,,,,,,,,,,,,,,,,,,,,1,8.63519521499984,,,,,,,,,,,,,,,,,,,,,,,,,030319_p3,001,2019_Mar_04_1544,body_behavioural,3.0.4,60.03766583118145,
5,"“Hmm?” he replied, distracted.",2,1,,,,0,5,5,5,,,,,0,9,9,9,,,,,,,,,,,,,,,,,,,,,,,,,1,1.0205254960019374,,,,,,,,,,,,,,,,,,,,,,,,,030319_p3,001,2019_Mar_04_1544,body_behavioural,3.0.4,60.03766583118145,
5,"“Henry, I need to tell you something really important, and I don’t know when else I’ll have a chance to do it,” she said.",2,1,,,,0,5,5,5,,,,,0,10,10,10,,,,,,,,,,,,,,,,,,,,,,,,,1,2.2198926600030973,,,,,,,,,,,,,,,,,,,,,,,,,030319_p3,001,2019_Mar_04_1544,body_behavioural,3.0.4,60.03766583118145,
5,"“Okay, what's up?”, he said, tilting his head close to her. ",2,1,,,,0,5,5,5,,,,,0,11,11,11,,,,,,,,,,,,,,,,,,,,,,,,,1,1.002844862996426,,,,,,,,,,,,,,,,,,,,,,,,,030319_p3,001,2019_Mar_04_1544,body_behavioural,3.0.4,60.03766583118145,
5," “Henry, I don’t think I can do long distance.",2,2,,,,0,5,5,5,,,,,0,12,12,12,,,,,,,,,,,,,,,,,,,,,,,,,9,5.617524260000209,,,,,,,,,,,,,,,,,,,,,,,,,030319_p3,001,2019_Mar_04_1544,body_behavioural,3.0.4,60.03766583118145,
5,"I think what we have here is great, but I think it will be really hard when we are so far apart for such an extended period.",2,2,,,,0,5,5,5,,,,,0,13,13,13,,,,,,,,,,,,,,,,,,,,,,,,,1,4.25326675499673,,,,,,,,,,,,,,,,,,,,,,,,,030319_p3,001,2019_Mar_04_1544,body_behavioural,3.0.4,60.03766583118145,
5,"I’m sorry I’m telling you now in lecture, but I'm out of time, and it’s taken me awhile to come to this decision.",2,2,,,,0,5,5,5,,,,,0,14,14,14,,,,,,,,,,,,,,,,,,,,,,,,,1,2.6865167779978947,,,,,,,,,,,,,,,,,,,,,,,,,030319_p3,001,2019_Mar_04_1544,body_behavioural,3.0.4,60.03766583118145,
5,"I really think this is best, and who knows what will happen when I get back from my study abroad.” ",2,2,,,,0,5,5,5,,,,,0,15,15,15,,,,,,,,,,,,,,,,,,,,,,,,,1,2.8860879950007075,,,,,,,,,,,,,,,,,,,,,,,,,030319_p3,001,2019_Mar_04_1544,body_behavioural,3.0.4,60.03766583118145,
5,"While Henry tried to think of what to say, he and Maria stared unlistening at the professor as he started the lecture, “First we will talk about Aristotle’s work, The Categories.",3,2,,,,0,5,5,5,,,,,0,16,16,16,,,,,,,,,,,,,,,,,,,,,,,,,9,6.409206545002235,,,,,,,,,,,,,,,,,,,,,,,,,030319_p3,001,2019_Mar_04_1544,body_behavioural,3.0.4,60.03766583118145,
5,"This text, as you might have been able to guess, is about the kinds, or categories, of things that there are.",3,2,,,,0,5,5,5,,,,,0,17,17,17,,,,,,,,,,,,,,,,,,,,,,,,,1,2.218027028000506,,,,,,,,,,,,,,,,,,,,,,,,,030319_p3,001,2019_Mar_04_1544,body_behavioural,3.0.4,60.03766583118145,
5,"In fact, our term category comes from this Aristotelian context.” ",3,2,,,,0,5,5,5,,,,,0,18,18,18,,,,,,,,,,,,,,,,,,,,,,,,,1,2.9700909500024864,,,,,,,,,,,,,,,,,,,,,,,,,030319_p3,001,2019_Mar_04_1544,body_behavioural,3.0.4,60.03766583118145,
5,"Henry felt horrible, like the wind had just been knocked out of him.",3,2,,,,0,5,5,5,,,,,0,19,19,19,,,,,,,,,,,,,,,,,,,,,,,,,9,2.453062075001071,,,,,,,,,,,,,,,,,,,,,,,,,030319_p3,001,2019_Mar_04_1544,body_behavioural,3.0.4,60.03766583118145,
5,"A few tears started to fall down his cheeks as he whispered back, “Maria, I think we can make it work.",3,3,,,,0,5,5,5,,,,,0,20,20,20,,,,,,,,,,,,,,,,,,,,,,,,,1,2.9200054300017655,,,,,,,,,,,,,,,,,,,,,,,,,030319_p3,001,2019_Mar_04_1544,body_behavioural,3.0.4,60.03766583118145,
5,I’ll come visit you.,3,3,,,,0,5,5,5,,,,,0,21,21,21,,,,,,,,,,,,,,,,,,,,,,,,,1,0.7840379250046681,,,,,,,,,,,,,,,,,,,,,,,,,030319_p3,001,2019_Mar_04_1544,body_behavioural,3.0.4,60.03766583118145,
5,It will be fine.,3,3,,,,0,5,5,5,,,,,0,22,22,22,,,,,,,,,,,,,,,,,,,,,,,,,1,0.6860518620014773,,,,,,,,,,,,,,,,,,,,,,,,,030319_p3,001,2019_Mar_04_1544,body_behavioural,3.0.4,60.03766583118145,
5,I don’t want to break up.”,3,3,,,,0,5,5,5,,,,,0,23,23,23,,,,,,,,,,,,,,,,,,,,,,,,,1,0.6698412499972619,,,,,,,,,,,,,,,,,,,,,,,,,030319_p3,001,2019_Mar_04_1544,body_behavioural,3.0.4,60.03766583118145,
5,"Maria felt so guilty that she nearly gave in, but forced herself to hold her ground, knowing that this would make things much easier for both of them in the future.",3,3,,,,0,5,5,5,,,,,0,24,24,24,,,,,,,,,,,,,,,,,,,,,,,,,1,7.01717315899441,,,,,,,,,,,,,,,,,,,,,,,,,030319_p3,001,2019_Mar_04_1544,body_behavioural,3.0.4,60.03766583118145,
5,"She gave his hand a squeeze but shook her head sadly, before turning back to her laptop and half-heartedly taking notes on the lecture which they sat through in painful silence.",3,3,,,,0,5,5,5,,,,,0,25,25,25,,,,,,,,,,,,,,,,,,,,,,,,,1,5.334311364000314,,,,,,,,,,,,,,,,,,,,,,,,,030319_p3,001,2019_Mar_04_1544,body_behavioural,3.0.4,60.03766583118145,
5,"Finally, the professor was wrapping up, “This is what Aristotle means when he says that an animal’s or plant’s form rather than its matter is its nature. ",4,3,,,,0,5,5,5,,,,,0,26,26,26,,,,,,,,,,,,,,,,,,,,,,,,,1,2.5348212419994525,,,,,,,,,,,,,,,,,,,,,,,,,030319_p3,001,2019_Mar_04_1544,body_behavioural,3.0.4,60.03766583118145,
5,"Alright class, that’s all for today. ",4,3,,,,0,5,5,5,,,,,0,27,27,27,,,,,,,,,,,,,,,,,,,,,,,,,1,1.650826427998254,,,,,,,,,,,,,,,,,,,,,,,,,030319_p3,001,2019_Mar_04_1544,body_behavioural,3.0.4,60.03766583118145,
5,"Remember the final exam is coming up next week on Tuesday on the Pre-Socratics, Plato, and Aristotle, so feel free to come by office hours to discuss if you have the inspiration.",4,3,,,,0,5,5,5,,,,,0,28,28,28,,,,,,,,,,,,,,,,,,,,,,,,,1,2.3537490499948035,,,,,,,,,,,,,,,,,,,,,,,,,030319_p3,001,2019_Mar_04_1544,body_behavioural,3.0.4,60.03766583118145,
5,"And if anyone is doing the 20 page paper in lieu of the final, that’s due next Tuesday as well.",4,3,,,,0,5,5,5,,,,,0,29,29,29,,,,,,,,,,,,,,,,,,,,,,,,,1,4.286710011998366,,,,,,,,,,,,,,,,,,,,,,,,,030319_p3,001,2019_Mar_04_1544,body_behavioural,3.0.4,60.03766583118145,
5,"Have a good day, folks.” ",4,3,,,,0,5,5,5,,,,,0,30,30,30,,,,,,,,,,,,,,,,,,,,,,,,,1,0.7028775470025721,,,,,,,,,,,,,,,,,,,,,,,,,030319_p3,001,2019_Mar_04_1544,body_behavioural,3.0.4,60.03766583118145,
5,"Maria and Henry packed up hurriedly, and slipped quickly out of the class before the rest of the crowd. ",4,3,,,,0,5,5,5,,,,,0,31,31,31,,,,,,,,,,,,,,,,,,,,,,,,,9,3.786554954996973,,,,,,,,,,,,,,,,,,,,,,,,,030319_p3,001,2019_Mar_04_1544,body_behavioural,3.0.4,60.03766583118145,
5,"They hugged outside, and both of them were crying. ",4,4,,,,0,5,5,5,,,,,0,32,32,32,,,,,,,,,,,,,,,,,,,,,,,,,1,3.1533097900028224,,,,,,,,,,,,,,,,,,,,,,,,,030319_p3,001,2019_Mar_04_1544,body_behavioural,3.0.4,60.03766583118145,
5,"“Maria, I don’t want you to leave.",4,4,,,,0,5,5,5,,,,,0,33,33,33,,,,,,,,,,,,,,,,,,,,,,,,,1,1.119123700002092,,,,,,,,,,,,,,,,,,,,,,,,,030319_p3,001,2019_Mar_04_1544,body_behavioural,3.0.4,60.03766583118145,
5,I don’t want this to end. ,4,4,,,,0,5,5,5,,,,,0,34,34,34,,,,,,,,,,,,,,,,,,,,,,,,,1,0.636872757000674,,,,,,,,,,,,,,,,,,,,,,,,,030319_p3,001,2019_Mar_04_1544,body_behavioural,3.0.4,60.03766583118145,
5,"But if this is what you think is best, I can’t make it otherwise.” ",4,4,,,,0,5,5,5,,,,,0,35,35,35,,,,,,,,,,,,,,,,,,,,,,,,,1,1.6836608680023346,,,,,,,,,,,,,,,,,,,,,,,,,030319_p3,001,2019_Mar_04_1544,body_behavioural,3.0.4,60.03766583118145,
5,"They hugged one last time, and Maria ran off to get her things from her dorm.",4,4,,,,0,5,5,5,,,,,0,36,36,36,,,,,,,,,,,,,,,,,,,,,,,,,1,1.7199281329958467,,,,,,,,,,,,,,,,,,,,,,,,,030319_p3,001,2019_Mar_04_1544,body_behavioural,3.0.4,60.03766583118145,
5,Henry sadly watched her go. ,4,4,,,,0,5,5,5,,,,,0,37,37,37,,,,,,,,,,,,,,,,,,,,,,,,,1,0.7863062899996294,,,,,,,,,,,,,,,,,,,,,,,,,030319_p3,001,2019_Mar_04_1544,body_behavioural,3.0.4,60.03766583118145,
5,,,,,,,0,5,5,5,,,,,,,,,,,,,,,,,,,,,,,,,,,,,,,,,,,,,,,,,,,,,,,,,,,,,,,,,,,030319_p3,001,2019_Mar_04_1544,body_behavioural,3.0.4,60.03766583118145,
6,,,,,,,0,6,6,6,0,0,0,0,,,,,,,,,,,,,,,,,,,,,,,space,1.0536158820032142,space,0.5529372900055023,space,0.7692397269929643,,,,,,,,,,,,,,,,,,,,,,,,,,,030319_p3,001,2019_Mar_04_1544,body_behavioural,3.0.4,60.03766583118145,
6,"Thomas, dreading the conversation he was about to have, got to Annika’s Finer Diner early.",1,1,None,None,,0,6,6,6,,,,,0,0,0,0,,,,,,,,,,,,,,,,,,,,,,,,,9,7.170679610004299,,,,,,,,,,,,,,,,,,,,,,,,,030319_p3,001,2019_Mar_04_1544,body_behavioural,3.0.4,60.03766583118145,
6,The restaurant had a kitschy charm and was reminiscent of a diner from the 70’s. ,1,1,None,None,,0,6,6,6,,,,,0,1,1,1,,,,,,,,,,,,,,,,,,,,,,,,,1,1.9864989269990474,,,,,,,,,,,,,,,,,,,,,,,,,030319_p3,001,2019_Mar_04_1544,body_behavioural,3.0.4,60.03766583118145,
6,A bell chimed as the door swung open and Sadie entered to find Thomas deep in thought on a bench by the door.,1,1,None,None,,0,6,6,6,,,,,0,2,2,2,,,,,,,,,,,,,,,,,,,,,,,,,1,4.486706581999897,,,,,,,,,,,,,,,,,,,,,,,,,030319_p3,001,2019_Mar_04_1544,body_behavioural,3.0.4,60.03766583118145,
6,He jumped up and gave her a side hug. ,1,1,None,None,,0,6,6,6,,,,,0,3,3,3,,,,,,,,,,,,,,,,,,,,,,,,,1,1.1700523070030613,,,,,,,,,,,,,,,,,,,,,,,,,030319_p3,001,2019_Mar_04_1544,body_behavioural,3.0.4,60.03766583118145,
6,"“How was your day?”, he asked.",1,1,None,None,,0,6,6,6,,,,,0,4,4,4,,,,,,,,,,,,,,,,,,,,,,,,,1,1.7361264999999548,,,,,,,,,,,,,,,,,,,,,,,,,030319_p3,001,2019_Mar_04_1544,body_behavioural,3.0.4,60.03766583118145,
6,"She clung onto him, “It was okay.",1,1,None,None,,0,6,6,6,,,,,0,5,5,5,,,,,,,,,,,,,,,,,,,,,,,,,1,1.452671562001342,,,,,,,,,,,,,,,,,,,,,,,,,030319_p3,001,2019_Mar_04_1544,body_behavioural,3.0.4,60.03766583118145,
6,I missed you today.”,1,1,None,None,,0,6,6,6,,,,,0,6,6,6,,,,,,,,,,,,,,,,,,,,,,,,,1,0.6863271050024196,,,,,,,,,,,,,,,,,,,,,,,,,030319_p3,001,2019_Mar_04_1544,body_behavioural,3.0.4,60.03766583118145,
6,He looked at the hostess coming towards them.,1,1,None,None,,0,6,6,6,,,,,0,7,7,7,,,,,,,,,,,,,,,,,,,,,,,,,1,4.386808432995167,,,,,,,,,,,,,,,,,,,,,,,,,030319_p3,001,2019_Mar_04_1544,body_behavioural,3.0.4,60.03766583118145,
6,"“Can we have a table in the back?”, Thomas asked.",1,1,None,None,,0,6,6,6,,,,,0,8,8,8,,,,,,,,,,,,,,,,,,,,,,,,,1,1.4039889380001114,,,,,,,,,,,,,,,,,,,,,,,,,030319_p3,001,2019_Mar_04_1544,body_behavioural,3.0.4,60.03766583118145,
6,"She shrugged and, as she loudly popped her bubblegum, replied, “Sure, honey, this way.”",1,1,9.0,None,,0,6,6,6,,,,,0,9,9,9,,,,,,,,,,,,,,,,,,,,,,,,,1,4.586542759992881,,,,,,,,,,,,,,,,,,,,,,,,,030319_p3,001,2019_Mar_04_1544,body_behavioural,3.0.4,60.03766583118145,
6,She led them to the back of the restaurant where there were dimly lit tables. ,2,1,None,None,,0,6,6,6,,,,,0,10,10,10,,,,,,,,,,,,,,,,,,,,,,,,,1,1.9355217699994682,,,,,,,,,,,,,,,,,,,,,,,,,030319_p3,001,2019_Mar_04_1544,body_behavioural,3.0.4,60.03766583118145,
6,"“Is this alright?”, the hostess asked.",2,1,None,None,,0,6,6,6,,,,,0,11,11,11,,,,,,,,,,,,,,,,,,,,,,,,,1,2.3863271299996995,,,,,,,,,,,,,,,,,,,,,,,,,030319_p3,001,2019_Mar_04_1544,body_behavioural,3.0.4,60.03766583118145,
6,Thomas cleared his throat and tried not to grimace at the stained fabric that lined the booth.,2,1,None,None,,0,6,6,6,,,,,0,12,12,12,,,,,,,,,,,,,,,,,,,,,,,,,1,4.4870427530040615,,,,,,,,,,,,,,,,,,,,,,,,,030319_p3,001,2019_Mar_04_1544,body_behavioural,3.0.4,60.03766583118145,
6,“This is great.,2,1,None,None,,0,6,6,6,,,,,0,13,13,13,,,,,,,,,,,,,,,,,,,,,,,,,1,0.5527338000028976,,,,,,,,,,,,,,,,,,,,,,,,,030319_p3,001,2019_Mar_04_1544,body_behavioural,3.0.4,60.03766583118145,
6,"Thank you,” Thomas said.",2,1,None,None,,0,6,6,6,,,,,0,14,14,14,,,,,,,,,,,,,,,,,,,,,,,,,1,0.7197991799985175,,,,,,,,,,,,,,,,,,,,,,,,,030319_p3,001,2019_Mar_04_1544,body_behavioural,3.0.4,60.03766583118145,
6,Sadie slipped into the cushioned seat and grabbed Thomas’ hand.,2,1,None,None,,0,6,6,6,,,,,0,15,15,15,,,,,,,,,,,,,,,,,,,,,,,,,1,1.9365538329948322,,,,,,,,,,,,,,,,,,,,,,,,,030319_p3,001,2019_Mar_04_1544,body_behavioural,3.0.4,60.03766583118145,
6,"“Tell me about your day!”, Sadie sang as Thomas sat down.",2,1,None,None,,0,6,6,6,,,,,0,16,16,16,,,,,,,,,,,,,,,,,,,,,,,,,1,1.3360508599944296,,,,,,,,,,,,,,,,,,,,,,,,,030319_p3,001,2019_Mar_04_1544,body_behavioural,3.0.4,60.03766583118145,
6,He looked at her silently and pulled his hand slowly from hers.,2,1,None,None,,0,6,6,6,,,,,0,17,17,17,,,,,,,,,,,,,,,,,,,,,,,,,1,2.2027327149990015,,,,,,,,,,,,,,,,,,,,,,,,,030319_p3,001,2019_Mar_04_1544,body_behavioural,3.0.4,60.03766583118145,
6,Sadie gave him a puzzled look.,2,1,None,None,,0,6,6,6,,,,,0,18,18,18,,,,,,,,,,,,,,,,,,,,,,,,,1,0.8696574870045879,,,,,,,,,,,,,,,,,,,,,,,,,030319_p3,001,2019_Mar_04_1544,body_behavioural,3.0.4,60.03766583118145,
6,Thomas looked away and took a deep breath. ,2,1,None,None,,0,6,6,6,,,,,0,19,19,19,,,,,,,,,,,,,,,,,,,,,,,,,1,1.5026507720031077,,,,,,,,,,,,,,,,,,,,,,,,,030319_p3,001,2019_Mar_04_1544,body_behavioural,3.0.4,60.03766583118145,
6,"Sadie asked, “What’s wrong?” ",2,1,None,None,,0,6,6,6,,,,,0,20,20,20,,,,,,,,,,,,,,,,,,,,,,,,,1,0.6862290450008004,,,,,,,,,,,,,,,,,,,,,,,,,030319_p3,001,2019_Mar_04_1544,body_behavioural,3.0.4,60.03766583118145,
6,Thomas picked at his fingernails.,2,1,None,22.0,,0,6,6,6,,,,,0,21,21,21,,,,,,,,,,,,,,,,,,,,,,,,,1,0.8025904200039804,,,,,,,,,,,,,,,,,,,,,,,,,030319_p3,001,2019_Mar_04_1544,body_behavioural,3.0.4,60.03766583118145,
6,"“Sadie, I’ve been thinking, and I need to figure out some stuff… on my own.”",2,2,None,None,,0,6,6,6,,,,,0,22,22,22,,,,,,,,,,,,,,,,,,,,,,,,,1,1.8531795379967662,,,,,,,,,,,,,,,,,,,,,,,,,030319_p3,001,2019_Mar_04_1544,body_behavioural,3.0.4,60.03766583118145,
6,Sadie’s mouth popped open for a moment.,2,2,None,None,,0,6,6,6,,,,,0,23,23,23,,,,,,,,,,,,,,,,,,,,,,,,,1,0.9196982420035056,,,,,,,,,,,,,,,,,,,,,,,,,030319_p3,001,2019_Mar_04_1544,body_behavioural,3.0.4,60.03766583118145,
6,Then she swallowed and shifted back in her seat.,2,2,None,None,,0,6,6,6,,,,,0,24,24,24,,,,,,,,,,,,,,,,,,,,,,,,,1,1.1530608249959187,,,,,,,,,,,,,,,,,,,,,,,,,030319_p3,001,2019_Mar_04_1544,body_behavioural,3.0.4,60.03766583118145,
6,“Things have been really picking up at work.,2,2,None,None,,0,6,6,6,,,,,0,25,25,25,,,,,,,,,,,,,,,,,,,,,,,,,1,0.7363023069992778,,,,,,,,,,,,,,,,,,,,,,,,,030319_p3,001,2019_Mar_04_1544,body_behavioural,3.0.4,60.03766583118145,
6,And I’m not sure that this is the job I want to do anymore.,2,2,None,None,,0,6,6,6,,,,,0,26,26,26,,,,,,,,,,,,,,,,,,,,,,,,,1,1.2531680620013503,,,,,,,,,,,,,,,,,,,,,,,,,030319_p3,001,2019_Mar_04_1544,body_behavioural,3.0.4,60.03766583118145,
6,It’s been really overwhelming between working and figuring out if I should change careers.” ,2,2,17.0,None,,0,6,6,6,,,,,0,27,27,27,,,,,,,,,,,,,,,,,,,,,,,,,1,7.667671841998526,,,,,,,,,,,,,,,,,,,,,,,,,030319_p3,001,2019_Mar_04_1544,body_behavioural,3.0.4,60.03766583118145,
6,The waiter appeared and interrupted the speech Thomas had been practicing.,3,2,None,None,,0,6,6,6,,,,,0,28,28,28,,,,,,,,,,,,,,,,,,,,,,,,,1,1.969872852001572,,,,,,,,,,,,,,,,,,,,,,,,,030319_p3,001,2019_Mar_04_1544,body_behavioural,3.0.4,60.03766583118145,
6,"“Hello you two!”, the waiter said.",3,2,None,None,,0,6,6,6,,,,,0,29,29,29,,,,,,,,,,,,,,,,,,,,,,,,,9,1.1195966720042634,,,,,,,,,,,,,,,,,,,,,,,,,030319_p3,001,2019_Mar_04_1544,body_behavioural,3.0.4,60.03766583118145,
6,“Have you decided what you would like?”,3,2,None,None,,0,6,6,6,,,,,0,30,30,30,,,,,,,,,,,,,,,,,,,,,,,,,1,1.2175595320004504,,,,,,,,,,,,,,,,,,,,,,,,,030319_p3,001,2019_Mar_04_1544,body_behavioural,3.0.4,60.03766583118145,
6,"Thomas and Sadie realized there were menus on the table, and they glanced at the lengthy list quickly.",3,2,None,None,,0,6,6,6,,,,,0,31,31,31,,,,,,,,,,,,,,,,,,,,,,,,,1,2.1369697990012355,,,,,,,,,,,,,,,,,,,,,,,,,030319_p3,001,2019_Mar_04_1544,body_behavioural,3.0.4,60.03766583118145,
6,"There were so many strange dishes they had never heard of before, so they settled on familiar orders.",3,2,None,None,,0,6,6,6,,,,,0,32,32,32,,,,,,,,,,,,,,,,,,,,,,,,,1,2.3342645649972837,,,,,,,,,,,,,,,,,,,,,,,,,030319_p3,001,2019_Mar_04_1544,body_behavioural,3.0.4,60.03766583118145,
6,"“I’ll have a burger, no tomatoes,” Thomas said.",3,2,None,None,,0,6,6,6,,,,,0,33,33,33,,,,,,,,,,,,,,,,,,,,,,,,,1,1.8526928200008115,,,,,,,,,,,,,,,,,,,,,,,,,030319_p3,001,2019_Mar_04_1544,body_behavioural,3.0.4,60.03766583118145,
6,"Sadie asked about the reuben, and the waiter told her it was excellent.",3,2,None,None,,0,6,6,6,,,,,0,34,34,34,,,,,,,,,,,,,,,,,,,,,,,,,1,2.6697065030020894,,,,,,,,,,,,,,,,,,,,,,,,,030319_p3,001,2019_Mar_04_1544,body_behavioural,3.0.4,60.03766583118145,
6,"Once she agreed to get that, he walked away. ",3,2,None,None,,0,6,6,6,,,,,0,35,35,35,,,,,,,,,,,,,,,,,,,,,,,,,1,2.0684551790036494,,,,,,,,,,,,,,,,,,,,,,,,,030319_p3,001,2019_Mar_04_1544,body_behavioural,3.0.4,60.03766583118145,
6,Sadie and Thomas looked at each other. ,3,2,None,None,,0,6,6,6,,,,,0,36,36,36,,,,,,,,,,,,,,,,,,,,,,,,,1,4.98626779299957,,,,,,,,,,,,,,,,,,,,,,,,,030319_p3,001,2019_Mar_04_1544,body_behavioural,3.0.4,60.03766583118145,
6,"“So what are you saying?”, Sadie asked. ",3,2,None,None,,0,6,6,6,,,,,0,37,37,37,,,,,,,,,,,,,,,,,,,,,,,,,1,2.8532241450011497,,,,,,,,,,,,,,,,,,,,,,,,,030319_p3,001,2019_Mar_04_1544,body_behavioural,3.0.4,60.03766583118145,
6,"Thomas replied, “I want to take a break for awhile.",3,2,None,None,,0,6,6,6,,,,,0,38,38,38,,,,,,,,,,,,,,,,,,,,,,,,,1,5.36998298499384,,,,,,,,,,,,,,,,,,,,,,,,,030319_p3,001,2019_Mar_04_1544,body_behavioural,3.0.4,60.03766583118145,
6,"You know, have space to figure out what I’m supposed to be doing.”",3,2,None,17.0,,0,6,6,6,,,,,0,39,39,39,,,,,,,,,,,,,,,,,,,,,,,,,1,2.953137896998669,,,,,,,,,,,,,,,,,,,,,,,,,030319_p3,001,2019_Mar_04_1544,body_behavioural,3.0.4,60.03766583118145,
6,Sadie quietly burst into tears. ,3,3,None,None,,0,6,6,6,,,,,0,40,40,40,,,,,,,,,,,,,,,,,,,,,,,,,1,1.920324780003284,,,,,,,,,,,,,,,,,,,,,,,,,030319_p3,001,2019_Mar_04_1544,body_behavioural,3.0.4,60.03766583118145,
6,"Nevertheless, people sitting at the adjacent table looked over and quickly averted their gaze as they realized what was happening. ",3,3,None,None,,0,6,6,6,,,,,0,41,41,41,,,,,,,,,,,,,,,,,,,,,,,,,1,8.437514623001334,,,,,,,,,,,,,,,,,,,,,,,,,030319_p3,001,2019_Mar_04_1544,body_behavioural,3.0.4,60.03766583118145,
6,“Is this really what you want?,3,3,None,None,,0,6,6,6,,,,,0,42,42,42,,,,,,,,,,,,,,,,,,,,,,,,,1,1.7362623949957197,,,,,,,,,,,,,,,,,,,,,,,,,030319_p3,001,2019_Mar_04_1544,body_behavioural,3.0.4,60.03766583118145,
6,I don’t understand.,3,3,None,None,,0,6,6,6,,,,,0,43,43,43,,,,,,,,,,,,,,,,,,,,,,,,,1,0.636093000000983,,,,,,,,,,,,,,,,,,,,,,,,,030319_p3,001,2019_Mar_04_1544,body_behavioural,3.0.4,60.03766583118145,
6,I don’t understand.,3,3,None,None,,0,6,6,6,,,,,0,44,44,44,,,,,,,,,,,,,,,,,,,,,,,,,1,0.419705492000503,,,,,,,,,,,,,,,,,,,,,,,,,030319_p3,001,2019_Mar_04_1544,body_behavioural,3.0.4,60.03766583118145,
6,Things were fine. ,3,3,None,None,,0,6,6,6,,,,,0,45,45,45,,,,,,,,,,,,,,,,,,,,,,,,,1,0.5364552379978704,,,,,,,,,,,,,,,,,,,,,,,,,030319_p3,001,2019_Mar_04_1544,body_behavioural,3.0.4,60.03766583118145,
6,"We don’t have to hang out all the time, or as much as we do now.”",3,3,None,None,,0,6,6,6,,,,,0,46,46,46,,,,,,,,,,,,,,,,,,,,,,,,,1,1.9693030519993044,,,,,,,,,,,,,,,,,,,,,,,,,030319_p3,001,2019_Mar_04_1544,body_behavioural,3.0.4,60.03766583118145,
6,Thomas chewed on his bottom lip and picked at his now bleeding hangnail. ,3,3,20.0,None,,0,6,6,6,,,,,0,47,47,47,,,,,,,,,,,,,,,,,,,,,,,,,1,2.8864817319990834,,,,,,,,,,,,,,,,,,,,,,,,,030319_p3,001,2019_Mar_04_1544,body_behavioural,3.0.4,60.03766583118145,
6,"At that moment, the waiter arrived with the burger and reuben and set them on the table.",4,3,None,None,,0,6,6,6,,,,,0,48,48,48,,,,,,,,,,,,,,,,,,,,,,,,,9,4.220360282997717,,,,,,,,,,,,,,,,,,,,,,,,,030319_p3,001,2019_Mar_04_1544,body_behavioural,3.0.4,60.03766583118145,
6,“Is there anything else I can get for you two?,4,3,None,None,,0,6,6,6,,,,,0,49,49,49,,,,,,,,,,,,,,,,,,,,,,,,,1,1.086470776994247,,,,,,,,,,,,,,,,,,,,,,,,,030319_p3,001,2019_Mar_04_1544,body_behavioural,3.0.4,60.03766583118145,
6,"Will you be getting dessert tonight?”, he asked.",4,3,None,None,,0,6,6,6,,,,,0,50,50,50,,,,,,,,,,,,,,,,,,,,,,,,,1,1.0362088779947953,,,,,,,,,,,,,,,,,,,,,,,,,030319_p3,001,2019_Mar_04_1544,body_behavioural,3.0.4,60.03766583118145,
6,"“Oh no, we’re good, thanks,” Thomas said.",4,3,None,None,,0,6,6,6,,,,,0,51,51,51,,,,,,,,,,,,,,,,,,,,,,,,,1,1.119835299999977,,,,,,,,,,,,,,,,,,,,,,,,,030319_p3,001,2019_Mar_04_1544,body_behavioural,3.0.4,60.03766583118145,
6,"Once the waiter had walked away still oblivious to the situation, Thomas sighed and said, “Sadie, I’m sorry.",4,3,None,None,,0,6,6,6,,,,,0,52,52,52,,,,,,,,,,,,,,,,,,,,,,,,,1,2.5674318349992973,,,,,,,,,,,,,,,,,,,,,,,,,030319_p3,001,2019_Mar_04_1544,body_behavioural,3.0.4,60.03766583118145,
6,"You are so great, and I love hanging out with you.",4,3,None,None,,0,6,6,6,,,,,0,53,53,53,,,,,,,,,,,,,,,,,,,,,,,,,1,2.536508113000309,,,,,,,,,,,,,,,,,,,,,,,,,030319_p3,001,2019_Mar_04_1544,body_behavioural,3.0.4,60.03766583118145,
6,But I need some time.,4,3,None,None,,0,6,6,6,,,,,0,54,54,54,,,,,,,,,,,,,,,,,,,,,,,,,1,0.6362109549954766,,,,,,,,,,,,,,,,,,,,,,,,,030319_p3,001,2019_Mar_04_1544,body_behavioural,3.0.4,60.03766583118145,
6,I’m so sorry.”,4,3,None,None,,0,6,6,6,,,,,0,55,55,55,,,,,,,,,,,,,,,,,,,,,,,,,1,0.719744490001176,,,,,,,,,,,,,,,,,,,,,,,,,030319_p3,001,2019_Mar_04_1544,body_behavioural,3.0.4,60.03766583118145,
6,"He grabbed her hand, and she pulled it out of his.",4,3,None,None,,0,6,6,6,,,,,0,56,56,56,,,,,,,,,,,,,,,,,,,,,,,,,1,2.119576741999481,,,,,,,,,,,,,,,,,,,,,,,,,030319_p3,001,2019_Mar_04_1544,body_behavioural,3.0.4,60.03766583118145,
6,"“Sadie,” he said.",4,3,None,17.0,,0,6,6,6,,,,,0,57,57,57,,,,,,,,,,,,,,,,,,,,,,,,,1,0.5840419230007683,,,,,,,,,,,,,,,,,,,,,,,,,030319_p3,001,2019_Mar_04_1544,body_behavioural,3.0.4,60.03766583118145,
6," She stood up, grabbed half of the reuben and shook it at him as she growled, “Don’t follow me, and don’t talk to me anymore!”",4,4,None,None,,0,6,6,6,,,,,0,58,58,58,,,,,,,,,,,,,,,,,,,,,,,,,1,6.586825995000254,,,,,,,,,,,,,,,,,,,,,,,,,030319_p3,001,2019_Mar_04_1544,body_behavioural,3.0.4,60.03766583118145,
6,"Sadie's heels clacked loudly against the black and white linoleum, and the bell above the door jingled cheerfully as the door closed behind her.",4,4,None,None,,0,6,6,6,,,,,0,59,59,59,,,,,,,,,,,,,,,,,,,,,,,,,1,3.6695377900032327,,,,,,,,,,,,,,,,,,,,,,,,,030319_p3,001,2019_Mar_04_1544,body_behavioural,3.0.4,60.03766583118145,
6,Thomas sat there for awhile in shock at how quickly everything transpired. ,4,4,None,None,,0,6,6,6,,,,,0,60,60,60,,,,,,,,,,,,,,,,,,,,,,,,,1,1.4697316779929679,,,,,,,,,,,,,,,,,,,,,,,,,030319_p3,001,2019_Mar_04_1544,body_behavioural,3.0.4,60.03766583118145,
6,"He grabbed his burger and took a bite of it, creating a dry and fishy taste in his mouth.",4,4,None,None,,0,6,6,6,,,,,0,61,61,61,,,,,,,,,,,,,,,,,,,,,,,,,9,2.986528902001737,,,,,,,,,,,,,,,,,,,,,,,,,030319_p3,001,2019_Mar_04_1544,body_behavioural,3.0.4,60.03766583118145,
6,He dropped it back on his plate and wondered if the restaurant was responsible for the foul taste. ,4,4,13.0,5.0,,0,6,6,6,,,,,0,62,62,62,,,,,,,,,,,,,,,,,,,,,,,,,1,4.134165802002826,,,,,,,,,,,,,,,,,,,,,,,,,030319_p3,001,2019_Mar_04_1544,body_behavioural,3.0.4,60.03766583118145,
6,,,,,,,0,6,6,6,,,,,,,,,,,,,,,,,,,,,,,,,,,,,,,,,,,,,,,,,,,,,,,,,,,,,,,,,,,030319_p3,001,2019_Mar_04_1544,body_behavioural,3.0.4,60.03766583118145,
7,,,,,,,0,7,7,7,0,0,0,0,,,,,,,,,,,,,,,,,,,,,,,space,2.369509295000171,space,0.5195905920045334,space,0.9173755750016426,,,,,,,,,,,,,,,,,,,,,,,,,,,030319_p3,001,2019_Mar_04_1544,body_behavioural,3.0.4,60.03766583118145,
7,"Simon and Carina noticed each other as they walked into the grocery store at the same time, their carts nearly colliding as they squeezed into the entrance.",1,1,,,,0,7,7,7,,,,,0,0,0,0,,,,,,,,,,,,,,,,,,,,,,,,,9,8.451314895006362,,,,,,,,,,,,,,,,,,,,,,,,,030319_p3,001,2019_Mar_04_1544,body_behavioural,3.0.4,60.03766583118145,
7,"They were both new to the Boston area, and this was their first time in this store. ",1,1,,,,0,7,7,7,,,,,0,1,1,1,,,,,,,,,,,,,,,,,,,,,,,,,1,2.1031114569996134,,,,,,,,,,,,,,,,,,,,,,,,,030319_p3,001,2019_Mar_04_1544,body_behavioural,3.0.4,60.03766583118145,
7,"It kind of looked like a large warehouse, with high unfurnished ceilings, industrial lights, and large packages of food. ",1,1,,,,0,7,7,7,,,,,0,2,2,2,,,,,,,,,,,,,,,,,,,,,,,,,1,3.8867598620054196,,,,,,,,,,,,,,,,,,,,,,,,,030319_p3,001,2019_Mar_04_1544,body_behavioural,3.0.4,60.03766583118145,
7,"They went off along separate routes, but soon ended up back together in the meat section. ",2,1,,,,0,7,7,7,,,,,0,3,3,3,,,,,,,,,,,,,,,,,,,,,,,,,1,2.550765756997862,,,,,,,,,,,,,,,,,,,,,,,,,030319_p3,001,2019_Mar_04_1544,body_behavioural,3.0.4,60.03766583118145,
7,"They were both preparing for barbecues, so they were looking over the same cuts of meat. ",2,1,,,,0,7,7,7,,,,,0,4,4,4,,,,,,,,,,,,,,,,,,,,,,,,,9,5.503084943004069,,,,,,,,,,,,,,,,,,,,,,,,,030319_p3,001,2019_Mar_04_1544,body_behavioural,3.0.4,60.03766583118145,
7,"Simon really wanted to talk to Carina, and Carina really wanted to say something to Simon, but they felt embarrassed striking up a conversation with a stranger.",2,1,,,,0,7,7,7,,,,,0,5,5,5,,,,,,,,,,,,,,,,,,,,,,,,,1,4.63385011000355,,,,,,,,,,,,,,,,,,,,,,,,,030319_p3,001,2019_Mar_04_1544,body_behavioural,3.0.4,60.03766583118145,
7,"Carina suddenly turned to Simon and, pointing at a Cornish hen, asked, “Isn’t this meat cute?”",2,2,,,,0,7,7,7,,,,,0,6,6,6,,,,,,,,,,,,,,,,,,,,,,,,,1,4.020102249996853,,,,,,,,,,,,,,,,,,,,,,,,,030319_p3,001,2019_Mar_04_1544,body_behavioural,3.0.4,60.03766583118145,
7,"He laughed, and said, “It is very cute.",2,2,,,,0,7,7,7,,,,,0,7,7,7,,,,,,,,,,,,,,,,,,,,,,,,,1,2.0697430549989804,,,,,,,,,,,,,,,,,,,,,,,,,030319_p3,001,2019_Mar_04_1544,body_behavioural,3.0.4,60.03766583118145,
7,"Probably the younger brother of this guy,” and he picked up a regular-sized chicken.",2,2,,,,0,7,7,7,,,,,0,8,8,8,,,,,,,,,,,,,,,,,,,,,,,,,1,3.8532489279969013,,,,,,,,,,,,,,,,,,,,,,,,,030319_p3,001,2019_Mar_04_1544,body_behavioural,3.0.4,60.03766583118145,
7,"“Unlucky family,” she responded. ",2,2,,,,0,7,7,7,,,,,0,9,9,9,,,,,,,,,,,,,,,,,,,,,,,,,1,1.1201407370026573,,,,,,,,,,,,,,,,,,,,,,,,,030319_p3,001,2019_Mar_04_1544,body_behavioural,3.0.4,60.03766583118145,
7,They continued to chat as they picked out their groceries.,2,2,,,,0,7,7,7,,,,,0,10,10,10,,,,,,,,,,,,,,,,,,,,,,,,,1,1.4030258170023444,,,,,,,,,,,,,,,,,,,,,,,,,030319_p3,001,2019_Mar_04_1544,body_behavioural,3.0.4,60.03766583118145,
7,"Simon helped Carina pick out the best ribs and his personal favorite barbeque sauce, and she helped him gather the  peppers, onions, and spices for a vegetable kabob she recommended.",2,2,,,,0,7,7,7,,,,,0,11,11,11,,,,,,,,,,,,,,,,,,,,,,,,,9,10.686915879996377,,,,,,,,,,,,,,,,,,,,,,,,,030319_p3,001,2019_Mar_04_1544,body_behavioural,3.0.4,60.03766583118145,
7,"When they were both finished shopping, they went to the checkout area.",3,2,,,,0,7,7,7,,,,,0,12,12,12,,,,,,,,,,,,,,,,,,,,,,,,,1,1.434170799999265,,,,,,,,,,,,,,,,,,,,,,,,,030319_p3,001,2019_Mar_04_1544,body_behavioural,3.0.4,60.03766583118145,
7,"Simon was disappointed to see that the lines were short, since he had been hoping for an excuse to spend more time with Carina.",3,2,,,,0,7,7,7,,,,,0,13,13,13,,,,,,,,,,,,,,,,,,,,,,,,,9,3.686495419999119,,,,,,,,,,,,,,,,,,,,,,,,,030319_p3,001,2019_Mar_04_1544,body_behavioural,3.0.4,60.03766583118145,
7,"They had real chemistry, and both of them could definitely see a future together despite having just met.",3,2,,,,0,7,7,7,,,,,0,14,14,14,,,,,,,,,,,,,,,,,,,,,,,,,1,3.036438610004552,,,,,,,,,,,,,,,,,,,,,,,,,030319_p3,001,2019_Mar_04_1544,body_behavioural,3.0.4,60.03766583118145,
7,"“So you haven’t been around the city much?”, Simon asked. ",3,2,,,,0,7,7,7,,,,,0,15,15,15,,,,,,,,,,,,,,,,,,,,,,,,,1,2.719513089999964,,,,,,,,,,,,,,,,,,,,,,,,,030319_p3,001,2019_Mar_04_1544,body_behavioural,3.0.4,60.03766583118145,
7,"“No, not really.",3,2,,,,0,7,7,7,,,,,0,16,16,16,,,,,,,,,,,,,,,,,,,,,,,,,1,0.6696249369997531,,,,,,,,,,,,,,,,,,,,,,,,,030319_p3,001,2019_Mar_04_1544,body_behavioural,3.0.4,60.03766583118145,
7,I’ve mainly been working and setting up my apartment.”,3,2,,,,0,7,7,7,,,,,0,17,17,17,,,,,,,,,,,,,,,,,,,,,,,,,1,1.6034515520004788,,,,,,,,,,,,,,,,,,,,,,,,,030319_p3,001,2019_Mar_04_1544,body_behavioural,3.0.4,60.03766583118145,
7,"Simon asked her, “Ok well, if you’d like I could pick you up next weekend, and we could go around Harvard Square and get dinner.",3,3,,,,0,7,7,7,,,,,0,18,18,18,,,,,,,,,,,,,,,,,,,,,,,,,1,5.103308534999087,,,,,,,,,,,,,,,,,,,,,,,,,030319_p3,001,2019_Mar_04_1544,body_behavioural,3.0.4,60.03766583118145,
7,"There are a lot of great places around there, and it’s really nice during the summer.",3,3,,,,0,7,7,7,,,,,0,19,19,19,,,,,,,,,,,,,,,,,,,,,,,,,1,1.7030649070002255,,,,,,,,,,,,,,,,,,,,,,,,,030319_p3,001,2019_Mar_04_1544,body_behavioural,3.0.4,60.03766583118145,
7,The Harvard campus is also beautiful.” ,3,3,,,,0,7,7,7,,,,,0,20,20,20,,,,,,,,,,,,,,,,,,,,,,,,,1,2.2363925219979137,,,,,,,,,,,,,,,,,,,,,,,,,030319_p3,001,2019_Mar_04_1544,body_behavioural,3.0.4,60.03766583118145,
7,"Carina smiled, “I’d love to: that sounds great!”",3,3,,,,0,7,7,7,,,,,0,21,21,21,,,,,,,,,,,,,,,,,,,,,,,,,1,1.952499999999418,,,,,,,,,,,,,,,,,,,,,,,,,030319_p3,001,2019_Mar_04_1544,body_behavioural,3.0.4,60.03766583118145,
7,"She quickly entered her number in his phone, since they only had to wait a couple minutes in line.",3,3,,,,0,7,7,7,,,,,0,22,22,22,,,,,,,,,,,,,,,,,,,,,,,,,1,1.3705939009960275,,,,,,,,,,,,,,,,,,,,,,,,,030319_p3,001,2019_Mar_04_1544,body_behavioural,3.0.4,60.03766583118145,
7,Then it was her turn to check out with the cashier. ,4,3,,,,0,7,7,7,,,,,0,23,23,23,,,,,,,,,,,,,,,,,,,,,,,,,1,4.63608645000204,,,,,,,,,,,,,,,,,,,,,,,,,030319_p3,001,2019_Mar_04_1544,body_behavioural,3.0.4,60.03766583118145,
7,"Simon, wanting to make a gesture of his affection, lifted up the divider on the conveyor belt and said to the cashier, “Actually these are together.",4,3,,,,0,7,7,7,,,,,0,24,24,24,,,,,,,,,,,,,,,,,,,,,,,,,1,10.121212373000162,,,,,,,,,,,,,,,,,,,,,,,,,030319_p3,001,2019_Mar_04_1544,body_behavioural,3.0.4,60.03766583118145,
7,"Carina, I’ve got it.",4,3,,,,0,7,7,7,,,,,0,25,25,25,,,,,,,,,,,,,,,,,,,,,,,,,1,1.4865394700027537,,,,,,,,,,,,,,,,,,,,,,,,,030319_p3,001,2019_Mar_04_1544,body_behavioural,3.0.4,60.03766583118145,
7,This was kind-of a date today.”,4,3,,,,0,7,7,7,,,,,0,26,26,26,,,,,,,,,,,,,,,,,,,,,,,,,1,1.919848235003883,,,,,,,,,,,,,,,,,,,,,,,,,030319_p3,001,2019_Mar_04_1544,body_behavioural,3.0.4,60.03766583118145,
7,Carina blushed and laughed; she thought this was ridiculous but also very sweet. ,4,3,,,,0,7,7,7,,,,,0,27,27,27,,,,,,,,,,,,,,,,,,,,,,,,,1,4.436591724996106,,,,,,,,,,,,,,,,,,,,,,,,,030319_p3,001,2019_Mar_04_1544,body_behavioural,3.0.4,60.03766583118145,
7,"The cashier rolled her eyes when they weren’t looking, and she scanned the rest of his items. ",4,3,,,,0,7,7,7,,,,,0,28,28,28,,,,,,,,,,,,,,,,,,,,,,,,,1,2.536554275000526,,,,,,,,,,,,,,,,,,,,,,,,,030319_p3,001,2019_Mar_04_1544,body_behavioural,3.0.4,60.03766583118145,
7,"The total came to $120, and he paid with his credit card.",4,3,,,,0,7,7,7,,,,,0,29,29,29,,,,,,,,,,,,,,,,,,,,,,,,,9,2.2194160699946224,,,,,,,,,,,,,,,,,,,,,,,,,030319_p3,001,2019_Mar_04_1544,body_behavioural,3.0.4,60.03766583118145,
7,"Carina thanked him, and they took the groceries and walked out.",4,3,,,,0,7,7,7,,,,,0,30,30,30,,,,,,,,,,,,,,,,,,,,,,,,,1,1.5696181550010806,,,,,,,,,,,,,,,,,,,,,,,,,030319_p3,001,2019_Mar_04_1544,body_behavioural,3.0.4,60.03766583118145,
7,"As they were walking towards the exit, Carina reluctantly said goodbye since she was running late for the barbeque she was hosting that afternoon.",4,4,,,,0,7,7,7,,,,,0,31,31,31,,,,,,,,,,,,,,,,,,,,,,,,,1,6.884449724995648,,,,,,,,,,,,,,,,,,,,,,,,,030319_p3,001,2019_Mar_04_1544,body_behavioural,3.0.4,60.03766583118145,
7,"They hugged and parted ways, stealing glances at each other as they both walked back to their cars.",4,4,,,,0,7,7,7,,,,,0,32,32,32,,,,,,,,,,,,,,,,,,,,,,,,,1,2.2692773550006677,,,,,,,,,,,,,,,,,,,,,,,,,030319_p3,001,2019_Mar_04_1544,body_behavioural,3.0.4,60.03766583118145,
7,,,,,,,0,7,7,7,,,,,,,,,,,,,,,,,,,,,,,,,,,,,,,,,,,,,,,,,,,,,,,,,,,,,,,,,,,030319_p3,001,2019_Mar_04_1544,body_behavioural,3.0.4,60.03766583118145,
,,,,,,,,,,,,,,,,,,,,,,,,,,,,,,,,,,,,,,,,,,,,,1250.7910780450038,space,72.25749593300134,,,,,,,,,,,,,,,,,,,,,,030319_p3,001,2019_Mar_04_1544,body_behavioural,3.0.4,60.03766583118145,
,,,,,,The next task in the experiment is to recall each story to the best of your ability.,,,,,,,,,,,,,0,0,0,0,,,,,,,,,,,,,,,,,,,,,,,,,,space,3.434623504996125,,,,,,,,,,,,,,,,,,,,030319_p3,001,2019_Mar_04_1544,body_behavioural,3.0.4,60.03766583118145,
,,,,,,"You will be presented with the story title, names, the images, and a blank text box for each story.",,,,,,,,,,,,,0,1,1,1,,,,,,,,,,,,,,,,,,,,,,,,,,space,12.27032036199671,,,,,,,,,,,,,,,,,,,,030319_p3,001,2019_Mar_04_1544,body_behavioural,3.0.4,60.03766583118145,
,,,,,,Describe the story with as many details as you can remember in the space provided. ,,,,,,,,,,,,,0,2,2,2,,,,,,,,,,,,,,,,,,,,,,,,,,space,2.569459045000258,,,,,,,,,,,,,,,,,,,,030319_p3,001,2019_Mar_04_1544,body_behavioural,3.0.4,60.03766583118145,
,,,,,,"When you are finished recalling one story, to move onto the next one hit ‘return’. ",,,,,,,,,,,,,0,3,3,3,,,,,,,,,,,,,,,,,,,,,,,,,,space,4.9366744049984845,,,,,,,,,,,,,,,,,,,,030319_p3,001,2019_Mar_04_1544,body_behavioural,3.0.4,60.03766583118145,
,,,,,,There is a 5 minute time limit to make your response. ,,,,,,,,,,,,,0,4,4,4,,,,,,,,,,,,,,,,,,,,,,,,,,space,1.586518491996685,,,,,,,,,,,,,,,,,,,,030319_p3,001,2019_Mar_04_1544,body_behavioural,3.0.4,60.03766583118145,
0,,,,,,,,,,,,,,,,,,,,,,,0,0,0,0,,,,,,,,,,,,,,,,,,,,,,,,space,0.8030397320035263,"Anna was rushing to the airport. she was running late because she spent too much time talking to friends earlier. david noticed anna running into the airport. as anna knelt down to tie her shoe, a luggae cart sped towards here. david noticed and got there in time to save anna from the luggage cart. they began talking and found out that they went to the same high school. anna was three years older. they both thought they had a connection so david asked when anna would be coming back. anna replied soon, and gave him a business card. david said she would call her for sure. david took annas backpack and hand and ran to annas gate. despite getting to the airport late, anna made it to her gate and flight in time, all thanks to david.",,,,,,,,,,,,,,,,,030319_p3,001,2019_Mar_04_1544,body_behavioural,3.0.4,60.03766583118145,
1,,,,,,,,,,,,,,,,,,,,,,,0,1,1,1,,,,,,,,,,,,,,,,,,,,,,,,space,4.653488939999079,"Alex and chloe walked into a grocery store on thanksgiving. alex was super nervous because he was planning on proposing to chloe that day. he believed that she wouldn't have expected him to do it there. the ring was three diamonds, one larger one with two smaller on either side. as they were walking through the aisles, alex pulled out the box and nearly got caught by chloe. they continued to shop and get all their groceries. they went to the checkout line, and their friends were all outside the store waiting. when it was time, alex signaled for all of their friends to come into the store as he got down on one knee. alex proposed to chloe and she said yes. all of their friends and the customers in the store celebrated for them. they got to go to the front of the checkout line. they paid and then left the store.",,,,,,,,,,,,,,,,,030319_p3,001,2019_Mar_04_1544,body_behavioural,3.0.4,60.03766583118145,
2,,,,,,,,,,,,,,,,,,,,,,,0,2,2,2,,,,,,,,,,,,,,,,,,,,,,,,space,1.1862519450005493,,,,,,,,,,,,,,,,,,030319_p3,001,2019_Mar_04_1544,body_behavioural,3.0.4,60.03766583118145,
3,,,,,,,,,,,,,,,,,,,,,,,0,3,3,3,,,,,,,,,,,,,,,,,,,,,,,,space,4.353383955000027,"Mr. shelton and mr. gordon met one day at  a restaurant to dicuss a business deal. they were both ceos for airplane manufacturing companies. shelton owned a larger more well known company while gordan own a smaller on the rise company with new technology. after ordering food, they began to discuss the deal. shelton propsed to merge their companies. he believed it would greatly benefit both companies. gordan was hesistant at first because he was unsure about running his smaller company like a larger company. he believed their management systems were very different. shelton assured gordan that it wouldnt be a problem. shelton explained that he had doen similar projects before and they were great successes. this was enough to persuade gordan and he agreed to merging the companies. the two men finally made the deal and rose their glasses to their new partnership ",,,,,,,,,,,,,,,,,030319_p3,001,2019_Mar_04_1544,body_behavioural,3.0.4,60.03766583118145,
4,,,,,,,,,,,,,,,,,,,,,,,0,4,4,4,,,,,,,,,,,,,,,,,,,,,,,,space,3.3678654870018363,"Charlie and alma both were in lecture together. it was a lecture about american history. charlie and alma began whispering about their business proposal. charlie proposed for his side to only invest 15,000 initially instead of the discussed 30,000. he wanted to see how things went before investing all 30,000. alma insisted that charlie invest all 30,000 in the beginning. they continued to whisper all throughout class. they were not listening to their professor. in the end, they finally decided on following through with the initial 30,000. it was not what charlie wanted but it was necessesary to make a deal with alma. at the end of class, eveyrone packed up and left. charlie and alma were the last to leave asn they agreed to sign paperwork the next day. ",,,,,,,,,,,,,,,,,030319_p3,001,2019_Mar_04_1544,body_behavioural,3.0.4,60.03766583118145,
5,,,,,,,,,,,,,,,,,,,,,,,0,5,5,5,,,,,,,,,,,,,,,,,,,,,,,,space,0.6863665799974115,"Maria and henry sat down for lecture one day. maria was being very quite. she was planning on breaking up with henry. it was the last chance she had before leaving. maria finalli brought up breaking up with henry, explaining that she thought that the long distance would be too difficult. henry was surprised to hear this and began to cry. henry argued that they didnt need to break up, that they would just visit each other often, that they could work it out. maria insisted it was what was best for them and their future. then they had to turn back to the lesson. they took notes half-heartedly and sat in silence. at the end of class, they rushed out of the lecture hall. they hugged outside. both maria and henry were crying. ",,,,,,,,,,,,,,,,,030319_p3,001,2019_Mar_04_1544,body_behavioural,3.0.4,60.03766583118145,
6,,,,,,,,,,,,,,,,,,,,,,,0,6,6,6,,,,,,,,,,,,,,,,,,,,,,,,space,28.96926698500465,"Thomas and sadie met at a restaurant for dinner. sadie told thomas she had missed him. thomas was being unusually quite. thomas asked the hostess at the restaurant for a table in the back. as they sat down, sadie asked thomas how he was. he began to say how he has been trying to figure some things out. sadie sensed that something was wrong. the waitress came back and asked if they were ready to order. they hadnt even looked at the menu yet, which has lots of strange options. they were opted for something familiar. thomas order a burger with no tomato. after the food arrived, they were still talking. thomas finally told sadie that he wanted to break up. sadie was very upset. she stood up and threw her food at him. others in the restaurant sensed what was happening. the waitress did not. sadie stormed out of the restaurant. thomas took a bite of his burger, it was not good. he wondered if the restaurant was to blame. ",,,,,,,,,,,,,,,,,030319_p3,001,2019_Mar_04_1544,body_behavioural,3.0.4,60.03766583118145,
7,,,,,,,,,,,,,,,,,,,,,,,0,7,7,7,,,,,,,,,,,,,,,,,,,,,,,,space,12.270226294989698,,,,,,,,,,,,,,,,,,030319_p3,001,2019_Mar_04_1544,body_behavioural,3.0.4,60.03766583118145,
,,,,,,,,,,,,,,,,,,,,,,,,,,,,,,,,,,,,,,,,,,,,,,,,,,,,,3710.0674137300084,space,2.8031175000069197,,,,,,,,,,,,,,030319_p3,001,2019_Mar_04_1544,body_behavioural,3.0.4,60.03766583118145,
,,,,,,The next part of the task is to answer 8 questions about each story.,,,,,,,,,,,,,,,,,,,,,0,0,0,0,,,,,,,,,,,,,,,,,,,,,,,,,,space,2.5368377400009194,,,,,,,,,,,,030319_p3,001,2019_Mar_04_1544,body_behavioural,3.0.4,60.03766583118145,
,,,,,,Some of the questions are not related to the perspective you were asked to assume.,,,,,,,,,,,,,,,,,,,,,0,1,1,1,,,,,,,,,,,,,,,,,,,,,,,,,,space,3.3030091450054897,,,,,,,,,,,,030319_p3,001,2019_Mar_04_1544,body_behavioural,3.0.4,60.03766583118145,
,,,,,,"We realize that we did not tell you to think of these questions during the story, but do your best to answer them.",,,,,,,,,,,,,,,,,,,,,0,2,2,2,,,,,,,,,,,,,,,,,,,,,,,,,,space,6.870268225000473,,,,,,,,,,,,030319_p3,001,2019_Mar_04_1544,body_behavioural,3.0.4,60.03766583118145,
,,,,,,"When you have finished typing your answer, hit ‘return’ to submit your answer and move onto the next question. ",,,,,,,,,,,,,,,,,,,,,0,3,3,3,,,,,,,,,,,,,,,,,,,,,,,,,,space,5.569603655007086,,,,,,,,,,,,030319_p3,001,2019_Mar_04_1544,body_behavioural,3.0.4,60.03766583118145,
0,,,,,,,,,,,,,,,,,,,,,,,,,,,,,,,0,0,0,0,,,,,,,,,,,,,,,,,,Anna leaves first because her plane is about to leave,,,,,,space,0.6695899000042118,"They have to go through a decent amount of time, seeing that anna was in much of a hurry as she ran though the airport with a half-zipped backpack. ",non-primed first,They have to take off their belts and shoes. ,"They are feeling rushed. david grabbed anna, who was running late, and showed her the quickest way to her gate. ",Anna sits in the back of the plane,"David notices anna first, because she is running through the airport in a hurry",They start talking after david saves anna from being run over by a luggage cart ,David proposes an actual date. he aska when anna will be back. david proposes to grab food and drinks with anna ,Anna leaves first because her plane is about to leave,030319_p3,001,2019_Mar_04_1544,body_behavioural,3.0.4,60.03766583118145,
1,,,,,,,,,,,,,,,,,,,,,,,,,,,,,,,0,1,1,1,,,,,,,,,,,,,,,,,,"The groceries are $50, they pay with cash ",,,,,,space,1.119397354996181,Alex is feeling very nervous. he is sweaty and anxious ,primed first,The ring has three diamonds. one larger and two smaller on either side ,No one else helps with the proposal,All the customers in the shop and chloes friends that alex invited to the store witness it,The grocery store is crowded and festive. people are buying groceries for thanksgiving dinner,Alex and chloe buy some cranberry sauce,"The checkout lines are somewhat long, alex and chloe do not have to wait too long because people let them go to the front after the proposal","The groceries are $50, they pay with cash ",030319_p3,001,2019_Mar_04_1544,body_behavioural,3.0.4,60.03766583118145,
2,,,,,,,,,,,,,,,,,,,,,,,,,,,,,,,0,2,2,2,,,,,,,,,,,,,,,,,,Sven and isabel sit in first class on the plane ,,,,,,space,0.7695364250103012,"Sven is excited to propose, but also nervous ",non-primed first,The ring is inside a black velvet box. it has a shiny diamond ,No one really helps with the proposal. the security officer initiates sven to propose,All the travelers at the security gates. some of which were also on sven and isabels flight ,Sven and isabel have plenty of time to go through. they are not in a hurry,They have to go to the micro scanner and comply with anything the security officer asks them to do ,"They are super happy, as they are freshly engaged ",Sven and isabel sit in first class on the plane ,030319_p3,001,2019_Mar_04_1544,body_behavioural,3.0.4,60.03766583118145,
,,,,,,,,,,,,,,,,,,,,,,,,,,,,,,,,,,,,,,,,,,,,,,,,,,,,,,,,,,space,0.8034839650063077,,,,,,,,,,,,,,,,
