count,storyText,locationEvent,socialEvent,locationEventSize,socialEventSize,instructText,trials.thisRepN,trials.thisTrialN,trials.thisN,trials.thisIndex,trials_7.thisRepN,trials_7.thisTrialN,trials_7.thisN,trials_7.thisIndex,trials_2.thisRepN,trials_2.thisTrialN,trials_2.thisN,trials_2.thisIndex,trials_3.thisRepN,trials_3.thisTrialN,trials_3.thisN,trials_3.thisIndex,trials_4.thisRepN,trials_4.thisTrialN,trials_4.thisN,trials_4.thisIndex,trials_5.thisRepN,trials_5.thisTrialN,trials_5.thisN,trials_5.thisIndex,trials_6.thisRepN,trials_6.thisTrialN,trials_6.thisN,trials_6.thisIndex,trials_8.thisRepN,trials_8.thisTrialN,trials_8.thisN,trials_8.thisIndex,order of stories,order of perspectives,key_resp_8.keys,key_resp_8.rt,key_resp_5.keys,key_resp_5.rt,key_resp_7.keys,key_resp_7.rt,story_presses.keys,story_presses.rt,story time,key_resp_6.keys,key_resp_6.rt,key_resp_2.keys,key_resp_2.rt,key_resp_10.keys,key_resp_10.rt,recall,recall time,key_resp_12.keys,key_resp_12.rt,key_resp_3.keys,key_resp_3.rt,key_resp_11.keys,key_resp_11.rt,question1_answer,order of question,question2_answer,question3_answer,question4_answer,question5_answer,question6_answer,question7_answer,question8_answer,questions time,key_resp_13.keys,key_resp_13.rt,participant,session,date,expName,psychopyVersion,frameRate,
0,,,,,,,0,0,0,0,0,0,0,0,,,,,,,,,,,,,,,,,,,,,,,,,[24 43 11 32 34 13 22 41],"['Social' 'Social' 'Social' 'Social' 'Location' 'Location' 'Location'
 'Location']",space,6.618275134998839,space,1.4034297280013561,space,2.5195569780044025,,,,,,,,,,,,,,,,,,,,,,,,,,,,,,030519_p3,001,2019_Mar_05_1619,body_behavioural,3.0.4,60.05180681032672,
0,"Lana walked into lecture holding hands with her boyfriend, Aaron, who was trying to contain his excitement and anticipation for proposing to Lana in this class. ",1,1,,,,0,0,0,0,,,,,0,0,0,0,,,,,,,,,,,,,,,,,,,,,,,,,,,,,9,12.387683306995314,,,,,,,,,,,,,,,,,,,,,,,,,,,,030519_p3,001,2019_Mar_05_1619,body_behavioural,3.0.4,60.05180681032672,
0,"Lana was lost in thought, still puzzling over a calculus problem on her problem set due that night.",1,1,,,,0,0,0,0,,,,,0,1,1,1,,,,,,,,,,,,,,,,,,,,,,,,,,,,,1,16.203589598007966,,,,,,,,,,,,,,,,,,,,,,,,,,,,030519_p3,001,2019_Mar_05_1619,body_behavioural,3.0.4,60.05180681032672,
0,"The lecture hall was the fanciest one at Princeton, with chandeliers, high ceilings, wood floors and double-decker chalkboards.",1,1,,,,0,0,0,0,,,,,0,2,2,2,,,,,,,,,,,,,,,,,,,,,,,,,,,,,1,3.1530125649878755,,,,,,,,,,,,,,,,,,,,,,,,,,,,030519_p3,001,2019_Mar_05_1619,body_behavioural,3.0.4,60.05180681032672,
0,"This is where Aaron and Lana had met two years ago during an economics class, and now they were back together in the same lecture hall for their Chemistry class. ",1,1,,,,0,0,0,0,,,,,0,3,3,3,,,,,,,,,,,,,,,,,,,,,,,,,,,,,1,12.501436856997316,,,,,,,,,,,,,,,,,,,,,,,,,,,,030519_p3,001,2019_Mar_05_1619,body_behavioural,3.0.4,60.05180681032672,
0,The professor caught Aaron's eye as he walked up to the front of the classroom and gave him a wink before the lecture began. ,1,1,,,,0,0,0,0,,,,,0,4,4,4,,,,,,,,,,,,,,,,,,,,,,,,,,,,,1,14.521056027995655,,,,,,,,,,,,,,,,,,,,,,,,,,,,030519_p3,001,2019_Mar_05_1619,body_behavioural,3.0.4,60.05180681032672,
0,Aaron responded with a huge grin. ,1,1,,,,0,0,0,0,,,,,0,5,5,5,,,,,,,,,,,,,,,,,,,,,,,,,,,,,1,2.78711651499907,,,,,,,,,,,,,,,,,,,,,,,,,,,,030519_p3,001,2019_Mar_05_1619,body_behavioural,3.0.4,60.05180681032672,
0,"The professor cleared his throat and said,“Alright, good afternoon, everyone!",2,1,,,,0,0,0,0,,,,,0,6,6,6,,,,,,,,,,,,,,,,,,,,,,,,,,,,,1,1.7846350649924716,,,,,,,,,,,,,,,,,,,,,,,,,,,,030519_p3,001,2019_Mar_05_1619,body_behavioural,3.0.4,60.05180681032672,
0,"Last week we talked about the structure of the periodic table, and this week the topic is ions.",2,1,,,,0,0,0,0,,,,,0,7,7,7,,,,,,,,,,,,,,,,,,,,,,,,,,,,,1,2.5367155199928675,,,,,,,,,,,,,,,,,,,,,,,,,,,,030519_p3,001,2019_Mar_05_1619,body_behavioural,3.0.4,60.05180681032672,
0,These are atoms or molecules in which the number of electrons does not equal the number of protons.,2,1,,,,0,0,0,0,,,,,0,8,8,8,,,,,,,,,,,,,,,,,,,,,,,,,,,,,1,1.452862175006885,,,,,,,,,,,,,,,,,,,,,,,,,,,,030519_p3,001,2019_Mar_05_1619,body_behavioural,3.0.4,60.05180681032672,
0,"Now, let me get my computer set up, one moment, class.”",2,1,,,,0,0,0,0,,,,,0,9,9,9,,,,,,,,,,,,,,,,,,,,,,,,,,,,,1,2.686050989999785,,,,,,,,,,,,,,,,,,,,,,,,,,,,030519_p3,001,2019_Mar_05_1619,body_behavioural,3.0.4,60.05180681032672,
0,Lana pulled out her Calculus problem set and puzzled over it.,2,1,,,,0,0,0,0,,,,,0,10,10,10,,,,,,,,,,,,,,,,,,,,,,,,,,,,,1,1.5530861449951772,,,,,,,,,,,,,,,,,,,,,,,,,,,,030519_p3,001,2019_Mar_05_1619,body_behavioural,3.0.4,60.05180681032672,
0,"While she was distracted, Aaron unzipped the small pocket in his backpack and pulled out the ring box.",2,2,,,,0,0,0,0,,,,,0,11,11,11,,,,,,,,,,,,,,,,,,,,,,,,,,,,,1,19.03523860500718,,,,,,,,,,,,,,,,,,,,,,,,,,,,030519_p3,001,2019_Mar_05_1619,body_behavioural,3.0.4,60.05180681032672,
0,He opened it up and looked at the ring.,2,2,,,,0,0,0,0,,,,,0,12,12,12,,,,,,,,,,,,,,,,,,,,,,,,,,,,,9,4.503288683001301,,,,,,,,,,,,,,,,,,,,,,,,,,,,030519_p3,001,2019_Mar_05_1619,body_behavioural,3.0.4,60.05180681032672,
0,"Instead of one large diamond, there were 5 diamonds embedded in a thick band. ",2,2,,,,0,0,0,0,,,,,0,13,13,13,,,,,,,,,,,,,,,,,,,,,,,,,,,,,1,3.469928809994599,,,,,,,,,,,,,,,,,,,,,,,,,,,,030519_p3,001,2019_Mar_05_1619,body_behavioural,3.0.4,60.05180681032672,
0,He knew Lana would like this because her style was not flashy but more about simple elegance.,2,2,,,,0,0,0,0,,,,,0,14,14,14,,,,,,,,,,,,,,,,,,,,,,,,,,,,,1,2.1008108500100207,,,,,,,,,,,,,,,,,,,,,,,,,,,,030519_p3,001,2019_Mar_05_1619,body_behavioural,3.0.4,60.05180681032672,
0,Aaron put the ring back into the bag as the professor began the lecture. ,3,2,,,,0,0,0,0,,,,,0,15,15,15,,,,,,,,,,,,,,,,,,,,,,,,,,,,,9,5.519524310002453,,,,,,,,,,,,,,,,,,,,,,,,,,,,030519_p3,001,2019_Mar_05_1619,body_behavioural,3.0.4,60.05180681032672,
0,“Recall from previous lectures that the number of protons determines the identity of the element. ,3,2,,,,0,0,0,0,,,,,0,16,16,16,,,,,,,,,,,,,,,,,,,,,,,,,,,,,1,4.936975133008673,,,,,,,,,,,,,,,,,,,,,,,,,,,,030519_p3,001,2019_Mar_05_1619,body_behavioural,3.0.4,60.05180681032672,
0,"So for example, all atoms of sodium have 11 protons in the nucleus. ",3,2,,,,0,0,0,0,,,,,0,17,17,17,,,,,,,,,,,,,,,,,,,,,,,,,,,,,1,1.085967584993341,,,,,,,,,,,,,,,,,,,,,,,,,,,,030519_p3,001,2019_Mar_05_1619,body_behavioural,3.0.4,60.05180681032672,
0,"And if you look on the periodic table, the atomic number for sodium, the symbol is Na, is eleven.”",3,2,,,,0,0,0,0,,,,,0,18,18,18,,,,,,,,,,,,,,,,,,,,,,,,,,,,,1,1.3174077399889939,,,,,,,,,,,,,,,,,,,,,,,,,,,,030519_p3,001,2019_Mar_05_1619,body_behavioural,3.0.4,60.05180681032672,
0,Lana was taking notes while Aaron was texting all of his friends in the class to get ready for the proposal. ,3,2,,,,0,0,0,0,,,,,0,19,19,19,,,,,,,,,,,,,,,,,,,,,,,,,,,,,9,2.9526092919986695,,,,,,,,,,,,,,,,,,,,,,,,,,,,030519_p3,001,2019_Mar_05_1619,body_behavioural,3.0.4,60.05180681032672,
0,"Right after talking about how two ions bond into one stable molecule by covalent bonds, the professor stopped the lecture and asked Lana to come to the front of the class to do a demonstration. ",3,2,,,,0,0,0,0,,,,,0,20,20,20,,,,,,,,,,,,,,,,,,,,,,,,,,,,,9,5.236946645003627,,,,,,,,,,,,,,,,,,,,,,,,,,,,030519_p3,001,2019_Mar_05_1619,body_behavioural,3.0.4,60.05180681032672,
0,"She walked to the front of the class confused, and the professor asked her to stand in the middle of the stage.",3,2,,,,0,0,0,0,,,,,0,21,21,21,,,,,,,,,,,,,,,,,,,,,,,,,,,,,1,3.03639542000019,,,,,,,,,,,,,,,,,,,,,,,,,,,,030519_p3,001,2019_Mar_05_1619,body_behavioural,3.0.4,60.05180681032672,
0,"Then Aaron walked up and, taking Lana’s hand, got down on one knee. ",3,3,,,,0,0,0,0,,,,,0,22,22,22,,,,,,,,,,,,,,,,,,,,,,,,,,,,,9,9.236780507999356,,,,,,,,,,,,,,,,,,,,,,,,,,,,030519_p3,001,2019_Mar_05_1619,body_behavioural,3.0.4,60.05180681032672,
0,"“It's time for us to make a bond of our own, Lana.",3,3,,,,0,0,0,0,,,,,0,23,23,23,,,,,,,,,,,,,,,,,,,,,,,,,,,,,1,2.6527379879989894,,,,,,,,,,,,,,,,,,,,,,,,,,,,030519_p3,001,2019_Mar_05_1619,body_behavioural,3.0.4,60.05180681032672,
0,Will you marry me?” ,3,3,,,,0,0,0,0,,,,,0,24,24,24,,,,,,,,,,,,,,,,,,,,,,,,,,,,,1,0.9030444800009718,,,,,,,,,,,,,,,,,,,,,,,,,,,,030519_p3,001,2019_Mar_05_1619,body_behavioural,3.0.4,60.05180681032672,
0,Lana gasped and put her other hand to her mouth and started looking around the room as if trying to convince herself that this was really happening.,3,3,,,,0,0,0,0,,,,,0,25,25,25,,,,,,,,,,,,,,,,,,,,,,,,,,,,,1,2.0523504890006734,,,,,,,,,,,,,,,,,,,,,,,,,,,,030519_p3,001,2019_Mar_05_1619,body_behavioural,3.0.4,60.05180681032672,
0,For a few moments everyone was in suspense waiting for the Lana’s shock to wear off and for her to answer. ,3,3,,,,0,0,0,0,,,,,0,26,26,26,,,,,,,,,,,,,,,,,,,,,,,,,,,,,1,1.8682668300025398,,,,,,,,,,,,,,,,,,,,,,,,,,,,030519_p3,001,2019_Mar_05_1619,body_behavioural,3.0.4,60.05180681032672,
0,"Finally, she said, “Yes!”",3,4,,,,0,0,0,0,,,,,0,27,27,27,,,,,,,,,,,,,,,,,,,,,,,,,,,,,1,0.900552222999977,,,,,,,,,,,,,,,,,,,,,,,,,,,,030519_p3,001,2019_Mar_05_1619,body_behavioural,3.0.4,60.05180681032672,
0,"Aaron put the ring on her finger, and they hugged while the whole class clapped. ",3,4,,,,0,0,0,0,,,,,0,28,28,28,,,,,,,,,,,,,,,,,,,,,,,,,,,,,1,2.219792903008056,,,,,,,,,,,,,,,,,,,,,,,,,,,,030519_p3,001,2019_Mar_05_1619,body_behavioural,3.0.4,60.05180681032672,
0,"Their friends came up and hugged both of them, and the professor gave Aaron a celebratory handshake.",3,4,,,,0,0,0,0,,,,,0,29,29,29,,,,,,,,,,,,,,,,,,,,,,,,,,,,,1,2.801779853994958,,,,,,,,,,,,,,,,,,,,,,,,,,,,030519_p3,001,2019_Mar_05_1619,body_behavioural,3.0.4,60.05180681032672,
0,"They made their way back to their seats, Lana and Aaron hand-in-hand and beaming. ",3,4,,,,0,0,0,0,,,,,0,30,30,30,,,,,,,,,,,,,,,,,,,,,,,,,,,,,1,2.8706864779960597,,,,,,,,,,,,,,,,,,,,,,,,,,,,030519_p3,001,2019_Mar_05_1619,body_behavioural,3.0.4,60.05180681032672,
0,"The professor then dismissed the class, saying, “That was enough excitement for today!",4,4,,,,0,0,0,0,,,,,0,31,31,31,,,,,,,,,,,,,,,,,,,,,,,,,,,,,1,2.070185547010624,,,,,,,,,,,,,,,,,,,,,,,,,,,,030519_p3,001,2019_Mar_05_1619,body_behavioural,3.0.4,60.05180681032672,
0,Don’t forget there’s an exam next week on the first two chapters of the textbook.”,4,4,,,,0,0,0,0,,,,,0,32,32,32,,,,,,,,,,,,,,,,,,,,,,,,,,,,,1,2.150659432998509,,,,,,,,,,,,,,,,,,,,,,,,,,,,030519_p3,001,2019_Mar_05_1619,body_behavioural,3.0.4,60.05180681032672,
0,"As everyone was packing up their notebooks and leaving, Lana was already on her phone calling her family members to tell them the exciting news.",4,4,,,,0,0,0,0,,,,,0,33,33,33,,,,,,,,,,,,,,,,,,,,,,,,,,,,,1,3.2032845979993,,,,,,,,,,,,,,,,,,,,,,,,,,,,030519_p3,001,2019_Mar_05_1619,body_behavioural,3.0.4,60.05180681032672,
0,,,,,,,0,0,0,0,,,,,,,,,,,,,,,,,,,,,,,,,,,,,,,,,,,,,,,,,,,,,,,,,,,,,,,,,,,,,,,,,,030519_p3,001,2019_Mar_05_1619,body_behavioural,3.0.4,60.05180681032672,
1,,,,,,,0,1,1,1,0,0,0,0,,,,,,,,,,,,,,,,,,,,,,,,,,,space,3.7367333400034113,space,0.7694543599936878,space,0.7695070300105726,,,,,,,,,,,,,,,,,,,,,,,,,,,,,,030519_p3,001,2019_Mar_05_1619,body_behavioural,3.0.4,60.05180681032672,
1,"Simon and Carina noticed each other as they walked into the grocery store at the same time, their carts nearly colliding as they squeezed into the entrance.",1,1,,,,0,1,1,1,,,,,0,0,0,0,,,,,,,,,,,,,,,,,,,,,,,,,,,,,1,13.403537420002976,,,,,,,,,,,,,,,,,,,,,,,,,,,,030519_p3,001,2019_Mar_05_1619,body_behavioural,3.0.4,60.05180681032672,
1,"They were both new to the Boston area, and this was their first time in this store. ",1,1,,,,0,1,1,1,,,,,0,1,1,1,,,,,,,,,,,,,,,,,,,,,,,,,,,,,1,1.702978258006624,,,,,,,,,,,,,,,,,,,,,,,,,,,,030519_p3,001,2019_Mar_05_1619,body_behavioural,3.0.4,60.05180681032672,
1,"It kind of looked like a large warehouse, with high unfurnished ceilings, industrial lights, and large packages of food. ",1,1,,,,0,1,1,1,,,,,0,2,2,2,,,,,,,,,,,,,,,,,,,,,,,,,,,,,1,2.003070890001254,,,,,,,,,,,,,,,,,,,,,,,,,,,,030519_p3,001,2019_Mar_05_1619,body_behavioural,3.0.4,60.05180681032672,
1,"They went off along separate routes, but soon ended up back together in the meat section. ",2,1,,,,0,1,1,1,,,,,0,3,3,3,,,,,,,,,,,,,,,,,,,,,,,,,,,,,1,3.469406845004414,,,,,,,,,,,,,,,,,,,,,,,,,,,,030519_p3,001,2019_Mar_05_1619,body_behavioural,3.0.4,60.05180681032672,
1,"They were both preparing for barbecues, so they were looking over the same cuts of meat. ",2,1,,,,0,1,1,1,,,,,0,4,4,4,,,,,,,,,,,,,,,,,,,,,,,,,,,,,1,2.203292224992765,,,,,,,,,,,,,,,,,,,,,,,,,,,,030519_p3,001,2019_Mar_05_1619,body_behavioural,3.0.4,60.05180681032672,
1,"Simon really wanted to talk to Carina, and Carina really wanted to say something to Simon, but they felt embarrassed striking up a conversation with a stranger.",2,1,,,,0,1,1,1,,,,,0,5,5,5,,,,,,,,,,,,,,,,,,,,,,,,,,,,,1,4.820406742001069,,,,,,,,,,,,,,,,,,,,,,,,,,,,030519_p3,001,2019_Mar_05_1619,body_behavioural,3.0.4,60.05180681032672,
1,"Carina suddenly turned to Simon and, pointing at a Cornish hen, asked, “Isn’t this meat cute?”",2,2,,,,0,1,1,1,,,,,0,6,6,6,,,,,,,,,,,,,,,,,,,,,,,,,,,,,1,5.353131398005644,,,,,,,,,,,,,,,,,,,,,,,,,,,,030519_p3,001,2019_Mar_05_1619,body_behavioural,3.0.4,60.05180681032672,
1,"He laughed, and said, “It is very cute.",2,2,,,,0,1,1,1,,,,,0,7,7,7,,,,,,,,,,,,,,,,,,,,,,,,,,,,,1,1.1705797650065506,,,,,,,,,,,,,,,,,,,,,,,,,,,,030519_p3,001,2019_Mar_05_1619,body_behavioural,3.0.4,60.05180681032672,
1,"Probably the younger brother of this guy,” and he picked up a regular-sized chicken.",2,2,,,,0,1,1,1,,,,,0,8,8,8,,,,,,,,,,,,,,,,,,,,,,,,,,,,,1,2.9197843729925808,,,,,,,,,,,,,,,,,,,,,,,,,,,,030519_p3,001,2019_Mar_05_1619,body_behavioural,3.0.4,60.05180681032672,
1,"“Unlucky family,” she responded. ",2,2,,,,0,1,1,1,,,,,0,9,9,9,,,,,,,,,,,,,,,,,,,,,,,,,,,,,1,1.3028033430018695,,,,,,,,,,,,,,,,,,,,,,,,,,,,030519_p3,001,2019_Mar_05_1619,body_behavioural,3.0.4,60.05180681032672,
1,They continued to chat as they picked out their groceries.,2,2,,,,0,1,1,1,,,,,0,10,10,10,,,,,,,,,,,,,,,,,,,,,,,,,,,,,1,1.7523379510093946,,,,,,,,,,,,,,,,,,,,,,,,,,,,030519_p3,001,2019_Mar_05_1619,body_behavioural,3.0.4,60.05180681032672,
1,"Simon helped Carina pick out the best ribs and his personal favorite barbeque sauce, and she helped him gather the  peppers, onions, and spices for a vegetable kabob she recommended.",2,2,,,,0,1,1,1,,,,,0,11,11,11,,,,,,,,,,,,,,,,,,,,,,,,,,,,,1,2.703027284995187,,,,,,,,,,,,,,,,,,,,,,,,,,,,030519_p3,001,2019_Mar_05_1619,body_behavioural,3.0.4,60.05180681032672,
1,"When they were both finished shopping, they went to the checkout area.",3,2,,,,0,1,1,1,,,,,0,12,12,12,,,,,,,,,,,,,,,,,,,,,,,,,,,,,1,1.8864713050134014,,,,,,,,,,,,,,,,,,,,,,,,,,,,030519_p3,001,2019_Mar_05_1619,body_behavioural,3.0.4,60.05180681032672,
1,"Simon was disappointed to see that the lines were short, since he had been hoping for an excuse to spend more time with Carina.",3,2,,,,0,1,1,1,,,,,0,13,13,13,,,,,,,,,,,,,,,,,,,,,,,,,,,,,1,4.585020347993122,,,,,,,,,,,,,,,,,,,,,,,,,,,,030519_p3,001,2019_Mar_05_1619,body_behavioural,3.0.4,60.05180681032672,
1,"They had real chemistry, and both of them could definitely see a future together despite having just met.",3,2,,,,0,1,1,1,,,,,0,14,14,14,,,,,,,,,,,,,,,,,,,,,,,,,,,,,1,2.1204047670034925,,,,,,,,,,,,,,,,,,,,,,,,,,,,030519_p3,001,2019_Mar_05_1619,body_behavioural,3.0.4,60.05180681032672,
1,"“So you haven’t been around the city much?”, Simon asked. ",3,2,,,,0,1,1,1,,,,,0,15,15,15,,,,,,,,,,,,,,,,,,,,,,,,,,,,,1,5.600980028000777,,,,,,,,,,,,,,,,,,,,,,,,,,,,030519_p3,001,2019_Mar_05_1619,body_behavioural,3.0.4,60.05180681032672,
1,"“No, not really.",3,2,,,,0,1,1,1,,,,,0,16,16,16,,,,,,,,,,,,,,,,,,,,,,,,,,,,,1,2.919828215002781,,,,,,,,,,,,,,,,,,,,,,,,,,,,030519_p3,001,2019_Mar_05_1619,body_behavioural,3.0.4,60.05180681032672,
1,I’ve mainly been working and setting up my apartment.”,3,2,,,,0,1,1,1,,,,,0,17,17,17,,,,,,,,,,,,,,,,,,,,,,,,,,,,,1,2.603344222996384,,,,,,,,,,,,,,,,,,,,,,,,,,,,030519_p3,001,2019_Mar_05_1619,body_behavioural,3.0.4,60.05180681032672,
1,"Simon asked her, “Ok well, if you’d like I could pick you up next weekend, and we could go around Harvard Square and get dinner.",3,3,,,,0,1,1,1,,,,,0,18,18,18,,,,,,,,,,,,,,,,,,,,,,,,,,,,,1,6.351488429994788,,,,,,,,,,,,,,,,,,,,,,,,,,,,030519_p3,001,2019_Mar_05_1619,body_behavioural,3.0.4,60.05180681032672,
1,"There are a lot of great places around there, and it’s really nice during the summer.",3,3,,,,0,1,1,1,,,,,0,19,19,19,,,,,,,,,,,,,,,,,,,,,,,,,,,,,1,3.020008257997688,,,,,,,,,,,,,,,,,,,,,,,,,,,,030519_p3,001,2019_Mar_05_1619,body_behavioural,3.0.4,60.05180681032672,
1,The Harvard campus is also beautiful.” ,3,3,,,,0,1,1,1,,,,,0,20,20,20,,,,,,,,,,,,,,,,,,,,,,,,,,,,,1,2.086280892006471,,,,,,,,,,,,,,,,,,,,,,,,,,,,030519_p3,001,2019_Mar_05_1619,body_behavioural,3.0.4,60.05180681032672,
1,"Carina smiled, “I’d love to: that sounds great!”",3,3,,,,0,1,1,1,,,,,0,21,21,21,,,,,,,,,,,,,,,,,,,,,,,,,,,,,1,1.3362531949969707,,,,,,,,,,,,,,,,,,,,,,,,,,,,030519_p3,001,2019_Mar_05_1619,body_behavioural,3.0.4,60.05180681032672,
1,"She quickly entered her number in his phone, since they only had to wait a couple minutes in line.",3,3,,,,0,1,1,1,,,,,0,22,22,22,,,,,,,,,,,,,,,,,,,,,,,,,,,,,1,3.26959462800005,,,,,,,,,,,,,,,,,,,,,,,,,,,,030519_p3,001,2019_Mar_05_1619,body_behavioural,3.0.4,60.05180681032672,
1,Then it was her turn to check out with the cashier. ,4,3,,,,0,1,1,1,,,,,0,23,23,23,,,,,,,,,,,,,,,,,,,,,,,,,,,,,1,1.652887518008356,,,,,,,,,,,,,,,,,,,,,,,,,,,,030519_p3,001,2019_Mar_05_1619,body_behavioural,3.0.4,60.05180681032672,
1,"Simon, wanting to make a gesture of his affection, lifted up the divider on the conveyor belt and said to the cashier, “Actually these are together.",4,3,,,,0,1,1,1,,,,,0,24,24,24,,,,,,,,,,,,,,,,,,,,,,,,,,,,,1,6.084460452999338,,,,,,,,,,,,,,,,,,,,,,,,,,,,030519_p3,001,2019_Mar_05_1619,body_behavioural,3.0.4,60.05180681032672,
1,"Carina, I’ve got it.",4,3,,,,0,1,1,1,,,,,0,25,25,25,,,,,,,,,,,,,,,,,,,,,,,,,,,,,1,1.4364057049970143,,,,,,,,,,,,,,,,,,,,,,,,,,,,030519_p3,001,2019_Mar_05_1619,body_behavioural,3.0.4,60.05180681032672,
1,This was kind-of a date today.”,4,3,,,,0,1,1,1,,,,,0,26,26,26,,,,,,,,,,,,,,,,,,,,,,,,,,,,,1,2.6033497900061775,,,,,,,,,,,,,,,,,,,,,,,,,,,,030519_p3,001,2019_Mar_05_1619,body_behavioural,3.0.4,60.05180681032672,
1,Carina blushed and laughed; she thought this was ridiculous but also very sweet. ,4,3,,,,0,1,1,1,,,,,0,27,27,27,,,,,,,,,,,,,,,,,,,,,,,,,,,,,1,2.203295672996319,,,,,,,,,,,,,,,,,,,,,,,,,,,,030519_p3,001,2019_Mar_05_1619,body_behavioural,3.0.4,60.05180681032672,
1,"The cashier rolled her eyes when they weren’t looking, and she scanned the rest of his items. ",4,3,,,,0,1,1,1,,,,,0,28,28,28,,,,,,,,,,,,,,,,,,,,,,,,,,,,,1,2.3693222549918573,,,,,,,,,,,,,,,,,,,,,,,,,,,,030519_p3,001,2019_Mar_05_1619,body_behavioural,3.0.4,60.05180681032672,
1,"The total came to $120, and he paid with his credit card.",4,3,,,,0,1,1,1,,,,,0,29,29,29,,,,,,,,,,,,,,,,,,,,,,,,,,,,,1,1.767620678001549,,,,,,,,,,,,,,,,,,,,,,,,,,,,030519_p3,001,2019_Mar_05_1619,body_behavioural,3.0.4,60.05180681032672,
1,"Carina thanked him, and they took the groceries and walked out.",4,3,,,,0,1,1,1,,,,,0,30,30,30,,,,,,,,,,,,,,,,,,,,,,,,,,,,,1,1.5021881040011067,,,,,,,,,,,,,,,,,,,,,,,,,,,,030519_p3,001,2019_Mar_05_1619,body_behavioural,3.0.4,60.05180681032672,
1,"As they were walking towards the exit, Carina reluctantly said goodbye since she was running late for the barbeque she was hosting that afternoon.",4,4,,,,0,1,1,1,,,,,0,31,31,31,,,,,,,,,,,,,,,,,,,,,,,,,,,,,1,4.320375887997216,,,,,,,,,,,,,,,,,,,,,,,,,,,,030519_p3,001,2019_Mar_05_1619,body_behavioural,3.0.4,60.05180681032672,
1,"They hugged and parted ways, stealing glances at each other as they both walked back to their cars.",4,4,,,,0,1,1,1,,,,,0,32,32,32,,,,,,,,,,,,,,,,,,,,,,,,,,,,,1,3.0243794179987162,,,,,,,,,,,,,,,,,,,,,,,,,,,,030519_p3,001,2019_Mar_05_1619,body_behavioural,3.0.4,60.05180681032672,
1,,,,,,,0,1,1,1,,,,,,,,,,,,,,,,,,,,,,,,,,,,,,,,,,,,,,,,,,,,,,,,,,,,,,,,,,,,,,,,,,030519_p3,001,2019_Mar_05_1619,body_behavioural,3.0.4,60.05180681032672,
2,,,,,,,0,2,2,2,0,0,0,0,,,,,,,,,,,,,,,,,,,,,,,,,,,space,2.5036186200013617,space,0.6357331699982751,space,3.01984137200634,,,,,,,,,,,,,,,,,,,,,,,,,,,,,,030519_p3,001,2019_Mar_05_1619,body_behavioural,3.0.4,60.05180681032672,
2,"Thomas, dreading the conversation he was about to have, got to Annika’s Finer Diner early.",1,1,None,None,,0,2,2,2,,,,,0,0,0,0,,,,,,,,,,,,,,,,,,,,,,,,,,,,,9,11.453975480006193,,,,,,,,,,,,,,,,,,,,,,,,,,,,030519_p3,001,2019_Mar_05_1619,body_behavioural,3.0.4,60.05180681032672,
2,The restaurant had a kitschy charm and was reminiscent of a diner from the 70’s. ,1,1,None,None,,0,2,2,2,,,,,0,1,1,1,,,,,,,,,,,,,,,,,,,,,,,,,,,,,1,2.3060437700041803,,,,,,,,,,,,,,,,,,,,,,,,,,,,030519_p3,001,2019_Mar_05_1619,body_behavioural,3.0.4,60.05180681032672,
2,A bell chimed as the door swung open and Sadie entered to find Thomas deep in thought on a bench by the door.,1,1,None,None,,0,2,2,2,,,,,0,2,2,2,,,,,,,,,,,,,,,,,,,,,,,,,,,,,1,9.220096944001853,,,,,,,,,,,,,,,,,,,,,,,,,,,,030519_p3,001,2019_Mar_05_1619,body_behavioural,3.0.4,60.05180681032672,
2,He jumped up and gave her a side hug. ,1,1,None,None,,0,2,2,2,,,,,0,3,3,3,,,,,,,,,,,,,,,,,,,,,,,,,,,,,1,1.1028677499998594,,,,,,,,,,,,,,,,,,,,,,,,,,,,030519_p3,001,2019_Mar_05_1619,body_behavioural,3.0.4,60.05180681032672,
2,"“How was your day?”, he asked.",1,1,None,None,,0,2,2,2,,,,,0,4,4,4,,,,,,,,,,,,,,,,,,,,,,,,,,,,,1,0.8577675580017967,,,,,,,,,,,,,,,,,,,,,,,,,,,,030519_p3,001,2019_Mar_05_1619,body_behavioural,3.0.4,60.05180681032672,
2,"She clung onto him, “It was okay.",1,1,None,None,,0,2,2,2,,,,,0,5,5,5,,,,,,,,,,,,,,,,,,,,,,,,,,,,,1,2.1866134430019883,,,,,,,,,,,,,,,,,,,,,,,,,,,,030519_p3,001,2019_Mar_05_1619,body_behavioural,3.0.4,60.05180681032672,
2,I missed you today.”,1,1,None,None,,0,2,2,2,,,,,0,6,6,6,,,,,,,,,,,,,,,,,,,,,,,,,,,,,1,0.7694431729905773,,,,,,,,,,,,,,,,,,,,,,,,,,,,030519_p3,001,2019_Mar_05_1619,body_behavioural,3.0.4,60.05180681032672,
2,He looked at the hostess coming towards them.,1,1,None,None,,0,2,2,2,,,,,0,7,7,7,,,,,,,,,,,,,,,,,,,,,,,,,,,,,1,1.8166559720120858,,,,,,,,,,,,,,,,,,,,,,,,,,,,030519_p3,001,2019_Mar_05_1619,body_behavioural,3.0.4,60.05180681032672,
2,"“Can we have a table in the back?”, Thomas asked.",1,1,None,None,,0,2,2,2,,,,,0,8,8,8,,,,,,,,,,,,,,,,,,,,,,,,,,,,,1,1.386794430000009,,,,,,,,,,,,,,,,,,,,,,,,,,,,030519_p3,001,2019_Mar_05_1619,body_behavioural,3.0.4,60.05180681032672,
2,"She shrugged and, as she loudly popped her bubblegum, replied, “Sure, honey, this way.”",1,1,9.0,None,,0,2,2,2,,,,,0,9,9,9,,,,,,,,,,,,,,,,,,,,,,,,,,,,,1,2.5030545129993698,,,,,,,,,,,,,,,,,,,,,,,,,,,,030519_p3,001,2019_Mar_05_1619,body_behavioural,3.0.4,60.05180681032672,
2,She led them to the back of the restaurant where there were dimly lit tables. ,2,1,None,None,,0,2,2,2,,,,,0,10,10,10,,,,,,,,,,,,,,,,,,,,,,,,,,,,,1,2.402824425997096,,,,,,,,,,,,,,,,,,,,,,,,,,,,030519_p3,001,2019_Mar_05_1619,body_behavioural,3.0.4,60.05180681032672,
2,"“Is this alright?”, the hostess asked.",2,1,None,None,,0,2,2,2,,,,,0,11,11,11,,,,,,,,,,,,,,,,,,,,,,,,,,,,,1,0.7669611500023166,,,,,,,,,,,,,,,,,,,,,,,,,,,,030519_p3,001,2019_Mar_05_1619,body_behavioural,3.0.4,60.05180681032672,
2,Thomas cleared his throat and tried not to grimace at the stained fabric that lined the booth.,2,1,None,None,,0,2,2,2,,,,,0,12,12,12,,,,,,,,,,,,,,,,,,,,,,,,,,,,,1,2.784120822994737,,,,,,,,,,,,,,,,,,,,,,,,,,,,030519_p3,001,2019_Mar_05_1619,body_behavioural,3.0.4,60.05180681032672,
2,“This is great.,2,1,None,None,,0,2,2,2,,,,,0,13,13,13,,,,,,,,,,,,,,,,,,,,,,,,,,,,,1,0.5507263229956152,,,,,,,,,,,,,,,,,,,,,,,,,,,,030519_p3,001,2019_Mar_05_1619,body_behavioural,3.0.4,60.05180681032672,
2,"Thank you,” Thomas said.",2,1,None,None,,0,2,2,2,,,,,0,14,14,14,,,,,,,,,,,,,,,,,,,,,,,,,,,,,1,0.586532969988184,,,,,,,,,,,,,,,,,,,,,,,,,,,,030519_p3,001,2019_Mar_05_1619,body_behavioural,3.0.4,60.05180681032672,
2,Sadie slipped into the cushioned seat and grabbed Thomas’ hand.,2,1,None,None,,0,2,2,2,,,,,0,15,15,15,,,,,,,,,,,,,,,,,,,,,,,,,,,,,1,2.0205033180100145,,,,,,,,,,,,,,,,,,,,,,,,,,,,030519_p3,001,2019_Mar_05_1619,body_behavioural,3.0.4,60.05180681032672,
2,"“Tell me about your day!”, Sadie sang as Thomas sat down.",2,1,None,None,,0,2,2,2,,,,,0,16,16,16,,,,,,,,,,,,,,,,,,,,,,,,,,,,,1,2.417506260011578,,,,,,,,,,,,,,,,,,,,,,,,,,,,030519_p3,001,2019_Mar_05_1619,body_behavioural,3.0.4,60.05180681032672,
2,He looked at her silently and pulled his hand slowly from hers.,2,1,None,None,,0,2,2,2,,,,,0,17,17,17,,,,,,,,,,,,,,,,,,,,,,,,,,,,,1,2.086022610004875,,,,,,,,,,,,,,,,,,,,,,,,,,,,030519_p3,001,2019_Mar_05_1619,body_behavioural,3.0.4,60.05180681032672,
2,Sadie gave him a puzzled look.,2,1,None,None,,0,2,2,2,,,,,0,18,18,18,,,,,,,,,,,,,,,,,,,,,,,,,,,,,1,0.9034762800001772,,,,,,,,,,,,,,,,,,,,,,,,,,,,030519_p3,001,2019_Mar_05_1619,body_behavioural,3.0.4,60.05180681032672,
2,Thomas looked away and took a deep breath. ,2,1,None,None,,0,2,2,2,,,,,0,19,19,19,,,,,,,,,,,,,,,,,,,,,,,,,,,,,1,0.8693902180093573,,,,,,,,,,,,,,,,,,,,,,,,,,,,030519_p3,001,2019_Mar_05_1619,body_behavioural,3.0.4,60.05180681032672,
2,"Sadie asked, “What’s wrong?” ",2,1,None,None,,0,2,2,2,,,,,0,20,20,20,,,,,,,,,,,,,,,,,,,,,,,,,,,,,1,0.6865114679967519,,,,,,,,,,,,,,,,,,,,,,,,,,,,030519_p3,001,2019_Mar_05_1619,body_behavioural,3.0.4,60.05180681032672,
2,Thomas picked at his fingernails.,2,1,None,22.0,,0,2,2,2,,,,,0,21,21,21,,,,,,,,,,,,,,,,,,,,,,,,,,,,,1,1.2529877699998906,,,,,,,,,,,,,,,,,,,,,,,,,,,,030519_p3,001,2019_Mar_05_1619,body_behavioural,3.0.4,60.05180681032672,
2,"“Sadie, I’ve been thinking, and I need to figure out some stuff… on my own.”",2,2,None,None,,0,2,2,2,,,,,0,22,22,22,,,,,,,,,,,,,,,,,,,,,,,,,,,,,1,5.670092599990312,,,,,,,,,,,,,,,,,,,,,,,,,,,,030519_p3,001,2019_Mar_05_1619,body_behavioural,3.0.4,60.05180681032672,
2,Sadie’s mouth popped open for a moment.,2,2,None,None,,0,2,2,2,,,,,0,23,23,23,,,,,,,,,,,,,,,,,,,,,,,,,,,,,1,1.5527803730074083,,,,,,,,,,,,,,,,,,,,,,,,,,,,030519_p3,001,2019_Mar_05_1619,body_behavioural,3.0.4,60.05180681032672,
2,Then she swallowed and shifted back in her seat.,2,2,None,None,,0,2,2,2,,,,,0,24,24,24,,,,,,,,,,,,,,,,,,,,,,,,,,,,,1,1.2173350600060076,,,,,,,,,,,,,,,,,,,,,,,,,,,,030519_p3,001,2019_Mar_05_1619,body_behavioural,3.0.4,60.05180681032672,
2,“Things have been really picking up at work.,2,2,None,None,,0,2,2,2,,,,,0,25,25,25,,,,,,,,,,,,,,,,,,,,,,,,,,,,,1,1.6525987399945734,,,,,,,,,,,,,,,,,,,,,,,,,,,,030519_p3,001,2019_Mar_05_1619,body_behavioural,3.0.4,60.05180681032672,
2,And I’m not sure that this is the job I want to do anymore.,2,2,None,None,,0,2,2,2,,,,,0,26,26,26,,,,,,,,,,,,,,,,,,,,,,,,,,,,,1,3.8865686770004686,,,,,,,,,,,,,,,,,,,,,,,,,,,,030519_p3,001,2019_Mar_05_1619,body_behavioural,3.0.4,60.05180681032672,
2,It’s been really overwhelming between working and figuring out if I should change careers.” ,2,2,17.0,None,,0,2,2,2,,,,,0,27,27,27,,,,,,,,,,,,,,,,,,,,,,,,,,,,,1,3.45317544300633,,,,,,,,,,,,,,,,,,,,,,,,,,,,030519_p3,001,2019_Mar_05_1619,body_behavioural,3.0.4,60.05180681032672,
2,The waiter appeared and interrupted the speech Thomas had been practicing.,3,2,None,None,,0,2,2,2,,,,,0,28,28,28,,,,,,,,,,,,,,,,,,,,,,,,,,,,,1,3.51757115800865,,,,,,,,,,,,,,,,,,,,,,,,,,,,030519_p3,001,2019_Mar_05_1619,body_behavioural,3.0.4,60.05180681032672,
2,"“Hello you two!”, the waiter said.",3,2,None,None,,0,2,2,2,,,,,0,29,29,29,,,,,,,,,,,,,,,,,,,,,,,,,,,,,9,3.3008692049916135,,,,,,,,,,,,,,,,,,,,,,,,,,,,030519_p3,001,2019_Mar_05_1619,body_behavioural,3.0.4,60.05180681032672,
2,“Have you decided what you would like?”,3,2,None,None,,0,2,2,2,,,,,0,30,30,30,,,,,,,,,,,,,,,,,,,,,,,,,,,,,1,1.4361875780014088,,,,,,,,,,,,,,,,,,,,,,,,,,,,030519_p3,001,2019_Mar_05_1619,body_behavioural,3.0.4,60.05180681032672,
2,"Thomas and Sadie realized there were menus on the table, and they glanced at the lengthy list quickly.",3,2,None,None,,0,2,2,2,,,,,0,31,31,31,,,,,,,,,,,,,,,,,,,,,,,,,,,,,1,3.503153152996674,,,,,,,,,,,,,,,,,,,,,,,,,,,,030519_p3,001,2019_Mar_05_1619,body_behavioural,3.0.4,60.05180681032672,
2,"There were so many strange dishes they had never heard of before, so they settled on familiar orders.",3,2,None,None,,0,2,2,2,,,,,0,32,32,32,,,,,,,,,,,,,,,,,,,,,,,,,,,,,1,2.269667437998578,,,,,,,,,,,,,,,,,,,,,,,,,,,,030519_p3,001,2019_Mar_05_1619,body_behavioural,3.0.4,60.05180681032672,
2,"“I’ll have a burger, no tomatoes,” Thomas said.",3,2,None,None,,0,2,2,2,,,,,0,33,33,33,,,,,,,,,,,,,,,,,,,,,,,,,,,,,1,1.519723122997675,,,,,,,,,,,,,,,,,,,,,,,,,,,,030519_p3,001,2019_Mar_05_1619,body_behavioural,3.0.4,60.05180681032672,
2,"Sadie asked about the reuben, and the waiter told her it was excellent.",3,2,None,None,,0,2,2,2,,,,,0,34,34,34,,,,,,,,,,,,,,,,,,,,,,,,,,,,,1,2.003273829992395,,,,,,,,,,,,,,,,,,,,,,,,,,,,030519_p3,001,2019_Mar_05_1619,body_behavioural,3.0.4,60.05180681032672,
2,"Once she agreed to get that, he walked away. ",3,2,None,None,,0,2,2,2,,,,,0,35,35,35,,,,,,,,,,,,,,,,,,,,,,,,,,,,,1,1.834138503007125,,,,,,,,,,,,,,,,,,,,,,,,,,,,030519_p3,001,2019_Mar_05_1619,body_behavioural,3.0.4,60.05180681032672,
2,Sadie and Thomas looked at each other. ,3,2,None,None,,0,2,2,2,,,,,0,36,36,36,,,,,,,,,,,,,,,,,,,,,,,,,,,,,9,1.369657310002367,,,,,,,,,,,,,,,,,,,,,,,,,,,,030519_p3,001,2019_Mar_05_1619,body_behavioural,3.0.4,60.05180681032672,
2,"“So what are you saying?”, Sadie asked. ",3,2,None,None,,0,2,2,2,,,,,0,37,37,37,,,,,,,,,,,,,,,,,,,,,,,,,,,,,1,1.135904508002568,,,,,,,,,,,,,,,,,,,,,,,,,,,,030519_p3,001,2019_Mar_05_1619,body_behavioural,3.0.4,60.05180681032672,
2,"Thomas replied, “I want to take a break for awhile.",3,2,None,None,,0,2,2,2,,,,,0,38,38,38,,,,,,,,,,,,,,,,,,,,,,,,,,,,,1,1.317525985010434,,,,,,,,,,,,,,,,,,,,,,,,,,,,030519_p3,001,2019_Mar_05_1619,body_behavioural,3.0.4,60.05180681032672,
2,"You know, have space to figure out what I’m supposed to be doing.”",3,2,None,17.0,,0,2,2,2,,,,,0,39,39,39,,,,,,,,,,,,,,,,,,,,,,,,,,,,,1,1.7531338620028691,,,,,,,,,,,,,,,,,,,,,,,,,,,,030519_p3,001,2019_Mar_05_1619,body_behavioural,3.0.4,60.05180681032672,
2,Sadie quietly burst into tears. ,3,3,None,None,,0,2,2,2,,,,,0,40,40,40,,,,,,,,,,,,,,,,,,,,,,,,,,,,,1,1.0196026030025678,,,,,,,,,,,,,,,,,,,,,,,,,,,,030519_p3,001,2019_Mar_05_1619,body_behavioural,3.0.4,60.05180681032672,
2,"Nevertheless, people sitting at the adjacent table looked over and quickly averted their gaze as they realized what was happening. ",3,3,None,None,,0,2,2,2,,,,,0,41,41,41,,,,,,,,,,,,,,,,,,,,,,,,,,,,,1,3.9197360430116532,,,,,,,,,,,,,,,,,,,,,,,,,,,,030519_p3,001,2019_Mar_05_1619,body_behavioural,3.0.4,60.05180681032672,
2,“Is this really what you want?,3,3,None,None,,0,2,2,2,,,,,0,42,42,42,,,,,,,,,,,,,,,,,,,,,,,,,,,,,1,0.7197651780006709,,,,,,,,,,,,,,,,,,,,,,,,,,,,030519_p3,001,2019_Mar_05_1619,body_behavioural,3.0.4,60.05180681032672,
2,I don’t understand.,3,3,None,None,,0,2,2,2,,,,,0,43,43,43,,,,,,,,,,,,,,,,,,,,,,,,,,,,,1,0.652944954999839,,,,,,,,,,,,,,,,,,,,,,,,,,,,030519_p3,001,2019_Mar_05_1619,body_behavioural,3.0.4,60.05180681032672,
2,I don’t understand.,3,3,None,None,,0,2,2,2,,,,,0,44,44,44,,,,,,,,,,,,,,,,,,,,,,,,,,,,,1,1.6365150130004622,,,,,,,,,,,,,,,,,,,,,,,,,,,,030519_p3,001,2019_Mar_05_1619,body_behavioural,3.0.4,60.05180681032672,
2,Things were fine. ,3,3,None,None,,0,2,2,2,,,,,0,45,45,45,,,,,,,,,,,,,,,,,,,,,,,,,,,,,1,0.6530430679995334,,,,,,,,,,,,,,,,,,,,,,,,,,,,030519_p3,001,2019_Mar_05_1619,body_behavioural,3.0.4,60.05180681032672,
2,"We don’t have to hang out all the time, or as much as we do now.”",3,3,None,None,,0,2,2,2,,,,,0,46,46,46,,,,,,,,,,,,,,,,,,,,,,,,,,,,,1,2.286607219997677,,,,,,,,,,,,,,,,,,,,,,,,,,,,030519_p3,001,2019_Mar_05_1619,body_behavioural,3.0.4,60.05180681032672,
2,Thomas chewed on his bottom lip and picked at his now bleeding hangnail. ,3,3,20.0,None,,0,2,2,2,,,,,0,47,47,47,,,,,,,,,,,,,,,,,,,,,,,,,,,,,1,4.450966979988152,,,,,,,,,,,,,,,,,,,,,,,,,,,,030519_p3,001,2019_Mar_05_1619,body_behavioural,3.0.4,60.05180681032672,
2,"At that moment, the waiter arrived with the burger and reuben and set them on the table.",4,3,None,None,,0,2,2,2,,,,,0,48,48,48,,,,,,,,,,,,,,,,,,,,,,,,,,,,,9,2.219965009993757,,,,,,,,,,,,,,,,,,,,,,,,,,,,030519_p3,001,2019_Mar_05_1619,body_behavioural,3.0.4,60.05180681032672,
2,“Is there anything else I can get for you two?,4,3,None,None,,0,2,2,2,,,,,0,49,49,49,,,,,,,,,,,,,,,,,,,,,,,,,,,,,1,1.1194544400059385,,,,,,,,,,,,,,,,,,,,,,,,,,,,030519_p3,001,2019_Mar_05_1619,body_behavioural,3.0.4,60.05180681032672,
2,"Will you be getting dessert tonight?”, he asked.",4,3,None,None,,0,2,2,2,,,,,0,50,50,50,,,,,,,,,,,,,,,,,,,,,,,,,,,,,1,0.9699222550116247,,,,,,,,,,,,,,,,,,,,,,,,,,,,030519_p3,001,2019_Mar_05_1619,body_behavioural,3.0.4,60.05180681032672,
2,"“Oh no, we’re good, thanks,” Thomas said.",4,3,None,None,,0,2,2,2,,,,,0,51,51,51,,,,,,,,,,,,,,,,,,,,,,,,,,,,,1,0.8030452200036962,,,,,,,,,,,,,,,,,,,,,,,,,,,,030519_p3,001,2019_Mar_05_1619,body_behavioural,3.0.4,60.05180681032672,
2,"Once the waiter had walked away still oblivious to the situation, Thomas sighed and said, “Sadie, I’m sorry.",4,3,None,None,,0,2,2,2,,,,,0,52,52,52,,,,,,,,,,,,,,,,,,,,,,,,,,,,,1,2.4863979530055076,,,,,,,,,,,,,,,,,,,,,,,,,,,,030519_p3,001,2019_Mar_05_1619,body_behavioural,3.0.4,60.05180681032672,
2,"You are so great, and I love hanging out with you.",4,3,None,None,,0,2,2,2,,,,,0,53,53,53,,,,,,,,,,,,,,,,,,,,,,,,,,,,,1,2.7196025529992767,,,,,,,,,,,,,,,,,,,,,,,,,,,,030519_p3,001,2019_Mar_05_1619,body_behavioural,3.0.4,60.05180681032672,
2,But I need some time.,4,3,None,None,,0,2,2,2,,,,,0,54,54,54,,,,,,,,,,,,,,,,,,,,,,,,,,,,,1,0.6533783089980716,,,,,,,,,,,,,,,,,,,,,,,,,,,,030519_p3,001,2019_Mar_05_1619,body_behavioural,3.0.4,60.05180681032672,
2,I’m so sorry.”,4,3,None,None,,0,2,2,2,,,,,0,55,55,55,,,,,,,,,,,,,,,,,,,,,,,,,,,,,1,0.48642003000713885,,,,,,,,,,,,,,,,,,,,,,,,,,,,030519_p3,001,2019_Mar_05_1619,body_behavioural,3.0.4,60.05180681032672,
2,"He grabbed her hand, and she pulled it out of his.",4,3,None,None,,0,2,2,2,,,,,0,56,56,56,,,,,,,,,,,,,,,,,,,,,,,,,,,,,1,2.3721844400133705,,,,,,,,,,,,,,,,,,,,,,,,,,,,030519_p3,001,2019_Mar_05_1619,body_behavioural,3.0.4,60.05180681032672,
2,"“Sadie,” he said.",4,3,None,17.0,,0,2,2,2,,,,,0,57,57,57,,,,,,,,,,,,,,,,,,,,,,,,,,,,,1,0.8197346119995927,,,,,,,,,,,,,,,,,,,,,,,,,,,,030519_p3,001,2019_Mar_05_1619,body_behavioural,3.0.4,60.05180681032672,
2," She stood up, grabbed half of the reuben and shook it at him as she growled, “Don’t follow me, and don’t talk to me anymore!”",4,4,None,None,,0,2,2,2,,,,,0,58,58,58,,,,,,,,,,,,,,,,,,,,,,,,,,,,,1,2.50317584000004,,,,,,,,,,,,,,,,,,,,,,,,,,,,030519_p3,001,2019_Mar_05_1619,body_behavioural,3.0.4,60.05180681032672,
2,"Sadie's heels clacked loudly against the black and white linoleum, and the bell above the door jingled cheerfully as the door closed behind her.",4,4,None,None,,0,2,2,2,,,,,0,59,59,59,,,,,,,,,,,,,,,,,,,,,,,,,,,,,1,3.619625464998535,,,,,,,,,,,,,,,,,,,,,,,,,,,,030519_p3,001,2019_Mar_05_1619,body_behavioural,3.0.4,60.05180681032672,
2,Thomas sat there for awhile in shock at how quickly everything transpired. ,4,4,None,None,,0,2,2,2,,,,,0,60,60,60,,,,,,,,,,,,,,,,,,,,,,,,,,,,,1,2.720491976986523,,,,,,,,,,,,,,,,,,,,,,,,,,,,030519_p3,001,2019_Mar_05_1619,body_behavioural,3.0.4,60.05180681032672,
2,"He grabbed his burger and took a bite of it, creating a dry and fishy taste in his mouth.",4,4,None,None,,0,2,2,2,,,,,0,61,61,61,,,,,,,,,,,,,,,,,,,,,,,,,,,,,1,2.9710985099954996,,,,,,,,,,,,,,,,,,,,,,,,,,,,030519_p3,001,2019_Mar_05_1619,body_behavioural,3.0.4,60.05180681032672,
2,He dropped it back on his plate and wondered if the restaurant was responsible for the foul taste. ,4,4,13.0,5.0,,0,2,2,2,,,,,0,62,62,62,,,,,,,,,,,,,,,,,,,,,,,,,,,,,1,2.8031945249967976,,,,,,,,,,,,,,,,,,,,,,,,,,,,030519_p3,001,2019_Mar_05_1619,body_behavioural,3.0.4,60.05180681032672,
2,,,,,,,0,2,2,2,,,,,,,,,,,,,,,,,,,,,,,,,,,,,,,,,,,,,,,,,,,,,,,,,,,,,,,,,,,,,,,,,,030519_p3,001,2019_Mar_05_1619,body_behavioural,3.0.4,60.05180681032672,
3,,,,,,,0,3,3,3,0,0,0,0,,,,,,,,,,,,,,,,,,,,,,,,,,,space,1.6696481649996713,space,0.469683420000365,space,0.7367161750007654,,,,,,,,,,,,,,,,,,,,,,,,,,,,,,030519_p3,001,2019_Mar_05_1619,body_behavioural,3.0.4,60.05180681032672,
3,"Jeff, hoping that today would be a pivotal day for his new business, had only been waiting inside the doors of the airport for a few minutes when he saw William and eagerly waved him over. ",1,1,,,,0,3,3,3,,,,,0,0,0,0,,,,,,,,,,,,,,,,,,,,,,,,,,,,,9,5.467732295001042,,,,,,,,,,,,,,,,,,,,,,,,,,,,030519_p3,001,2019_Mar_05_1619,body_behavioural,3.0.4,60.05180681032672,
3,"Jeff, checking his watch, was pleased to see that the two of them had two hours to discuss business before their flights left Boston.",1,1,,,,0,3,3,3,,,,,0,1,1,1,,,,,,,,,,,,,,,,,,,,,,,,,,,,,1,12.203956183002447,,,,,,,,,,,,,,,,,,,,,,,,,,,,030519_p3,001,2019_Mar_05_1619,body_behavioural,3.0.4,60.05180681032672,
3,The two had met the night before in line for the bathroom at a local bar. ,1,1,,,,0,3,3,3,,,,,0,2,2,2,,,,,,,,,,,,,,,,,,,,,,,,,,,,,9,2.8865152270009276,,,,,,,,,,,,,,,,,,,,,,,,,,,,030519_p3,001,2019_Mar_05_1619,body_behavioural,3.0.4,60.05180681032672,
3,Jeff had delivered some surprisingly-detailed complaints to William about the wine selection.,1,1,,,,0,3,3,3,,,,,0,3,3,3,,,,,,,,,,,,,,,,,,,,,,,,,,,,,1,2.936886310009868,,,,,,,,,,,,,,,,,,,,,,,,,,,,030519_p3,001,2019_Mar_05_1619,body_behavioural,3.0.4,60.05180681032672,
3,They quickly learned about each other that Jeff was a representative for wine vineyards in the Northeast and William was a wine buyer for corporate events.,1,1,,,,0,3,3,3,,,,,0,4,4,4,,,,,,,,,,,,,,,,,,,,,,,,,,,,,1,5.737648477996117,,,,,,,,,,,,,,,,,,,,,,,,,,,,030519_p3,001,2019_Mar_05_1619,body_behavioural,3.0.4,60.05180681032672,
3,"Since they both had flights out of Boston at the same time, they had agreed to meet at the airport and talk about potentially doing business. ",1,1,,,,0,3,3,3,,,,,0,5,5,5,,,,,,,,,,,,,,,,,,,,,,,,,,,,,1,4.786917413002811,,,,,,,,,,,,,,,,,,,,,,,,,,,,030519_p3,001,2019_Mar_05_1619,body_behavioural,3.0.4,60.05180681032672,
3,"They headed to security together, pleased to find that the line was not so long, and they chatted a little as they were waiting. ",2,1,,,,0,3,3,3,,,,,0,6,6,6,,,,,,,,,,,,,,,,,,,,,,,,,,,,,9,3.3032095399976242,,,,,,,,,,,,,,,,,,,,,,,,,,,,030519_p3,001,2019_Mar_05_1619,body_behavioural,3.0.4,60.05180681032672,
3,"“It’s crazy that we met last night,” William said, “I am flying out right now to meet my boss, and was worried that I was going to show up empty handed without any local retailer prepared.” ",2,1,,,,0,3,3,3,,,,,0,7,7,7,,,,,,,,,,,,,,,,,,,,,,,,,,,,,1,10.453127743006917,,,,,,,,,,,,,,,,,,,,,,,,,,,,030519_p3,001,2019_Mar_05_1619,body_behavioural,3.0.4,60.05180681032672,
3,"“I know, what are the chances, right?” Jeff said.",2,1,,,,0,3,3,3,,,,,0,8,8,8,,,,,,,,,,,,,,,,,,,,,,,,,,,,,1,1.9695054829935543,,,,,,,,,,,,,,,,,,,,,,,,,,,,030519_p3,001,2019_Mar_05_1619,body_behavioural,3.0.4,60.05180681032672,
3,"William laughed and said, “I’m glad our shared complaining can come in handy.",2,1,,,,0,3,3,3,,,,,0,9,9,9,,,,,,,,,,,,,,,,,,,,,,,,,,,,,1,2.320193740000832,,,,,,,,,,,,,,,,,,,,,,,,,,,,030519_p3,001,2019_Mar_05_1619,body_behavioural,3.0.4,60.05180681032672,
3,"I know this is fast, but I'd like to get right down to specifics.",2,2,,,,0,3,3,3,,,,,0,10,10,10,,,,,,,,,,,,,,,,,,,,,,,,,,,,,1,1.2527472770016175,,,,,,,,,,,,,,,,,,,,,,,,,,,,030519_p3,001,2019_Mar_05_1619,body_behavioural,3.0.4,60.05180681032672,
3,I'd like to order a couple of sample shipments from you and present them to our corporate buyers.,2,2,,,,0,3,3,3,,,,,0,11,11,11,,,,,,,,,,,,,,,,,,,,,,,,,,,,,1,2.1365308779932093,,,,,,,,,,,,,,,,,,,,,,,,,,,,030519_p3,001,2019_Mar_05_1619,body_behavioural,3.0.4,60.05180681032672,
3,"Typically we expect to get these kinds of samples at a deep discount, at least half-off the label price.",2,2,,,,0,3,3,3,,,,,0,12,12,12,,,,,,,,,,,,,,,,,,,,,,,,,,,,,1,2.036233639999409,,,,,,,,,,,,,,,,,,,,,,,,,,,,030519_p3,001,2019_Mar_05_1619,body_behavioural,3.0.4,60.05180681032672,
3,"This is nothing, okay, compared to what you will be making if one of these buyers makes a contract.",2,2,,,,0,3,3,3,,,,,0,13,13,13,,,,,,,,,,,,,,,,,,,,,,,,,,,,,1,2.620512127992697,,,,,,,,,,,,,,,,,,,,,,,,,,,,030519_p3,001,2019_Mar_05_1619,body_behavioural,3.0.4,60.05180681032672,
3,So I propose that you send us $600 worth of wine shipments for a price of $300.”,2,2,,,,0,3,3,3,,,,,0,14,14,14,,,,,,,,,,,,,,,,,,,,,,,,,,,,,1,15.037470253009815,,,,,,,,,,,,,,,,,,,,,,,,,,,,030519_p3,001,2019_Mar_05_1619,body_behavioural,3.0.4,60.05180681032672,
3,"When it was their turn to go through the metal detector, they took off their shoes and pulled out their laptops.",2,2,,,,0,3,3,3,,,,,0,15,15,15,,,,,,,,,,,,,,,,,,,,,,,,,,,,,9,3.137011610000627,,,,,,,,,,,,,,,,,,,,,,,,,,,,030519_p3,001,2019_Mar_05_1619,body_behavioural,3.0.4,60.05180681032672,
3,"Jeff mulled over the offer, nodding noncommittally to William's pitch as they proceeded through the metal detector and retrieved their belongings.",2,2,,,,0,3,3,3,,,,,0,16,16,16,,,,,,,,,,,,,,,,,,,,,,,,,,,,,9,2.569655914994655,,,,,,,,,,,,,,,,,,,,,,,,,,,,030519_p3,001,2019_Mar_05_1619,body_behavioural,3.0.4,60.05180681032672,
3,"They began to walk through the concourse, and William handed some printed spreadsheets to Jeff as they navigated toward their gates at the end of the terminal.",3,2,,,,0,3,3,3,,,,,0,17,17,17,,,,,,,,,,,,,,,,,,,,,,,,,,,,,1,4.853320748006809,,,,,,,,,,,,,,,,,,,,,,,,,,,,030519_p3,001,2019_Mar_05_1619,body_behavioural,3.0.4,60.05180681032672,
3,"Jeff, weaving through the crowds of travelers, squinted at William's rosy projections of the number of bottles he could be able to purchase in the future.",3,2,,,,0,3,3,3,,,,,0,18,18,18,,,,,,,,,,,,,,,,,,,,,,,,,,,,,1,3.9366163149970816,,,,,,,,,,,,,,,,,,,,,,,,,,,,030519_p3,001,2019_Mar_05_1619,body_behavioural,3.0.4,60.05180681032672,
3,"Finally Jeff said, “I don’t know, we’re not coming from corporate vineyards, so gambling with sample shipments is the kind of risk we can’t necessarily make. ",3,3,,,,0,3,3,3,,,,,0,19,19,19,,,,,,,,,,,,,,,,,,,,,,,,,,,,,1,3.9866272999934154,,,,,,,,,,,,,,,,,,,,,,,,,,,,030519_p3,001,2019_Mar_05_1619,body_behavioural,3.0.4,60.05180681032672,
3,"These corporate purchases would have to be huge and practically guaranteed, to offset the loss from selling sample shipments at this price.”",3,3,,,,0,3,3,3,,,,,0,20,20,20,,,,,,,,,,,,,,,,,,,,,,,,,,,,,1,4.186466252998798,,,,,,,,,,,,,,,,,,,,,,,,,,,,030519_p3,001,2019_Mar_05_1619,body_behavioural,3.0.4,60.05180681032672,
3,"They walked to the gates very slowly, barely registering the hubbub of the airport since they were so caught up in figuring out this deal before their flights left.",3,3,,,,0,3,3,3,,,,,0,21,21,21,,,,,,,,,,,,,,,,,,,,,,,,,,,,,1,7.520400715002324,,,,,,,,,,,,,,,,,,,,,,,,,,,,030519_p3,001,2019_Mar_05_1619,body_behavioural,3.0.4,60.05180681032672,
3,"At the end of their long walk, they got to Jeff’s gate first, which had begun boarding passengers.",3,3,,,,0,3,3,3,,,,,0,22,22,22,,,,,,,,,,,,,,,,,,,,,,,,,,,,,1,2.553105813000002,,,,,,,,,,,,,,,,,,,,,,,,,,,,030519_p3,001,2019_Mar_05_1619,body_behavioural,3.0.4,60.05180681032672,
3,"In these last minutes, William and Jeff agreed on a compromise rate on the sample shipment, paying $400 for a $600 shipment, and they finalized the deal with a handshake. ",3,4,,,,0,3,3,3,,,,,0,23,23,23,,,,,,,,,,,,,,,,,,,,,,,,,,,,,1,3.820391315006418,,,,,,,,,,,,,,,,,,,,,,,,,,,,030519_p3,001,2019_Mar_05_1619,body_behavioural,3.0.4,60.05180681032672,
3,"“Well, what a tremendous pleasure to do business with you and to have all this work out,” William said.",3,4,,,,0,3,3,3,,,,,0,24,24,24,,,,,,,,,,,,,,,,,,,,,,,,,,,,,1,7.403501565000624,,,,,,,,,,,,,,,,,,,,,,,,,,,,030519_p3,001,2019_Mar_05_1619,body_behavioural,3.0.4,60.05180681032672,
3,"Jeff nodded enthusiastically, and responded, “Likewise, this has been great.  ",3,4,,,,0,3,3,3,,,,,0,25,25,25,,,,,,,,,,,,,,,,,,,,,,,,,,,,,1,1.436075890000211,,,,,,,,,,,,,,,,,,,,,,,,,,,,030519_p3,001,2019_Mar_05_1619,body_behavioural,3.0.4,60.05180681032672,
3,I'll let you get to your gate.,3,4,,,,0,3,3,3,,,,,0,26,26,26,,,,,,,,,,,,,,,,,,,,,,,,,,,,,9,2.5866052280034637,,,,,,,,,,,,,,,,,,,,,,,,,,,,030519_p3,001,2019_Mar_05_1619,body_behavioural,3.0.4,60.05180681032672,
3,"Once we’re both back on the ground, we can get all the shipments in the books.”",3,4,,,,0,3,3,3,,,,,0,27,27,27,,,,,,,,,,,,,,,,,,,,,,,,,,,,,9,2.5699256700027036,,,,,,,,,,,,,,,,,,,,,,,,,,,,030519_p3,001,2019_Mar_05_1619,body_behavioural,3.0.4,60.05180681032672,
3,They parted with a wave as Jeff scanned his boarding pass at the gate. ,3,4,,,,0,3,3,3,,,,,0,28,28,28,,,,,,,,,,,,,,,,,,,,,,,,,,,,,1,3.401141522001126,,,,,,,,,,,,,,,,,,,,,,,,,,,,030519_p3,001,2019_Mar_05_1619,body_behavioural,3.0.4,60.05180681032672,
3,He walked onto the plane and sat down in his aisle seat in the business class section.,4,4,,,,0,3,3,3,,,,,0,29,29,29,,,,,,,,,,,,,,,,,,,,,,,,,,,,,9,1.703174484995543,,,,,,,,,,,,,,,,,,,,,,,,,,,,030519_p3,001,2019_Mar_05_1619,body_behavioural,3.0.4,60.05180681032672,
3,He typed out a quick email on his phone letting the rest of his team know the good news. ,4,4,,,,0,3,3,3,,,,,0,30,30,30,,,,,,,,,,,,,,,,,,,,,,,,,,,,,9,3.350845252003637,,,,,,,,,,,,,,,,,,,,,,,,,,,,030519_p3,001,2019_Mar_05_1619,body_behavioural,3.0.4,60.05180681032672,
3,"When the flight attendant came by, he ordered a glass of champagne to celebrate.",4,4,,,,0,3,3,3,,,,,0,31,31,31,,,,,,,,,,,,,,,,,,,,,,,,,,,,,1,3.28317962300207,,,,,,,,,,,,,,,,,,,,,,,,,,,,030519_p3,001,2019_Mar_05_1619,body_behavioural,3.0.4,60.05180681032672,
3,,,,,,,0,3,3,3,,,,,,,,,,,,,,,,,,,,,,,,,,,,,,,,,,,,,,,,,,,,,,,,,,,,,,,,,,,,,,,,,,030519_p3,001,2019_Mar_05_1619,body_behavioural,3.0.4,60.05180681032672,
4,,,,,,,0,4,4,4,0,0,0,0,,,,,,,,,,,,,,,,,,,,,,,,,,,space,3.1712106880004285,space,0.5338224479928613,space,0.7024408799916273,,,,,,,,,,,,,,,,,,,,,,,,,,,,,,030519_p3,001,2019_Mar_05_1619,body_behavioural,3.0.4,60.05180681032672,
4,Charlie saw Alma as they walked into class and he motioned for her to come sit in the back next to him: they had business to discuss.,1,1,,,,0,4,4,4,,,,,0,0,0,0,,,,,,,,,,,,,,,,,,,,,,,,,,,,,9,8.85370470500493,,,,,,,,,,,,,,,,,,,,,,,,,,,,030519_p3,001,2019_Mar_05_1619,body_behavioural,3.0.4,60.05180681032672,
4,Charlie and Alma were both economics students with entrepreneurial bents.,1,1,,,,0,4,4,4,,,,,0,1,1,1,,,,,,,,,,,,,,,,,,,,,,,,,,,,,9,4.86765271499462,,,,,,,,,,,,,,,,,,,,,,,,,,,,030519_p3,001,2019_Mar_05_1619,body_behavioural,3.0.4,60.05180681032672,
4,They were also both very busy and in the same class.,1,1,,,,0,4,4,4,,,,,0,2,2,2,,,,,,,,,,,,,,,,,,,,,,,,,,,,,1,8.353243060002569,,,,,,,,,,,,,,,,,,,,,,,,,,,,030519_p3,001,2019_Mar_05_1619,body_behavioural,3.0.4,60.05180681032672,
4,"After talking at a party, Charlie had discovered that Alma was looking for financing for her web development company.",1,1,,,,0,4,4,4,,,,,0,3,3,3,,,,,,,,,,,,,,,,,,,,,,,,,,,,,1,2.9864339219930116,,,,,,,,,,,,,,,,,,,,,,,,,,,,030519_p3,001,2019_Mar_05_1619,body_behavioural,3.0.4,60.05180681032672,
4,It was serendipitous because he had been talking with other members of his venture capital group about making an investment. ,1,1,,,,0,4,4,4,,,,,0,4,4,4,,,,,,,,,,,,,,,,,,,,,,,,,,,,,1,4.3008434170042165,,,,,,,,,,,,,,,,,,,,,,,,,,,,030519_p3,001,2019_Mar_05_1619,body_behavioural,3.0.4,60.05180681032672,
4,"His financial group had come to a decision that morning about Alma’s idea, and he didn't want to wait until after class to discuss the proposal with her. ",1,1,,,,0,4,4,4,,,,,0,5,5,5,,,,,,,,,,,,,,,,,,,,,,,,,,,,,1,4.021802794988616,,,,,,,,,,,,,,,,,,,,,,,,,,,,030519_p3,001,2019_Mar_05_1619,body_behavioural,3.0.4,60.05180681032672,
4,"The class was in a large auditorium with small, foldable desks on the side of each cushioned chair. ",1,1,,,,0,4,4,4,,,,,0,6,6,6,,,,,,,,,,,,,,,,,,,,,,,,,,,,,9,1.854317945006187,,,,,,,,,,,,,,,,,,,,,,,,,,,,030519_p3,001,2019_Mar_05_1619,body_behavioural,3.0.4,60.05180681032672,
4,"There were large windows on both sides of the hall, and they could see the first flurries of a winter storm starting outside. ",1,1,,,,0,4,4,4,,,,,0,7,7,7,,,,,,,,,,,,,,,,,,,,,,,,,,,,,1,1.7032360739976866,,,,,,,,,,,,,,,,,,,,,,,,,,,,030519_p3,001,2019_Mar_05_1619,body_behavioural,3.0.4,60.05180681032672,
4,"“Here we are at Lecture Seven already in History of the Eternal City,” said the professor. ",2,1,,,,0,4,4,4,,,,,0,8,8,8,,,,,,,,,,,,,,,,,,,,,,,,,,,,,9,2.173931626995909,,,,,,,,,,,,,,,,,,,,,,,,,,,,030519_p3,001,2019_Mar_05_1619,body_behavioural,3.0.4,60.05180681032672,
4,“We're going to talk today about the age of the first Roman emperor: Augustus.” ,2,1,,,,0,4,4,4,,,,,0,9,9,9,,,,,,,,,,,,,,,,,,,,,,,,,,,,,1,1.7702007589978166,,,,,,,,,,,,,,,,,,,,,,,,,,,,030519_p3,001,2019_Mar_05_1619,body_behavioural,3.0.4,60.05180681032672,
4,"She went into some recap of the last lecture, and Charlie took this as an opportunity to start talking to Alma.",2,1,,,,0,4,4,4,,,,,0,10,10,10,,,,,,,,,,,,,,,,,,,,,,,,,,,,,9,4.002729724990786,,,,,,,,,,,,,,,,,,,,,,,,,,,,030519_p3,001,2019_Mar_05_1619,body_behavioural,3.0.4,60.05180681032672,
4,"“Okay so I’ve been thinking about your startup idea, and I have talked about it with my fellow investors.",2,2,,,,0,4,4,4,,,,,0,11,11,11,,,,,,,,,,,,,,,,,,,,,,,,,,,,,1,2.8365919700008817,,,,,,,,,,,,,,,,,,,,,,,,,,,,030519_p3,001,2019_Mar_05_1619,body_behavioural,3.0.4,60.05180681032672,
4,We’d like to invest half of what you originally suggested.,2,2,,,,0,4,4,4,,,,,0,12,12,12,,,,,,,,,,,,,,,,,,,,,,,,,,,,,1,2.119915764997131,,,,,,,,,,,,,,,,,,,,,,,,,,,,030519_p3,001,2019_Mar_05_1619,body_behavioural,3.0.4,60.05180681032672,
4,"Rather than $30,000, we start with $15,000.",2,2,,,,0,4,4,4,,,,,0,13,13,13,,,,,,,,,,,,,,,,,,,,,,,,,,,,,1,1.453566009993665,,,,,,,,,,,,,,,,,,,,,,,,,,,,030519_p3,001,2019_Mar_05_1619,body_behavioural,3.0.4,60.05180681032672,
4,We would see how the company does and then invest the other half later.” ,2,2,,,,0,4,4,4,,,,,0,14,14,14,,,,,,,,,,,,,,,,,,,,,,,,,,,,,1,5.17040360700048,,,,,,,,,,,,,,,,,,,,,,,,,,,,030519_p3,001,2019_Mar_05_1619,body_behavioural,3.0.4,60.05180681032672,
4,"Alma, tapping her pen on her notebook, narrowed her eyes and pursed her lips.",2,2,,,,0,4,4,4,,,,,0,15,15,15,,,,,,,,,,,,,,,,,,,,,,,,,,,,,1,3.4038554330036277,,,,,,,,,,,,,,,,,,,,,,,,,,,,030519_p3,001,2019_Mar_05_1619,body_behavioural,3.0.4,60.05180681032672,
4,She turned back to the lecture as she considered this.,2,2,,,,0,4,4,4,,,,,0,16,16,16,,,,,,,,,,,,,,,,,,,,,,,,,,,,,1,2.637208913991344,,,,,,,,,,,,,,,,,,,,,,,,,,,,030519_p3,001,2019_Mar_05_1619,body_behavioural,3.0.4,60.05180681032672,
4,"The professor was going on: “The senate had conferred upon him the title of Augustus the sacred and revered one, the restorer of traditional values, the city’s new religious leader, the restorer of temples. ",3,2,,,,0,4,4,4,,,,,0,17,17,17,,,,,,,,,,,,,,,,,,,,,,,,,,,,,9,1.5367632979905466,,,,,,,,,,,,,,,,,,,,,,,,,,,,030519_p3,001,2019_Mar_05_1619,body_behavioural,3.0.4,60.05180681032672,
4,"Augustus also sought to beautify Rome, make it into a new Athens, and dispel the criticisms of Rome as disorganized and ugly.”",3,2,,,,0,4,4,4,,,,,0,18,18,18,,,,,,,,,,,,,,,,,,,,,,,,,,,,,1,1.336827485007234,,,,,,,,,,,,,,,,,,,,,,,,,,,,030519_p3,001,2019_Mar_05_1619,body_behavioural,3.0.4,60.05180681032672,
4,"Alma turned back to Charlie and offered her rebuttal, “I don’t know about that: it’s not going to be possible to implement our ideas effectively unless the project is fully funded. ",3,3,,,,0,4,4,4,,,,,0,19,19,19,,,,,,,,,,,,,,,,,,,,,,,,,,,,,9,5.0208496270061005,,,,,,,,,,,,,,,,,,,,,,,,,,,,030519_p3,001,2019_Mar_05_1619,body_behavioural,3.0.4,60.05180681032672,
4,We would have to find other investors and that would set us back in our timeline. ,3,3,,,,0,4,4,4,,,,,0,20,20,20,,,,,,,,,,,,,,,,,,,,,,,,,,,,,1,5.203669807000551,,,,,,,,,,,,,,,,,,,,,,,,,,,,030519_p3,001,2019_Mar_05_1619,body_behavioural,3.0.4,60.05180681032672,
4,"Our profit projections assumed we'd be starting relatively soon, not months down the line.” ",3,3,,,,0,4,4,4,,,,,0,21,21,21,,,,,,,,,,,,,,,,,,,,,,,,,,,,,1,11.204351674998179,,,,,,,,,,,,,,,,,,,,,,,,,,,,030519_p3,001,2019_Mar_05_1619,body_behavioural,3.0.4,60.05180681032672,
4,They whispered back and forth during the whole class in order to work out a compromise. ,3,3,,,,0,4,4,4,,,,,0,22,22,22,,,,,,,,,,,,,,,,,,,,,,,,,,,,,1,2.336231665001833,,,,,,,,,,,,,,,,,,,,,,,,,,,,030519_p3,001,2019_Mar_05_1619,body_behavioural,3.0.4,60.05180681032672,
4,"Finally, the class ended, and the professor dismissed the students with a reminder that the midterm paper was due on Thursday and that they should email their papers to the TA.",4,3,,,,0,4,4,4,,,,,0,23,23,23,,,,,,,,,,,,,,,,,,,,,,,,,,,,,9,6.452902812990942,,,,,,,,,,,,,,,,,,,,,,,,,,,,030519_p3,001,2019_Mar_05_1619,body_behavioural,3.0.4,60.05180681032672,
4,"Everyone, except Charlie and Alma, packed up their things and headed out of the lecture hall to get to their next class. ",4,3,,,,0,4,4,4,,,,,0,24,24,24,,,,,,,,,,,,,,,,,,,,,,,,,,,,,9,5.884249980008462,,,,,,,,,,,,,,,,,,,,,,,,,,,,030519_p3,001,2019_Mar_05_1619,body_behavioural,3.0.4,60.05180681032672,
4,"“Alright, so we’ll have the $30,000 wired to you by tomorrow,” Charlie said. ",4,4,,,,0,4,4,4,,,,,0,25,25,25,,,,,,,,,,,,,,,,,,,,,,,,,,,,,1,3.5199805250013014,,,,,,,,,,,,,,,,,,,,,,,,,,,,030519_p3,001,2019_Mar_05_1619,body_behavioural,3.0.4,60.05180681032672,
4,"This wasn't ideal for Charlie, but Alma had refused to budge, and his investment group had told him they were willing to pay the full amount if necessary. ",4,4,,,,0,4,4,4,,,,,0,26,26,26,,,,,,,,,,,,,,,,,,,,,,,,,,,,,1,11.287033219996374,,,,,,,,,,,,,,,,,,,,,,,,,,,,030519_p3,001,2019_Mar_05_1619,body_behavioural,3.0.4,60.05180681032672,
4,"They shook hands, walked out of the now-empty lecture hall, and made plans to sign the official paperwork the next day.",4,4,,,,0,4,4,4,,,,,0,27,27,27,,,,,,,,,,,,,,,,,,,,,,,,,,,,,1,2.4199090549955145,,,,,,,,,,,,,,,,,,,,,,,,,,,,030519_p3,001,2019_Mar_05_1619,body_behavioural,3.0.4,60.05180681032672,
4,,,,,,,0,4,4,4,,,,,,,,,,,,,,,,,,,,,,,,,,,,,,,,,,,,,,,,,,,,,,,,,,,,,,,,,,,,,,,,,,030519_p3,001,2019_Mar_05_1619,body_behavioural,3.0.4,60.05180681032672,
5,,,,,,,0,5,5,5,0,0,0,0,,,,,,,,,,,,,,,,,,,,,,,,,,,space,1.219295554998098,space,0.47043431000201963,space,0.6693228970107157,,,,,,,,,,,,,,,,,,,,,,,,,,,,,,030519_p3,001,2019_Mar_05_1619,body_behavioural,3.0.4,60.05180681032672,
5,The grocery store was not the place Emmanuella and Liam wanted to be at the moment considering they had been fighting beforehand to the point where Emmanuella was thinking of breaking up with Liam.,1,1,,,,0,5,5,5,,,,,0,0,0,0,,,,,,,,,,,,,,,,,,,,,,,,,,,,,9,11.0240413339925,,,,,,,,,,,,,,,,,,,,,,,,,,,,030519_p3,001,2019_Mar_05_1619,body_behavioural,3.0.4,60.05180681032672,
5,"However, they had to go grocery shopping because they were hosting a dinner party for friends that evening and had no groceries. ",1,1,,,,0,5,5,5,,,,,0,1,1,1,,,,,,,,,,,,,,,,,,,,,,,,,,,,,9,3.5865080340008717,,,,,,,,,,,,,,,,,,,,,,,,,,,,030519_p3,001,2019_Mar_05_1619,body_behavioural,3.0.4,60.05180681032672,
5,The grocery store was dimly lit and had dark wood paneling for all the shelves.,1,1,,,,0,5,5,5,,,,,0,2,2,2,,,,,,,,,,,,,,,,,,,,,,,,,,,,,1,1.7209875870030373,,,,,,,,,,,,,,,,,,,,,,,,,,,,030519_p3,001,2019_Mar_05_1619,body_behavioural,3.0.4,60.05180681032672,
5,"The store specialized in organic produce and products catering to desires for high-end products, such as imported cheeses and sauces. ",1,1,,,,0,5,5,5,,,,,0,3,3,3,,,,,,,,,,,,,,,,,,,,,,,,,,,,,1,1.5363772909913678,,,,,,,,,,,,,,,,,,,,,,,,,,,,030519_p3,001,2019_Mar_05_1619,body_behavioural,3.0.4,60.05180681032672,
5,"Emmanuella felt angry as she headed immediately for the pasta section, and Liam trailed behind her. ",2,1,,,,0,5,5,5,,,,,0,4,4,4,,,,,,,,,,,,,,,,,,,,,,,,,,,,,9,2.1849051879980834,,,,,,,,,,,,,,,,,,,,,,,,,,,,030519_p3,001,2019_Mar_05_1619,body_behavioural,3.0.4,60.05180681032672,
5,Emmanuella selected a few boxes of linguine.,2,1,,,,0,5,5,5,,,,,0,5,5,5,,,,,,,,,,,,,,,,,,,,,,,,,,,,,9,1.4709311250044266,,,,,,,,,,,,,,,,,,,,,,,,,,,,030519_p3,001,2019_Mar_05_1619,body_behavioural,3.0.4,60.05180681032672,
5,"“I guess we are having pasta tonight,” Liam said.",2,1,,,,0,5,5,5,,,,,0,6,6,6,,,,,,,,,,,,,,,,,,,,,,,,,,,,,1,2.103357079991838,,,,,,,,,,,,,,,,,,,,,,,,,,,,030519_p3,001,2019_Mar_05_1619,body_behavioural,3.0.4,60.05180681032672,
5,"Emmanuella looked back at him and said, “Well if you were going to actually help cook, I would be fine with something else.”",2,1,,,,0,5,5,5,,,,,0,7,7,7,,,,,,,,,,,,,,,,,,,,,,,,,,,,,1,5.852237218001392,,,,,,,,,,,,,,,,,,,,,,,,,,,,030519_p3,001,2019_Mar_05_1619,body_behavioural,3.0.4,60.05180681032672,
5,"Liam sighed, and finally said, “You don’t want me to help.",2,1,,,,0,5,5,5,,,,,0,8,8,8,,,,,,,,,,,,,,,,,,,,,,,,,,,,,1,4.569973742996808,,,,,,,,,,,,,,,,,,,,,,,,,,,,030519_p3,001,2019_Mar_05_1619,body_behavioural,3.0.4,60.05180681032672,
5,"I try to, but it seems like I always get in the way!” ",2,1,,,,0,5,5,5,,,,,0,9,9,9,,,,,,,,,,,,,,,,,,,,,,,,,,,,,1,2.6534326980035985,,,,,,,,,,,,,,,,,,,,,,,,,,,,030519_p3,001,2019_Mar_05_1619,body_behavioural,3.0.4,60.05180681032672,
5,"Emmanuella angrily threw the pasta into the cart, losing her temper.",2,1,,,,0,5,5,5,,,,,0,10,10,10,,,,,,,,,,,,,,,,,,,,,,,,,,,,,1,2.3199269299948355,,,,,,,,,,,,,,,,,,,,,,,,,,,,030519_p3,001,2019_Mar_05_1619,body_behavioural,3.0.4,60.05180681032672,
5," “Liam, you don’t even try!",2,1,,,,0,5,5,5,,,,,0,11,11,11,,,,,,,,,,,,,,,,,,,,,,,,,,,,,1,0.7530261929932749,,,,,,,,,,,,,,,,,,,,,,,,,,,,030519_p3,001,2019_Mar_05_1619,body_behavioural,3.0.4,60.05180681032672,
5,You know what?,2,1,,,,0,5,5,5,,,,,0,12,12,12,,,,,,,,,,,,,,,,,,,,,,,,,,,,,1,0.6028504079877166,,,,,,,,,,,,,,,,,,,,,,,,,,,,030519_p3,001,2019_Mar_05_1619,body_behavioural,3.0.4,60.05180681032672,
5,I don’t think I can do this anymore. ,2,2,,,,0,5,5,5,,,,,0,13,13,13,,,,,,,,,,,,,,,,,,,,,,,,,,,,,1,0.5696929500118131,,,,,,,,,,,,,,,,,,,,,,,,,,,,030519_p3,001,2019_Mar_05_1619,body_behavioural,3.0.4,60.05180681032672,
5,"I was going to wait until after this unfortunately-timed dinner party tonight to talk about this, but I might as well say it now: I don’t want to be in a relationship with you anymore.",2,2,,,,0,5,5,5,,,,,0,14,14,14,,,,,,,,,,,,,,,,,,,,,,,,,,,,,1,6.270900410003378,,,,,,,,,,,,,,,,,,,,,,,,,,,,030519_p3,001,2019_Mar_05_1619,body_behavioural,3.0.4,60.05180681032672,
5," I’m tired of the constant fighting, and I feel like when we try to do anything fun anymore it ends up unpleasant for the stupidest reasons, and I am just past  trying to work things out.”",2,2,,,,0,5,5,5,,,,,0,15,15,15,,,,,,,,,,,,,,,,,,,,,,,,,,,,,1,5.203517789996113,,,,,,,,,,,,,,,,,,,,,,,,,,,,030519_p3,001,2019_Mar_05_1619,body_behavioural,3.0.4,60.05180681032672,
5,"Liam refused to look at her as she picked out sauces for the pasta, and then she threw up her hands, saying, “You know what, if this party is still happening we are going to just eat pasta.”",2,2,,,,0,5,5,5,,,,,0,16,16,16,,,,,,,,,,,,,,,,,,,,,,,,,,,,,1,4.30337691999739,,,,,,,,,,,,,,,,,,,,,,,,,,,,030519_p3,001,2019_Mar_05_1619,body_behavioural,3.0.4,60.05180681032672,
5,They headed to the checkout area where there was only one station open but it was not crowded at all.,3,2,,,,0,5,5,5,,,,,0,17,17,17,,,,,,,,,,,,,,,,,,,,,,,,,,,,,9,3.35088227999222,,,,,,,,,,,,,,,,,,,,,,,,,,,,030519_p3,001,2019_Mar_05_1619,body_behavioural,3.0.4,60.05180681032672,
5,Emmanuella sighed and got in line while Liam pretended to be interested in the magazine racks as he thought. ,3,2,,,,0,5,5,5,,,,,0,18,18,18,,,,,,,,,,,,,,,,,,,,,,,,,,,,,9,3.1363939750008285,,,,,,,,,,,,,,,,,,,,,,,,,,,,030519_p3,001,2019_Mar_05_1619,body_behavioural,3.0.4,60.05180681032672,
5,"Finally he turned to her and sighed, “Yes, I was thinking the same thing - I think we could definitely be happier with other people.” ",3,3,,,,0,5,5,5,,,,,0,19,19,19,,,,,,,,,,,,,,,,,,,,,,,,,,,,,1,2.7865155930048786,,,,,,,,,,,,,,,,,,,,,,,,,,,,030519_p3,001,2019_Mar_05_1619,body_behavioural,3.0.4,60.05180681032672,
5,"As if she hadn't heard him, Emmanuella looked at their cart and said, “I'm not sure this will be enough, could you grab another box of pasta?”",3,3,,,,0,5,5,5,,,,,0,20,20,20,,,,,,,,,,,,,,,,,,,,,,,,,,,,,9,5.419757968003978,,,,,,,,,,,,,,,,,,,,,,,,,,,,030519_p3,001,2019_Mar_05_1619,body_behavioural,3.0.4,60.05180681032672,
5, Liam scoffed and walked off to quickly get it.,3,3,,,,0,5,5,5,,,,,0,21,21,21,,,,,,,,,,,,,,,,,,,,,,,,,,,,,1,0.8695115900045494,,,,,,,,,,,,,,,,,,,,,,,,,,,,030519_p3,001,2019_Mar_05_1619,body_behavioural,3.0.4,60.05180681032672,
5,"As Emmanuella waited in line, she took a moment to compose herself, deciding that there was no reason to continue making a scene in the store. ",3,3,,,,0,5,5,5,,,,,0,22,22,22,,,,,,,,,,,,,,,,,,,,,,,,,,,,,9,2.7199208630045177,,,,,,,,,,,,,,,,,,,,,,,,,,,,030519_p3,001,2019_Mar_05_1619,body_behavioural,3.0.4,60.05180681032672,
5," Right when Liam came back with the pasta, the cashier started scanning their groceries.",4,3,,,,0,5,5,5,,,,,0,23,23,23,,,,,,,,,,,,,,,,,,,,,,,,,,,,,9,2.3699011920107296,,,,,,,,,,,,,,,,,,,,,,,,,,,,030519_p3,001,2019_Mar_05_1619,body_behavioural,3.0.4,60.05180681032672,
5,"The cost came to $30, and Emmanuella paid with her credit card.",4,3,,,,0,5,5,5,,,,,0,24,24,24,,,,,,,,,,,,,,,,,,,,,,,,,,,,,1,2.7197750649938826,,,,,,,,,,,,,,,,,,,,,,,,,,,,030519_p3,001,2019_Mar_05_1619,body_behavioural,3.0.4,60.05180681032672,
5,"She asked Liam politely to take the bags, and he obliged, following her to toward the exit. ",4,3,,,,0,5,5,5,,,,,0,25,25,25,,,,,,,,,,,,,,,,,,,,,,,,,,,,,1,2.3537190330098383,,,,,,,,,,,,,,,,,,,,,,,,,,,,030519_p3,001,2019_Mar_05_1619,body_behavioural,3.0.4,60.05180681032672,
5,"“Liam, I think we are making the right decision.",4,4,,,,0,5,5,5,,,,,0,26,26,26,,,,,,,,,,,,,,,,,,,,,,,,,,,,,1,2.0523280769994017,,,,,,,,,,,,,,,,,,,,,,,,,,,,030519_p3,001,2019_Mar_05_1619,body_behavioural,3.0.4,60.05180681032672,
5,This is good.” ,4,4,,,,0,5,5,5,,,,,0,27,27,27,,,,,,,,,,,,,,,,,,,,,,,,,,,,,1,0.652284673997201,,,,,,,,,,,,,,,,,,,,,,,,,,,,030519_p3,001,2019_Mar_05_1619,body_behavioural,3.0.4,60.05180681032672,
5,"“I agree,” he said, visibly relieved at the thought that they had gotten through the last fight they would ever need to have.",4,4,,,,0,5,5,5,,,,,0,28,28,28,,,,,,,,,,,,,,,,,,,,,,,,,,,,,1,4.469739011008642,,,,,,,,,,,,,,,,,,,,,,,,,,,,030519_p3,001,2019_Mar_05_1619,body_behavioural,3.0.4,60.05180681032672,
5,"“I think we can still host this dinner tonight, as long as you're still on board,” Emmanuella said.",4,4,,,,0,5,5,5,,,,,0,29,29,29,,,,,,,,,,,,,,,,,,,,,,,,,,,,,1,3.053533910002443,,,,,,,,,,,,,,,,,,,,,,,,,,,,030519_p3,001,2019_Mar_05_1619,body_behavioural,3.0.4,60.05180681032672,
5,"Liam nodded, “Yes, let’s just not tell anyone yet.” ",4,4,,,,0,5,5,5,,,,,0,30,30,30,,,,,,,,,,,,,,,,,,,,,,,,,,,,,1,1.4198236000083853,,,,,,,,,,,,,,,,,,,,,,,,,,,,030519_p3,001,2019_Mar_05_1619,body_behavioural,3.0.4,60.05180681032672,
5,"Emmanuella laughed, “Whoever leaks it loses their rights to the cat.”",4,4,,,,0,5,5,5,,,,,0,31,31,31,,,,,,,,,,,,,,,,,,,,,,,,,,,,,1,3.819963253001333,,,,,,,,,,,,,,,,,,,,,,,,,,,,030519_p3,001,2019_Mar_05_1619,body_behavioural,3.0.4,60.05180681032672,
5,"Liam rolled his eyes and managed a weak chuckle, knowing the cat would be a whole other issue to sort out later.
",4,4,,,,0,5,5,5,,,,,0,32,32,32,,,,,,,,,,,,,,,,,,,,,,,,,,,,,9,3.086095792998094,,,,,,,,,,,,,,,,,,,,,,,,,,,,030519_p3,001,2019_Mar_05_1619,body_behavioural,3.0.4,60.05180681032672,
5,,,,,,,0,5,5,5,,,,,,,,,,,,,,,,,,,,,,,,,,,,,,,,,,,,,,,,,,,,,,,,,,,,,,,,,,,,,,,,,,030519_p3,001,2019_Mar_05_1619,body_behavioural,3.0.4,60.05180681032672,
6,,,,,,,0,6,6,6,0,0,0,0,,,,,,,,,,,,,,,,,,,,,,,,,,,space,0.8506956530036405,space,5.453295904997503,space,1.0196344730065903,,,,,,,,,,,,,,,,,,,,,,,,,,,,,,030519_p3,001,2019_Mar_05_1619,body_behavioural,3.0.4,60.05180681032672,
6,"Sven and Isabel walked hurriedly from the cab into the Barcelona Airport after an incredible weekend with Isabel’s family, which had wiped away any doubts Sven had had about his decision to propose. ",1,1,,,,0,6,6,6,,,,,0,0,0,0,,,,,,,,,,,,,,,,,,,,,,,,,,,,,9,11.120793490001233,,,,,,,,,,,,,,,,,,,,,,,,,,,,030519_p3,001,2019_Mar_05_1619,body_behavioural,3.0.4,60.05180681032672,
6,"They were a little pressed for time, with only a little over an hour until their flight would take off to go back to the US, but they already had their online boarding passes and no checked luggage. ",1,1,,,,0,6,6,6,,,,,0,1,1,1,,,,,,,,,,,,,,,,,,,,,,,,,,,,,9,19.221447816002183,,,,,,,,,,,,,,,,,,,,,,,,,,,,030519_p3,001,2019_Mar_05_1619,body_behavioural,3.0.4,60.05180681032672,
6,"When Isabel stopped to rummage through her purse looking for her phone, Sven turned his back to her and took the velvet box out of his backpack, opening it to look at the ring he bought her.",1,2,,,,0,6,6,6,,,,,0,2,2,2,,,,,,,,,,,,,,,,,,,,,,,,,,,,,9,4.920486607996281,,,,,,,,,,,,,,,,,,,,,,,,,,,,030519_p3,001,2019_Mar_05_1619,body_behavioural,3.0.4,60.05180681032672,
6,"He had received her parents’ blessing during the trip, and he was almost giddy with excitement. ",1,2,,,,0,6,6,6,,,,,0,3,3,3,,,,,,,,,,,,,,,,,,,,,,,,,,,,,1,2.186332402008702,,,,,,,,,,,,,,,,,,,,,,,,,,,,030519_p3,001,2019_Mar_05_1619,body_behavioural,3.0.4,60.05180681032672,
6,"He tilted the ring backward and forward, despite having already studied it daily since he had purchased it a few weeks ago. ",1,2,,,,0,6,6,6,,,,,0,4,4,4,,,,,,,,,,,,,,,,,,,,,,,,,,,,,1,3.2199024419969646,,,,,,,,,,,,,,,,,,,,,,,,,,,,030519_p3,001,2019_Mar_05_1619,body_behavioural,3.0.4,60.05180681032672,
6,"It was a simple design, with a clear, white diamond on a thin silver band.",1,2,,,,0,6,6,6,,,,,0,5,5,5,,,,,,,,,,,,,,,,,,,,,,,,,,,,,1,1.4865238049969776,,,,,,,,,,,,,,,,,,,,,,,,,,,,030519_p3,001,2019_Mar_05_1619,body_behavioural,3.0.4,60.05180681032672,
6,"“Sven, let’s go! ” Isabel said. ",1,2,,,,0,6,6,6,,,,,0,6,6,6,,,,,,,,,,,,,,,,,,,,,,,,,,,,,9,1.101310869998997,,,,,,,,,,,,,,,,,,,,,,,,,,,,030519_p3,001,2019_Mar_05_1619,body_behavioural,3.0.4,60.05180681032672,
6,Sven discretely closed the box and put it in his pocket.,1,2,,,,0,6,6,6,,,,,0,7,7,7,,,,,,,,,,,,,,,,,,,,,,,,,,,,,9,3.5175862399919424,,,,,,,,,,,,,,,,,,,,,,,,,,,,030519_p3,001,2019_Mar_05_1619,body_behavioural,3.0.4,60.05180681032672,
6," They entered the security line, weaving through the roped walkways to the front. ",2,2,,,,0,6,6,6,,,,,0,8,8,8,,,,,,,,,,,,,,,,,,,,,,,,,,,,,9,2.8198505070031388,,,,,,,,,,,,,,,,,,,,,,,,,,,,030519_p3,001,2019_Mar_05_1619,body_behavioural,3.0.4,60.05180681032672,
6,"When they were up, Isabel realized her laptop was buried somewhere in her duffle bag. ",2,2,,,,0,6,6,6,,,,,0,9,9,9,,,,,,,,,,,,,,,,,,,,,,,,,,,,,1,2.4032291030016495,,,,,,,,,,,,,,,,,,,,,,,,,,,,030519_p3,001,2019_Mar_05_1619,body_behavioural,3.0.4,60.05180681032672,
6,Sven had to hold the growing mound of objects she pulled from her bag until she unearthed the laptop.,2,2,,,,0,6,6,6,,,,,0,10,10,10,,,,,,,,,,,,,,,,,,,,,,,,,,,,,1,4.5033307900012005,,,,,,,,,,,,,,,,,,,,,,,,,,,,030519_p3,001,2019_Mar_05_1619,body_behavioural,3.0.4,60.05180681032672,
6,She set it into a bin and then had to unstrap her leather boots and put everything else into the bins.,2,2,,,,0,6,6,6,,,,,0,11,11,11,,,,,,,,,,,,,,,,,,,,,,,,,,,,,1,3.3194191329966998,,,,,,,,,,,,,,,,,,,,,,,,,,,,030519_p3,001,2019_Mar_05_1619,body_behavioural,3.0.4,60.05180681032672,
6,"Finally, she relieved Sven of his holding duties, and he hurriedly deposited his own backpack on the belt as the people behind them glared without shame. ",2,2,,,,0,6,6,6,,,,,0,12,12,12,,,,,,,,,,,,,,,,,,,,,,,,,,,,,1,3.253170455005602,,,,,,,,,,,,,,,,,,,,,,,,,,,,030519_p3,001,2019_Mar_05_1619,body_behavioural,3.0.4,60.05180681032672,
6,"Sven went into the millimeter wave scanner after Isabel, put his hands up, and the metal bars whirled around him.",2,2,,,,0,6,6,6,,,,,0,13,13,13,,,,,,,,,,,,,,,,,,,,,,,,,,,,,9,3.9034325550019275,,,,,,,,,,,,,,,,,,,,,,,,,,,,030519_p3,001,2019_Mar_05_1619,body_behavioural,3.0.4,60.05180681032672,
6,"“Sir, please step to the side.",2,2,,,,0,6,6,6,,,,,0,14,14,14,,,,,,,,,,,,,,,,,,,,,,,,,,,,,1,0.7369022619968746,,,,,,,,,,,,,,,,,,,,,,,,,,,,030519_p3,001,2019_Mar_05_1619,body_behavioural,3.0.4,60.05180681032672,
6,"You need to empty your pockets,” the security guard said.",2,2,,,,0,6,6,6,,,,,0,15,15,15,,,,,,,,,,,,,,,,,,,,,,,,,,,,,1,1.1866088950046105,,,,,,,,,,,,,,,,,,,,,,,,,,,,030519_p3,001,2019_Mar_05_1619,body_behavioural,3.0.4,60.05180681032672,
6,"With a sinking feeling Sven realized the mistake he had made forgetting to put the ring back in his bag, as Isabel and the guard both looked at him expectantly.",2,2,,,,0,6,6,6,,,,,0,16,16,16,,,,,,,,,,,,,,,,,,,,,,,,,,,,,1,4.258116607001284,,,,,,,,,,,,,,,,,,,,,,,,,,,,030519_p3,001,2019_Mar_05_1619,body_behavioural,3.0.4,60.05180681032672,
6,"Sven,  deciding he would make the best of the situation, grabbed Isabel's hand as he reached into his pocket.",2,2,,,,0,6,6,6,,,,,0,17,17,17,,,,,,,,,,,,,,,,,,,,,,,,,,,,,1,4.300896981992992,,,,,,,,,,,,,,,,,,,,,,,,,,,,030519_p3,001,2019_Mar_05_1619,body_behavioural,3.0.4,60.05180681032672,
6,"He got down on one knee and, giggling slightly at her confused look, said, “Isabel, this isn't quite how I'd planned this, but - will you marry me?”",2,3,,,,0,6,6,6,,,,,0,18,18,18,,,,,,,,,,,,,,,,,,,,,,,,,,,,,1,2.669717370008584,,,,,,,,,,,,,,,,,,,,,,,,,,,,030519_p3,001,2019_Mar_05_1619,body_behavioural,3.0.4,60.05180681032672,
6,The security guard gasped.,2,3,,,,0,6,6,6,,,,,0,19,19,19,,,,,,,,,,,,,,,,,,,,,,,,,,,,,1,3.219820124999387,,,,,,,,,,,,,,,,,,,,,,,,,,,,030519_p3,001,2019_Mar_05_1619,body_behavioural,3.0.4,60.05180681032672,
6,All the people who were putting their shoes back on and gathering their belongings stopped what they were doing and walked closer to the couple.,2,3,,,,0,6,6,6,,,,,0,20,20,20,,,,,,,,,,,,,,,,,,,,,,,,,,,,,1,2.4530273849959485,,,,,,,,,,,,,,,,,,,,,,,,,,,,030519_p3,001,2019_Mar_05_1619,body_behavioural,3.0.4,60.05180681032672,
6,"Isabel was astonished, and far too shy to respond in front of the backup of passengers waiting behind them.",2,3,,,,0,6,6,6,,,,,0,21,21,21,,,,,,,,,,,,,,,,,,,,,,,,,,,,,1,1.9197218999906909,,,,,,,,,,,,,,,,,,,,,,,,,,,,030519_p3,001,2019_Mar_05_1619,body_behavioural,3.0.4,60.05180681032672,
6,"She attempted to stammer a response as she frantically grabbed her and Sven’s shoes, leaving Sven to retrieve their bags.",2,3,,,,0,6,6,6,,,,,0,22,22,22,,,,,,,,,,,,,,,,,,,,,,,,,,,,,1,1.9700948649988277,,,,,,,,,,,,,,,,,,,,,,,,,,,,030519_p3,001,2019_Mar_05_1619,body_behavioural,3.0.4,60.05180681032672,
6,"Both of them slipping in their socked feet, she fled onto the concourse with Sven trying to catch up behind her.",3,3,,,,0,6,6,6,,,,,0,23,23,23,,,,,,,,,,,,,,,,,,,,,,,,,,,,,1,5.0032639849960105,,,,,,,,,,,,,,,,,,,,,,,,,,,,030519_p3,001,2019_Mar_05_1619,body_behavioural,3.0.4,60.05180681032672,
6,"Everyone in the terminal was looking at them with confusion as Sven, holding the bags in one hand and the open ring box in the other, finally caught up to her.",3,3,,,,0,6,6,6,,,,,0,24,24,24,,,,,,,,,,,,,,,,,,,,,,,,,,,,,1,3.891035528999055,,,,,,,,,,,,,,,,,,,,,,,,,,,,030519_p3,001,2019_Mar_05_1619,body_behavioural,3.0.4,60.05180681032672,
6,“Isabel?”,3,3,,,,0,6,6,6,,,,,0,25,25,25,,,,,,,,,,,,,,,,,,,,,,,,,,,,,1,0.6367068830004428,,,,,,,,,,,,,,,,,,,,,,,,,,,,030519_p3,001,2019_Mar_05_1619,body_behavioural,3.0.4,60.05180681032672,
6,"He watched her face as she turned, trying to read her expression.",3,3,,,,0,6,6,6,,,,,0,26,26,26,,,,,,,,,,,,,,,,,,,,,,,,,,,,,1,2.269949555004132,,,,,,,,,,,,,,,,,,,,,,,,,,,,030519_p3,001,2019_Mar_05_1619,body_behavioural,3.0.4,60.05180681032672,
6,"Her eyes were wide, but she was smiling as she hyperventilated, “Of course yes, Sven, yes!” ",3,4,,,,0,6,6,6,,,,,0,27,27,27,,,,,,,,,,,,,,,,,,,,,,,,,,,,,1,5.220246614990174,,,,,,,,,,,,,,,,,,,,,,,,,,,,030519_p3,001,2019_Mar_05_1619,body_behavioural,3.0.4,60.05180681032672,
6,"They dropped their belongings and hugged, and Sven slipped the ring onto Isabel’s finger. ",3,4,,,,0,6,6,6,,,,,0,28,28,28,,,,,,,,,,,,,,,,,,,,,,,,,,,,,1,2.5866431550093694,,,,,,,,,,,,,,,,,,,,,,,,,,,,030519_p3,001,2019_Mar_05_1619,body_behavioural,3.0.4,60.05180681032672,
6,"After getting their shoes back on, they practically skipped to the gate, filled with joy.",3,4,,,,0,6,6,6,,,,,0,29,29,29,,,,,,,,,,,,,,,,,,,,,,,,,,,,,1,3.803186552991974,,,,,,,,,,,,,,,,,,,,,,,,,,,,030519_p3,001,2019_Mar_05_1619,body_behavioural,3.0.4,60.05180681032672,
6,Sven high-fived a confused shoe-shine attendant as they passed.,3,4,,,,0,6,6,6,,,,,0,30,30,30,,,,,,,,,,,,,,,,,,,,,,,,,,,,,9,2.6531220100005157,,,,,,,,,,,,,,,,,,,,,,,,,,,,030519_p3,001,2019_Mar_05_1619,body_behavioural,3.0.4,60.05180681032672,
6,"They sat down outside their gate, having actually made good time, until the attendant called for passengers.",3,4,,,,0,6,6,6,,,,,0,31,31,31,,,,,,,,,,,,,,,,,,,,,,,,,,,,,9,3.3198429319891147,,,,,,,,,,,,,,,,,,,,,,,,,,,,030519_p3,001,2019_Mar_05_1619,body_behavioural,3.0.4,60.05180681032672,
6,"They boarded, sitting together in first class, and had a glass of champagne to celebrate the departure into their new life together.",4,4,,,,0,6,6,6,,,,,0,32,32,32,,,,,,,,,,,,,,,,,,,,,,,,,,,,,1,2.969893385001342,,,,,,,,,,,,,,,,,,,,,,,,,,,,030519_p3,001,2019_Mar_05_1619,body_behavioural,3.0.4,60.05180681032672,
6,"Some of their neighboring passengers who had witnessed the proposal congratulated them, and a woman next to them showed them that she had been live-tweeting the whole event and that it was already going viral online.",4,4,,,,0,6,6,6,,,,,0,33,33,33,,,,,,,,,,,,,,,,,,,,,,,,,,,,,1,2.8699447450053412,,,,,,,,,,,,,,,,,,,,,,,,,,,,030519_p3,001,2019_Mar_05_1619,body_behavioural,3.0.4,60.05180681032672,
6,"Isabel slid down in her seat with her hands over her face, both embarrassed and overjoyed at the same time.
",4,4,,,,0,6,6,6,,,,,0,34,34,34,,,,,,,,,,,,,,,,,,,,,,,,,,,,,1,2.1863879450102104,,,,,,,,,,,,,,,,,,,,,,,,,,,,030519_p3,001,2019_Mar_05_1619,body_behavioural,3.0.4,60.05180681032672,
6,,,,,,,0,6,6,6,,,,,,,,,,,,,,,,,,,,,,,,,,,,,,,,,,,,,,,,,,,,,,,,,,,,,,,,,,,,,,,,,,030519_p3,001,2019_Mar_05_1619,body_behavioural,3.0.4,60.05180681032672,
7,,,,,,,0,7,7,7,0,0,0,0,,,,,,,,,,,,,,,,,,,,,,,,,,,space,0.9526050749991555,space,0.4865355100046145,space,0.5020957179949619,,,,,,,,,,,,,,,,,,,,,,,,,,,,,,030519_p3,001,2019_Mar_05_1619,body_behavioural,3.0.4,60.05180681032672,
7,"James noticed Teresa immediately as she walked into the restaurant - or, more accurately as she attempted to walk into the restaurant. ",1,1,,,,0,7,7,7,,,,,0,0,0,0,,,,,,,,,,,,,,,,,,,,,,,,,,,,,9,17.75676062000275,,,,,,,,,,,,,,,,,,,,,,,,,,,,030519_p3,001,2019_Mar_05_1619,body_behavioural,3.0.4,60.05180681032672,
7,"She was typing intently on her phone and ran straight into the diner's clear, glass door with an echoing thud. ",1,1,,,,0,7,7,7,,,,,0,1,1,1,,,,,,,,,,,,,,,,,,,,,,,,,,,,,9,6.054031712003052,,,,,,,,,,,,,,,,,,,,,,,,,,,,030519_p3,001,2019_Mar_05_1619,body_behavioural,3.0.4,60.05180681032672,
7,Everyone waiting around the cash register turned to see if she was okay.,1,1,,,,0,7,7,7,,,,,0,2,2,2,,,,,,,,,,,,,,,,,,,,,,,,,,,,,1,1.5530627700063633,,,,,,,,,,,,,,,,,,,,,,,,,,,,030519_p3,001,2019_Mar_05_1619,body_behavioural,3.0.4,60.05180681032672,
7,Teresa rubbed her head.,1,1,,,,0,7,7,7,,,,,0,3,3,3,,,,,,,,,,,,,,,,,,,,,,,,,,,,,1,0.7026642830023775,,,,,,,,,,,,,,,,,,,,,,,,,,,,030519_p3,001,2019_Mar_05_1619,body_behavioural,3.0.4,60.05180681032672,
7,"While being both confused and unembarrassed, she looked mostly indignant that the door had been in her way. ",1,1,,,,0,7,7,7,,,,,0,4,4,4,,,,,,,,,,,,,,,,,,,,,,,,,,,,,1,2.6034435870096786,,,,,,,,,,,,,,,,,,,,,,,,,,,,030519_p3,001,2019_Mar_05_1619,body_behavioural,3.0.4,60.05180681032672,
7,James found this quite charming and stole a couple glances at her until she noticed and wrinkled her eyebrows at him in suspicion. ,1,1,,,,0,7,7,7,,,,,0,5,5,5,,,,,,,,,,,,,,,,,,,,,,,,,,,,,1,7.03655223500391,,,,,,,,,,,,,,,,,,,,,,,,,,,,030519_p3,001,2019_Mar_05_1619,body_behavioural,3.0.4,60.05180681032672,
7,"The restaurant they were in was a cabin-themed diner with wooden booths and bar, walls covered in plaid blankets, and antler decorations. ",1,1,,,,0,7,7,7,,,,,0,6,6,6,,,,,,,,,,,,,,,,,,,,,,,,,,,,,9,3.3699503550014924,,,,,,,,,,,,,,,,,,,,,,,,,,,,030519_p3,001,2019_Mar_05_1619,body_behavioural,3.0.4,60.05180681032672,
7,The waiter saw that James and Teresa were both alone and motioned to both of them. ,1,1,,,,0,7,7,7,,,,,0,7,7,7,,,,,,,,,,,,,,,,,,,,,,,,,,,,,9,9.084834833003697,,,,,,,,,,,,,,,,,,,,,,,,,,,,030519_p3,001,2019_Mar_05_1619,body_behavioural,3.0.4,60.05180681032672,
7,“Right this way.,2,1,,,,0,7,7,7,,,,,0,8,8,8,,,,,,,,,,,,,,,,,,,,,,,,,,,,,1,1.2199625869980082,,,,,,,,,,,,,,,,,,,,,,,,,,,,030519_p3,001,2019_Mar_05_1619,body_behavioural,3.0.4,60.05180681032672,
7,You two don't mind sitting at the counter?” ,2,1,,,,0,7,7,7,,,,,0,9,9,9,,,,,,,,,,,,,,,,,,,,,,,,,,,,,1,1.7193735750042833,,,,,,,,,,,,,,,,,,,,,,,,,,,,030519_p3,001,2019_Mar_05_1619,body_behavioural,3.0.4,60.05180681032672,
7,They sat a seat apart from each other on the split tree trunk that served as a bench.,2,1,,,,0,7,7,7,,,,,0,10,10,10,,,,,,,,,,,,,,,,,,,,,,,,,,,,,1,2.753029900006368,,,,,,,,,,,,,,,,,,,,,,,,,,,,030519_p3,001,2019_Mar_05_1619,body_behavioural,3.0.4,60.05180681032672,
7, The waitress behind the counter gave them bright neon menus that were filled with breakfast items.,2,1,,,,0,7,7,7,,,,,0,11,11,11,,,,,,,,,,,,,,,,,,,,,,,,,,,,,1,2.0201851979945786,,,,,,,,,,,,,,,,,,,,,,,,,,,,030519_p3,001,2019_Mar_05_1619,body_behavioural,3.0.4,60.05180681032672,
7,"Teresa quickly glanced through it, then pulled out a book and started reading it while James played with the salt and pepper shakers as he tried to think of an excuse to talk to Teresa.",2,1,,,,0,7,7,7,,,,,0,12,12,12,,,,,,,,,,,,,,,,,,,,,,,,,,,,,9,6.6864114130003145,,,,,,,,,,,,,,,,,,,,,,,,,,,,030519_p3,001,2019_Mar_05_1619,body_behavioural,3.0.4,60.05180681032672,
7,"James eventually turned to her and asked, “Your forehead alright?”",2,2,,,,0,7,7,7,,,,,0,13,13,13,,,,,,,,,,,,,,,,,,,,,,,,,,,,,1,2.3192908040073235,,,,,,,,,,,,,,,,,,,,,,,,,,,,030519_p3,001,2019_Mar_05_1619,body_behavioural,3.0.4,60.05180681032672,
7,She put down her book and gave him a smirk.,2,2,,,,0,7,7,7,,,,,0,14,14,14,,,,,,,,,,,,,,,,,,,,,,,,,,,,,1,1.6528676050074864,,,,,,,,,,,,,,,,,,,,,,,,,,,,030519_p3,001,2019_Mar_05_1619,body_behavioural,3.0.4,60.05180681032672,
7,"“Have you ever been stung by a scorpion?”, she asked him, tilting her head.",2,2,,,,0,7,7,7,,,,,0,15,15,15,,,,,,,,,,,,,,,,,,,,,,,,,,,,,1,2.7535009580024052,,,,,,,,,,,,,,,,,,,,,,,,,,,,030519_p3,001,2019_Mar_05_1619,body_behavioural,3.0.4,60.05180681032672,
7,"“What?”, he asked confusedly.",2,2,,,,0,7,7,7,,,,,0,16,16,16,,,,,,,,,,,,,,,,,,,,,,,,,,,,,1,0.7357817399897613,,,,,,,,,,,,,,,,,,,,,,,,,,,,030519_p3,001,2019_Mar_05_1619,body_behavioural,3.0.4,60.05180681032672,
7, “A scorpion.”,2,2,,,,0,7,7,7,,,,,0,17,17,17,,,,,,,,,,,,,,,,,,,,,,,,,,,,,1,0.4698050799925113,,,,,,,,,,,,,,,,,,,,,,,,,,,,030519_p3,001,2019_Mar_05_1619,body_behavioural,3.0.4,60.05180681032672,
7,James began to worry that Teresa had possibly suffered a concussion in the door crash.,2,2,,,,0,7,7,7,,,,,0,18,18,18,,,,,,,,,,,,,,,,,,,,,,,,,,,,,1,2.2020075780019397,,,,,,,,,,,,,,,,,,,,,,,,,,,,030519_p3,001,2019_Mar_05_1619,body_behavioural,3.0.4,60.05180681032672,
7,"“Uh no, why?” ",2,2,,,,0,7,7,7,,,,,0,19,19,19,,,,,,,,,,,,,,,,,,,,,,,,,,,,,1,1.6206599169963738,,,,,,,,,,,,,,,,,,,,,,,,,,,,030519_p3,001,2019_Mar_05_1619,body_behavioural,3.0.4,60.05180681032672,
7,"“Because I’ve been stung by one, and since then, things like bumping into doors seem like pretty small potatoes.” ",2,2,,,,0,7,7,7,,,,,0,20,20,20,,,,,,,,,,,,,,,,,,,,,,,,,,,,,1,5.853616868000245,,,,,,,,,,,,,,,,,,,,,,,,,,,,030519_p3,001,2019_Mar_05_1619,body_behavioural,3.0.4,60.05180681032672,
7,"They carried on talking, and Teresa told him all about her encounter with a Deathstalker scorpion while she was studying abroad in Egypt.",2,2,,,,0,7,7,7,,,,,0,21,21,21,,,,,,,,,,,,,,,,,,,,,,,,,,,,,9,3.919858014996862,,,,,,,,,,,,,,,,,,,,,,,,,,,,030519_p3,001,2019_Mar_05_1619,body_behavioural,3.0.4,60.05180681032672,
7,"After a few minutes, the waitress behind the counter came up to them, “Alrighty, can I take you order?” ",3,3,,,,0,7,7,7,,,,,0,22,22,22,,,,,,,,,,,,,,,,,,,,,,,,,,,,,9,1.5674487549986225,,,,,,,,,,,,,,,,,,,,,,,,,,,,030519_p3,001,2019_Mar_05_1619,body_behavioural,3.0.4,60.05180681032672,
7,"She first looked at Teresa who answered, “I’ll have a Western Omelette and a glass of milk.”",3,3,,,,0,7,7,7,,,,,0,23,23,23,,,,,,,,,,,,,,,,,,,,,,,,,,,,,1,2.1198209400026826,,,,,,,,,,,,,,,,,,,,,,,,,,,,030519_p3,001,2019_Mar_05_1619,body_behavioural,3.0.4,60.05180681032672,
7,Then the waitress turned to James.,3,3,,,,0,7,7,7,,,,,0,24,24,24,,,,,,,,,,,,,,,,,,,,,,,,,,,,,1,0.7698494479991496,,,,,,,,,,,,,,,,,,,,,,,,,,,,030519_p3,001,2019_Mar_05_1619,body_behavioural,3.0.4,60.05180681032672,
7,"James said, “I’ll have the chocolate chip pancakes and a coffee.” ",3,3,,,,0,7,7,7,,,,,0,25,25,25,,,,,,,,,,,,,,,,,,,,,,,,,,,,,1,1.9499233959941193,,,,,,,,,,,,,,,,,,,,,,,,,,,,030519_p3,001,2019_Mar_05_1619,body_behavioural,3.0.4,60.05180681032672,
7,"“Alrighty, comin’ right up!”",3,3,,,,0,7,7,7,,,,,0,26,26,26,,,,,,,,,,,,,,,,,,,,,,,,,,,,,1,1.2364568469929509,,,,,,,,,,,,,,,,,,,,,,,,,,,,030519_p3,001,2019_Mar_05_1619,body_behavioural,3.0.4,60.05180681032672,
7,"They picked up their conversation, and James ended up telling Teresa about a concert he was going to later. ",3,3,,,,0,7,7,7,,,,,0,27,27,27,,,,,,,,,,,,,,,,,,,,,,,,,,,,,9,2.22025795999798,,,,,,,,,,,,,,,,,,,,,,,,,,,,030519_p3,001,2019_Mar_05_1619,body_behavioural,3.0.4,60.05180681032672,
7,"He invited her to come along, promising her that the concert would be indoors and absolutely free of venomous insects.",3,3,,,,0,7,7,7,,,,,0,28,28,28,,,,,,,,,,,,,,,,,,,,,,,,,,,,,1,4.483500599002582,,,,,,,,,,,,,,,,,,,,,,,,,,,,030519_p3,001,2019_Mar_05_1619,body_behavioural,3.0.4,60.05180681032672,
7,"Teresa agreed, gave him her number, and they worked out that James would pick her up before the concert and drive them there.",3,3,,,,0,7,7,7,,,,,0,29,29,29,,,,,,,,,,,,,,,,,,,,,,,,,,,,,1,2.2528930039989064,,,,,,,,,,,,,,,,,,,,,,,,,,,,030519_p3,001,2019_Mar_05_1619,body_behavioural,3.0.4,60.05180681032672,
7,"This was not what they had expected from their solitary lunch plans and were both excited, even though Teresa was doing a much better job of hiding it than James. ",3,3,,,,0,7,7,7,,,,,0,30,30,30,,,,,,,,,,,,,,,,,,,,,,,,,,,,,1,5.65369717500289,,,,,,,,,,,,,,,,,,,,,,,,,,,,030519_p3,001,2019_Mar_05_1619,body_behavioural,3.0.4,60.05180681032672,
7," After awhile,  the waitress brought out their food, and James took this opportunity to scoot closer to her on the log bench. ",4,4,,,,0,7,7,7,,,,,0,31,31,31,,,,,,,,,,,,,,,,,,,,,,,,,,,,,9,3.402912980003748,,,,,,,,,,,,,,,,,,,,,,,,,,,,030519_p3,001,2019_Mar_05_1619,body_behavioural,3.0.4,60.05180681032672,
7,"Teresa was happy to share the meal with James, despite their food tasting pretty bad. ",4,4,,,,0,7,7,7,,,,,0,32,32,32,,,,,,,,,,,,,,,,,,,,,,,,,,,,,1,3.0840877029986586,,,,,,,,,,,,,,,,,,,,,,,,,,,,030519_p3,001,2019_Mar_05_1619,body_behavioural,3.0.4,60.05180681032672,
7,"Judging by how salty the pancakes tasted, they suspected that the chef had confused the salt and sugar.",4,4,,,,0,7,7,7,,,,,0,33,33,33,,,,,,,,,,,,,,,,,,,,,,,,,,,,,1,2.3680321580031887,,,,,,,,,,,,,,,,,,,,,,,,,,,,030519_p3,001,2019_Mar_05_1619,body_behavioural,3.0.4,60.05180681032672,
7,"When the meal was over, they got up, hugged, and parted ways. ",4,4,,,,0,7,7,7,,,,,0,34,34,34,,,,,,,,,,,,,,,,,,,,,,,,,,,,,1,1.9999158909922699,,,,,,,,,,,,,,,,,,,,,,,,,,,,030519_p3,001,2019_Mar_05_1619,body_behavioural,3.0.4,60.05180681032672,
7,"James said,“I have to run, got to get to work.",4,4,,,,0,7,7,7,,,,,0,35,35,35,,,,,,,,,,,,,,,,,,,,,,,,,,,,,1,2.103741411003284,,,,,,,,,,,,,,,,,,,,,,,,,,,,030519_p3,001,2019_Mar_05_1619,body_behavioural,3.0.4,60.05180681032672,
7,See you tonight!”,4,4,,,,0,7,7,7,,,,,0,36,36,36,,,,,,,,,,,,,,,,,,,,,,,,,,,,,1,0.6367671269981656,,,,,,,,,,,,,,,,,,,,,,,,,,,,030519_p3,001,2019_Mar_05_1619,body_behavioural,3.0.4,60.05180681032672,
7,"Teresa smiled and walked towards the door without looking, and almost ran into the door again. ",4,4,,,,0,7,7,7,,,,,0,37,37,37,,,,,,,,,,,,,,,,,,,,,,,,,,,,,1,1.7706197899969993,,,,,,,,,,,,,,,,,,,,,,,,,,,,030519_p3,001,2019_Mar_05_1619,body_behavioural,3.0.4,60.05180681032672,
7,They both laughed and smiled once more goodbye. ,4,4,,,,0,7,7,7,,,,,0,38,38,38,,,,,,,,,,,,,,,,,,,,,,,,,,,,,1,1.1037735650024842,,,,,,,,,,,,,,,,,,,,,,,,,,,,030519_p3,001,2019_Mar_05_1619,body_behavioural,3.0.4,60.05180681032672,
7,,,,,,,0,7,7,7,,,,,,,,,,,,,,,,,,,,,,,,,,,,,,,,,,,,,,,,,,,,,,,,,,,,,,,,,,,,,,,,,,030519_p3,001,2019_Mar_05_1619,body_behavioural,3.0.4,60.05180681032672,
,,,,,,,,,,,,,,,,,,,,,,,,,,,,,,,,,,,,,,,,,,,,,,,,,1302.8532457529946,space,1.1530967350117862,,,,,,,,,,,,,,,,,,,,,,,,,030519_p3,001,2019_Mar_05_1619,body_behavioural,3.0.4,60.05180681032672,
,,,,,,The next task in the experiment is to recall each story to the best of your ability.,,,,,,,,,,,,,0,0,0,0,,,,,,,,,,,,,,,,,,,,,,,,,,,,,,space,1.8368364479974844,,,,,,,,,,,,,,,,,,,,,,,030519_p3,001,2019_Mar_05_1619,body_behavioural,3.0.4,60.05180681032672,
,,,,,,"You will be presented with the story title, names, the images, and a blank text box for each story.",,,,,,,,,,,,,0,1,1,1,,,,,,,,,,,,,,,,,,,,,,,,,,,,,,space,1.8697319330094615,,,,,,,,,,,,,,,,,,,,,,,030519_p3,001,2019_Mar_05_1619,body_behavioural,3.0.4,60.05180681032672,
,,,,,,Describe the story with as many details as you can remember in the space provided. ,,,,,,,,,,,,,0,2,2,2,,,,,,,,,,,,,,,,,,,,,,,,,,,,,,space,3.152700492995791,,,,,,,,,,,,,,,,,,,,,,,030519_p3,001,2019_Mar_05_1619,body_behavioural,3.0.4,60.05180681032672,
,,,,,,"When you are finished recalling one story, to move onto the next one hit ‘return’. ",,,,,,,,,,,,,0,3,3,3,,,,,,,,,,,,,,,,,,,,,,,,,,,,,,space,1.9517410090047633,,,,,,,,,,,,,,,,,,,,,,,030519_p3,001,2019_Mar_05_1619,body_behavioural,3.0.4,60.05180681032672,
,,,,,,There is a 5 minute time limit to make your response. ,,,,,,,,,,,,,0,4,4,4,,,,,,,,,,,,,,,,,,,,,,,,,,,,,,space,1.2342411179997725,,,,,,,,,,,,,,,,,,,,,,,030519_p3,001,2019_Mar_05_1619,body_behavioural,3.0.4,60.05180681032672,
0,,,,,,,,,,,,,,,,,,,,,,,0,0,0,0,,,,,,,,,,,,,,,,,,,,,,,,,,,,space,0.7165981119906064,"Aaron and lana are in the same chemistry class. aaron was planning to propose to lana in that class. he had an arrangement with the professor beforehand. so midway through the lecture, the professor asked lana to come to the front of the class and aaron proposed. she said yes and the lecture resumed. at the end of lecture the professor mentioned a midterm coming up ",,,,,,,,,,,,,,,,,,,,030519_p3,001,2019_Mar_05_1619,body_behavioural,3.0.4,60.05180681032672,
1,,,,,,,,,,,,,,,,,,,,,,,0,1,1,1,,,,,,,,,,,,,,,,,,,,,,,,,,,,space,2.286614399999962,"Carina and simon were at a grocery store as they were both hosting separate bbqs. carina striked up the first phrase by telling simon a turkey looked cute. simon cracked a joke about a cornish saying that it is the turkey's younger brother. they spent time talking as they helped each other pick out groceries. simon chose his favourite ribeye and carina chose some of her favourite vegetables. simon was slightly disheartened when he found that the line was not long. he paid for all the groceries which cost 120 dollars, saying that this was a date of some sort. they exchanged numbers and agreed to go on a proper date. they hugged outside the parking lot and gave each some glances as they parted ways.",,,,,,,,,,,,,,,,,,,,030519_p3,001,2019_Mar_05_1619,body_behavioural,3.0.4,60.05180681032672,
2,,,,,,,,,,,,,,,,,,,,,,,0,2,2,2,,,,,,,,,,,,,,,,,,,,,,,,,,,,space,0.7696298549999483,"Thomas and sadie were in a relationship and went out to dinner. sadie was showing a lot of affection to thomas, holding his hand, sitting very close to him at the back of the restaurant. however, thomas didn't know what he wanted to do with his life. he was unsure where which direction he wanted to take his career in and wanted some time apart from sadie. sadie was very upset and said that maybe they could just see each other less but thomas wanted a break. at this point, they had to order their food as the waitress arrived but they hadn't looked at the menus yet so they just got familiar options. thomas got a burger without tomatos and sadie got a reuben. thomas tried taking sadie's hand to console her but she wasn't having any of it and left the restcaurant, leaving thomas to eat his burger, which wasn't that tastey.",,,,,,,,,,,,,,,,,,,,030519_p3,001,2019_Mar_05_1619,body_behavioural,3.0.4,60.05180681032672,
3,,,,,,,,,,,,,,,,,,,,,,,0,3,3,3,,,,,,,,,,,,,,,,,,,,,,,,,,,,space,3.369845870009158,They were at the airport flying to different cities. they were also discussing a business deal involving shipments. they were able to close the deal just before wiliam's flight departed. ,,,,,,,,,,,,,,,,,,,,030519_p3,001,2019_Mar_05_1619,body_behavioural,3.0.4,60.05180681032672,
4,,,,,,,,,,,,,,,,,,,,,,,0,4,4,4,,,,,,,,,,,,,,,,,,,,,,,,,,,,space,0.6370282600109931,"Charlie and alma were in the same economics class and were both entrepeneurs with business projects. charlie was part of an investment group and alma had a business plan underway that needed funding. orginally, charlie was offering half of the required money, 15k, now and the other half later if the business is going well. however, alma argued that they needed all the funds now so that they can get their business fully operational now and not have to increase their timeline. charlie was given authorisation to give all the money so he did, relunctantly. they shook hands and were the last people to leave the lecture hall. the professor said there was going to be a midterm coming up.",,,,,,,,,,,,,,,,,,,,030519_p3,001,2019_Mar_05_1619,body_behavioural,3.0.4,60.05180681032672,
5,,,,,,,,,,,,,,,,,,,,,,,0,5,5,5,,,,,,,,,,,,,,,,,,,,,,,,,,,,space,0.43653035500028636,"The couple were going on holiday somewhere and liam was planning to propose. he inspected the diamond ring, which he got a couple weeks ago, at the airport and put it in his pocket. emmanuella had some overweight baggage so had to take some stuff out of her bag which liam was holding and put them in liam's suitcase. when going through the security machine, liam beeped. he was taken to a side and the security guard asked him to empty his pockets. at which point liam realised his fatal mistake. he shad the ring on him. so he took it out and said that eventhough this wasn't the time or place to be doing this, will you marry me. it took some time for emmanuella to respond but she was hyperventilating with joy and said yes. they cracked open some champagne in their first class seats and some other passengers congratulated them.",,,,,,,,,,,,,,,,,,,,030519_p3,001,2019_Mar_05_1619,body_behavioural,3.0.4,60.05180681032672,
6,,,,,,,,,,,,,,,,,,,,,,,0,6,6,6,,,,,,,,,,,,,,,,,,,,,,,,,,,,space,1.086201894999249,"Sven and isabelle were having a dinner party that night and went grocery shopping. they were constantly getting into arguments about the stupidest stuff and so decided to break up in the store. they were both relived that this would be one of the final fights they would have, they still had the cat to worry about though. they agreed not to tell anyone about the breakup until after the dinner party.",,,,,,,,,,,,,,,,,,,,030519_p3,001,2019_Mar_05_1619,body_behavioural,3.0.4,60.05180681032672,
7,,,,,,,,,,,,,,,,,,,,,,,0,7,7,7,,,,,,,,,,,,,,,,,,,,,,,,,,,,space,0.9863889050029684,"James and teresa were meeting each other at a restaurant for date. james was siting at the bar when he saw teresa walk straight into the glass door hitting her head. as the maitre'd escorted teresa to the bar next to james, james found her very attractive and found joy in her clumsiness. he opened with asking about her head. she then bamboozled james by asking him if he had ever been stung by a scorpion. james thought she had a concussion but went along with it anyway. he said no and teresa said that ever since being stung by a scorpion knocking into things like doors are like small potatoes. they got along very well and james invited her to an indoor concert that night with no scorpions. james ate the chocolate chip pancakes and a coffee whilst teresa had an omellette and some milk. they hugged on their way out and james had to run to work.",,,,,,,,,,,,,,,,,,,,030519_p3,001,2019_Mar_05_1619,body_behavioural,3.0.4,60.05180681032672,
,,,,,,,,,,,,,,,,,,,,,,,,,,,,,,,,,,,,,,,,,,,,,,,,,,,,,,,,,3041.687434542997,space,0.7696282230026554,,,,,,,,,,,,,,,,,030519_p3,001,2019_Mar_05_1619,body_behavioural,3.0.4,60.05180681032672,
,,,,,,The next part of the task is to answer 8 questions about each story.,,,,,,,,,,,,,,,,,,,,,0,0,0,0,,,,,,,,,,,,,,,,,,,,,,,,,,,,,,space,1.8362392249982804,,,,,,,,,,,,,,,030519_p3,001,2019_Mar_05_1619,body_behavioural,3.0.4,60.05180681032672,
,,,,,,Some of the questions are not related to the perspective you were asked to assume.,,,,,,,,,,,,,,,,,,,,,0,1,1,1,,,,,,,,,,,,,,,,,,,,,,,,,,,,,,space,2.8364573829894653,,,,,,,,,,,,,,,030519_p3,001,2019_Mar_05_1619,body_behavioural,3.0.4,60.05180681032672,
,,,,,,"We realize that we did not tell you to think of these questions during the story, but do your best to answer them.",,,,,,,,,,,,,,,,,,,,,0,2,2,2,,,,,,,,,,,,,,,,,,,,,,,,,,,,,,space,3.2697459699993487,,,,,,,,,,,,,,,030519_p3,001,2019_Mar_05_1619,body_behavioural,3.0.4,60.05180681032672,
,,,,,,"When you have finished typing your answer, hit ‘return’ to submit your answer and move onto the next question. ",,,,,,,,,,,,,,,,,,,,,0,3,3,3,,,,,,,,,,,,,,,,,,,,,,,,,,,,,,space,2.2198499720107066,,,,,,,,,,,,,,,030519_p3,001,2019_Mar_05_1619,body_behavioural,3.0.4,60.05180681032672,
0,,,,,,,,,,,,,,,,,,,,,,,,,,,,,,,0,0,0,0,,,,,,,,,,,,,,,,,,,,,,A midterm on thursday,,,,,,space,0.6699197069974616,Doesnt seem too nervous and had planned the proposal with the professor,primed first,Diamond ,Professor,The whole lecture class,Big with cushioned seats,"Chemsitry, the periodic table, electronic configurations",The ionic bonding between the oppositely charged na and cl ions,A midterm on thursday,,,,030519_p3,001,2019_Mar_05_1619,body_behavioural,3.0.4,60.05180681032672,
1,,,,,,,,,,,,,,,,,,,,,,,,,,,,,,,0,1,1,1,,,,,,,,,,,,,,,,,,,,,,Carina has a bbq to host,,,,,,space,1.1027007129887352,Not too busy with many aisles,non-primed first,"Ribeyes, vegetables",Not too long,"120, credit card","Carina notices simon, she thinks he is cute",Carina says that turkey looks cute,"Simon, getting a meal",Carina has a bbq to host,,,,030519_p3,001,2019_Mar_05_1619,body_behavioural,3.0.4,60.05180681032672,
2,,,,,,,,,,,,,,,,,,,,,,,,,,,,,,,0,2,2,2,,,,,,,,,,,,,,,,,,,,,,No,,,,,,space,0.7195369449909776,Dim light with many tables,non-primed first,Huge with many unfamiliar items,"Hamburger without tomatoes, thomas, and a reuben, sadie.",Not too much,"Thomas doesnt feel to happy, he seemed on edge",He doesnt know what direction he wants to take his life in,Very sad,No,,,,030519_p3,001,2019_Mar_05_1619,body_behavioural,3.0.4,60.05180681032672,
3,,,,,,,,,,,,,,,,,,,,,,,,,,,,,,,0,3,3,3,,,,,,,,,,,,,,,,,,,,,,A good deal,,,,,,space,0.7334365799906664,30 mins,non-primed first,Take off their shoes belts and put their backpacks through the xray machine,They are talking about a business deal involving shipments. they feel good,"They are taking different flights, but at the front",Shipping,60 k,Very good,A good deal,,,,030519_p3,001,2019_Mar_05_1619,body_behavioural,3.0.4,60.05180681032672,
4,,,,,,,,,,,,,,,,,,,,,,,,,,,,,,,0,4,4,4,,,,,,,,,,,,,,,,,,,,,,"30k to alma, both feeling good",,,,,,space,0.7368296069907956,Big with wooden seats,primed first,"Economics, about the price mechanism ",...,Midterm next thursday,Alma has a startup and charlie is part of an investment group,"30k to start her business, but charlie only wants to put in 15","Charlie hesitates at first to put in 30k, but does it anyway since he has the authority to do so","30k to alma, both feeling good",,,,030519_p3,001,2019_Mar_05_1619,body_behavioural,3.0.4,60.05180681032672,
5,,,,,,,,,,,,,,,,,,,,,,,,,,,,,,,0,5,5,5,,,,,,,,,,,,,,,,,,,,,,Yes,,,,,,space,0.4697291500051506,Big with many aisles,primed first,Pasta,Not too long,"30, emmanuella pays with a credit card",They feel fed up with each other and emmanuella initiates it,They keep arguing about the stupidest things all the time,Liam also thinks that a breakup is the move,Yes,,,,030519_p3,001,2019_Mar_05_1619,body_behavioural,3.0.4,60.05180681032672,
6,,,,,,,,,,,,,,,,,,,,,,,,,,,,,,,0,6,6,6,,,,,,,,,,,,,,,,,,,,,,First class,,,,,,space,0.8363216699945042,Anxious,non-primed first,Diamond,No,The security guard and passangers at the security gate,30 mins,Isabel had to move some stuff from her bag,"Eccstatic, they are engaged!",First class,,,,030519_p3,001,2019_Mar_05_1619,body_behavioural,3.0.4,60.05180681032672,
7,,,,,,,,,,,,,,,,,,,,,,,,,,,,,,,0,7,7,7,,,,,,,,,,,,,,,,,,,,,,James has to go to work,,,,,,space,0.4530089570034761,Nice dim light with a bar,primed first,Brunch ,"Choc chip pancakes with cofee, james, and omellette with milk, teresa.",Its not too good but they share anyway,James notices teresa as she walks into a glass door,About her head as she bumped it,"James, going to an indoor concert",James has to go to work,,,,030519_p3,001,2019_Mar_05_1619,body_behavioural,3.0.4,60.05180681032672,
,,,,,,,,,,,,,,,,,,,,,,,,,,,,,,,,,,,,,,,,,,,,,,,,,,,,,,,,,,,,,,,,,,,,,,,,,3804.3562340759963,space,0.5529609279910801,030519_p3,001,2019_Mar_05_1619,body_behavioural,3.0.4,60.05180681032672,
,,,,,,,,,,,,,,,,,,,,,,,,,,,,,,,,,,,0,0,0,0,,,,,,,,,,,,,,,,,,,,,,,,,,,,,,,,,,,,,,030519_p3,001,2019_Mar_05_1619,body_behavioural,3.0.4,60.05180681032672,
,,,,,,,,,,,,,,,,,,,,,,,,,,,,,,,,,,,1,0,1,0,,,,,,,,,,,,,,,,,,,,,,,,,,,,,,,,,,,,,,030519_p3,001,2019_Mar_05_1619,body_behavioural,3.0.4,60.05180681032672,
,,,,,,,,,,,,,,,,,,,,,,,,,,,,,,,,,,,2,0,2,0,,,,,,,,,,,,,,,,,,,,,,,,,,,,,,,,,,,,,,030519_p3,001,2019_Mar_05_1619,body_behavioural,3.0.4,60.05180681032672,
,,,,,,,,,,,,,,,,,,,,,,,,,,,,,,,,,,,3,0,3,0,,,,,,,,,,,,,,,,,,,,,,,,,,,,,,,,,,,,,,030519_p3,001,2019_Mar_05_1619,body_behavioural,3.0.4,60.05180681032672,
,,,,,,,,,,,,,,,,,,,,,,,,,,,,,,,,,,,4,0,4,0,,,,,,,,,,,,,,,,,,,,,,,,,,,,,,,,,,,,,,030519_p3,001,2019_Mar_05_1619,body_behavioural,3.0.4,60.05180681032672,
