count,storyText,locationEvent,socialEvent,locationEventSize,socialEventSize,instructText,trials.thisRepN,trials.thisTrialN,trials.thisN,trials.thisIndex,trials_7.thisRepN,trials_7.thisTrialN,trials_7.thisN,trials_7.thisIndex,trials_2.thisRepN,trials_2.thisTrialN,trials_2.thisN,trials_2.thisIndex,trials_3.thisRepN,trials_3.thisTrialN,trials_3.thisN,trials_3.thisIndex,trials_4.thisRepN,trials_4.thisTrialN,trials_4.thisN,trials_4.thisIndex,trials_5.thisRepN,trials_5.thisTrialN,trials_5.thisN,trials_5.thisIndex,trials_6.thisRepN,trials_6.thisTrialN,trials_6.thisN,trials_6.thisIndex,trials_8.thisRepN,trials_8.thisTrialN,trials_8.thisN,trials_8.thisIndex,order of stories,order of perspectives,key_resp_8.keys,key_resp_8.rt,key_resp_5.keys,key_resp_5.rt,key_resp_7.keys,key_resp_7.rt,story_presses.keys,story_presses.rt,story time,key_resp_6.keys,key_resp_6.rt,key_resp_2.keys,key_resp_2.rt,key_resp_10.keys,key_resp_10.rt,recall,recall time,key_resp_12.keys,key_resp_12.rt,key_resp_3.keys,key_resp_3.rt,key_resp_11.keys,key_resp_11.rt,question1_answer,order of question,question2_answer,question3_answer,question4_answer,question5_answer,question6_answer,question7_answer,question8_answer,questions time,key_resp_13.keys,key_resp_13.rt,participant,session,date,expName,psychopyVersion,frameRate,
0,,,,,,,0,0,0,0,0,0,0,0,,,,,,,,,,,,,,,,,,,,,,,,,[44 34 33 43 21 12 11 22],"['Location' 'Social' 'Location' 'Social' 'Social' 'Social' 'Location'
 'Location']",space,8.7555861419969,space,5.520060807000846,space,5.320048312001745,,,,,,,,,,,,,,,,,,,,,,,,,,,,,,030719_p2,001,2019_Mar_07_1149,body_behavioural,3.0.4,59.81067540787776,
0,"Leon and  Ariana hurried into the classroom at the same time, and Leon did a double-take when he saw her. ",1,1,,,,0,0,0,0,,,,,0,0,0,0,,,,,,,,,,,,,,,,,,,,,,,,,,,,,9,27.15498713499983,,,,,,,,,,,,,,,,,,,,,,,,,,,,030719_p2,001,2019_Mar_07_1149,body_behavioural,3.0.4,59.81067540787776,
0,"This was his first day after transferring to this university, and he had assumed that he wouldn’t know anyone on campus, but he couldn't shake the nagging feeling  that he had seen her somewhere before. ",1,1,,,,0,0,0,0,,,,,0,1,1,1,,,,,,,,,,,,,,,,,,,,,,,,,,,,,1,13.937220905005233,,,,,,,,,,,,,,,,,,,,,,,,,,,,030719_p2,001,2019_Mar_07_1149,body_behavioural,3.0.4,59.81067540787776,
0,"They were both a bit late, so they quickly slid into seats next to each other in the back of the small classroom.",1,1,,,,0,0,0,0,,,,,0,2,2,2,,,,,,,,,,,,,,,,,,,,,,,,,,,,,1,7.867903922000551,,,,,,,,,,,,,,,,,,,,,,,,,,,,030719_p2,001,2019_Mar_07_1149,body_behavioural,3.0.4,59.81067540787776,
0,"This room was usually used for small meetings, but had been rearranged with the table pushed to the side and chairs set up in rows to face the projector screen. ",1,1,,,,0,0,0,0,,,,,0,3,3,3,,,,,,,,,,,,,,,,,,,,,,,,,,,,,9,17.320989555009874,,,,,,,,,,,,,,,,,,,,,,,,,,,,030719_p2,001,2019_Mar_07_1149,body_behavioural,3.0.4,59.81067540787776,
0,"There were no windows in the room, since they were down in the sub-basement of the history department.",1,1,,,,0,0,0,0,,,,,0,4,4,4,,,,,,,,,,,,,,,,,,,,,,,,,,,,,9,3.919774440000765,,,,,,,,,,,,,,,,,,,,,,,,,,,,030719_p2,001,2019_Mar_07_1149,body_behavioural,3.0.4,59.81067540787776,
0,"Leon, trying to figure out where he had seen her before, could not stop looking over at Ariana.",1,1,,,,0,0,0,0,,,,,0,5,5,5,,,,,,,,,,,,,,,,,,,,,,,,,,,,,9,8.087033984993468,,,,,,,,,,,,,,,,,,,,,,,,,,,,030719_p2,001,2019_Mar_07_1149,body_behavioural,3.0.4,59.81067540787776,
0,Ariana was oblivious to Leon’s gaze and was only focused on getting ready for class. ,1,1,,,,0,0,0,0,,,,,0,6,6,6,,,,,,,,,,,,,,,,,,,,,,,,,,,,,1,5.153370006999467,,,,,,,,,,,,,,,,,,,,,,,,,,,,030719_p2,001,2019_Mar_07_1149,body_behavioural,3.0.4,59.81067540787776,
0,"“Good afternoon class,” the professor began.",2,1,,,,0,0,0,0,,,,,0,7,7,7,,,,,,,,,,,,,,,,,,,,,,,,,,,,,9,2.8031035419990076,,,,,,,,,,,,,,,,,,,,,,,,,,,,030719_p2,001,2019_Mar_07_1149,body_behavioural,3.0.4,59.81067540787776,
0,“Welcome to Egyptian Cultural Studies. ,2,1,,,,0,0,0,0,,,,,0,8,8,8,,,,,,,,,,,,,,,,,,,,,,,,,,,,,1,2.767415242997231,,,,,,,,,,,,,,,,,,,,,,,,,,,,030719_p2,001,2019_Mar_07_1149,body_behavioural,3.0.4,59.81067540787776,
0,"Today we will be talking about mummification, one of the most famous and often misunderstood customs in ancient Egyptian society.”",2,1,,,,0,0,0,0,,,,,0,9,9,9,,,,,,,,,,,,,,,,,,,,,,,,,,,,,1,2.9697665499988943,,,,,,,,,,,,,,,,,,,,,,,,,,,,030719_p2,001,2019_Mar_07_1149,body_behavioural,3.0.4,59.81067540787776,
0,Leon pulled out his notebook and tried to concentrate on the class.,2,1,,,,0,0,0,0,,,,,0,10,10,10,,,,,,,,,,,,,,,,,,,,,,,,,,,,,1,7.320010032010032,,,,,,,,,,,,,,,,,,,,,,,,,,,,030719_p2,001,2019_Mar_07_1149,body_behavioural,3.0.4,59.81067540787776,
0,Within a few minutes though he found his attention wandering back to Ariana.,2,1,,,,0,0,0,0,,,,,0,11,11,11,,,,,,,,,,,,,,,,,,,,,,,,,,,,,1,2.2367006370041054,,,,,,,,,,,,,,,,,,,,,,,,,,,,030719_p2,001,2019_Mar_07_1149,body_behavioural,3.0.4,59.81067540787776,
0,"He decided to do something about his hunch so he ripped off a corner of a page in his notebook, wrote a note, and set it on her desk.",2,1,,,,0,0,0,0,,,,,0,12,12,12,,,,,,,,,,,,,,,,,,,,,,,,,,,,,1,6.136405760000343,,,,,,,,,,,,,,,,,,,,,,,,,,,,030719_p2,001,2019_Mar_07_1149,body_behavioural,3.0.4,59.81067540787776,
0,"“Hi, sorry to distract you from mummies, but you look really familiar," it read.",2,2,,,,0,0,0,0,,,,,0,13,13,13,,,,,,,,,,,,,,,,,,,,,,,,,,,,,1,7.270180342005915,,,,,,,,,,,,,,,,,,,,,,,,,,,,030719_p2,001,2019_Mar_07_1149,body_behavioural,3.0.4,59.81067540787776,
0,It continued: “Do I know you from somewhere?”,2,2,,,,0,0,0,0,,,,,0,14,14,14,,,,,,,,,,,,,,,,,,,,,,,,,,,,,1,4.2696143119974295,,,,,,,,,,,,,,,,,,,,,,,,,,,,030719_p2,001,2019_Mar_07_1149,body_behavioural,3.0.4,59.81067540787776,
0,"She looked at the note with surprise, and then turned to notice Leon for the first time. ",2,2,,,,0,0,0,0,,,,,0,15,15,15,,,,,,,,,,,,,,,,,,,,,,,,,,,,,1,2.752454809990013,,,,,,,,,,,,,,,,,,,,,,,,,,,,030719_p2,001,2019_Mar_07_1149,body_behavioural,3.0.4,59.81067540787776,
0,"She instantly liked him when she saw him; he had very soft eyes and sharp features, a combination that made him seem  trustworthy and genuine.",2,2,,,,0,0,0,0,,,,,0,16,16,16,,,,,,,,,,,,,,,,,,,,,,,,,,,,,1,4.654190604996984,,,,,,,,,,,,,,,,,,,,,,,,,,,,030719_p2,001,2019_Mar_07_1149,body_behavioural,3.0.4,59.81067540787776,
0,He smiled at her and she flashed him a smile back.,2,2,,,,0,0,0,0,,,,,0,17,17,17,,,,,,,,,,,,,,,,,,,,,,,,,,,,,1,4.803230942008668,,,,,,,,,,,,,,,,,,,,,,,,,,,,030719_p2,001,2019_Mar_07_1149,body_behavioural,3.0.4,59.81067540787776,
0,Then she turned the note over to the back and started to write a reply.,2,2,,,,0,0,0,0,,,,,0,18,18,18,,,,,,,,,,,,,,,,,,,,,,,,,,,,,1,2.084134044998791,,,,,,,,,,,,,,,,,,,,,,,,,,,,030719_p2,001,2019_Mar_07_1149,body_behavioural,3.0.4,59.81067540787776,
0,"Meanwhile the professor continued, “One may well question why the ancient Egyptians spent so much time and effort on their funerary practices.",3,2,,,,0,0,0,0,,,,,0,19,19,19,,,,,,,,,,,,,,,,,,,,,,,,,,,,,1,7.770151800010353,,,,,,,,,,,,,,,,,,,,,,,,,,,,030719_p2,001,2019_Mar_07_1149,body_behavioural,3.0.4,59.81067540787776,
0,"Not only was the mummification process itself a complicated affair, but there were also elaborate rituals before, during, and after death.",3,2,,,,0,0,0,0,,,,,0,20,20,20,,,,,,,,,,,,,,,,,,,,,,,,,,,,,1,6.986805449996609,,,,,,,,,,,,,,,,,,,,,,,,,,,,030719_p2,001,2019_Mar_07_1149,body_behavioural,3.0.4,59.81067540787776,
0,The practice required teams of experts with years of training and took a total of 70 days to complete.” ,3,2,,,,0,0,0,0,,,,,0,21,21,21,,,,,,,,,,,,,,,,,,,,,,,,,,,,,1,2.553160037001362,,,,,,,,,,,,,,,,,,,,,,,,,,,,030719_p2,001,2019_Mar_07_1149,body_behavioural,3.0.4,59.81067540787776,
0,"Ariana passed the note back to Leon, and she had replied, “No, but maybe my twin and I were separated at birth.”",3,2,,,,0,0,0,0,,,,,0,22,22,22,,,,,,,,,,,,,,,,,,,,,,,,,,,,,1,9.58654936500534,,,,,,,,,,,,,,,,,,,,,,,,,,,,030719_p2,001,2019_Mar_07_1149,body_behavioural,3.0.4,59.81067540787776,
0,They passed notes back and forth the whole class like they were back in high school.,3,2,,,,0,0,0,0,,,,,0,23,23,23,,,,,,,,,,,,,,,,,,,,,,,,,,,,,1,2.7530902220023563,,,,,,,,,,,,,,,,,,,,,,,,,,,,030719_p2,001,2019_Mar_07_1149,body_behavioural,3.0.4,59.81067540787776,
0,"Near the end of the lecture, Leon wrote, “Would you like to go to dinner tonight?” ",3,3,,,,0,0,0,0,,,,,0,24,24,24,,,,,,,,,,,,,,,,,,,,,,,,,,,,,1,4.203187824998167,,,,,,,,,,,,,,,,,,,,,,,,,,,,030719_p2,001,2019_Mar_07_1149,body_behavioural,3.0.4,59.81067540787776,
0,"Ariana read the note, and looked at him and nodded her head",3,3,,,,0,0,0,0,,,,,0,25,25,25,,,,,,,,,,,,,,,,,,,,,,,,,,,,,1,2.9532359470031224,,,,,,,,,,,,,,,,,,,,,,,,,,,,030719_p2,001,2019_Mar_07_1149,body_behavioural,3.0.4,59.81067540787776,
0,"She wrote back on the slip of paper, “Pick me up at 6 in front of Patton Hall.”",3,3,,,,0,0,0,0,,,,,0,26,26,26,,,,,,,,,,,,,,,,,,,,,,,,,,,,,1,4.653220530002727,,,,,,,,,,,,,,,,,,,,,,,,,,,,030719_p2,001,2019_Mar_07_1149,body_behavioural,3.0.4,59.81067540787776,
0,Then the professor ended the lecture and announced to the class that they would have their first quiz next class on Friday on mummification. ,4,3,,,,0,0,0,0,,,,,0,27,27,27,,,,,,,,,,,,,,,,,,,,,,,,,,,,,1,11.069989954994526,,,,,,,,,,,,,,,,,,,,,,,,,,,,030719_p2,001,2019_Mar_07_1149,body_behavioural,3.0.4,59.81067540787776,
0,"Everyone packed up and started heading out, as well as Sophie and Leon.",4,3,,,,0,0,0,0,,,,,0,28,28,28,,,,,,,,,,,,,,,,,,,,,,,,,,,,,1,3.0198374150058953,,,,,,,,,,,,,,,,,,,,,,,,,,,,030719_p2,001,2019_Mar_07_1149,body_behavioural,3.0.4,59.81067540787776,
0,"They approached each other smiling, and Leon said, “Well it was great to meet you, again, or maybe not again, but regardless it was great to meet you.” ",4,3,,,,0,0,0,0,,,,,0,29,29,29,,,,,,,,,,,,,,,,,,,,,,,,,,,,,1,6.836455860000569,,,,,,,,,,,,,,,,,,,,,,,,,,,,030719_p2,001,2019_Mar_07_1149,body_behavioural,3.0.4,59.81067540787776,
0,"She replied, “Yes, it was.",4,4,,,,0,0,0,0,,,,,0,30,30,30,,,,,,,,,,,,,,,,,,,,,,,,,,,,,1,1.4670211470074719,,,,,,,,,,,,,,,,,,,,,,,,,,,,030719_p2,001,2019_Mar_07_1149,body_behavioural,3.0.4,59.81067540787776,
0,"I have to run to my next class, but I’ll see you later tonight.” ",4,4,,,,0,0,0,0,,,,,0,31,31,31,,,,,,,,,,,,,,,,,,,,,,,,,,,,,1,1.6701580939989071,,,,,,,,,,,,,,,,,,,,,,,,,,,,030719_p2,001,2019_Mar_07_1149,body_behavioural,3.0.4,59.81067540787776,
0,"She waved as they parted ways outside of the door of the classroom, and Leon was still trying to figure out where he had seen her before as he watched her go. ",4,4,,,,0,0,0,0,,,,,0,32,32,32,,,,,,,,,,,,,,,,,,,,,,,,,,,,,1,3.3698973370046588,,,,,,,,,,,,,,,,,,,,,,,,,,,,030719_p2,001,2019_Mar_07_1149,body_behavioural,3.0.4,59.81067540787776,
0,,,,,,,0,0,0,0,,,,,,,,,,,,,,,,,,,,,,,,,,,,,,,,,,,,,,,,,,,,,,,,,,,,,,,,,,,,,,,,,,030719_p2,001,2019_Mar_07_1149,body_behavioural,3.0.4,59.81067540787776,
1,,,,,,,0,1,1,1,0,0,0,0,,,,,,,,,,,,,,,,,,,,,,,,,,,space,3.2698765759996604,space,1.403170563004096,space,1.4198051800049143,,,,,,,,,,,,,,,,,,,,,,,,,,,,,,030719_p2,001,2019_Mar_07_1149,body_behavioural,3.0.4,59.81067540787776,
1,,,,,,,0,1,1,1,1,0,1,0,,,,,,,,,,,,,,,,,,,,,,,,,,,,,,,space,0.8864914369914914,,,,,,,,,,,,,,,,,,,,,,,,,,,,,,030719_p2,001,2019_Mar_07_1149,body_behavioural,3.0.4,59.81067540787776,
1,,,,,,,0,1,1,1,2,0,2,0,,,,,,,,,,,,,,,,,,,,,,,,,,,,,,,space,0.8365384219941916,,,,,,,,,,,,,,,,,,,,,,,,,,,,,,030719_p2,001,2019_Mar_07_1149,body_behavioural,3.0.4,59.81067540787776,
1,,,,,,,0,1,1,1,3,0,3,0,,,,,,,,,,,,,,,,,,,,,,,,,,,,,,,space,1.7697219069959829,,,,,,,,,,,,,,,,,,,,,,,,,,,,,,030719_p2,001,2019_Mar_07_1149,body_behavioural,3.0.4,59.81067540787776,
1,,,,,,,0,1,1,1,4,0,4,0,,,,,,,,,,,,,,,,,,,,,,,,,,,,,,,space,0.9529069919954054,,,,,,,,,,,,,,,,,,,,,,,,,,,,,,030719_p2,001,2019_Mar_07_1149,body_behavioural,3.0.4,59.81067540787776,
1,Charlie saw Alma as they walked into class and he motioned for her to come sit in the back next to him: they had business to discuss.,1,1,,,,0,1,1,1,,,,,0,0,0,0,,,,,,,,,,,,,,,,,,,,,,,,,,,,,9,14.537554922993877,,,,,,,,,,,,,,,,,,,,,,,,,,,,030719_p2,001,2019_Mar_07_1149,body_behavioural,3.0.4,59.81067540787776,
1,Charlie and Alma were both economics students with entrepreneurial bents.,1,1,,,,0,1,1,1,,,,,0,1,1,1,,,,,,,,,,,,,,,,,,,,,,,,,,,,,1,7.284465200005798,,,,,,,,,,,,,,,,,,,,,,,,,,,,030719_p2,001,2019_Mar_07_1149,body_behavioural,3.0.4,59.81067540787776,
1,They were also both very busy and in the same class.,1,1,,,,0,1,1,1,,,,,0,2,2,2,,,,,,,,,,,,,,,,,,,,,,,,,,,,,1,5.570217041997239,,,,,,,,,,,,,,,,,,,,,,,,,,,,030719_p2,001,2019_Mar_07_1149,body_behavioural,3.0.4,59.81067540787776,
1,"After talking at a party, Charlie had discovered that Alma was looking for financing for her web development company.",1,1,,,,0,1,1,1,,,,,0,3,3,3,,,,,,,,,,,,,,,,,,,,,,,,,,,,,1,5.519959484998253,,,,,,,,,,,,,,,,,,,,,,,,,,,,030719_p2,001,2019_Mar_07_1149,body_behavioural,3.0.4,59.81067540787776,
1,It was serendipitous because he had been talking with other members of his venture capital group about making an investment. ,1,1,,,,0,1,1,1,,,,,0,4,4,4,,,,,,,,,,,,,,,,,,,,,,,,,,,,,1,4.453278977001901,,,,,,,,,,,,,,,,,,,,,,,,,,,,030719_p2,001,2019_Mar_07_1149,body_behavioural,3.0.4,59.81067540787776,
1,"His financial group had come to a decision that morning about Alma’s idea, and he didn't want to wait until after class to discuss the proposal with her. ",1,1,,,,0,1,1,1,,,,,0,5,5,5,,,,,,,,,,,,,,,,,,,,,,,,,,,,,1,4.953270675003296,,,,,,,,,,,,,,,,,,,,,,,,,,,,030719_p2,001,2019_Mar_07_1149,body_behavioural,3.0.4,59.81067540787776,
1,"The class was in a large auditorium with small, foldable desks on the side of each cushioned chair. ",1,1,,,,0,1,1,1,,,,,0,6,6,6,,,,,,,,,,,,,,,,,,,,,,,,,,,,,9,2.4198157700011507,,,,,,,,,,,,,,,,,,,,,,,,,,,,030719_p2,001,2019_Mar_07_1149,body_behavioural,3.0.4,59.81067540787776,
1,"There were large windows on both sides of the hall, and they could see the first flurries of a winter storm starting outside. ",1,1,,,,0,1,1,1,,,,,0,7,7,7,,,,,,,,,,,,,,,,,,,,,,,,,,,,,1,5.7362246999982744,,,,,,,,,,,,,,,,,,,,,,,,,,,,030719_p2,001,2019_Mar_07_1149,body_behavioural,3.0.4,59.81067540787776,
1,"“Here we are at Lecture Seven already in History of the Eternal City,” said the professor. ",2,1,,,,0,1,1,1,,,,,0,8,8,8,,,,,,,,,,,,,,,,,,,,,,,,,,,,,1,5.601117341997451,,,,,,,,,,,,,,,,,,,,,,,,,,,,030719_p2,001,2019_Mar_07_1149,body_behavioural,3.0.4,59.81067540787776,
1,“We're going to talk today about the age of the first Roman emperor: Augustus.” ,2,1,,,,0,1,1,1,,,,,0,9,9,9,,,,,,,,,,,,,,,,,,,,,,,,,,,,,1,1.4863483569934033,,,,,,,,,,,,,,,,,,,,,,,,,,,,030719_p2,001,2019_Mar_07_1149,body_behavioural,3.0.4,59.81067540787776,
1,"She went into some recap of the last lecture, and Charlie took this as an opportunity to start talking to Alma.",2,1,,,,0,1,1,1,,,,,0,10,10,10,,,,,,,,,,,,,,,,,,,,,,,,,,,,,1,11.00134966999758,,,,,,,,,,,,,,,,,,,,,,,,,,,,030719_p2,001,2019_Mar_07_1149,body_behavioural,3.0.4,59.81067540787776,
1,"“Okay so I’ve been thinking about your startup idea, and I have talked about it with my fellow investors.",2,2,,,,0,1,1,1,,,,,0,11,11,11,,,,,,,,,,,,,,,,,,,,,,,,,,,,,1,3.0030180050089257,,,,,,,,,,,,,,,,,,,,,,,,,,,,030719_p2,001,2019_Mar_07_1149,body_behavioural,3.0.4,59.81067540787776,
1,We’d like to invest half of what you originally suggested.,2,2,,,,0,1,1,1,,,,,0,12,12,12,,,,,,,,,,,,,,,,,,,,,,,,,,,,,1,7.720114245006698,,,,,,,,,,,,,,,,,,,,,,,,,,,,030719_p2,001,2019_Mar_07_1149,body_behavioural,3.0.4,59.81067540787776,
1,"Rather than $30,000, we start with $15,000.",2,2,,,,0,1,1,1,,,,,0,13,13,13,,,,,,,,,,,,,,,,,,,,,,,,,,,,,1,2.5864651150041027,,,,,,,,,,,,,,,,,,,,,,,,,,,,030719_p2,001,2019_Mar_07_1149,body_behavioural,3.0.4,59.81067540787776,
1,We would see how the company does and then invest the other half later.” ,2,2,,,,0,1,1,1,,,,,0,14,14,14,,,,,,,,,,,,,,,,,,,,,,,,,,,,,1,2.600841637002304,,,,,,,,,,,,,,,,,,,,,,,,,,,,030719_p2,001,2019_Mar_07_1149,body_behavioural,3.0.4,59.81067540787776,
1,"Alma, tapping her pen on her notebook, narrowed her eyes and pursed her lips.",2,2,,,,0,1,1,1,,,,,0,15,15,15,,,,,,,,,,,,,,,,,,,,,,,,,,,,,1,1.702671286999248,,,,,,,,,,,,,,,,,,,,,,,,,,,,030719_p2,001,2019_Mar_07_1149,body_behavioural,3.0.4,59.81067540787776,
1,She turned back to the lecture as she considered this.,2,2,,,,0,1,1,1,,,,,0,16,16,16,,,,,,,,,,,,,,,,,,,,,,,,,,,,,1,6.120277524998528,,,,,,,,,,,,,,,,,,,,,,,,,,,,030719_p2,001,2019_Mar_07_1149,body_behavioural,3.0.4,59.81067540787776,
1,"The professor was going on: “The senate had conferred upon him the title of Augustus the sacred and revered one, the restorer of traditional values, the city’s new religious leader, the restorer of temples. ",3,2,,,,0,1,1,1,,,,,0,17,17,17,,,,,,,,,,,,,,,,,,,,,,,,,,,,,1,8.903352877008729,,,,,,,,,,,,,,,,,,,,,,,,,,,,030719_p2,001,2019_Mar_07_1149,body_behavioural,3.0.4,59.81067540787776,
1,"Augustus also sought to beautify Rome, make it into a new Athens, and dispel the criticisms of Rome as disorganized and ugly.”",3,2,,,,0,1,1,1,,,,,0,18,18,18,,,,,,,,,,,,,,,,,,,,,,,,,,,,,1,2.0193705670099007,,,,,,,,,,,,,,,,,,,,,,,,,,,,030719_p2,001,2019_Mar_07_1149,body_behavioural,3.0.4,59.81067540787776,
1,"Alma turned back to Charlie and offered her rebuttal, “I don’t know about that: it’s not going to be possible to implement our ideas effectively unless the project is fully funded. ",3,3,,,,0,1,1,1,,,,,0,19,19,19,,,,,,,,,,,,,,,,,,,,,,,,,,,,,1,9.33467597499839,,,,,,,,,,,,,,,,,,,,,,,,,,,,030719_p2,001,2019_Mar_07_1149,body_behavioural,3.0.4,59.81067540787776,
1,We would have to find other investors and that would set us back in our timeline. ,3,3,,,,0,1,1,1,,,,,0,20,20,20,,,,,,,,,,,,,,,,,,,,,,,,,,,,,1,2.969895467002061,,,,,,,,,,,,,,,,,,,,,,,,,,,,030719_p2,001,2019_Mar_07_1149,body_behavioural,3.0.4,59.81067540787776,
1,"Our profit projections assumed we'd be starting relatively soon, not months down the line.” ",3,3,,,,0,1,1,1,,,,,0,21,21,21,,,,,,,,,,,,,,,,,,,,,,,,,,,,,1,3.08415875499486,,,,,,,,,,,,,,,,,,,,,,,,,,,,030719_p2,001,2019_Mar_07_1149,body_behavioural,3.0.4,59.81067540787776,
1,They whispered back and forth during the whole class in order to work out a compromise. ,3,3,,,,0,1,1,1,,,,,0,22,22,22,,,,,,,,,,,,,,,,,,,,,,,,,,,,,1,2.1865127850032877,,,,,,,,,,,,,,,,,,,,,,,,,,,,030719_p2,001,2019_Mar_07_1149,body_behavioural,3.0.4,59.81067540787776,
1,"Finally, the class ended, and the professor dismissed the students with a reminder that the midterm paper was due on Thursday and that they should email their papers to the TA.",4,3,,,,0,1,1,1,,,,,0,23,23,23,,,,,,,,,,,,,,,,,,,,,,,,,,,,,1,4.23731508498895,,,,,,,,,,,,,,,,,,,,,,,,,,,,030719_p2,001,2019_Mar_07_1149,body_behavioural,3.0.4,59.81067540787776,
1,"Everyone, except Charlie and Alma, packed up their things and headed out of the lecture hall to get to their next class. ",4,3,,,,0,1,1,1,,,,,0,24,24,24,,,,,,,,,,,,,,,,,,,,,,,,,,,,,1,2.5358547850046307,,,,,,,,,,,,,,,,,,,,,,,,,,,,030719_p2,001,2019_Mar_07_1149,body_behavioural,3.0.4,59.81067540787776,
1,"“Alright, so we’ll have the $30,000 wired to you by tomorrow,” Charlie said. ",4,4,,,,0,1,1,1,,,,,0,25,25,25,,,,,,,,,,,,,,,,,,,,,,,,,,,,,1,3.469865041988669,,,,,,,,,,,,,,,,,,,,,,,,,,,,030719_p2,001,2019_Mar_07_1149,body_behavioural,3.0.4,59.81067540787776,
1,"This wasn't ideal for Charlie, but Alma had refused to budge, and his investment group had told him they were willing to pay the full amount if necessary. ",4,4,,,,0,1,1,1,,,,,0,26,26,26,,,,,,,,,,,,,,,,,,,,,,,,,,,,,1,12.32031494200055,,,,,,,,,,,,,,,,,,,,,,,,,,,,030719_p2,001,2019_Mar_07_1149,body_behavioural,3.0.4,59.81067540787776,
1,"They shook hands, walked out of the now-empty lecture hall, and made plans to sign the official paperwork the next day.",4,4,,,,0,1,1,1,,,,,0,27,27,27,,,,,,,,,,,,,,,,,,,,,,,,,,,,,1,3.1863966599921696,,,,,,,,,,,,,,,,,,,,,,,,,,,,030719_p2,001,2019_Mar_07_1149,body_behavioural,3.0.4,59.81067540787776,
1,,,,,,,0,1,1,1,,,,,,,,,,,,,,,,,,,,,,,,,,,,,,,,,,,,,,,,,,,,,,,,,,,,,,,,,,,,,,,,,,030719_p2,001,2019_Mar_07_1149,body_behavioural,3.0.4,59.81067540787776,
2,,,,,,,0,2,2,2,0,0,0,0,,,,,,,,,,,,,,,,,,,,,,,,,,,space,1.2509113700070884,space,1.0359307970065856,space,0.9027465920080431,,,,,,,,,,,,,,,,,,,,,,,,,,,,,,030719_p2,001,2019_Mar_07_1149,body_behavioural,3.0.4,59.81067540787776,
2,"Ms. Bianchi and Ms. Morrison walked into the grocery store at the same time, and, after a moment of mutual recognition, greeted each other and shook hands.",1,1,,,,0,2,2,2,,,,,0,0,0,0,,,,,,,,,,,,,,,,,,,,,,,,,,,,,9,13.469007185005466,,,,,,,,,,,,,,,,,,,,,,,,,,,,030719_p2,001,2019_Mar_07_1149,body_behavioural,3.0.4,59.81067540787776,
2,"“Thank you again for inviting me here to discuss my business proposal,” said Ms. Bianchi, “And it’s a pleasure to be out of the office.” ",1,1,,,,0,2,2,2,,,,,0,1,1,1,,,,,,,,,,,,,,,,,,,,,,,,,,,,,9,16.671871799000655,,,,,,,,,,,,,,,,,,,,,,,,,,,,030719_p2,001,2019_Mar_07_1149,body_behavioural,3.0.4,59.81067540787776,
2,"As a salesperson for an Italian cheese company that was trying to expand its outreach to more mainstream grocery stores, this meeting could be a big break for her.",1,1,,,,0,2,2,2,,,,,0,2,2,2,,,,,,,,,,,,,,,,,,,,,,,,,,,,,1,7.286820540000917,,,,,,,,,,,,,,,,,,,,,,,,,,,,030719_p2,001,2019_Mar_07_1149,body_behavioural,3.0.4,59.81067540787776,
2,"Her sales target, Ms. Morrison,  who had a reputation for being a bit quirky, was a corporate buyer for a large chain grocery store. ",1,1,,,,0,2,2,2,,,,,0,3,3,3,,,,,,,,,,,,,,,,,,,,,,,,,,,,,1,5.084156184995663,,,,,,,,,,,,,,,,,,,,,,,,,,,,030719_p2,001,2019_Mar_07_1149,body_behavioural,3.0.4,59.81067540787776,
2,"She was known for doing things unconventionally: for example, she said that she liked to make deals with suppliers in the place where the products were sold- “to keep their minds focused on what’s important.” ",1,1,,,,0,2,2,2,,,,,0,4,4,4,,,,,,,,,,,,,,,,,,,,,,,,,,,,,1,9.536942546998034,,,,,,,,,,,,,,,,,,,,,,,,,,,,030719_p2,001,2019_Mar_07_1149,body_behavioural,3.0.4,59.81067540787776,
2,"They chatted a little in the front of the grocery store, which was surrounded by pumpkins and halloween decorations set up in special displays for the holiday season.",1,1,,,,0,2,2,2,,,,,0,5,5,5,,,,,,,,,,,,,,,,,,,,,,,,,,,,,1,8.219675341999391,,,,,,,,,,,,,,,,,,,,,,,,,,,,030719_p2,001,2019_Mar_07_1149,body_behavioural,3.0.4,59.81067540787776,
2,"Ms. Bianchi and Ms. Morrison walked to the cheese section, and Ms. Morrison picked up a block of parmesan.",2,1,,,,0,2,2,2,,,,,0,6,6,6,,,,,,,,,,,,,,,,,,,,,,,,,,,,,1,8.185275063995505,,,,,,,,,,,,,,,,,,,,,,,,,,,,030719_p2,001,2019_Mar_07_1149,body_behavioural,3.0.4,59.81067540787776,
2,“We have quite a selection here.,2,1,,,,0,2,2,2,,,,,0,7,7,7,,,,,,,,,,,,,,,,,,,,,,,,,,,,,1,3.2038852690020576,,,,,,,,,,,,,,,,,,,,,,,,,,,,030719_p2,001,2019_Mar_07_1149,body_behavioural,3.0.4,59.81067540787776,
2,I don’t know that it needs an additional section for more gourmet cheeses.” ,2,1,,,,0,2,2,2,,,,,0,8,8,8,,,,,,,,,,,,,,,,,,,,,,,,,,,,,1,5.250987665000139,,,,,,,,,,,,,,,,,,,,,,,,,,,,030719_p2,001,2019_Mar_07_1149,body_behavioural,3.0.4,59.81067540787776,
2,"Ms. Bianchi's confidence faltered for a minute at this remark, but then she launched into her prepared pitch.",2,1,,,,0,2,2,2,,,,,0,9,9,9,,,,,,,,,,,,,,,,,,,,,,,,,,,,,1,5.303185804994428,,,,,,,,,,,,,,,,,,,,,,,,,,,,030719_p2,001,2019_Mar_07_1149,body_behavioural,3.0.4,59.81067540787776,
2," “Ms. Morrison, I think you would agree that selling food is more than just providing variety, but also about providing the highest quality.",2,2,,,,0,2,2,2,,,,,0,10,10,10,,,,,,,,,,,,,,,,,,,,,,,,,,,,,1,6.901130580008612,,,,,,,,,,,,,,,,,,,,,,,,,,,,030719_p2,001,2019_Mar_07_1149,body_behavioural,3.0.4,59.81067540787776,
2,"You don’t have cheeses made in America that are like ours, it is true.",2,2,,,,0,2,2,2,,,,,0,11,11,11,,,,,,,,,,,,,,,,,,,,,,,,,,,,,1,10.453827531993738,,,,,,,,,,,,,,,,,,,,,,,,,,,,030719_p2,001,2019_Mar_07_1149,body_behavioural,3.0.4,59.81067540787776,
2,Your store could be providing American consumers with a dimension in taste that they've never known before with our product.,2,2,,,,0,2,2,2,,,,,0,12,12,12,,,,,,,,,,,,,,,,,,,,,,,,,,,,,1,4.62000907798938,,,,,,,,,,,,,,,,,,,,,,,,,,,,030719_p2,001,2019_Mar_07_1149,body_behavioural,3.0.4,59.81067540787776,
2,"I propose that you give it a shot, buy $1000 worth of cheese products for a few stores, and see how the sales increase not only in our cheeses but also in products related to cheeses: crackers, jams, olives. ",2,2,,,,0,2,2,2,,,,,0,13,13,13,,,,,,,,,,,,,,,,,,,,,,,,,,,,,1,8.070359792007366,,,,,,,,,,,,,,,,,,,,,,,,,,,,030719_p2,001,2019_Mar_07_1149,body_behavioural,3.0.4,59.81067540787776,
2,"The availability of a finer product leads to the appreciation of the product, and your consumers will start to consume in a new, more profitable way.”",2,2,,,,0,2,2,2,,,,,0,14,14,14,,,,,,,,,,,,,,,,,,,,,,,,,,,,,1,3.103369102012948,,,,,,,,,,,,,,,,,,,,,,,,,,,,030719_p2,001,2019_Mar_07_1149,body_behavioural,3.0.4,59.81067540787776,
2,"Ms. Bianchi picked up a box of crackers by the cheese section, and said, “Here, I will buy these, and we can try some of our cheeses that I've brought with me.”",2,2,,,,0,2,2,2,,,,,0,15,15,15,,,,,,,,,,,,,,,,,,,,,,,,,,,,,1,12.453811760002282,,,,,,,,,,,,,,,,,,,,,,,,,,,,030719_p2,001,2019_Mar_07_1149,body_behavioural,3.0.4,59.81067540787776,
2,"Ms. Morrison, who was thinking, nodded in agreement and said, “That sounds like a great idea.",2,2,,,,0,2,2,2,,,,,0,16,16,16,,,,,,,,,,,,,,,,,,,,,,,,,,,,,1,3.8032410250016255,,,,,,,,,,,,,,,,,,,,,,,,,,,,030719_p2,001,2019_Mar_07_1149,body_behavioural,3.0.4,59.81067540787776,
2,"Let’s head to check out, and those crackers are on me.” ",2,2,,,,0,2,2,2,,,,,0,17,17,17,,,,,,,,,,,,,,,,,,,,,,,,,,,,,1,3.1529493299894966,,,,,,,,,,,,,,,,,,,,,,,,,,,,030719_p2,001,2019_Mar_07_1149,body_behavioural,3.0.4,59.81067540787776,
2,They walked over to the checkout area.,3,2,,,,0,2,2,2,,,,,0,18,18,18,,,,,,,,,,,,,,,,,,,,,,,,,,,,,1,4.753380747002666,,,,,,,,,,,,,,,,,,,,,,,,,,,,030719_p2,001,2019_Mar_07_1149,body_behavioural,3.0.4,59.81067540787776,
2,"There was a very long line, and it was very busy in the checkout area as people were stocking up for Halloween parties and trick-or-treating. ",3,2,,,,0,2,2,2,,,,,0,19,19,19,,,,,,,,,,,,,,,,,,,,,,,,,,,,,9,2.7695365049876273,,,,,,,,,,,,,,,,,,,,,,,,,,,,030719_p2,001,2019_Mar_07_1149,body_behavioural,3.0.4,59.81067540787776,
2,"Since they had almost a 10 minute wait in line, Ms. Bianchi handed a sheet with printed graphs to Ms. Morrison the increase in profits that several other stores had seen after starting to carry their products.",3,2,,,,0,2,2,2,,,,,0,20,20,20,,,,,,,,,,,,,,,,,,,,,,,,,,,,,1,8.470236409993959,,,,,,,,,,,,,,,,,,,,,,,,,,,,030719_p2,001,2019_Mar_07_1149,body_behavioural,3.0.4,59.81067540787776,
2,"Eventually, Ms. Morrison replied, “You know what, I think you've convinced me that this could work. ",3,3,,,,0,2,2,2,,,,,0,21,21,21,,,,,,,,,,,,,,,,,,,,,,,,,,,,,1,3.036021672000061,,,,,,,,,,,,,,,,,,,,,,,,,,,,030719_p2,001,2019_Mar_07_1149,body_behavioural,3.0.4,59.81067540787776,
2,We've been trying to find a way to add a little European cachet to our stores.,3,3,,,,0,2,2,2,,,,,0,22,22,22,,,,,,,,,,,,,,,,,,,,,,,,,,,,,1,3.2532803770009195,,,,,,,,,,,,,,,,,,,,,,,,,,,,030719_p2,001,2019_Mar_07_1149,body_behavioural,3.0.4,59.81067540787776,
2,There's still a problem though - I'm worried we'll be paying out the nose for the import taxes.,3,3,,,,0,2,2,2,,,,,0,23,23,23,,,,,,,,,,,,,,,,,,,,,,,,,,,,,1,7.036626045010053,,,,,,,,,,,,,,,,,,,,,,,,,,,,030719_p2,001,2019_Mar_07_1149,body_behavioural,3.0.4,59.81067540787776,
2,Is that the case?",3,3,,,,0,2,2,2,,,,,0,24,24,24,,,,,,,,,,,,,,,,,,,,,,,,,,,,,1,1.8531065970018972,,,,,,,,,,,,,,,,,,,,,,,,,,,,030719_p2,001,2019_Mar_07_1149,body_behavioural,3.0.4,59.81067540787776,
2,"It was Ms. Morrison’s turn to checkout, and the two businesswomen continued to talk back and forth as she did so. ",4,3,,,,0,2,2,2,,,,,0,25,25,25,,,,,,,,,,,,,,,,,,,,,,,,,,,,,1,5.969979241999681,,,,,,,,,,,,,,,,,,,,,,,,,,,,030719_p2,001,2019_Mar_07_1149,body_behavioural,3.0.4,59.81067540787776,
2,"The cashier scanned the crackers, and Ms. Bianchi watched in amusement as Ms. Morrison paid the $6 price entirely in quarters from a wallet bulging with change.",4,3,,,,0,2,2,2,,,,,0,26,26,26,,,,,,,,,,,,,,,,,,,,,,,,,,,,,1,17.420305835010367,,,,,,,,,,,,,,,,,,,,,,,,,,,,030719_p2,001,2019_Mar_07_1149,body_behavioural,3.0.4,59.81067540787776,
2,"They shortly came to an agreement and would have enough cheese shipments, $5000 worth, to different stores to qualify for a subsidized import tax. ",4,4,,,,0,2,2,2,,,,,0,27,27,27,,,,,,,,,,,,,,,,,,,,,,,,,,,,,9,9.037035542001831,,,,,,,,,,,,,,,,,,,,,,,,,,,,030719_p2,001,2019_Mar_07_1149,body_behavioural,3.0.4,59.81067540787776,
2,"Ms. Bianchi retrieved some of her samples from her car, and they toasted their new deal with crackers topped with fresh mozzarella. ",4,4,,,,0,2,2,2,,,,,0,28,28,28,,,,,,,,,,,,,,,,,,,,,,,,,,,,,1,8.286887330003083,,,,,,,,,,,,,,,,,,,,,,,,,,,,030719_p2,001,2019_Mar_07_1149,body_behavioural,3.0.4,59.81067540787776,
2,,,,,,,0,2,2,2,,,,,,,,,,,,,,,,,,,,,,,,,,,,,,,,,,,,,,,,,,,,,,,,,,,,,,,,,,,,,,,,,,030719_p2,001,2019_Mar_07_1149,body_behavioural,3.0.4,59.81067540787776,
3,,,,,,,0,3,3,3,0,0,0,0,,,,,,,,,,,,,,,,,,,,,,,,,,,space,1.3363922020071186,space,1.0196394700033125,space,9.967852704998222,,,,,,,,,,,,,,,,,,,,,,,,,,,,,,030719_p2,001,2019_Mar_07_1149,body_behavioural,3.0.4,59.81067540787776,
3,"Simon and Carina noticed each other as they walked into the grocery store at the same time, their carts nearly colliding as they squeezed into the entrance.",1,1,,,,0,3,3,3,,,,,0,0,0,0,,,,,,,,,,,,,,,,,,,,,,,,,,,,,9,8.536816168008954,,,,,,,,,,,,,,,,,,,,,,,,,,,,030719_p2,001,2019_Mar_07_1149,body_behavioural,3.0.4,59.81067540787776,
3,"They were both new to the Boston area, and this was their first time in this store. ",1,1,,,,0,3,3,3,,,,,0,1,1,1,,,,,,,,,,,,,,,,,,,,,,,,,,,,,1,3.1529864920012187,,,,,,,,,,,,,,,,,,,,,,,,,,,,030719_p2,001,2019_Mar_07_1149,body_behavioural,3.0.4,59.81067540787776,
3,"It kind of looked like a large warehouse, with high unfurnished ceilings, industrial lights, and large packages of food. ",1,1,,,,0,3,3,3,,,,,0,2,2,2,,,,,,,,,,,,,,,,,,,,,,,,,,,,,9,13.603883825009689,,,,,,,,,,,,,,,,,,,,,,,,,,,,030719_p2,001,2019_Mar_07_1149,body_behavioural,3.0.4,59.81067540787776,
3,"They went off along separate routes, but soon ended up back together in the meat section. ",2,1,,,,0,3,3,3,,,,,0,3,3,3,,,,,,,,,,,,,,,,,,,,,,,,,,,,,9,6.720000572007848,,,,,,,,,,,,,,,,,,,,,,,,,,,,030719_p2,001,2019_Mar_07_1149,body_behavioural,3.0.4,59.81067540787776,
3,"They were both preparing for barbecues, so they were looking over the same cuts of meat. ",2,1,,,,0,3,3,3,,,,,0,4,4,4,,,,,,,,,,,,,,,,,,,,,,,,,,,,,1,2.869588544999715,,,,,,,,,,,,,,,,,,,,,,,,,,,,030719_p2,001,2019_Mar_07_1149,body_behavioural,3.0.4,59.81067540787776,
3,"Simon really wanted to talk to Carina, and Carina really wanted to say something to Simon, but they felt embarrassed striking up a conversation with a stranger.",2,1,,,,0,3,3,3,,,,,0,5,5,5,,,,,,,,,,,,,,,,,,,,,,,,,,,,,1,12.053671695000958,,,,,,,,,,,,,,,,,,,,,,,,,,,,030719_p2,001,2019_Mar_07_1149,body_behavioural,3.0.4,59.81067540787776,
3,"Carina suddenly turned to Simon and, pointing at a Cornish hen, asked, “Isn’t this meat cute?”",2,2,,,,0,3,3,3,,,,,0,6,6,6,,,,,,,,,,,,,,,,,,,,,,,,,,,,,1,7.751158232000307,,,,,,,,,,,,,,,,,,,,,,,,,,,,030719_p2,001,2019_Mar_07_1149,body_behavioural,3.0.4,59.81067540787776,
3,"He laughed, and said, “It is very cute.",2,2,,,,0,3,3,3,,,,,0,7,7,7,,,,,,,,,,,,,,,,,,,,,,,,,,,,,1,1.9532080100034364,,,,,,,,,,,,,,,,,,,,,,,,,,,,030719_p2,001,2019_Mar_07_1149,body_behavioural,3.0.4,59.81067540787776,
3,"Probably the younger brother of this guy,” and he picked up a regular-sized chicken.",2,2,,,,0,3,3,3,,,,,0,8,8,8,,,,,,,,,,,,,,,,,,,,,,,,,,,,,1,7.019795209998847,,,,,,,,,,,,,,,,,,,,,,,,,,,,030719_p2,001,2019_Mar_07_1149,body_behavioural,3.0.4,59.81067540787776,
3,"“Unlucky family,” she responded. ",2,2,,,,0,3,3,3,,,,,0,9,9,9,,,,,,,,,,,,,,,,,,,,,,,,,,,,,1,2.9364478049974423,,,,,,,,,,,,,,,,,,,,,,,,,,,,030719_p2,001,2019_Mar_07_1149,body_behavioural,3.0.4,59.81067540787776,
3,They continued to chat as they picked out their groceries.,2,2,,,,0,3,3,3,,,,,0,10,10,10,,,,,,,,,,,,,,,,,,,,,,,,,,,,,1,1.3531461570091778,,,,,,,,,,,,,,,,,,,,,,,,,,,,030719_p2,001,2019_Mar_07_1149,body_behavioural,3.0.4,59.81067540787776,
3,"Simon helped Carina pick out the best ribs and his personal favorite barbeque sauce, and she helped him gather the  peppers, onions, and spices for a vegetable kabob she recommended.",2,2,,,,0,3,3,3,,,,,0,11,11,11,,,,,,,,,,,,,,,,,,,,,,,,,,,,,1,9.903735466999933,,,,,,,,,,,,,,,,,,,,,,,,,,,,030719_p2,001,2019_Mar_07_1149,body_behavioural,3.0.4,59.81067540787776,
3,"When they were both finished shopping, they went to the checkout area.",3,2,,,,0,3,3,3,,,,,0,12,12,12,,,,,,,,,,,,,,,,,,,,,,,,,,,,,1,1.7529757599986624,,,,,,,,,,,,,,,,,,,,,,,,,,,,030719_p2,001,2019_Mar_07_1149,body_behavioural,3.0.4,59.81067540787776,
3,"Simon was disappointed to see that the lines were short, since he had been hoping for an excuse to spend more time with Carina.",3,2,,,,0,3,3,3,,,,,0,13,13,13,,,,,,,,,,,,,,,,,,,,,,,,,,,,,1,5.3862153950030915,,,,,,,,,,,,,,,,,,,,,,,,,,,,030719_p2,001,2019_Mar_07_1149,body_behavioural,3.0.4,59.81067540787776,
3,"They had real chemistry, and both of them could definitely see a future together despite having just met.",3,2,,,,0,3,3,3,,,,,0,14,14,14,,,,,,,,,,,,,,,,,,,,,,,,,,,,,1,4.269599430001108,,,,,,,,,,,,,,,,,,,,,,,,,,,,030719_p2,001,2019_Mar_07_1149,body_behavioural,3.0.4,59.81067540787776,
3,"“So you haven’t been around the city much?”, Simon asked. ",3,2,,,,0,3,3,3,,,,,0,15,15,15,,,,,,,,,,,,,,,,,,,,,,,,,,,,,1,3.152668655005982,,,,,,,,,,,,,,,,,,,,,,,,,,,,030719_p2,001,2019_Mar_07_1149,body_behavioural,3.0.4,59.81067540787776,
3,"“No, not really.",3,2,,,,0,3,3,3,,,,,0,16,16,16,,,,,,,,,,,,,,,,,,,,,,,,,,,,,1,1.1031392349977978,,,,,,,,,,,,,,,,,,,,,,,,,,,,030719_p2,001,2019_Mar_07_1149,body_behavioural,3.0.4,59.81067540787776,
3,I’ve mainly been working and setting up my apartment.”,3,2,,,,0,3,3,3,,,,,0,17,17,17,,,,,,,,,,,,,,,,,,,,,,,,,,,,,1,3.4698908969876356,,,,,,,,,,,,,,,,,,,,,,,,,,,,030719_p2,001,2019_Mar_07_1149,body_behavioural,3.0.4,59.81067540787776,
3,"Simon asked her, “Ok well, if you’d like I could pick you up next weekend, and we could go around Harvard Square and get dinner.",3,3,,,,0,3,3,3,,,,,0,18,18,18,,,,,,,,,,,,,,,,,,,,,,,,,,,,,1,6.669715219992213,,,,,,,,,,,,,,,,,,,,,,,,,,,,030719_p2,001,2019_Mar_07_1149,body_behavioural,3.0.4,59.81067540787776,
3,"There are a lot of great places around there, and it’s really nice during the summer.",3,3,,,,0,3,3,3,,,,,0,19,19,19,,,,,,,,,,,,,,,,,,,,,,,,,,,,,1,1.953111800001352,,,,,,,,,,,,,,,,,,,,,,,,,,,,030719_p2,001,2019_Mar_07_1149,body_behavioural,3.0.4,59.81067540787776,
3,The Harvard campus is also beautiful.” ,3,3,,,,0,3,3,3,,,,,0,20,20,20,,,,,,,,,,,,,,,,,,,,,,,,,,,,,1,1.919572099999641,,,,,,,,,,,,,,,,,,,,,,,,,,,,030719_p2,001,2019_Mar_07_1149,body_behavioural,3.0.4,59.81067540787776,
3,"Carina smiled, “I’d love to: that sounds great!”",3,3,,,,0,3,3,3,,,,,0,21,21,21,,,,,,,,,,,,,,,,,,,,,,,,,,,,,1,1.2174089519976405,,,,,,,,,,,,,,,,,,,,,,,,,,,,030719_p2,001,2019_Mar_07_1149,body_behavioural,3.0.4,59.81067540787776,
3,"She quickly entered her number in his phone, since they only had to wait a couple minutes in line.",3,3,,,,0,3,3,3,,,,,0,22,22,22,,,,,,,,,,,,,,,,,,,,,,,,,,,,,1,2.9027639100095257,,,,,,,,,,,,,,,,,,,,,,,,,,,,030719_p2,001,2019_Mar_07_1149,body_behavioural,3.0.4,59.81067540787776,
3,Then it was her turn to check out with the cashier. ,4,3,,,,0,3,3,3,,,,,0,23,23,23,,,,,,,,,,,,,,,,,,,,,,,,,,,,,1,1.486094644991681,,,,,,,,,,,,,,,,,,,,,,,,,,,,030719_p2,001,2019_Mar_07_1149,body_behavioural,3.0.4,59.81067540787776,
3,"Simon, wanting to make a gesture of his affection, lifted up the divider on the conveyor belt and said to the cashier, “Actually these are together.",4,3,,,,0,3,3,3,,,,,0,24,24,24,,,,,,,,,,,,,,,,,,,,,,,,,,,,,1,11.653769960001227,,,,,,,,,,,,,,,,,,,,,,,,,,,,030719_p2,001,2019_Mar_07_1149,body_behavioural,3.0.4,59.81067540787776,
3,"Carina, I’ve got it.",4,3,,,,0,3,3,3,,,,,0,25,25,25,,,,,,,,,,,,,,,,,,,,,,,,,,,,,1,2.736045522004133,,,,,,,,,,,,,,,,,,,,,,,,,,,,030719_p2,001,2019_Mar_07_1149,body_behavioural,3.0.4,59.81067540787776,
3,This was kind-of a date today.”,4,3,,,,0,3,3,3,,,,,0,26,26,26,,,,,,,,,,,,,,,,,,,,,,,,,,,,,1,4.8195695920003345,,,,,,,,,,,,,,,,,,,,,,,,,,,,030719_p2,001,2019_Mar_07_1149,body_behavioural,3.0.4,59.81067540787776,
3,Carina blushed and laughed; she thought this was ridiculous but also very sweet. ,4,3,,,,0,3,3,3,,,,,0,27,27,27,,,,,,,,,,,,,,,,,,,,,,,,,,,,,1,7.670166319992859,,,,,,,,,,,,,,,,,,,,,,,,,,,,030719_p2,001,2019_Mar_07_1149,body_behavioural,3.0.4,59.81067540787776,
3,"The cashier rolled her eyes when they weren’t looking, and she scanned the rest of his items. ",4,3,,,,0,3,3,3,,,,,0,28,28,28,,,,,,,,,,,,,,,,,,,,,,,,,,,,,9,6.1366806349979015,,,,,,,,,,,,,,,,,,,,,,,,,,,,030719_p2,001,2019_Mar_07_1149,body_behavioural,3.0.4,59.81067540787776,
3,"The total came to $120, and he paid with his credit card.",4,3,,,,0,3,3,3,,,,,0,29,29,29,,,,,,,,,,,,,,,,,,,,,,,,,,,,,1,5.67009532499651,,,,,,,,,,,,,,,,,,,,,,,,,,,,030719_p2,001,2019_Mar_07_1149,body_behavioural,3.0.4,59.81067540787776,
3,"Carina thanked him, and they took the groceries and walked out.",4,3,,,,0,3,3,3,,,,,0,30,30,30,,,,,,,,,,,,,,,,,,,,,,,,,,,,,1,1.9527326449897373,,,,,,,,,,,,,,,,,,,,,,,,,,,,030719_p2,001,2019_Mar_07_1149,body_behavioural,3.0.4,59.81067540787776,
3,"As they were walking towards the exit, Carina reluctantly said goodbye since she was running late for the barbeque she was hosting that afternoon.",4,4,,,,0,3,3,3,,,,,0,31,31,31,,,,,,,,,,,,,,,,,,,,,,,,,,,,,1,5.35335400699114,,,,,,,,,,,,,,,,,,,,,,,,,,,,030719_p2,001,2019_Mar_07_1149,body_behavioural,3.0.4,59.81067540787776,
3,"They hugged and parted ways, stealing glances at each other as they both walked back to their cars.",4,4,,,,0,3,3,3,,,,,0,32,32,32,,,,,,,,,,,,,,,,,,,,,,,,,,,,,1,2.6029186579980887,,,,,,,,,,,,,,,,,,,,,,,,,,,,030719_p2,001,2019_Mar_07_1149,body_behavioural,3.0.4,59.81067540787776,
3,,,,,,,0,3,3,3,,,,,,,,,,,,,,,,,,,,,,,,,,,,,,,,,,,,,,,,,,,,,,,,,,,,,,,,,,,,,,,,,,030719_p2,001,2019_Mar_07_1149,body_behavioural,3.0.4,59.81067540787776,
4,,,,,,,0,4,4,4,0,0,0,0,,,,,,,,,,,,,,,,,,,,,,,,,,,space,1.086364033006248,space,3.6027069100091467,space,1.453137529999367,,,,,,,,,,,,,,,,,,,,,,,,,,,,,,030719_p2,001,2019_Mar_07_1149,body_behavioural,3.0.4,59.81067540787776,
4,"Alvira and Senna walked into the restaurant hand in sweaty hand with quite different expectations: Senna was going to propose tonight, and Alvira had no idea.",1,1,None,None,,0,4,4,4,,,,,0,0,0,0,,,,,,,,,,,,,,,,,,,,,,,,,,,,,9,23.50466932200652,,,,,,,,,,,,,,,,,,,,,,,,,,,,030719_p2,001,2019_Mar_07_1149,body_behavioural,3.0.4,59.81067540787776,
4,"He took a deep breath, trying to calm his nerves as worst case scenarios ran through his mind. ",1,1,None,None,,0,4,4,4,,,,,0,1,1,1,,,,,,,,,,,,,,,,,,,,,,,,,,,,,1,4.203395169999567,,,,,,,,,,,,,,,,,,,,,,,,,,,,030719_p2,001,2019_Mar_07_1149,body_behavioural,3.0.4,59.81067540787776,
4,The entrance of the restaurant was dazzling; chandeliers spread their warm light onto the delicate place settings of all the tables filled with guests dressed to the nines. ,1,1,None,None,,0,4,4,4,,,,,0,2,2,2,,,,,,,,,,,,,,,,,,,,,,,,,,,,,9,8.970189651998226,,,,,,,,,,,,,,,,,,,,,,,,,,,,030719_p2,001,2019_Mar_07_1149,body_behavioural,3.0.4,59.81067540787776,
4,"Through the floor-to-ceiling arched windows of the back wall, they saw the sun setting onto the Pacific ocean.",1,1,None,None,,0,4,4,4,,,,,0,3,3,3,,,,,,,,,,,,,,,,,,,,,,,,,,,,,1,3.2532093199988594,,,,,,,,,,,,,,,,,,,,,,,,,,,,030719_p2,001,2019_Mar_07_1149,body_behavioural,3.0.4,59.81067540787776,
4,"This was surely one of the best restaurants on the west coast, situated right on the beach.",1,1,None,None,,0,4,4,4,,,,,0,4,4,4,,,,,,,,,,,,,,,,,,,,,,,,,,,,,1,3.184802767005749,,,,,,,,,,,,,,,,,,,,,,,,,,,,030719_p2,001,2019_Mar_07_1149,body_behavioural,3.0.4,59.81067540787776,
4,"Senna gave his name to the host, who quickly located their reservation with an almost comically wide customer-service smile.",1,1,7.0,None,,0,4,4,4,,,,,0,5,5,5,,,,,,,,,,,,,,,,,,,,,,,,,,,,,9,10.203271924998262,,,,,,,,,,,,,,,,,,,,,,,,,,,,030719_p2,001,2019_Mar_07_1149,body_behavioural,3.0.4,59.81067540787776,
4,He led them to a table right by the window.,2,1,None,None,,0,4,4,4,,,,,0,6,6,6,,,,,,,,,,,,,,,,,,,,,,,,,,,,,1,1.5861155370075721,,,,,,,,,,,,,,,,,,,,,,,,,,,,030719_p2,001,2019_Mar_07_1149,body_behavioural,3.0.4,59.81067540787776,
4,"He brought out some very small menus, with a short list of the celebrity chef's carefully selected daily dishes written in a loopy, cursive font unadorned by any mention of prices.",2,1,None,9.0,,0,4,4,4,,,,,0,7,7,7,,,,,,,,,,,,,,,,,,,,,,,,,,,,,1,9.084575522007071,,,,,,,,,,,,,,,,,,,,,,,,,,,,030719_p2,001,2019_Mar_07_1149,body_behavioural,3.0.4,59.81067540787776,
4,Senna slipped off to the bathroom to check to make sure the ring was in order.,2,2,None,None,,0,4,4,4,,,,,0,8,8,8,,,,,,,,,,,,,,,,,,,,,,,,,,,,,1,7.770200490005664,,,,,,,,,,,,,,,,,,,,,,,,,,,,030719_p2,001,2019_Mar_07_1149,body_behavioural,3.0.4,59.81067540787776,
4,"The ring contained a canary diamond that had been in his grandmother’s wedding ring, and it was a brilliant stone that was accentuated by the small white diamonds encircling it.",2,2,None,None,,0,4,4,4,,,,,0,9,9,9,,,,,,,,,,,,,,,,,,,,,,,,,,,,,1,17.751795579999452,,,,,,,,,,,,,,,,,,,,,,,,,,,,030719_p2,001,2019_Mar_07_1149,body_behavioural,3.0.4,59.81067540787776,
4,"He walked back to the table after handing the small, velvet box to a waiter at the front podium.",2,2,6.0,None,,0,4,4,4,,,,,0,10,10,10,,,,,,,,,,,,,,,,,,,,,,,,,,,,,1,4.303265599999577,,,,,,,,,,,,,,,,,,,,,,,,,,,,030719_p2,001,2019_Mar_07_1149,body_behavioural,3.0.4,59.81067540787776,
4,He came back just as their waiter was approaching the table to get their order.,3,2,None,None,,0,4,4,4,,,,,0,11,11,11,,,,,,,,,,,,,,,,,,,,,,,,,,,,,1,3.8698549450054998,,,,,,,,,,,,,,,,,,,,,,,,,,,,030719_p2,001,2019_Mar_07_1149,body_behavioural,3.0.4,59.81067540787776,
4,"Senna ordered the oysters with garlic-parmesan sauce, and Alvira ordered the sauteed sea scallops with caramelized apples. ",3,2,None,None,,0,4,4,4,,,,,0,12,12,12,,,,,,,,,,,,,,,,,,,,,,,,,,,,,1,4.686607465002453,,,,,,,,,,,,,,,,,,,,,,,,,,,,030719_p2,001,2019_Mar_07_1149,body_behavioural,3.0.4,59.81067540787776,
4,"“Excellent choices,” the waiter said with a subsequent brisk spin away from the table.",3,2,None,None,,0,4,4,4,,,,,0,13,13,13,,,,,,,,,,,,,,,,,,,,,,,,,,,,,1,2.1530500999942888,,,,,,,,,,,,,,,,,,,,,,,,,,,,030719_p2,001,2019_Mar_07_1149,body_behavioural,3.0.4,59.81067540787776,
4,"“What a beautiful place, Senna. ",3,2,None,None,,0,4,4,4,,,,,0,14,14,14,,,,,,,,,,,,,,,,,,,,,,,,,,,,,1,4.603130744988448,,,,,,,,,,,,,,,,,,,,,,,,,,,,030719_p2,001,2019_Mar_07_1149,body_behavioural,3.0.4,59.81067540787776,
4,"Really this is too much just to celebrate the first tomatoes I grew in the garden, like, this is absurd,” Alvira said.",3,2,None,None,,0,4,4,4,,,,,0,15,15,15,,,,,,,,,,,,,,,,,,,,,,,,,,,,,1,5.953066230009426,,,,,,,,,,,,,,,,,,,,,,,,,,,,030719_p2,001,2019_Mar_07_1149,body_behavioural,3.0.4,59.81067540787776,
4,"Senna laughed and said, “No, those were really the best tomatoes I’ve ever had. ",3,2,None,None,,0,4,4,4,,,,,0,16,16,16,,,,,,,,,,,,,,,,,,,,,,,,,,,,,1,3.201665557004162,,,,,,,,,,,,,,,,,,,,,,,,,,,,030719_p2,001,2019_Mar_07_1149,body_behavioural,3.0.4,59.81067540787776,
4,We had to celebrate.” ,3,2,None,None,,0,4,4,4,,,,,0,17,17,17,,,,,,,,,,,,,,,,,,,,,,,,,,,,,1,2.168326184997568,,,,,,,,,,,,,,,,,,,,,,,,,,,,030719_p2,001,2019_Mar_07_1149,body_behavioural,3.0.4,59.81067540787776,
4,"They talked and laughed as the sun sank below the horizon, and the glow from the ocean was replaced by the glow from the chandeliers.",3,2,8.0,None,,0,4,4,4,,,,,0,18,18,18,,,,,,,,,,,,,,,,,,,,,,,,,,,,,9,4.6035854179935995,,,,,,,,,,,,,,,,,,,,,,,,,,,,030719_p2,001,2019_Mar_07_1149,body_behavioural,3.0.4,59.81067540787776,
4,"The waiter eventually returned with their meals, and everything was even more delicious than they had expected, especially the oysters, which Senna said tasted like the ocean. ",4,2,None,None,,0,4,4,4,,,,,0,19,19,19,,,,,,,,,,,,,,,,,,,,,,,,,,,,,1,5.68672637999407,,,,,,,,,,,,,,,,,,,,,,,,,,,,030719_p2,001,2019_Mar_07_1149,body_behavioural,3.0.4,59.81067540787776,
4,Then he paused and looked at Alvira meaningfully. ,4,2,None,None,,0,4,4,4,,,,,0,20,20,20,,,,,,,,,,,,,,,,,,,,,,,,,,,,,1,4.017540945002111,,,,,,,,,,,,,,,,,,,,,,,,,,,,030719_p2,001,2019_Mar_07_1149,body_behavioural,3.0.4,59.81067540787776,
4, “It’s really been the best three years of my life with you.,4,2,None,None,,0,4,4,4,,,,,0,21,21,21,,,,,,,,,,,,,,,,,,,,,,,,,,,,,1,7.686341562002781,,,,,,,,,,,,,,,,,,,,,,,,,,,,030719_p2,001,2019_Mar_07_1149,body_behavioural,3.0.4,59.81067540787776,
4,"I couldn’t imagine it any other way, and I don’t want to.",4,2,None,None,,0,4,4,4,,,,,0,22,22,22,,,,,,,,,,,,,,,,,,,,,,,,,,,,,1,1.436463915000786,,,,,,,,,,,,,,,,,,,,,,,,,,,,030719_p2,001,2019_Mar_07_1149,body_behavioural,3.0.4,59.81067540787776,
4,"I really want to spend the rest of my years eating garden tomatoes, whatever it is, with you.” ",4,2,None,None,,0,4,4,4,,,,,0,23,23,23,,,,,,,,,,,,,,,,,,,,,,,,,,,,,1,8.08454680199793,,,,,,,,,,,,,,,,,,,,,,,,,,,,030719_p2,001,2019_Mar_07_1149,body_behavioural,3.0.4,59.81067540787776,
4,"Alvira smiled, “I want the same with you too, Senna.” ",4,2,None,17.0,,0,4,4,4,,,,,0,24,24,24,,,,,,,,,,,,,,,,,,,,,,,,,,,,,1,2.5864867250056705,,,,,,,,,,,,,,,,,,,,,,,,,,,,030719_p2,001,2019_Mar_07_1149,body_behavioural,3.0.4,59.81067540787776,
4,"Senna nodded at the waiter who had been watching attentively, and he quickly strode over to place a small, elegant cake topped with the ring in front of Alvira. ",4,3,None,None,,0,4,4,4,,,,,0,25,25,25,,,,,,,,,,,,,,,,,,,,,,,,,,,,,1,12.184828602999914,,,,,,,,,,,,,,,,,,,,,,,,,,,,030719_p2,001,2019_Mar_07_1149,body_behavioural,3.0.4,59.81067540787776,
4,Her eyes widened in shock when she realized what she was looking at.,4,3,None,None,,0,4,4,4,,,,,0,26,26,26,,,,,,,,,,,,,,,,,,,,,,,,,,,,,1,3.13609049700608,,,,,,,,,,,,,,,,,,,,,,,,,,,,030719_p2,001,2019_Mar_07_1149,body_behavioural,3.0.4,59.81067540787776,
4,"“Alvira, will you marry me? ",4,3,None,None,,0,4,4,4,,,,,0,27,27,27,,,,,,,,,,,,,,,,,,,,,,,,,,,,,1,2.6342093919956824,,,,,,,,,,,,,,,,,,,,,,,,,,,,030719_p2,001,2019_Mar_07_1149,body_behavioural,3.0.4,59.81067540787776,
4,"I love you, and I will never stop loving you.” ",4,3,None,None,,0,4,4,4,,,,,0,28,28,28,,,,,,,,,,,,,,,,,,,,,,,,,,,,,1,1.819766005006386,,,,,,,,,,,,,,,,,,,,,,,,,,,,030719_p2,001,2019_Mar_07_1149,body_behavioural,3.0.4,59.81067540787776,
4,Alvira started to cry.,4,3,None,None,,0,4,4,4,,,,,0,29,29,29,,,,,,,,,,,,,,,,,,,,,,,,,,,,,1,1.4863345500052674,,,,,,,,,,,,,,,,,,,,,,,,,,,,030719_p2,001,2019_Mar_07_1149,body_behavioural,3.0.4,59.81067540787776,
4,"The room became silent, and everyone turned to their table. ",4,3,None,5.0,,0,4,4,4,,,,,0,30,30,30,,,,,,,,,,,,,,,,,,,,,,,,,,,,,1,2.9698615450033685,,,,,,,,,,,,,,,,,,,,,,,,,,,,030719_p2,001,2019_Mar_07_1149,body_behavioural,3.0.4,59.81067540787776,
4,"“Yes, of course, yes!” she shouted as she wiped away tears.",4,4,None,None,,0,4,4,4,,,,,0,31,31,31,,,,,,,,,,,,,,,,,,,,,,,,,,,,,1,3.300879442002042,,,,,,,,,,,,,,,,,,,,,,,,,,,,030719_p2,001,2019_Mar_07_1149,body_behavioural,3.0.4,59.81067540787776,
4,The neighboring tables exploded in applause.,4,4,None,None,,0,4,4,4,,,,,0,32,32,32,,,,,,,,,,,,,,,,,,,,,,,,,,,,,1,1.8698219000070821,,,,,,,,,,,,,,,,,,,,,,,,,,,,030719_p2,001,2019_Mar_07_1149,body_behavioural,3.0.4,59.81067540787776,
4,The waiter returned with a bottle of champagne and popped it. ,4,4,None,None,,0,4,4,4,,,,,0,33,33,33,,,,,,,,,,,,,,,,,,,,,,,,,,,,,1,2.786628871996072,,,,,,,,,,,,,,,,,,,,,,,,,,,,030719_p2,001,2019_Mar_07_1149,body_behavioural,3.0.4,59.81067540787776,
4,"All of this went unnoticed by Senna and Alvira as they looked into each others’ eyes, and he slipped the ring onto her finger. ",4,4,None,None,,0,4,4,4,,,,,0,34,34,34,,,,,,,,,,,,,,,,,,,,,,,,,,,,,1,7.236595389986178,,,,,,,,,,,,,,,,,,,,,,,,,,,,030719_p2,001,2019_Mar_07_1149,body_behavioural,3.0.4,59.81067540787776,
4,"She held up her hand to admire it, and her glittering tears of joy matched the shine from her ring.   
",4,4,17.0,5.0,,0,4,4,4,,,,,0,35,35,35,,,,,,,,,,,,,,,,,,,,,,,,,,,,,1,3.6342506950022653,,,,,,,,,,,,,,,,,,,,,,,,,,,,030719_p2,001,2019_Mar_07_1149,body_behavioural,3.0.4,59.81067540787776,
4,,,,,,,0,4,4,4,,,,,,,,,,,,,,,,,,,,,,,,,,,,,,,,,,,,,,,,,,,,,,,,,,,,,,,,,,,,,,,,,,030719_p2,001,2019_Mar_07_1149,body_behavioural,3.0.4,59.81067540787776,
5,,,,,,,0,5,5,5,0,0,0,0,,,,,,,,,,,,,,,,,,,,,,,,,,,space,1.0529262170020957,space,1.3696451249998063,space,3.367596740004956,,,,,,,,,,,,,,,,,,,,,,,,,,,,,,030719_p2,001,2019_Mar_07_1149,body_behavioural,3.0.4,59.81067540787776,
5,,,,,,,0,5,5,5,1,0,1,0,,,,,,,,,,,,,,,,,,,,,,,,,,,,,,,space,0.6692645250004716,,,,,,,,,,,,,,,,,,,,,,,,,,,,,,030719_p2,001,2019_Mar_07_1149,body_behavioural,3.0.4,59.81067540787776,
5,,,,,,,0,5,5,5,2,0,2,0,,,,,,,,,,,,,,,,,,,,,,,,,,,,,,,space,0.9174067749991082,,,,,,,,,,,,,,,,,,,,,,,,,,,,,,030719_p2,001,2019_Mar_07_1149,body_behavioural,3.0.4,59.81067540787776,
5,"It didn’t help the situation that Calvin and Jessie were running late to the airport, since Jessie had already been fuming at Calvin and preparing to end things with him.",1,1,,,,0,5,5,5,,,,,0,0,0,0,,,,,,,,,,,,,,,,,,,,,,,,,,,,,9,16.604096404989832,,,,,,,,,,,,,,,,,,,,,,,,,,,,030719_p2,001,2019_Mar_07_1149,body_behavioural,3.0.4,59.81067540787776,
5,"Upon arriving, they had only 45 minutes until their international flight would depart from Jamaica for the US.",1,1,,,,0,5,5,5,,,,,0,1,1,1,,,,,,,,,,,,,,,,,,,,,,,,,,,,,1,5.951129359993502,,,,,,,,,,,,,,,,,,,,,,,,,,,,030719_p2,001,2019_Mar_07_1149,body_behavioural,3.0.4,59.81067540787776,
5,It had been a tough vacation for them.,1,1,,,,0,5,5,5,,,,,0,2,2,2,,,,,,,,,,,,,,,,,,,,,,,,,,,,,1,2.253140574990539,,,,,,,,,,,,,,,,,,,,,,,,,,,,030719_p2,001,2019_Mar_07_1149,body_behavioural,3.0.4,59.81067540787776,
5,"Jessie had really had it with Calvin’s constant ramblings about the same excruciatingly boring golfing and work stories, which he insisted on repeating to her regardless of how little interest she showed.",1,1,,,,0,5,5,5,,,,,0,3,3,3,,,,,,,,,,,,,,,,,,,,,,,,,,,,,1,8.753382629991393,,,,,,,,,,,,,,,,,,,,,,,,,,,,030719_p2,001,2019_Mar_07_1149,body_behavioural,3.0.4,59.81067540787776,
5,"Calvin knew that Jessie was upset, but wasn't sure what to do besides attempting to carry on as normal and tell stories that took up the silence. ",1,1,,,,0,5,5,5,,,,,0,4,4,4,,,,,,,,,,,,,,,,,,,,,,,,,,,,,1,6.236466656991979,,,,,,,,,,,,,,,,,,,,,,,,,,,,030719_p2,001,2019_Mar_07_1149,body_behavioural,3.0.4,59.81067540787776,
5,"The security line was luckily very short, and once the online boarding passes were scanned they were ushered quickly through the metal detector, not having to take off their shoes or remove the liquids from their bags.",2,1,,,,0,5,5,5,,,,,0,5,5,5,,,,,,,,,,,,,,,,,,,,,,,,,,,,,1,8.6030446520017,,,,,,,,,,,,,,,,,,,,,,,,,,,,030719_p2,001,2019_Mar_07_1149,body_behavioural,3.0.4,59.81067540787776,
5,"“The infrastructure of this airport is really quite poor," said Calvin as they waited for their bags to emerge from the x-ray machine.",2,1,,,,0,5,5,5,,,,,0,6,6,6,,,,,,,,,,,,,,,,,,,,,,,,,,,,,9,7.437453481004923,,,,,,,,,,,,,,,,,,,,,,,,,,,,030719_p2,001,2019_Mar_07_1149,body_behavioural,3.0.4,59.81067540787776,
5,“I really could've hidden something in my shoes quite easily.” ,2,1,,,,0,5,5,5,,,,,0,7,7,7,,,,,,,,,,,,,,,,,,,,,,,,,,,,,1,2.553153051994741,,,,,,,,,,,,,,,,,,,,,,,,,,,,030719_p2,001,2019_Mar_07_1149,body_behavioural,3.0.4,59.81067540787776,
5,"Jessie, exasperated at his need to broadcast his every inner thought, scowled at the conveyor belt.",2,1,,,,0,5,5,5,,,,,0,8,8,8,,,,,,,,,,,,,,,,,,,,,,,,,,,,,1,5.420239860002766,,,,,,,,,,,,,,,,,,,,,,,,,,,,030719_p2,001,2019_Mar_07_1149,body_behavioural,3.0.4,59.81067540787776,
5,"“What?”, he asked.",2,1,,,,0,5,5,5,,,,,0,9,9,9,,,,,,,,,,,,,,,,,,,,,,,,,,,,,1,1.3029626370116603,,,,,,,,,,,,,,,,,,,,,,,,,,,,030719_p2,001,2019_Mar_07_1149,body_behavioural,3.0.4,59.81067540787776,
5,She balled up her fists and turned to face him.,2,1,,,,0,5,5,5,,,,,0,10,10,10,,,,,,,,,,,,,,,,,,,,,,,,,,,,,1,1.7364327069954015,,,,,,,,,,,,,,,,,,,,,,,,,,,,030719_p2,001,2019_Mar_07_1149,body_behavioural,3.0.4,59.81067540787776,
5,"“Calvin, I really don’t think I can do this anymore.",2,2,,,,0,5,5,5,,,,,0,11,11,11,,,,,,,,,,,,,,,,,,,,,,,,,,,,,1,5.336708781993366,,,,,,,,,,,,,,,,,,,,,,,,,,,,030719_p2,001,2019_Mar_07_1149,body_behavioural,3.0.4,59.81067540787776,
5,I think it’s best that once we get to the States we part ways for good.” ,2,2,,,,0,5,5,5,,,,,0,12,12,12,,,,,,,,,,,,,,,,,,,,,,,,,,,,,1,2.7697926120017655,,,,,,,,,,,,,,,,,,,,,,,,,,,,030719_p2,001,2019_Mar_07_1149,body_behavioural,3.0.4,59.81067540787776,
5,Calvin said nothing as he grabbed his bag and quickly walked away.,2,2,,,,0,5,5,5,,,,,0,13,13,13,,,,,,,,,,,,,,,,,,,,,,,,,,,,,1,2.5367836770019494,,,,,,,,,,,,,,,,,,,,,,,,,,,,030719_p2,001,2019_Mar_07_1149,body_behavioural,3.0.4,59.81067540787776,
5,"Jessie trailed behind him as they made their way quickly toward their gate, shouting at his back in hopes of getting a response.",3,2,,,,0,5,5,5,,,,,0,14,14,14,,,,,,,,,,,,,,,,,,,,,,,,,,,,,1,8.620200410005054,,,,,,,,,,,,,,,,,,,,,,,,,,,,030719_p2,001,2019_Mar_07_1149,body_behavioural,3.0.4,59.81067540787776,
5,“So now you have nothing to say?,3,2,,,,0,5,5,5,,,,,0,15,15,15,,,,,,,,,,,,,,,,,,,,,,,,,,,,,1,2.7531540469935862,,,,,,,,,,,,,,,,,,,,,,,,,,,,030719_p2,001,2019_Mar_07_1149,body_behavioural,3.0.4,59.81067540787776,
5,"Every time we talk, you are just looking for a way to steer the conversation back into your stories.”",3,2,,,,0,5,5,5,,,,,0,16,16,16,,,,,,,,,,,,,,,,,,,,,,,,,,,,,1,4.186272431994439,,,,,,,,,,,,,,,,,,,,,,,,,,,,030719_p2,001,2019_Mar_07_1149,body_behavioural,3.0.4,59.81067540787776,
5,"Calvin didn't slow his pace, gritting his teeth and staring straight ahead. ",3,2,,,,0,5,5,5,,,,,0,17,17,17,,,,,,,,,,,,,,,,,,,,,,,,,,,,,1,2.5860178849980002,,,,,,,,,,,,,,,,,,,,,,,,,,,,030719_p2,001,2019_Mar_07_1149,body_behavioural,3.0.4,59.81067540787776,
5,He was very frustrated that he had been trying to appease Jessie this whole time and this was how she responded. ,3,2,,,,0,5,5,5,,,,,0,18,18,18,,,,,,,,,,,,,,,,,,,,,,,,,,,,,1,4.469886894992669,,,,,,,,,,,,,,,,,,,,,,,,,,,,030719_p2,001,2019_Mar_07_1149,body_behavioural,3.0.4,59.81067540787776,
5,The silence was punctuated only by the rapid rhythmic clacking of their suitcase wheels over the tile floor as they continued power-walking through the terminal. ,3,2,,,,0,5,5,5,,,,,0,19,19,19,,,,,,,,,,,,,,,,,,,,,,,,,,,,,1,4.1839399869932095,,,,,,,,,,,,,,,,,,,,,,,,,,,,030719_p2,001,2019_Mar_07_1149,body_behavioural,3.0.4,59.81067540787776,
5,"“Well?” Jessie said, and Calvin finally turned to her.",3,2,,,,0,5,5,5,,,,,0,20,20,20,,,,,,,,,,,,,,,,,,,,,,,,,,,,,1,2.2031583150092047,,,,,,,,,,,,,,,,,,,,,,,,,,,,030719_p2,001,2019_Mar_07_1149,body_behavioural,3.0.4,59.81067540787776,
5,"“Well, Jessie, this makes perfect sense. ",3,3,,,,0,5,5,5,,,,,0,21,21,21,,,,,,,,,,,,,,,,,,,,,,,,,,,,,1,2.8364883350004675,,,,,,,,,,,,,,,,,,,,,,,,,,,,030719_p2,001,2019_Mar_07_1149,body_behavioural,3.0.4,59.81067540787776,
5,"If you feel this way, then I don’t want to keep boring you, and I agree, let’s part ways once we make it back.",3,3,,,,0,5,5,5,,,,,0,22,22,22,,,,,,,,,,,,,,,,,,,,,,,,,,,,,1,3.9699348520080093,,,,,,,,,,,,,,,,,,,,,,,,,,,,030719_p2,001,2019_Mar_07_1149,body_behavioural,3.0.4,59.81067540787776,
5,You should’ve spoken up about my apparent intolerability before you decided to plan this vacation.”,3,3,,,,0,5,5,5,,,,,0,23,23,23,,,,,,,,,,,,,,,,,,,,,,,,,,,,,1,6.4035078970046015,,,,,,,,,,,,,,,,,,,,,,,,,,,,030719_p2,001,2019_Mar_07_1149,body_behavioural,3.0.4,59.81067540787776,
5,"He was clearly hurt, but thought it was pointless to argue. ",3,3,,,,0,5,5,5,,,,,0,24,24,24,,,,,,,,,,,,,,,,,,,,,,,,,,,,,1,5.653385821991833,,,,,,,,,,,,,,,,,,,,,,,,,,,,030719_p2,001,2019_Mar_07_1149,body_behavioural,3.0.4,59.81067540787776,
5,"They finally made it to the gate, just as they heard the final call for passengers boarding their flight.",3,3,,,,0,5,5,5,,,,,0,25,25,25,,,,,,,,,,,,,,,,,,,,,,,,,,,,,9,8.070247146999463,,,,,,,,,,,,,,,,,,,,,,,,,,,,030719_p2,001,2019_Mar_07_1149,body_behavioural,3.0.4,59.81067540787776,
5,"They scanned their tickets, and the annoyed flight attendant shooed them onto the jet bridge and then closed the door behind them.",4,3,,,,0,5,5,5,,,,,0,26,26,26,,,,,,,,,,,,,,,,,,,,,,,,,,,,,1,2.536446183003136,,,,,,,,,,,,,,,,,,,,,,,,,,,,030719_p2,001,2019_Mar_07_1149,body_behavioural,3.0.4,59.81067540787776,
5,"Luckily, they had forgotten to arrange seats next to each other on the flight back.",4,3,,,,0,5,5,5,,,,,0,27,27,27,,,,,,,,,,,,,,,,,,,,,,,,,,,,,1,3.953312290002941,,,,,,,,,,,,,,,,,,,,,,,,,,,,030719_p2,001,2019_Mar_07_1149,body_behavioural,3.0.4,59.81067540787776,
5,"They both had first-class tickets, but Jessie was headed for seat 1B while Calvin's seat was 4F. ",4,3,,,,0,5,5,5,,,,,0,28,28,28,,,,,,,,,,,,,,,,,,,,,,,,,,,,,1,5.451038362007239,,,,,,,,,,,,,,,,,,,,,,,,,,,,030719_p2,001,2019_Mar_07_1149,body_behavioural,3.0.4,59.81067540787776,
5,"Before Jessie sat down, she took a deep breath and then awkwardly shook Calvin’s hand, mumbling, “Well, have a nice flight.” ",4,4,,,,0,5,5,5,,,,,0,29,29,29,,,,,,,,,,,,,,,,,,,,,,,,,,,,,1,4.20101703000546,,,,,,,,,,,,,,,,,,,,,,,,,,,,030719_p2,001,2019_Mar_07_1149,body_behavioural,3.0.4,59.81067540787776,
5,He laughed in disbelief and walked to his window seat three rows back to get ready for takeoff.,4,4,,,,0,5,5,5,,,,,0,30,30,30,,,,,,,,,,,,,,,,,,,,,,,,,,,,,1,4.834316930006025,,,,,,,,,,,,,,,,,,,,,,,,,,,,030719_p2,001,2019_Mar_07_1149,body_behavioural,3.0.4,59.81067540787776,
5,Both were upset but glad that they would have this flight to mull things over and recenter. ,4,4,,,,0,5,5,5,,,,,0,31,31,31,,,,,,,,,,,,,,,,,,,,,,,,,,,,,1,5.317647172007128,,,,,,,,,,,,,,,,,,,,,,,,,,,,030719_p2,001,2019_Mar_07_1149,body_behavioural,3.0.4,59.81067540787776,
5,,,,,,,0,5,5,5,,,,,,,,,,,,,,,,,,,,,,,,,,,,,,,,,,,,,,,,,,,,,,,,,,,,,,,,,,,,,,,,,,030719_p2,001,2019_Mar_07_1149,body_behavioural,3.0.4,59.81067540787776,
6,,,,,,,0,6,6,6,0,0,0,0,,,,,,,,,,,,,,,,,,,,,,,,,,,space,1.0197199380054371,space,1.8864074900047854,space,0.8529371650074609,,,,,,,,,,,,,,,,,,,,,,,,,,,,,,030719_p2,001,2019_Mar_07_1149,body_behavioural,3.0.4,59.81067540787776,
6,,,,,,,0,6,6,6,1,0,1,0,,,,,,,,,,,,,,,,,,,,,,,,,,,,,,,space,0.5863582470046822,,,,,,,,,,,,,,,,,,,,,,,,,,,,,,030719_p2,001,2019_Mar_07_1149,body_behavioural,3.0.4,59.81067540787776,
6,,,,,,,0,6,6,6,2,0,2,0,,,,,,,,,,,,,,,,,,,,,,,,,,,,,,,space,0.47010834999673534,,,,,,,,,,,,,,,,,,,,,,,,,,,,,,030719_p2,001,2019_Mar_07_1149,body_behavioural,3.0.4,59.81067540787776,
6,"Thomas, dreading the conversation he was about to have, got to Annika’s Finer Diner early.",1,1,None,None,,0,6,6,6,,,,,0,0,0,0,,,,,,,,,,,,,,,,,,,,,,,,,,,,,9,13.354072796995752,,,,,,,,,,,,,,,,,,,,,,,,,,,,030719_p2,001,2019_Mar_07_1149,body_behavioural,3.0.4,59.81067540787776,
6,The restaurant had a kitschy charm and was reminiscent of a diner from the 70’s. ,1,1,None,None,,0,6,6,6,,,,,0,1,1,1,,,,,,,,,,,,,,,,,,,,,,,,,,,,,1,6.053282684995793,,,,,,,,,,,,,,,,,,,,,,,,,,,,030719_p2,001,2019_Mar_07_1149,body_behavioural,3.0.4,59.81067540787776,
6,A bell chimed as the door swung open and Sadie entered to find Thomas deep in thought on a bench by the door.,1,1,None,None,,0,6,6,6,,,,,0,2,2,2,,,,,,,,,,,,,,,,,,,,,,,,,,,,,1,4.036425191996386,,,,,,,,,,,,,,,,,,,,,,,,,,,,030719_p2,001,2019_Mar_07_1149,body_behavioural,3.0.4,59.81067540787776,
6,He jumped up and gave her a side hug. ,1,1,None,None,,0,6,6,6,,,,,0,3,3,3,,,,,,,,,,,,,,,,,,,,,,,,,,,,,1,4.469867676991271,,,,,,,,,,,,,,,,,,,,,,,,,,,,030719_p2,001,2019_Mar_07_1149,body_behavioural,3.0.4,59.81067540787776,
6,"“How was your day?”, he asked.",1,1,None,None,,0,6,6,6,,,,,0,4,4,4,,,,,,,,,,,,,,,,,,,,,,,,,,,,,1,2.9860299099964323,,,,,,,,,,,,,,,,,,,,,,,,,,,,030719_p2,001,2019_Mar_07_1149,body_behavioural,3.0.4,59.81067540787776,
6,"She clung onto him, “It was okay.",1,1,None,None,,0,6,6,6,,,,,0,5,5,5,,,,,,,,,,,,,,,,,,,,,,,,,,,,,1,3.0365391300001647,,,,,,,,,,,,,,,,,,,,,,,,,,,,030719_p2,001,2019_Mar_07_1149,body_behavioural,3.0.4,59.81067540787776,
6,I missed you today.”,1,1,None,None,,0,6,6,6,,,,,0,6,6,6,,,,,,,,,,,,,,,,,,,,,,,,,,,,,1,2.903078736999305,,,,,,,,,,,,,,,,,,,,,,,,,,,,030719_p2,001,2019_Mar_07_1149,body_behavioural,3.0.4,59.81067540787776,
6,He looked at the hostess coming towards them.,1,1,None,None,,0,6,6,6,,,,,0,7,7,7,,,,,,,,,,,,,,,,,,,,,,,,,,,,,1,2.3530978800117737,,,,,,,,,,,,,,,,,,,,,,,,,,,,030719_p2,001,2019_Mar_07_1149,body_behavioural,3.0.4,59.81067540787776,
6,"“Can we have a table in the back?”, Thomas asked.",1,1,None,None,,0,6,6,6,,,,,0,8,8,8,,,,,,,,,,,,,,,,,,,,,,,,,,,,,1,8.02005491500313,,,,,,,,,,,,,,,,,,,,,,,,,,,,030719_p2,001,2019_Mar_07_1149,body_behavioural,3.0.4,59.81067540787776,
6,"She shrugged and, as she loudly popped her bubblegum, replied, “Sure, honey, this way.”",1,1,9.0,None,,0,6,6,6,,,,,0,9,9,9,,,,,,,,,,,,,,,,,,,,,,,,,,,,,1,2.6531137069978286,,,,,,,,,,,,,,,,,,,,,,,,,,,,030719_p2,001,2019_Mar_07_1149,body_behavioural,3.0.4,59.81067540787776,
6,She led them to the back of the restaurant where there were dimly lit tables. ,2,1,None,None,,0,6,6,6,,,,,0,10,10,10,,,,,,,,,,,,,,,,,,,,,,,,,,,,,1,3.11753257199598,,,,,,,,,,,,,,,,,,,,,,,,,,,,030719_p2,001,2019_Mar_07_1149,body_behavioural,3.0.4,59.81067540787776,
6,"“Is this alright?”, the hostess asked.",2,1,None,None,,0,6,6,6,,,,,0,11,11,11,,,,,,,,,,,,,,,,,,,,,,,,,,,,,1,1.069753989999299,,,,,,,,,,,,,,,,,,,,,,,,,,,,030719_p2,001,2019_Mar_07_1149,body_behavioural,3.0.4,59.81067540787776,
6,Thomas cleared his throat and tried not to grimace at the stained fabric that lined the booth.,2,1,None,None,,0,6,6,6,,,,,0,12,12,12,,,,,,,,,,,,,,,,,,,,,,,,,,,,,1,6.570115085007274,,,,,,,,,,,,,,,,,,,,,,,,,,,,030719_p2,001,2019_Mar_07_1149,body_behavioural,3.0.4,59.81067540787776,
6,“This is great.,2,1,None,None,,0,6,6,6,,,,,0,13,13,13,,,,,,,,,,,,,,,,,,,,,,,,,,,,,1,0.736478859995259,,,,,,,,,,,,,,,,,,,,,,,,,,,,030719_p2,001,2019_Mar_07_1149,body_behavioural,3.0.4,59.81067540787776,
6,"Thank you,” Thomas said.",2,1,None,None,,0,6,6,6,,,,,0,14,14,14,,,,,,,,,,,,,,,,,,,,,,,,,,,,,1,1.6363371799961897,,,,,,,,,,,,,,,,,,,,,,,,,,,,030719_p2,001,2019_Mar_07_1149,body_behavioural,3.0.4,59.81067540787776,
6,Sadie slipped into the cushioned seat and grabbed Thomas’ hand.,2,1,None,None,,0,6,6,6,,,,,0,15,15,15,,,,,,,,,,,,,,,,,,,,,,,,,,,,,9,6.934422899998026,,,,,,,,,,,,,,,,,,,,,,,,,,,,030719_p2,001,2019_Mar_07_1149,body_behavioural,3.0.4,59.81067540787776,
6,"“Tell me about your day!”, Sadie sang as Thomas sat down.",2,1,None,None,,0,6,6,6,,,,,0,16,16,16,,,,,,,,,,,,,,,,,,,,,,,,,,,,,1,1.4361524200066924,,,,,,,,,,,,,,,,,,,,,,,,,,,,030719_p2,001,2019_Mar_07_1149,body_behavioural,3.0.4,59.81067540787776,
6,He looked at her silently and pulled his hand slowly from hers.,2,1,None,None,,0,6,6,6,,,,,0,17,17,17,,,,,,,,,,,,,,,,,,,,,,,,,,,,,1,2.453885127004469,,,,,,,,,,,,,,,,,,,,,,,,,,,,030719_p2,001,2019_Mar_07_1149,body_behavioural,3.0.4,59.81067540787776,
6,Sadie gave him a puzzled look.,2,1,None,None,,0,6,6,6,,,,,0,18,18,18,,,,,,,,,,,,,,,,,,,,,,,,,,,,,1,1.486273861999507,,,,,,,,,,,,,,,,,,,,,,,,,,,,030719_p2,001,2019_Mar_07_1149,body_behavioural,3.0.4,59.81067540787776,
6,Thomas looked away and took a deep breath. ,2,1,None,None,,0,6,6,6,,,,,0,19,19,19,,,,,,,,,,,,,,,,,,,,,,,,,,,,,1,1.83642580700689,,,,,,,,,,,,,,,,,,,,,,,,,,,,030719_p2,001,2019_Mar_07_1149,body_behavioural,3.0.4,59.81067540787776,
6,"Sadie asked, “What’s wrong?” ",2,1,None,None,,0,6,6,6,,,,,0,20,20,20,,,,,,,,,,,,,,,,,,,,,,,,,,,,,1,1.3340415069978917,,,,,,,,,,,,,,,,,,,,,,,,,,,,030719_p2,001,2019_Mar_07_1149,body_behavioural,3.0.4,59.81067540787776,
6,Thomas picked at his fingernails.,2,1,None,22.0,,0,6,6,6,,,,,0,21,21,21,,,,,,,,,,,,,,,,,,,,,,,,,,,,,1,1.0031533849978587,,,,,,,,,,,,,,,,,,,,,,,,,,,,030719_p2,001,2019_Mar_07_1149,body_behavioural,3.0.4,59.81067540787776,
6,"“Sadie, I’ve been thinking, and I need to figure out some stuff… on my own.”",2,2,None,None,,0,6,6,6,,,,,0,22,22,22,,,,,,,,,,,,,,,,,,,,,,,,,,,,,1,5.550998361999518,,,,,,,,,,,,,,,,,,,,,,,,,,,,030719_p2,001,2019_Mar_07_1149,body_behavioural,3.0.4,59.81067540787776,
6,Sadie’s mouth popped open for a moment.,2,2,None,None,,0,6,6,6,,,,,0,23,23,23,,,,,,,,,,,,,,,,,,,,,,,,,,,,,1,5.970384956992348,,,,,,,,,,,,,,,,,,,,,,,,,,,,030719_p2,001,2019_Mar_07_1149,body_behavioural,3.0.4,59.81067540787776,
6,Then she swallowed and shifted back in her seat.,2,2,None,None,,0,6,6,6,,,,,0,24,24,24,,,,,,,,,,,,,,,,,,,,,,,,,,,,,1,1.5363362850039266,,,,,,,,,,,,,,,,,,,,,,,,,,,,030719_p2,001,2019_Mar_07_1149,body_behavioural,3.0.4,59.81067540787776,
6,“Things have been really picking up at work.,2,2,None,None,,0,6,6,6,,,,,0,25,25,25,,,,,,,,,,,,,,,,,,,,,,,,,,,,,1,5.751004903009743,,,,,,,,,,,,,,,,,,,,,,,,,,,,030719_p2,001,2019_Mar_07_1149,body_behavioural,3.0.4,59.81067540787776,
6,And I’m not sure that this is the job I want to do anymore.,2,2,None,None,,0,6,6,6,,,,,0,26,26,26,,,,,,,,,,,,,,,,,,,,,,,,,,,,,1,3.453318362007849,,,,,,,,,,,,,,,,,,,,,,,,,,,,030719_p2,001,2019_Mar_07_1149,body_behavioural,3.0.4,59.81067540787776,
6,It’s been really overwhelming between working and figuring out if I should change careers.” ,2,2,17.0,None,,0,6,6,6,,,,,0,27,27,27,,,,,,,,,,,,,,,,,,,,,,,,,,,,,1,3.969890385007602,,,,,,,,,,,,,,,,,,,,,,,,,,,,030719_p2,001,2019_Mar_07_1149,body_behavioural,3.0.4,59.81067540787776,
6,The waiter appeared and interrupted the speech Thomas had been practicing.,3,2,None,None,,0,6,6,6,,,,,0,28,28,28,,,,,,,,,,,,,,,,,,,,,,,,,,,,,1,2.5371487950033043,,,,,,,,,,,,,,,,,,,,,,,,,,,,030719_p2,001,2019_Mar_07_1149,body_behavioural,3.0.4,59.81067540787776,
6,"“Hello you two!”, the waiter said.",3,2,None,None,,0,6,6,6,,,,,0,29,29,29,,,,,,,,,,,,,,,,,,,,,,,,,,,,,1,2.6364599670050666,,,,,,,,,,,,,,,,,,,,,,,,,,,,030719_p2,001,2019_Mar_07_1149,body_behavioural,3.0.4,59.81067540787776,
6,“Have you decided what you would like?”,3,2,None,None,,0,6,6,6,,,,,0,30,30,30,,,,,,,,,,,,,,,,,,,,,,,,,,,,,1,3.719739063002635,,,,,,,,,,,,,,,,,,,,,,,,,,,,030719_p2,001,2019_Mar_07_1149,body_behavioural,3.0.4,59.81067540787776,
6,"Thomas and Sadie realized there were menus on the table, and they glanced at the lengthy list quickly.",3,2,None,None,,0,6,6,6,,,,,0,31,31,31,,,,,,,,,,,,,,,,,,,,,,,,,,,,,1,5.336958005005727,,,,,,,,,,,,,,,,,,,,,,,,,,,,030719_p2,001,2019_Mar_07_1149,body_behavioural,3.0.4,59.81067540787776,
6,"There were so many strange dishes they had never heard of before, so they settled on familiar orders.",3,2,None,None,,0,6,6,6,,,,,0,32,32,32,,,,,,,,,,,,,,,,,,,,,,,,,,,,,1,4.803062106992002,,,,,,,,,,,,,,,,,,,,,,,,,,,,030719_p2,001,2019_Mar_07_1149,body_behavioural,3.0.4,59.81067540787776,
6,"“I’ll have a burger, no tomatoes,” Thomas said.",3,2,None,None,,0,6,6,6,,,,,0,33,33,33,,,,,,,,,,,,,,,,,,,,,,,,,,,,,1,1.550767895008903,,,,,,,,,,,,,,,,,,,,,,,,,,,,030719_p2,001,2019_Mar_07_1149,body_behavioural,3.0.4,59.81067540787776,
6,"Sadie asked about the reuben, and the waiter told her it was excellent.",3,2,None,None,,0,6,6,6,,,,,0,34,34,34,,,,,,,,,,,,,,,,,,,,,,,,,,,,,1,2.5365568499983056,,,,,,,,,,,,,,,,,,,,,,,,,,,,030719_p2,001,2019_Mar_07_1149,body_behavioural,3.0.4,59.81067540787776,
6,"Once she agreed to get that, he walked away. ",3,2,None,None,,0,6,6,6,,,,,0,35,35,35,,,,,,,,,,,,,,,,,,,,,,,,,,,,,1,1.5862320799933514,,,,,,,,,,,,,,,,,,,,,,,,,,,,030719_p2,001,2019_Mar_07_1149,body_behavioural,3.0.4,59.81067540787776,
6,Sadie and Thomas looked at each other. ,3,2,None,None,,0,6,6,6,,,,,0,36,36,36,,,,,,,,,,,,,,,,,,,,,,,,,,,,,1,2.653012082009809,,,,,,,,,,,,,,,,,,,,,,,,,,,,030719_p2,001,2019_Mar_07_1149,body_behavioural,3.0.4,59.81067540787776,
6,"“So what are you saying?”, Sadie asked. ",3,2,None,None,,0,6,6,6,,,,,0,37,37,37,,,,,,,,,,,,,,,,,,,,,,,,,,,,,1,1.8863991700054612,,,,,,,,,,,,,,,,,,,,,,,,,,,,030719_p2,001,2019_Mar_07_1149,body_behavioural,3.0.4,59.81067540787776,
6,"Thomas replied, “I want to take a break for awhile.",3,2,None,None,,0,6,6,6,,,,,0,38,38,38,,,,,,,,,,,,,,,,,,,,,,,,,,,,,1,1.7031053670070833,,,,,,,,,,,,,,,,,,,,,,,,,,,,030719_p2,001,2019_Mar_07_1149,body_behavioural,3.0.4,59.81067540787776,
6,"You know, have space to figure out what I’m supposed to be doing.”",3,2,None,17.0,,0,6,6,6,,,,,0,39,39,39,,,,,,,,,,,,,,,,,,,,,,,,,,,,,1,2.7034831769997254,,,,,,,,,,,,,,,,,,,,,,,,,,,,030719_p2,001,2019_Mar_07_1149,body_behavioural,3.0.4,59.81067540787776,
6,Sadie quietly burst into tears. ,3,3,None,None,,0,6,6,6,,,,,0,40,40,40,,,,,,,,,,,,,,,,,,,,,,,,,,,,,1,1.538942341998336,,,,,,,,,,,,,,,,,,,,,,,,,,,,030719_p2,001,2019_Mar_07_1149,body_behavioural,3.0.4,59.81067540787776,
6,"Nevertheless, people sitting at the adjacent table looked over and quickly averted their gaze as they realized what was happening. ",3,3,None,None,,0,6,6,6,,,,,0,41,41,41,,,,,,,,,,,,,,,,,,,,,,,,,,,,,1,5.2010258119989885,,,,,,,,,,,,,,,,,,,,,,,,,,,,030719_p2,001,2019_Mar_07_1149,body_behavioural,3.0.4,59.81067540787776,
6,“Is this really what you want?,3,3,None,None,,0,6,6,6,,,,,0,42,42,42,,,,,,,,,,,,,,,,,,,,,,,,,,,,,1,1.1548314799874788,,,,,,,,,,,,,,,,,,,,,,,,,,,,030719_p2,001,2019_Mar_07_1149,body_behavioural,3.0.4,59.81067540787776,
6,I don’t understand.,3,3,None,None,,0,6,6,6,,,,,0,43,43,43,,,,,,,,,,,,,,,,,,,,,,,,,,,,,1,1.0547518030070933,,,,,,,,,,,,,,,,,,,,,,,,,,,,030719_p2,001,2019_Mar_07_1149,body_behavioural,3.0.4,59.81067540787776,
6,I don’t understand.,3,3,None,None,,0,6,6,6,,,,,0,44,44,44,,,,,,,,,,,,,,,,,,,,,,,,,,,,,1,1.238242621999234,,,,,,,,,,,,,,,,,,,,,,,,,,,,030719_p2,001,2019_Mar_07_1149,body_behavioural,3.0.4,59.81067540787776,
6,Things were fine. ,3,3,None,None,,0,6,6,6,,,,,0,45,45,45,,,,,,,,,,,,,,,,,,,,,,,,,,,,,1,0.887807459992473,,,,,,,,,,,,,,,,,,,,,,,,,,,,030719_p2,001,2019_Mar_07_1149,body_behavioural,3.0.4,59.81067540787776,
6,"We don’t have to hang out all the time, or as much as we do now.”",3,3,None,None,,0,6,6,6,,,,,0,46,46,46,,,,,,,,,,,,,,,,,,,,,,,,,,,,,1,5.404987230009283,,,,,,,,,,,,,,,,,,,,,,,,,,,,030719_p2,001,2019_Mar_07_1149,body_behavioural,3.0.4,59.81067540787776,
6,Thomas chewed on his bottom lip and picked at his now bleeding hangnail. ,3,3,20.0,None,,0,6,6,6,,,,,0,47,47,47,,,,,,,,,,,,,,,,,,,,,,,,,,,,,1,3.1025227549980627,,,,,,,,,,,,,,,,,,,,,,,,,,,,030719_p2,001,2019_Mar_07_1149,body_behavioural,3.0.4,59.81067540787776,
6,"At that moment, the waiter arrived with the burger and reuben and set them on the table.",4,3,None,None,,0,6,6,6,,,,,0,48,48,48,,,,,,,,,,,,,,,,,,,,,,,,,,,,,1,1.7846700700029032,,,,,,,,,,,,,,,,,,,,,,,,,,,,030719_p2,001,2019_Mar_07_1149,body_behavioural,3.0.4,59.81067540787776,
6,“Is there anything else I can get for you two?,4,3,None,None,,0,6,6,6,,,,,0,49,49,49,,,,,,,,,,,,,,,,,,,,,,,,,,,,,1,2.638258164995932,,,,,,,,,,,,,,,,,,,,,,,,,,,,030719_p2,001,2019_Mar_07_1149,body_behavioural,3.0.4,59.81067540787776,
6,"Will you be getting dessert tonight?”, he asked.",4,3,None,None,,0,6,6,6,,,,,0,50,50,50,,,,,,,,,,,,,,,,,,,,,,,,,,,,,9,8.822372936992906,,,,,,,,,,,,,,,,,,,,,,,,,,,,030719_p2,001,2019_Mar_07_1149,body_behavioural,3.0.4,59.81067540787776,
6,"“Oh no, we’re good, thanks,” Thomas said.",4,3,None,None,,0,6,6,6,,,,,0,51,51,51,,,,,,,,,,,,,,,,,,,,,,,,,,,,,1,2.2547156069922494,,,,,,,,,,,,,,,,,,,,,,,,,,,,030719_p2,001,2019_Mar_07_1149,body_behavioural,3.0.4,59.81067540787776,
6,"Once the waiter had walked away still oblivious to the situation, Thomas sighed and said, “Sadie, I’m sorry.",4,3,None,None,,0,6,6,6,,,,,0,52,52,52,,,,,,,,,,,,,,,,,,,,,,,,,,,,,9,13.18844053700741,,,,,,,,,,,,,,,,,,,,,,,,,,,,030719_p2,001,2019_Mar_07_1149,body_behavioural,3.0.4,59.81067540787776,
6,"You are so great, and I love hanging out with you.",4,3,None,None,,0,6,6,6,,,,,0,53,53,53,,,,,,,,,,,,,,,,,,,,,,,,,,,,,1,2.633566942997277,,,,,,,,,,,,,,,,,,,,,,,,,,,,030719_p2,001,2019_Mar_07_1149,body_behavioural,3.0.4,59.81067540787776,
6,But I need some time.,4,3,None,None,,0,6,6,6,,,,,0,54,54,54,,,,,,,,,,,,,,,,,,,,,,,,,,,,,1,1.2049751150043448,,,,,,,,,,,,,,,,,,,,,,,,,,,,030719_p2,001,2019_Mar_07_1149,body_behavioural,3.0.4,59.81067540787776,
6,I’m so sorry.”,4,3,None,None,,0,6,6,6,,,,,0,55,55,55,,,,,,,,,,,,,,,,,,,,,,,,,,,,,1,0.8210883869905956,,,,,,,,,,,,,,,,,,,,,,,,,,,,030719_p2,001,2019_Mar_07_1149,body_behavioural,3.0.4,59.81067540787776,
6,"He grabbed her hand, and she pulled it out of his.",4,3,None,None,,0,6,6,6,,,,,0,56,56,56,,,,,,,,,,,,,,,,,,,,,,,,,,,,,1,3.9547612330061384,,,,,,,,,,,,,,,,,,,,,,,,,,,,030719_p2,001,2019_Mar_07_1149,body_behavioural,3.0.4,59.81067540787776,
6,"“Sadie,” he said.",4,3,None,17.0,,0,6,6,6,,,,,0,57,57,57,,,,,,,,,,,,,,,,,,,,,,,,,,,,,1,1.9549634799914202,,,,,,,,,,,,,,,,,,,,,,,,,,,,030719_p2,001,2019_Mar_07_1149,body_behavioural,3.0.4,59.81067540787776,
6," She stood up, grabbed half of the reuben and shook it at him as she growled, “Don’t follow me, and don’t talk to me anymore!”",4,4,None,None,,0,6,6,6,,,,,0,58,58,58,,,,,,,,,,,,,,,,,,,,,,,,,,,,,1,6.2546529969986295,,,,,,,,,,,,,,,,,,,,,,,,,,,,030719_p2,001,2019_Mar_07_1149,body_behavioural,3.0.4,59.81067540787776,
6,"Sadie's heels clacked loudly against the black and white linoleum, and the bell above the door jingled cheerfully as the door closed behind her.",4,4,None,None,,0,6,6,6,,,,,0,59,59,59,,,,,,,,,,,,,,,,,,,,,,,,,,,,,1,5.287990262993844,,,,,,,,,,,,,,,,,,,,,,,,,,,,030719_p2,001,2019_Mar_07_1149,body_behavioural,3.0.4,59.81067540787776,
6,Thomas sat there for awhile in shock at how quickly everything transpired. ,4,4,None,None,,0,6,6,6,,,,,0,60,60,60,,,,,,,,,,,,,,,,,,,,,,,,,,,,,1,3.867364047007868,,,,,,,,,,,,,,,,,,,,,,,,,,,,030719_p2,001,2019_Mar_07_1149,body_behavioural,3.0.4,59.81067540787776,
6,"He grabbed his burger and took a bite of it, creating a dry and fishy taste in his mouth.",4,4,None,None,,0,6,6,6,,,,,0,61,61,61,,,,,,,,,,,,,,,,,,,,,,,,,,,,,1,6.00115929999447,,,,,,,,,,,,,,,,,,,,,,,,,,,,030719_p2,001,2019_Mar_07_1149,body_behavioural,3.0.4,59.81067540787776,
6,He dropped it back on his plate and wondered if the restaurant was responsible for the foul taste. ,4,4,13.0,5.0,,0,6,6,6,,,,,0,62,62,62,,,,,,,,,,,,,,,,,,,,,,,,,,,,,1,4.717588705010712,,,,,,,,,,,,,,,,,,,,,,,,,,,,030719_p2,001,2019_Mar_07_1149,body_behavioural,3.0.4,59.81067540787776,
6,,,,,,,0,6,6,6,,,,,,,,,,,,,,,,,,,,,,,,,,,,,,,,,,,,,,,,,,,,,,,,,,,,,,,,,,,,,,,,,,030719_p2,001,2019_Mar_07_1149,body_behavioural,3.0.4,59.81067540787776,
7,,,,,,,0,7,7,7,0,0,0,0,,,,,,,,,,,,,,,,,,,,,,,,,,,space,0.9376892820000648,space,0.588021507996018,space,0.9542990750051104,,,,,,,,,,,,,,,,,,,,,,,,,,,,,,030719_p2,001,2019_Mar_07_1149,body_behavioural,3.0.4,59.81067540787776,
7,"Sven and Isabel walked hurriedly from the cab into the Barcelona Airport after an incredible weekend with Isabel’s family, which had wiped away any doubts Sven had had about his decision to propose. ",1,1,,,,0,7,7,7,,,,,0,0,0,0,,,,,,,,,,,,,,,,,,,,,,,,,,,,,9,20.272936116991332,,,,,,,,,,,,,,,,,,,,,,,,,,,,030719_p2,001,2019_Mar_07_1149,body_behavioural,3.0.4,59.81067540787776,
7,"They were a little pressed for time, with only a little over an hour until their flight would take off to go back to the US, but they already had their online boarding passes and no checked luggage. ",1,1,,,,0,7,7,7,,,,,0,1,1,1,,,,,,,,,,,,,,,,,,,,,,,,,,,,,1,10.85555409999506,,,,,,,,,,,,,,,,,,,,,,,,,,,,030719_p2,001,2019_Mar_07_1149,body_behavioural,3.0.4,59.81067540787776,
7,"When Isabel stopped to rummage through her purse looking for her phone, Sven turned his back to her and took the velvet box out of his backpack, opening it to look at the ring he bought her.",1,2,,,,0,7,7,7,,,,,0,2,2,2,,,,,,,,,,,,,,,,,,,,,,,,,,,,,1,6.004510044993367,,,,,,,,,,,,,,,,,,,,,,,,,,,,030719_p2,001,2019_Mar_07_1149,body_behavioural,3.0.4,59.81067540787776,
7,"He had received her parents’ blessing during the trip, and he was almost giddy with excitement. ",1,2,,,,0,7,7,7,,,,,0,3,3,3,,,,,,,,,,,,,,,,,,,,,,,,,,,,,1,3.334386144997552,,,,,,,,,,,,,,,,,,,,,,,,,,,,030719_p2,001,2019_Mar_07_1149,body_behavioural,3.0.4,59.81067540787776,
7,"He tilted the ring backward and forward, despite having already studied it daily since he had purchased it a few weeks ago. ",1,2,,,,0,7,7,7,,,,,0,4,4,4,,,,,,,,,,,,,,,,,,,,,,,,,,,,,1,7.468170919994009,,,,,,,,,,,,,,,,,,,,,,,,,,,,030719_p2,001,2019_Mar_07_1149,body_behavioural,3.0.4,59.81067540787776,
7,"It was a simple design, with a clear, white diamond on a thin silver band.",1,2,,,,0,7,7,7,,,,,0,5,5,5,,,,,,,,,,,,,,,,,,,,,,,,,,,,,1,4.434142694997718,,,,,,,,,,,,,,,,,,,,,,,,,,,,030719_p2,001,2019_Mar_07_1149,body_behavioural,3.0.4,59.81067540787776,
7,"“Sven, let’s go! ” Isabel said. ",1,2,,,,0,7,7,7,,,,,0,6,6,6,,,,,,,,,,,,,,,,,,,,,,,,,,,,,1,1.871732047002297,,,,,,,,,,,,,,,,,,,,,,,,,,,,030719_p2,001,2019_Mar_07_1149,body_behavioural,3.0.4,59.81067540787776,
7,Sven discretely closed the box and put it in his pocket.,1,2,,,,0,7,7,7,,,,,0,7,7,7,,,,,,,,,,,,,,,,,,,,,,,,,,,,,1,2.254886302005616,,,,,,,,,,,,,,,,,,,,,,,,,,,,030719_p2,001,2019_Mar_07_1149,body_behavioural,3.0.4,59.81067540787776,
7," They entered the security line, weaving through the roped walkways to the front. ",2,2,,,,0,7,7,7,,,,,0,8,8,8,,,,,,,,,,,,,,,,,,,,,,,,,,,,,1,8.90526423000847,,,,,,,,,,,,,,,,,,,,,,,,,,,,030719_p2,001,2019_Mar_07_1149,body_behavioural,3.0.4,59.81067540787776,
7,"When they were up, Isabel realized her laptop was buried somewhere in her duffle bag. ",2,2,,,,0,7,7,7,,,,,0,9,9,9,,,,,,,,,,,,,,,,,,,,,,,,,,,,,1,3.787864685000386,,,,,,,,,,,,,,,,,,,,,,,,,,,,030719_p2,001,2019_Mar_07_1149,body_behavioural,3.0.4,59.81067540787776,
7,Sven had to hold the growing mound of objects she pulled from her bag until she unearthed the laptop.,2,2,,,,0,7,7,7,,,,,0,10,10,10,,,,,,,,,,,,,,,,,,,,,,,,,,,,,1,2.9883842849958455,,,,,,,,,,,,,,,,,,,,,,,,,,,,030719_p2,001,2019_Mar_07_1149,body_behavioural,3.0.4,59.81067540787776,
7,She set it into a bin and then had to unstrap her leather boots and put everything else into the bins.,2,2,,,,0,7,7,7,,,,,0,11,11,11,,,,,,,,,,,,,,,,,,,,,,,,,,,,,1,4.388357495001401,,,,,,,,,,,,,,,,,,,,,,,,,,,,030719_p2,001,2019_Mar_07_1149,body_behavioural,3.0.4,59.81067540787776,
7,"Finally, she relieved Sven of his holding duties, and he hurriedly deposited his own backpack on the belt as the people behind them glared without shame. ",2,2,,,,0,7,7,7,,,,,0,12,12,12,,,,,,,,,,,,,,,,,,,,,,,,,,,,,1,3.9717632950050756,,,,,,,,,,,,,,,,,,,,,,,,,,,,030719_p2,001,2019_Mar_07_1149,body_behavioural,3.0.4,59.81067540787776,
7,"Sven went into the millimeter wave scanner after Isabel, put his hands up, and the metal bars whirled around him.",2,2,,,,0,7,7,7,,,,,0,13,13,13,,,,,,,,,,,,,,,,,,,,,,,,,,,,,1,10.65566435699293,,,,,,,,,,,,,,,,,,,,,,,,,,,,030719_p2,001,2019_Mar_07_1149,body_behavioural,3.0.4,59.81067540787776,
7,"“Sir, please step to the side.",2,2,,,,0,7,7,7,,,,,0,14,14,14,,,,,,,,,,,,,,,,,,,,,,,,,,,,,1,5.221219095008564,,,,,,,,,,,,,,,,,,,,,,,,,,,,030719_p2,001,2019_Mar_07_1149,body_behavioural,3.0.4,59.81067540787776,
7,"You need to empty your pockets,” the security guard said.",2,2,,,,0,7,7,7,,,,,0,15,15,15,,,,,,,,,,,,,,,,,,,,,,,,,,,,,1,1.721512710006209,,,,,,,,,,,,,,,,,,,,,,,,,,,,030719_p2,001,2019_Mar_07_1149,body_behavioural,3.0.4,59.81067540787776,
7,"With a sinking feeling Sven realized the mistake he had made forgetting to put the ring back in his bag, as Isabel and the guard both looked at him expectantly.",2,2,,,,0,7,7,7,,,,,0,16,16,16,,,,,,,,,,,,,,,,,,,,,,,,,,,,,1,8.52147841999249,,,,,,,,,,,,,,,,,,,,,,,,,,,,030719_p2,001,2019_Mar_07_1149,body_behavioural,3.0.4,59.81067540787776,
7,"Sven,  deciding he would make the best of the situation, grabbed Isabel's hand as he reached into his pocket.",2,2,,,,0,7,7,7,,,,,0,17,17,17,,,,,,,,,,,,,,,,,,,,,,,,,,,,,1,5.421702987005119,,,,,,,,,,,,,,,,,,,,,,,,,,,,030719_p2,001,2019_Mar_07_1149,body_behavioural,3.0.4,59.81067540787776,
7,"He got down on one knee and, giggling slightly at her confused look, said, “Isabel, this isn't quite how I'd planned this, but - will you marry me?”",2,3,,,,0,7,7,7,,,,,0,18,18,18,,,,,,,,,,,,,,,,,,,,,,,,,,,,,1,9.384523842003546,,,,,,,,,,,,,,,,,,,,,,,,,,,,030719_p2,001,2019_Mar_07_1149,body_behavioural,3.0.4,59.81067540787776,
7,The security guard gasped.,2,3,,,,0,7,7,7,,,,,0,19,19,19,,,,,,,,,,,,,,,,,,,,,,,,,,,,,1,2.9007984019990545,,,,,,,,,,,,,,,,,,,,,,,,,,,,030719_p2,001,2019_Mar_07_1149,body_behavioural,3.0.4,59.81067540787776,
7,All the people who were putting their shoes back on and gathering their belongings stopped what they were doing and walked closer to the couple.,2,3,,,,0,7,7,7,,,,,0,20,20,20,,,,,,,,,,,,,,,,,,,,,,,,,,,,,1,2.9883381469990127,,,,,,,,,,,,,,,,,,,,,,,,,,,,030719_p2,001,2019_Mar_07_1149,body_behavioural,3.0.4,59.81067540787776,
7,"Isabel was astonished, and far too shy to respond in front of the backup of passengers waiting behind them.",2,3,,,,0,7,7,7,,,,,0,21,21,21,,,,,,,,,,,,,,,,,,,,,,,,,,,,,1,2.9840534319955623,,,,,,,,,,,,,,,,,,,,,,,,,,,,030719_p2,001,2019_Mar_07_1149,body_behavioural,3.0.4,59.81067540787776,
7,"She attempted to stammer a response as she frantically grabbed her and Sven’s shoes, leaving Sven to retrieve their bags.",2,3,,,,0,7,7,7,,,,,0,22,22,22,,,,,,,,,,,,,,,,,,,,,,,,,,,,,1,6.1217931650026,,,,,,,,,,,,,,,,,,,,,,,,,,,,030719_p2,001,2019_Mar_07_1149,body_behavioural,3.0.4,59.81067540787776,
7,"Both of them slipping in their socked feet, she fled onto the concourse with Sven trying to catch up behind her.",3,3,,,,0,7,7,7,,,,,0,23,23,23,,,,,,,,,,,,,,,,,,,,,,,,,,,,,1,5.905052946996875,,,,,,,,,,,,,,,,,,,,,,,,,,,,030719_p2,001,2019_Mar_07_1149,body_behavioural,3.0.4,59.81067540787776,
7,"Everyone in the terminal was looking at them with confusion as Sven, holding the bags in one hand and the open ring box in the other, finally caught up to her.",3,3,,,,0,7,7,7,,,,,0,24,24,24,,,,,,,,,,,,,,,,,,,,,,,,,,,,,1,10.538887282003998,,,,,,,,,,,,,,,,,,,,,,,,,,,,030719_p2,001,2019_Mar_07_1149,body_behavioural,3.0.4,59.81067540787776,
7,“Isabel?”,3,3,,,,0,7,7,7,,,,,0,25,25,25,,,,,,,,,,,,,,,,,,,,,,,,,,,,,1,2.1715920679998817,,,,,,,,,,,,,,,,,,,,,,,,,,,,030719_p2,001,2019_Mar_07_1149,body_behavioural,3.0.4,59.81067540787776,
7,"He watched her face as she turned, trying to read her expression.",3,3,,,,0,7,7,7,,,,,0,26,26,26,,,,,,,,,,,,,,,,,,,,,,,,,,,,,1,3.533429185001296,,,,,,,,,,,,,,,,,,,,,,,,,,,,030719_p2,001,2019_Mar_07_1149,body_behavioural,3.0.4,59.81067540787776,
7,"Her eyes were wide, but she was smiling as she hyperventilated, “Of course yes, Sven, yes!” ",3,4,,,,0,7,7,7,,,,,0,27,27,27,,,,,,,,,,,,,,,,,,,,,,,,,,,,,1,10.368697290003183,,,,,,,,,,,,,,,,,,,,,,,,,,,,030719_p2,001,2019_Mar_07_1149,body_behavioural,3.0.4,59.81067540787776,
7,"They dropped their belongings and hugged, and Sven slipped the ring onto Isabel’s finger. ",3,4,,,,0,7,7,7,,,,,0,28,28,28,,,,,,,,,,,,,,,,,,,,,,,,,,,,,1,7.054609184997389,,,,,,,,,,,,,,,,,,,,,,,,,,,,030719_p2,001,2019_Mar_07_1149,body_behavioural,3.0.4,59.81067540787776,
7,"After getting their shoes back on, they practically skipped to the gate, filled with joy.",3,4,,,,0,7,7,7,,,,,0,29,29,29,,,,,,,,,,,,,,,,,,,,,,,,,,,,,1,2.2549556869926164,,,,,,,,,,,,,,,,,,,,,,,,,,,,030719_p2,001,2019_Mar_07_1149,body_behavioural,3.0.4,59.81067540787776,
7,Sven high-fived a confused shoe-shine attendant as they passed.,3,4,,,,0,7,7,7,,,,,0,30,30,30,,,,,,,,,,,,,,,,,,,,,,,,,,,,,1,3.5364421279955423,,,,,,,,,,,,,,,,,,,,,,,,,,,,030719_p2,001,2019_Mar_07_1149,body_behavioural,3.0.4,59.81067540787776,
7,"They sat down outside their gate, having actually made good time, until the attendant called for passengers.",3,4,,,,0,7,7,7,,,,,0,31,31,31,,,,,,,,,,,,,,,,,,,,,,,,,,,,,1,3.886584762003622,,,,,,,,,,,,,,,,,,,,,,,,,,,,030719_p2,001,2019_Mar_07_1149,body_behavioural,3.0.4,59.81067540787776,
7,"They boarded, sitting together in first class, and had a glass of champagne to celebrate the departure into their new life together.",4,4,,,,0,7,7,7,,,,,0,32,32,32,,,,,,,,,,,,,,,,,,,,,,,,,,,,,9,15.287453031996847,,,,,,,,,,,,,,,,,,,,,,,,,,,,030719_p2,001,2019_Mar_07_1149,body_behavioural,3.0.4,59.81067540787776,
7,"Some of their neighboring passengers who had witnessed the proposal congratulated them, and a woman next to them showed them that she had been live-tweeting the whole event and that it was already going viral online.",4,4,,,,0,7,7,7,,,,,0,33,33,33,,,,,,,,,,,,,,,,,,,,,,,,,,,,,1,5.7868210849992465,,,,,,,,,,,,,,,,,,,,,,,,,,,,030719_p2,001,2019_Mar_07_1149,body_behavioural,3.0.4,59.81067540787776,
7,"Isabel slid down in her seat with her hands over her face, both embarrassed and overjoyed at the same time.
",4,4,,,,0,7,7,7,,,,,0,34,34,34,,,,,,,,,,,,,,,,,,,,,,,,,,,,,1,3.653316026990069,,,,,,,,,,,,,,,,,,,,,,,,,,,,030719_p2,001,2019_Mar_07_1149,body_behavioural,3.0.4,59.81067540787776,
7,,,,,,,0,7,7,7,,,,,,,,,,,,,,,,,,,,,,,,,,,,,,,,,,,,,,,,,,,,,,,,,,,,,,,,,,,,,,,,,,030719_p2,001,2019_Mar_07_1149,body_behavioural,3.0.4,59.81067540787776,
,,,,,,,,,,,,,,,,,,,,,,,,,,,,,,,,,,,,,,,,,,,,,,,,,1952.7510901400092,space,3.319700706997537,,,,,,,,,,,,,,,,,,,,,,,,,030719_p2,001,2019_Mar_07_1149,body_behavioural,3.0.4,59.81067540787776,
,,,,,,The next task in the experiment is to recall each story to the best of your ability.,,,,,,,,,,,,,0,0,0,0,,,,,,,,,,,,,,,,,,,,,,,,,,,,,,space,4.503371332000825,,,,,,,,,,,,,,,,,,,,,,,030719_p2,001,2019_Mar_07_1149,body_behavioural,3.0.4,59.81067540787776,
,,,,,,"You will be presented with the story title, names, the images, and a blank text box for each story.",,,,,,,,,,,,,0,1,1,1,,,,,,,,,,,,,,,,,,,,,,,,,,,,,,space,5.253359795009601,,,,,,,,,,,,,,,,,,,,,,,030719_p2,001,2019_Mar_07_1149,body_behavioural,3.0.4,59.81067540787776,
,,,,,,Describe the story with as many details as you can remember in the space provided. ,,,,,,,,,,,,,0,2,2,2,,,,,,,,,,,,,,,,,,,,,,,,,,,,,,space,7.670074253008352,,,,,,,,,,,,,,,,,,,,,,,030719_p2,001,2019_Mar_07_1149,body_behavioural,3.0.4,59.81067540787776,
,,,,,,"When you are finished recalling one story, to move onto the next one hit ‘return’. ",,,,,,,,,,,,,0,3,3,3,,,,,,,,,,,,,,,,,,,,,,,,,,,,,,space,4.970245963006164,,,,,,,,,,,,,,,,,,,,,,,030719_p2,001,2019_Mar_07_1149,body_behavioural,3.0.4,59.81067540787776,
,,,,,,There is a 5 minute time limit to make your response. ,,,,,,,,,,,,,0,4,4,4,,,,,,,,,,,,,,,,,,,,,,,,,,,,,,space,2.436530484992545,,,,,,,,,,,,,,,,,,,,,,,030719_p2,001,2019_Mar_07_1149,body_behavioural,3.0.4,59.81067540787776,
0,,,,,,,,,,,,,,,,,,,,,,,0,0,0,0,,,,,,,,,,,,,,,,,,,,,,,,,,,,space,0.9341044220054755,"Leon and ariana were in a lecture on ancient egyptian burial rituals. leon felt he recognized ariana, but he couldn't figure out where from. he wrote a note on a piece of paper asking if she rocognized him. she did not, but they continued to pass notes throughout the lecture. at the end of the lecture, leon asked ariana to go out to dinner that night and she agreed.",,,,,,,,,,,,,,,,,,,,030719_p2,001,2019_Mar_07_1149,body_behavioural,3.0.4,59.81067540787776,
1,,,,,,,,,,,,,,,,,,,,,,,0,1,1,1,,,,,,,,,,,,,,,,,,,,,,,,,,,,space,5.7199832829937804,"Alma wanted charlie's venture capitalist colleagues to invest in her web development idea. she wanted them to invest $30,000 right away. they discussed the situation while in class. charlie's colleagues only wanted to invest $15,000 at that point, but throughout class alma convinced him that the $30,000 up front would be best since her plans had banked on having that initial investment right away.",,,,,,,,,,,,,,,,,,,,030719_p2,001,2019_Mar_07_1149,body_behavioural,3.0.4,59.81067540787776,
2,,,,,,,,,,,,,,,,,,,,,,,0,2,2,2,,,,,,,,,,,,,,,,,,,,,,,,,,,,space,0.7858936929987976,"Ms. bianchi is a a gourmet italian foods supplier, namely cheese, crackers, jams. she wants mr. morrison to supply her grocery store with ms. bianchi's products. they have a business meeting in the grocery store, which seemed bizarre to ms. bianchi, but it is ms. morrison's preference because that is where the products will actually be. they negotiate and ms. bianchi points out that this will increase the caliber of the cheese department. she says she will buy crackers so they can try some of her cheeses. as they wait in the checkout line, ms. bianchi shows ms. morrison graphs and projections. ms. morrison's largest concern is import taxes from bringing in italian products. ultimately ms. morrison agrees to buy ms. bianchi's products and that it will add european cache to the grocery store.",,,,,,,,,,,,,,,,,,,,030719_p2,001,2019_Mar_07_1149,body_behavioural,3.0.4,59.81067540787776,
3,,,,,,,,,,,,,,,,,,,,,,,0,3,3,3,,,,,,,,,,,,,,,,,,,,,,,,,,,,space,1.2860232700040797,"Simon and carina are returning from a tropical vacation. carina is frustrated with simon because he always talks about his job and golfing. he incessantly tells stories and she is fed up with him. she plans to break up with him. when they are at the airport, he starts to fill silence at the security check line, and she cannot take it anymore. she dumps him right there and then. he storms away and she eventually catched up to him. they talk about their issues briefly, and then go to their seats in first class. she is in the first row and he in seat 4f. they are both upset but are glad to have the flight to cool off and mull things over.",,,,,,,,,,,,,,,,,,,,030719_p2,001,2019_Mar_07_1149,body_behavioural,3.0.4,59.81067540787776,
4,,,,,,,,,,,,,,,,,,,,,,,0,4,4,4,,,,,,,,,,,,,,,,,,,,,,,,,,,,space,1.6507953999971505,"Senna and alvira go to dinner at a beautiful celebrity chef-owned restaurant, likely in california because it overlooks the pacific ocean. senna has sweaty palms and is nervous but excited because he plans to propose to alvira at dinner. he orders oysters and she orders scallops and the food is delicious. before their food comes, senna goes to the bathroom to check out the ring. it is a canary diamond from his grandmother surrounded by tiny diamonds with a thin silver band. the food is delicious. the waiter brings out dessert, a small cake with the ring on top. senna tells alvira the three years he's spent with her have been the best of his life, and he proposes. she is surprised but extremely happy and says yes! the waiter brings over champagne and the other diners clap, but alvira and senna don't notice because they are staring deeply into one another's eyes. additionally, the pretense of this fancy dinner was a celebration that alvira had grown fresh tomatoes in their garden.",,,,,,,,,,,,,,,,,,,,030719_p2,001,2019_Mar_07_1149,body_behavioural,3.0.4,59.81067540787776,
5,,,,,,,,,,,,,,,,,,,,,,,0,5,5,5,,,,,,,,,,,,,,,,,,,,,,,,,,,,space,0.9698663399904035,I do not recall this story,,,,,,,,,,,,,,,,,,,,030719_p2,001,2019_Mar_07_1149,body_behavioural,3.0.4,59.81067540787776,
6,,,,,,,,,,,,,,,,,,,,,,,0,6,6,6,,,,,,,,,,,,,,,,,,,,,,,,,,,,space,0.9530829270079266,"Thomas is waiting for sadie at a diner. he is nervous. she shows up and acts cuddly toward him. he asks for a booth in the back where there is low lighting. when they are sitting at their table, which thomas notices is not very nice or clean, thomas tells sadie that he thinke they should take a break because he needs to figure out what he wants to do with his career. he had been very busy at work and needs to figure out things by himself. sadie is shocked and upset. while this is happening, the waiter takes their order. sadie orders a reuben and thomas a burger with tomatoes. sadie pleads with thomas and says they can see eachother less if it has been too much, but he says they just shouldn't be together. sadie grabd half her sandwich and storms away. thomas takes a bite of his burger and it tastes bad. at one point during the conversation, the waitier comes over and asks if they want dessert.",,,,,,,,,,,,,,,,,,,,030719_p2,001,2019_Mar_07_1149,body_behavioural,3.0.4,59.81067540787776,
7,,,,,,,,,,,,,,,,,,,,,,,0,7,7,7,,,,,,,,,,,,,,,,,,,,,,,,,,,,space,1.1541105399955995,"Sven and isabel are getting out of a cab at the airport in barcelona, where they just spent a weekend with isabel's family. sven is planning to propose to isabel, having just gotten her parents' blessing that weekend. they go to the security line and sven inspects the ring, as he had been doing repeatedly since buying it. he slips it in his pocket as they go through security. the tsa agent tells him to empty his pockets, and he realizes he forgot to put the ring back into his bag.  before this, isabel realized she had left her laptop in her duffel bag, so she had to empty it to get it out and put it in a separate bin. when the tsa agent demands sven empty his pockets, he gets down on one knee and proposes to isabel, telling her this was not how he intended to do it but oh well. she was extremely flustered and did not respond immediately, she gathered her things, put on her leather boots and rushed toward the gate. he runs after her calling her name. she then looks at him as he tries to figure out her facial expression and says yes!! they are both thrilled. they sit in first class on their flight back and drink champagne.",,,,,,,,,,,,,,,,,,,,030719_p2,001,2019_Mar_07_1149,body_behavioural,3.0.4,59.81067540787776,
,,,,,,,,,,,,,,,,,,,,,,,,,,,,,,,,,,,,,,,,,,,,,,,,,,,,,,,,,3312.108223602001,space,1.9200799399986863,,,,,,,,,,,,,,,,,030719_p2,001,2019_Mar_07_1149,body_behavioural,3.0.4,59.81067540787776,
,,,,,,The next part of the task is to answer 8 questions about each story.,,,,,,,,,,,,,,,,,,,,,0,0,0,0,,,,,,,,,,,,,,,,,,,,,,,,,,,,,,space,6.5535705070069525,,,,,,,,,,,,,,,030719_p2,001,2019_Mar_07_1149,body_behavioural,3.0.4,59.81067540787776,
,,,,,,Some of the questions are not related to the perspective you were asked to assume.,,,,,,,,,,,,,,,,,,,,,0,1,1,1,,,,,,,,,,,,,,,,,,,,,,,,,,,,,,space,5.88674013200216,,,,,,,,,,,,,,,030719_p2,001,2019_Mar_07_1149,body_behavioural,3.0.4,59.81067540787776,
,,,,,,"We realize that we did not tell you to think of these questions during the story, but do your best to answer them.",,,,,,,,,,,,,,,,,,,,,0,2,2,2,,,,,,,,,,,,,,,,,,,,,,,,,,,,,,space,4.253195450000931,,,,,,,,,,,,,,,030719_p2,001,2019_Mar_07_1149,body_behavioural,3.0.4,59.81067540787776,
,,,,,,"When you have finished typing your answer, hit ‘return’ to submit your answer and move onto the next question. ",,,,,,,,,,,,,,,,,,,,,0,3,3,3,,,,,,,,,,,,,,,,,,,,,,,,,,,,,,space,3.5365697879897198,,,,,,,,,,,,,,,030719_p2,001,2019_Mar_07_1149,body_behavioural,3.0.4,59.81067540787776,
0,,,,,,,,,,,,,,,,,,,,,,,,,,,,,,,0,0,0,0,,,,,,,,,,,,,,,,,,,,,,The following week,,,,,,space,2.4028699699993012,Leon noticed ariana because she looks familiar to him,non-primed first,He passes her a note,He proposes going to dinner that night,Leon has to go for another class,"Large, high ceilings, large windows",It is a class on ancient egypt and the lecture is about burial rituals,Mummification is important,The following week,,,,030719_p2,001,2019_Mar_07_1149,body_behavioural,3.0.4,59.81067540787776,
1,,,,,,,,,,,,,,,,,,,,,,,,,,,,,,,0,1,1,1,,,,,,,,,,,,,,,,,,,,,,I do not recall,,,,,,space,0.8364325599977747,Software development,primed first,"An initial investment in alma's offerings. she wants $30,000","He says $15,000 initially, but ultimately agrees to $30,000",Alma is pleased ,"Large, high ceilings, there is snow falling outside",I do not recall,I do not recall,I do not recall,,,,030719_p2,001,2019_Mar_07_1149,body_behavioural,3.0.4,59.81067540787776,
2,,,,,,,,,,,,,,,,,,,,,,,,,,,,,,,0,2,2,2,,,,,,,,,,,,,,,,,,,,,,The crackers are $6 and mr. morrison pays using coins,,,,,,space,1.4696014229994034,Gourmet food and supermarkets,non-primed first,The amount of cheese and gourmet italian foods that will be bought from ms. bianchi to sell in ms. morrison's grocery store. $5000.,Ms. morrison agrees,They are both pleased and eat fresh mozzarella on crackers outside the supermarket,Eccentric,Crackers,The checkout line is long and the clients wait for 10 minutes,The crackers are $6 and mr. morrison pays using coins,,,,030719_p2,001,2019_Mar_07_1149,body_behavioural,3.0.4,59.81067540787776,
3,,,,,,,,,,,,,,,,,,,,,,,,,,,,,,,0,3,3,3,,,,,,,,,,,,,,,,,,,,,,Carina has to get home to start preparing for the barbecue,,,,,,space,1.1027280800044537,I do not recall,non-primed first,Items for summer barbecues. meat for carina and vegetable skewer supplies for simon,"It is short, they only wait for a couple of minutes","I do not recall, but simon pays for both of their groceries, wanting to make a nice gesture",Simon notices carina ,Commenting on a cornish game hen,Simon proposes going to dinner,Carina has to get home to start preparing for the barbecue,,,,030719_p2,001,2019_Mar_07_1149,body_behavioural,3.0.4,59.81067540787776,
4,,,,,,,,,,,,,,,,,,,,,,,,,,,,,,,0,4,4,4,,,,,,,,,,,,,,,,,,,,,,The restaurant,,,,,,space,0.7697491250000894,It is beautiful and elegant with chandeliers and a view of the pacific ocean,non-primed first,"Simple, elegant, no prices",Scallops and oysters with parmesan and garlic,They love it,Nervous but excited,Canary diamond with little diamonds around the outside with a simple silver band,The waiter,The restaurant,,,,030719_p2,001,2019_Mar_07_1149,body_behavioural,3.0.4,59.81067540787776,
5,,,,,,,,,,,,,,,,,,,,,,,,,,,,,,,0,5,5,5,,,,,,,,,,,,,,,,,,,,,,Not particularly,,,,,,space,0.7696864169993205,"Not a lot, they are rushing",non-primed first,"Very little, they can keep shoes on, etc","Frustrated, angry","First class. she in first row, he in seat 4f",Fed up,Because she hates his stories,He is angry,Not particularly,,,,030719_p2,001,2019_Mar_07_1149,body_behavioural,3.0.4,59.81067540787776,
6,,,,,,,,,,,,,,,,,,,,,,,,,,,,,,,0,6,6,6,,,,,,,,,,,,,,,,,,,,,,No,,,,,,space,0.7530604369967477,"Not very nicely, but there is dim lighting in the back",primed first,Standard diner,Burger with tomatoes and reuben sandwich,"She eats her sandwich, he hates his burger",He feels nervous and bad,He wants to figure out his life and career by himself,She is angry and upset and pleads with him and then storms out,No,,,,030719_p2,001,2019_Mar_07_1149,body_behavioural,3.0.4,59.81067540787776,
7,,,,,,,,,,,,,,,,,,,,,,,,,,,,,,,0,7,7,7,,,,,,,,,,,,,,,,,,,,,,The airport staff and other people taking flights,,,,,,space,0.8864871219993802,They have enough time not to rush too much,primed first,"Take laptop out of duffel, take off shoes","Normal, he is a little nervous though about proposing",First class,Nervous but excited,I do not recall,No,The airport staff and other people taking flights,,,,030719_p2,001,2019_Mar_07_1149,body_behavioural,3.0.4,59.81067540787776,
,,,,,,,,,,,,,,,,,,,,,,,,,,,,,,,,,,,,,,,,,,,,,,,,,,,,,,,,,,,,,,,,,,,,,,,,,4028.807734920003,space,0.9199130900087766,030719_p2,001,2019_Mar_07_1149,body_behavioural,3.0.4,59.81067540787776,
,,,,,,,,,,,,,,,,,,,,,,,,,,,,,,,,,,,0,0,0,0,,,,,,,,,,,,,,,,,,,,,,,,,,,,,,,,,,,,,,030719_p2,001,2019_Mar_07_1149,body_behavioural,3.0.4,59.81067540787776,
,,,,,,,,,,,,,,,,,,,,,,,,,,,,,,,,,,,1,0,1,0,,,,,,,,,,,,,,,,,,,,,,,,,,,,,,,,,,,,,,030719_p2,001,2019_Mar_07_1149,body_behavioural,3.0.4,59.81067540787776,
,,,,,,,,,,,,,,,,,,,,,,,,,,,,,,,,,,,2,0,2,0,,,,,,,,,,,,,,,,,,,,,,,,,,,,,,,,,,,,,,030719_p2,001,2019_Mar_07_1149,body_behavioural,3.0.4,59.81067540787776,
,,,,,,,,,,,,,,,,,,,,,,,,,,,,,,,,,,,3,0,3,0,,,,,,,,,,,,,,,,,,,,,,,,,,,,,,,,,,,,,,030719_p2,001,2019_Mar_07_1149,body_behavioural,3.0.4,59.81067540787776,
