count,storyText,locationEvent,socialEvent,locationEventSize,socialEventSize,instructText,trials.thisRepN,trials.thisTrialN,trials.thisN,trials.thisIndex,trials_7.thisRepN,trials_7.thisTrialN,trials_7.thisN,trials_7.thisIndex,trials_2.thisRepN,trials_2.thisTrialN,trials_2.thisN,trials_2.thisIndex,trials_3.thisRepN,trials_3.thisTrialN,trials_3.thisN,trials_3.thisIndex,trials_4.thisRepN,trials_4.thisTrialN,trials_4.thisN,trials_4.thisIndex,trials_5.thisRepN,trials_5.thisTrialN,trials_5.thisN,trials_5.thisIndex,trials_6.thisRepN,trials_6.thisTrialN,trials_6.thisN,trials_6.thisIndex,trials_8.thisRepN,trials_8.thisTrialN,trials_8.thisN,trials_8.thisIndex,order of stories,order of perspectives,participant 2 order - stories,participant 2 order  - schemas types,key_resp_8.keys,key_resp_8.rt,key_resp_5.keys,key_resp_5.rt,key_resp_7.keys,key_resp_7.rt,story_presses.keys,story_presses.rt,story time,key_resp_6.keys,key_resp_6.rt,key_resp_2.keys,key_resp_2.rt,key_resp_10.keys,key_resp_10.rt,recall,recall time,key_resp_12.keys,key_resp_12.rt,key_resp_3.keys,key_resp_3.rt,key_resp_11.keys,key_resp_11.rt,question1_answer,order of question,question2_answer,question3_answer,question4_answer,question5_answer,question6_answer,question7_answer,question8_answer,questions time,key_resp_13.keys,key_resp_13.rt,participant,session,date,expName,psychopyVersion,frameRate,
0,,,,,,,0,0,0,0,0,0,0,0,,,,,,,,,,,,,,,,,,,,,,,,,[13 44 31 21 14 32 43 22 33 42 34 23 24 11 41 12],"['Location' 'Location' 'Location' 'Social' 'Social' 'Social' 'Social'
 'Location' 'Location' 'Location' 'Social' 'Social' 'Location' 'Location'
 'Social' 'Social']",[33 42 34 23 24 11 41 12],"['Location' 'Location' 'Social' 'Social' 'Location' 'Location' 'Social'
 'Social']",space,10.603427019988885,space,1.2364648469956592,space,1.386505175003549,,,,,,,,,,,,,,,,,,,,,,,,,,,,,,031119_p1,001,2019_Mar_11_1352,body_behavioural,3.0.4,60.038328344799,
0,The grocery store was not the place Emmanuella and Liam wanted to be at the moment considering they had been fighting beforehand to the point where Emmanuella was thinking of breaking up with Liam.,1,1,,,,0,0,0,0,,,,,0,0,0,0,,,,,,,,,,,,,,,,,,,,,,,,,,,,,,,1,12.304723142005969,,,,,,,,,,,,,,,,,,,,,,,,,,,,031119_p1,001,2019_Mar_11_1352,body_behavioural,3.0.4,60.038328344799,
0,"However, they had to go grocery shopping because they were hosting a dinner party for friends that evening and had no groceries. ",1,1,,,,0,0,0,0,,,,,0,1,1,1,,,,,,,,,,,,,,,,,,,,,,,,,,,,,,,1,2.03545406399644,,,,,,,,,,,,,,,,,,,,,,,,,,,,031119_p1,001,2019_Mar_11_1352,body_behavioural,3.0.4,60.038328344799,
0,The grocery store was dimly lit and had dark wood paneling for all the shelves.,1,1,,,,0,0,0,0,,,,,0,2,2,2,,,,,,,,,,,,,,,,,,,,,,,,,,,,,,,9,1.1571750250004698,,,,,,,,,,,,,,,,,,,,,,,,,,,,031119_p1,001,2019_Mar_11_1352,body_behavioural,3.0.4,60.038328344799,
0,"The store specialized in organic produce and products catering to desires for high-end products, such as imported cheeses and sauces. ",1,1,,,,0,0,0,0,,,,,0,3,3,3,,,,,,,,,,,,,,,,,,,,,,,,,,,,,,,1,2.0695540550223086,,,,,,,,,,,,,,,,,,,,,,,,,,,,031119_p1,001,2019_Mar_11_1352,body_behavioural,3.0.4,60.038328344799,
0,"Emmanuella felt angry as she headed immediately for the pasta section, and Liam trailed behind her. ",2,1,,,,0,0,0,0,,,,,0,4,4,4,,,,,,,,,,,,,,,,,,,,,,,,,,,,,,,1,1.3004031380114611,,,,,,,,,,,,,,,,,,,,,,,,,,,,031119_p1,001,2019_Mar_11_1352,body_behavioural,3.0.4,60.038328344799,
0,Emmanuella selected a few boxes of linguine.,2,1,,,,0,0,0,0,,,,,0,5,5,5,,,,,,,,,,,,,,,,,,,,,,,,,,,,,,,1,0.9672981119947508,,,,,,,,,,,,,,,,,,,,,,,,,,,,031119_p1,001,2019_Mar_11_1352,body_behavioural,3.0.4,60.038328344799,
0,"“I guess we are having pasta tonight,” Liam said.",2,1,,,,0,0,0,0,,,,,0,6,6,6,,,,,,,,,,,,,,,,,,,,,,,,,,,,,,,1,0.8696645370218903,,,,,,,,,,,,,,,,,,,,,,,,,,,,031119_p1,001,2019_Mar_11_1352,body_behavioural,3.0.4,60.038328344799,
0,"Emmanuella looked back at him and said, “Well if you were going to actually help cook, I would be fine with something else.”",2,1,,,,0,0,0,0,,,,,0,7,7,7,,,,,,,,,,,,,,,,,,,,,,,,,,,,,,,1,3.3366233150009066,,,,,,,,,,,,,,,,,,,,,,,,,,,,031119_p1,001,2019_Mar_11_1352,body_behavioural,3.0.4,60.038328344799,
0,"Liam sighed, and finally said, “You don’t want me to help.",2,1,,,,0,0,0,0,,,,,0,8,8,8,,,,,,,,,,,,,,,,,,,,,,,,,,,,,,,1,0.9021262119931635,,,,,,,,,,,,,,,,,,,,,,,,,,,,031119_p1,001,2019_Mar_11_1352,body_behavioural,3.0.4,60.038328344799,
0,"I try to, but it seems like I always get in the way!” ",2,1,,,,0,0,0,0,,,,,0,9,9,9,,,,,,,,,,,,,,,,,,,,,,,,,,,,,,,1,0.7526476820057724,,,,,,,,,,,,,,,,,,,,,,,,,,,,031119_p1,001,2019_Mar_11_1352,body_behavioural,3.0.4,60.038328344799,
0,"Emmanuella angrily threw the pasta into the cart, losing her temper.",2,1,,,,0,0,0,0,,,,,0,10,10,10,,,,,,,,,,,,,,,,,,,,,,,,,,,,,,,1,0.9866219450195786,,,,,,,,,,,,,,,,,,,,,,,,,,,,031119_p1,001,2019_Mar_11_1352,body_behavioural,3.0.4,60.038328344799,
0," “Liam, you don’t even try!",2,1,,,,0,0,0,0,,,,,0,11,11,11,,,,,,,,,,,,,,,,,,,,,,,,,,,,,,,1,0.6359056450019125,,,,,,,,,,,,,,,,,,,,,,,,,,,,031119_p1,001,2019_Mar_11_1352,body_behavioural,3.0.4,60.038328344799,
0,You know what?,2,1,,,,0,0,0,0,,,,,0,12,12,12,,,,,,,,,,,,,,,,,,,,,,,,,,,,,,,1,0.5532570919895079,,,,,,,,,,,,,,,,,,,,,,,,,,,,031119_p1,001,2019_Mar_11_1352,body_behavioural,3.0.4,60.038328344799,
0,I don’t think I can do this anymore. ,2,2,,,,0,0,0,0,,,,,0,13,13,13,,,,,,,,,,,,,,,,,,,,,,,,,,,,,,,1,0.6526405549957417,,,,,,,,,,,,,,,,,,,,,,,,,,,,031119_p1,001,2019_Mar_11_1352,body_behavioural,3.0.4,60.038328344799,
0,"I was going to wait until after this unfortunately-timed dinner party tonight to talk about this, but I might as well say it now: I don’t want to be in a relationship with you anymore.",2,2,,,,0,0,0,0,,,,,0,14,14,14,,,,,,,,,,,,,,,,,,,,,,,,,,,,,,,1,2.1862639669852797,,,,,,,,,,,,,,,,,,,,,,,,,,,,031119_p1,001,2019_Mar_11_1352,body_behavioural,3.0.4,60.038328344799,
0," I’m tired of the constant fighting, and I feel like when we try to do anything fun anymore it ends up unpleasant for the stupidest reasons, and I am just past  trying to work things out.”",2,2,,,,0,0,0,0,,,,,0,15,15,15,,,,,,,,,,,,,,,,,,,,,,,,,,,,,,,1,2.9032848450005986,,,,,,,,,,,,,,,,,,,,,,,,,,,,031119_p1,001,2019_Mar_11_1352,body_behavioural,3.0.4,60.038328344799,
0,"Liam refused to look at her as she picked out sauces for the pasta, and then she threw up her hands, saying, “You know what, if this party is still happening we are going to just eat pasta.”",2,2,,,,0,0,0,0,,,,,0,16,16,16,,,,,,,,,,,,,,,,,,,,,,,,,,,,,,,1,2.8363577549753245,,,,,,,,,,,,,,,,,,,,,,,,,,,,031119_p1,001,2019_Mar_11_1352,body_behavioural,3.0.4,60.038328344799,
0,They headed to the checkout area where there was only one station open but it was not crowded at all.,3,2,,,,0,0,0,0,,,,,0,17,17,17,,,,,,,,,,,,,,,,,,,,,,,,,,,,,,,1,1.3530155869957525,,,,,,,,,,,,,,,,,,,,,,,,,,,,031119_p1,001,2019_Mar_11_1352,body_behavioural,3.0.4,60.038328344799,
0,Emmanuella sighed and got in line while Liam pretended to be interested in the magazine racks as he thought. ,3,2,,,,0,0,0,0,,,,,0,18,18,18,,,,,,,,,,,,,,,,,,,,,,,,,,,,,,,1,1.4521699470060412,,,,,,,,,,,,,,,,,,,,,,,,,,,,031119_p1,001,2019_Mar_11_1352,body_behavioural,3.0.4,60.038328344799,
0,"Finally he turned to her and sighed, “Yes, I was thinking the same thing - I think we could definitely be happier with other people.” ",3,3,,,,0,0,0,0,,,,,0,19,19,19,,,,,,,,,,,,,,,,,,,,,,,,,,,,,,,1,1.5679227600048762,,,,,,,,,,,,,,,,,,,,,,,,,,,,031119_p1,001,2019_Mar_11_1352,body_behavioural,3.0.4,60.038328344799,
0,"As if she hadn't heard him, Emmanuella looked at their cart and said, “I'm not sure this will be enough, could you grab another box of pasta?”",3,3,,,,0,0,0,0,,,,,0,20,20,20,,,,,,,,,,,,,,,,,,,,,,,,,,,,,,,1,6.020430812990526,,,,,,,,,,,,,,,,,,,,,,,,,,,,031119_p1,001,2019_Mar_11_1352,body_behavioural,3.0.4,60.038328344799,
0, Liam scoffed and walked off to quickly get it.,3,3,,,,0,0,0,0,,,,,0,21,21,21,,,,,,,,,,,,,,,,,,,,,,,,,,,,,,,1,0.7350546539819334,,,,,,,,,,,,,,,,,,,,,,,,,,,,031119_p1,001,2019_Mar_11_1352,body_behavioural,3.0.4,60.038328344799,
0,"As Emmanuella waited in line, she took a moment to compose herself, deciding that there was no reason to continue making a scene in the store. ",3,3,,,,0,0,0,0,,,,,0,22,22,22,,,,,,,,,,,,,,,,,,,,,,,,,,,,,,,1,2.2189842849911656,,,,,,,,,,,,,,,,,,,,,,,,,,,,031119_p1,001,2019_Mar_11_1352,body_behavioural,3.0.4,60.038328344799,
0," Right when Liam came back with the pasta, the cashier started scanning their groceries.",4,3,,,,0,0,0,0,,,,,0,23,23,23,,,,,,,,,,,,,,,,,,,,,,,,,,,,,,,1,1.7689663539931644,,,,,,,,,,,,,,,,,,,,,,,,,,,,031119_p1,001,2019_Mar_11_1352,body_behavioural,3.0.4,60.038328344799,
0,"The cost came to $30, and Emmanuella paid with her credit card.",4,3,,,,0,0,0,0,,,,,0,24,24,24,,,,,,,,,,,,,,,,,,,,,,,,,,,,,,,1,4.803142652002862,,,,,,,,,,,,,,,,,,,,,,,,,,,,031119_p1,001,2019_Mar_11_1352,body_behavioural,3.0.4,60.038328344799,
0,"She asked Liam politely to take the bags, and he obliged, following her to toward the exit. ",4,3,,,,0,0,0,0,,,,,0,25,25,25,,,,,,,,,,,,,,,,,,,,,,,,,,,,,,,1,1.4536614649987314,,,,,,,,,,,,,,,,,,,,,,,,,,,,031119_p1,001,2019_Mar_11_1352,body_behavioural,3.0.4,60.038328344799,
0,"“Liam, I think we are making the right decision.",4,4,,,,0,0,0,0,,,,,0,26,26,26,,,,,,,,,,,,,,,,,,,,,,,,,,,,,,,1,1.0531029849953484,,,,,,,,,,,,,,,,,,,,,,,,,,,,031119_p1,001,2019_Mar_11_1352,body_behavioural,3.0.4,60.038328344799,
0,This is good.” ,4,4,,,,0,0,0,0,,,,,0,27,27,27,,,,,,,,,,,,,,,,,,,,,,,,,,,,,,,1,0.48380283499136567,,,,,,,,,,,,,,,,,,,,,,,,,,,,031119_p1,001,2019_Mar_11_1352,body_behavioural,3.0.4,60.038328344799,
0,"“I agree,” he said, visibly relieved at the thought that they had gotten through the last fight they would ever need to have.",4,4,,,,0,0,0,0,,,,,0,28,28,28,,,,,,,,,,,,,,,,,,,,,,,,,,,,,,,1,1.4005983750103042,,,,,,,,,,,,,,,,,,,,,,,,,,,,031119_p1,001,2019_Mar_11_1352,body_behavioural,3.0.4,60.038328344799,
0,"“I think we can still host this dinner tonight, as long as you're still on board,” Emmanuella said.",4,4,,,,0,0,0,0,,,,,0,29,29,29,,,,,,,,,,,,,,,,,,,,,,,,,,,,,,,1,1.2867906719911844,,,,,,,,,,,,,,,,,,,,,,,,,,,,031119_p1,001,2019_Mar_11_1352,body_behavioural,3.0.4,60.038328344799,
0,"Liam nodded, “Yes, let’s just not tell anyone yet.” ",4,4,,,,0,0,0,0,,,,,0,30,30,30,,,,,,,,,,,,,,,,,,,,,,,,,,,,,,,1,0.7363937770132907,,,,,,,,,,,,,,,,,,,,,,,,,,,,031119_p1,001,2019_Mar_11_1352,body_behavioural,3.0.4,60.038328344799,
0,"Emmanuella laughed, “Whoever leaks it loses their rights to the cat.”",4,4,,,,0,0,0,0,,,,,0,31,31,31,,,,,,,,,,,,,,,,,,,,,,,,,,,,,,,1,2.2531515269947704,,,,,,,,,,,,,,,,,,,,,,,,,,,,031119_p1,001,2019_Mar_11_1352,body_behavioural,3.0.4,60.038328344799,
0,"Liam rolled his eyes and managed a weak chuckle, knowing the cat would be a whole other issue to sort out later.
",4,4,,,,0,0,0,0,,,,,0,32,32,32,,,,,,,,,,,,,,,,,,,,,,,,,,,,,,,1,1.600838981976267,,,,,,,,,,,,,,,,,,,,,,,,,,,,031119_p1,001,2019_Mar_11_1352,body_behavioural,3.0.4,60.038328344799,
0,,,,,,,0,0,0,0,,,,,,,,,,,,,,,,,,,,,,,,,,,,,,,,,,,,,,,,,,,,,,,,,,,,,,,,,,,,,,,,,,,,031119_p1,001,2019_Mar_11_1352,body_behavioural,3.0.4,60.038328344799,
1,,,,,,,0,1,1,1,0,0,0,0,,,,,,,,,,,,,,,,,,,,,,,,,,,,,space,0.9363945750228595,space,0.5697034769982565,space,0.6029499720025342,,,,,,,,,,,,,,,,,,,,,,,,,,,,,,031119_p1,001,2019_Mar_11_1352,body_behavioural,3.0.4,60.038328344799,
1,,,,,,,0,1,1,1,1,0,1,0,,,,,,,,,,,,,,,,,,,,,,,,,,,,,,,,,space,0.567276395013323,,,,,,,,,,,,,,,,,,,,,,,,,,,,,,031119_p1,001,2019_Mar_11_1352,body_behavioural,3.0.4,60.038328344799,
1,"Leon and  Ariana hurried into the classroom at the same time, and Leon did a double-take when he saw her. ",1,1,,,,0,1,1,1,,,,,0,0,0,0,,,,,,,,,,,,,,,,,,,,,,,,,,,,,,,1,1.5199365849839523,,,,,,,,,,,,,,,,,,,,,,,,,,,,031119_p1,001,2019_Mar_11_1352,body_behavioural,3.0.4,60.038328344799,
1,"This was his first day after transferring to this university, and he had assumed that he wouldn’t know anyone on campus, but he couldn't shake the nagging feeling  that he had seen her somewhere before. ",1,1,,,,0,1,1,1,,,,,0,1,1,1,,,,,,,,,,,,,,,,,,,,,,,,,,,,,,,1,6.353457154997159,,,,,,,,,,,,,,,,,,,,,,,,,,,,031119_p1,001,2019_Mar_11_1352,body_behavioural,3.0.4,60.038328344799,
1,"They were both a bit late, so they quickly slid into seats next to each other in the back of the small classroom.",1,1,,,,0,1,1,1,,,,,0,2,2,2,,,,,,,,,,,,,,,,,,,,,,,,,,,,,,,1,1.2530872899806127,,,,,,,,,,,,,,,,,,,,,,,,,,,,031119_p1,001,2019_Mar_11_1352,body_behavioural,3.0.4,60.038328344799,
1,"This room was usually used for small meetings, but had been rearranged with the table pushed to the side and chairs set up in rows to face the projector screen. ",1,1,,,,0,1,1,1,,,,,0,3,3,3,,,,,,,,,,,,,,,,,,,,,,,,,,,,,,,1,1.7863175050006248,,,,,,,,,,,,,,,,,,,,,,,,,,,,031119_p1,001,2019_Mar_11_1352,body_behavioural,3.0.4,60.038328344799,
1,"There were no windows in the room, since they were down in the sub-basement of the history department.",1,1,,,,0,1,1,1,,,,,0,4,4,4,,,,,,,,,,,,,,,,,,,,,,,,,,,,,,,1,1.3032514799851924,,,,,,,,,,,,,,,,,,,,,,,,,,,,031119_p1,001,2019_Mar_11_1352,body_behavioural,3.0.4,60.038328344799,
1,"Leon, trying to figure out where he had seen her before, could not stop looking over at Ariana.",1,1,,,,0,1,1,1,,,,,0,5,5,5,,,,,,,,,,,,,,,,,,,,,,,,,,,,,,,1,2.003721585002495,,,,,,,,,,,,,,,,,,,,,,,,,,,,031119_p1,001,2019_Mar_11_1352,body_behavioural,3.0.4,60.038328344799,
1,Ariana was oblivious to Leon’s gaze and was only focused on getting ready for class. ,1,1,,,,0,1,1,1,,,,,0,6,6,6,,,,,,,,,,,,,,,,,,,,,,,,,,,,,,,1,0.8530555620091036,,,,,,,,,,,,,,,,,,,,,,,,,,,,031119_p1,001,2019_Mar_11_1352,body_behavioural,3.0.4,60.038328344799,
1,"“Good afternoon class,” the professor began.",2,1,,,,0,1,1,1,,,,,0,7,7,7,,,,,,,,,,,,,,,,,,,,,,,,,,,,,,,9,1.0196228949935175,,,,,,,,,,,,,,,,,,,,,,,,,,,,031119_p1,001,2019_Mar_11_1352,body_behavioural,3.0.4,60.038328344799,
1,“Welcome to Egyptian Cultural Studies. ,2,1,,,,0,1,1,1,,,,,0,8,8,8,,,,,,,,,,,,,,,,,,,,,,,,,,,,,,,1,1.5697601749852765,,,,,,,,,,,,,,,,,,,,,,,,,,,,031119_p1,001,2019_Mar_11_1352,body_behavioural,3.0.4,60.038328344799,
1,"Today we will be talking about mummification, one of the most famous and often misunderstood customs in ancient Egyptian society.”",2,1,,,,0,1,1,1,,,,,0,9,9,9,,,,,,,,,,,,,,,,,,,,,,,,,,,,,,,1,1.3361973649880383,,,,,,,,,,,,,,,,,,,,,,,,,,,,031119_p1,001,2019_Mar_11_1352,body_behavioural,3.0.4,60.038328344799,
1,Leon pulled out his notebook and tried to concentrate on the class.,2,1,,,,0,1,1,1,,,,,0,10,10,10,,,,,,,,,,,,,,,,,,,,,,,,,,,,,,,1,0.8173173280083574,,,,,,,,,,,,,,,,,,,,,,,,,,,,031119_p1,001,2019_Mar_11_1352,body_behavioural,3.0.4,60.038328344799,
1,Within a few minutes though he found his attention wandering back to Ariana.,2,1,,,,0,1,1,1,,,,,0,11,11,11,,,,,,,,,,,,,,,,,,,,,,,,,,,,,,,1,0.7864472029905301,,,,,,,,,,,,,,,,,,,,,,,,,,,,031119_p1,001,2019_Mar_11_1352,body_behavioural,3.0.4,60.038328344799,
1,"He decided to do something about his hunch so he ripped off a corner of a page in his notebook, wrote a note, and set it on her desk.",2,1,,,,0,1,1,1,,,,,0,12,12,12,,,,,,,,,,,,,,,,,,,,,,,,,,,,,,,1,1.5173915720079094,,,,,,,,,,,,,,,,,,,,,,,,,,,,031119_p1,001,2019_Mar_11_1352,body_behavioural,3.0.4,60.038328344799,
1,"“Hi, sorry to distract you from mummies, but you look really familiar," it read.",2,2,,,,0,1,1,1,,,,,0,13,13,13,,,,,,,,,,,,,,,,,,,,,,,,,,,,,,,1,0.9364480749936774,,,,,,,,,,,,,,,,,,,,,,,,,,,,031119_p1,001,2019_Mar_11_1352,body_behavioural,3.0.4,60.038328344799,
1,It continued: “Do I know you from somewhere?”,2,2,,,,0,1,1,1,,,,,0,14,14,14,,,,,,,,,,,,,,,,,,,,,,,,,,,,,,,1,0.5861630100116599,,,,,,,,,,,,,,,,,,,,,,,,,,,,031119_p1,001,2019_Mar_11_1352,body_behavioural,3.0.4,60.038328344799,
1,"She looked at the note with surprise, and then turned to notice Leon for the first time. ",2,2,,,,0,1,1,1,,,,,0,15,15,15,,,,,,,,,,,,,,,,,,,,,,,,,,,,,,,1,0.9364705350017175,,,,,,,,,,,,,,,,,,,,,,,,,,,,031119_p1,001,2019_Mar_11_1352,body_behavioural,3.0.4,60.038328344799,
1,"She instantly liked him when she saw him; he had very soft eyes and sharp features, a combination that made him seem  trustworthy and genuine.",2,2,,,,0,1,1,1,,,,,0,16,16,16,,,,,,,,,,,,,,,,,,,,,,,,,,,,,,,1,2.1033083419897594,,,,,,,,,,,,,,,,,,,,,,,,,,,,031119_p1,001,2019_Mar_11_1352,body_behavioural,3.0.4,60.038328344799,
1,He smiled at her and she flashed him a smile back.,2,2,,,,0,1,1,1,,,,,0,17,17,17,,,,,,,,,,,,,,,,,,,,,,,,,,,,,,,1,0.7031579729809891,,,,,,,,,,,,,,,,,,,,,,,,,,,,031119_p1,001,2019_Mar_11_1352,body_behavioural,3.0.4,60.038328344799,
1,Then she turned the note over to the back and started to write a reply.,2,2,,,,0,1,1,1,,,,,0,18,18,18,,,,,,,,,,,,,,,,,,,,,,,,,,,,,,,1,3.653595254989341,,,,,,,,,,,,,,,,,,,,,,,,,,,,031119_p1,001,2019_Mar_11_1352,body_behavioural,3.0.4,60.038328344799,
1,"Meanwhile the professor continued, “One may well question why the ancient Egyptians spent so much time and effort on their funerary practices.",3,2,,,,0,1,1,1,,,,,0,19,19,19,,,,,,,,,,,,,,,,,,,,,,,,,,,,,,,1,2.303297510021366,,,,,,,,,,,,,,,,,,,,,,,,,,,,031119_p1,001,2019_Mar_11_1352,body_behavioural,3.0.4,60.038328344799,
1,"Not only was the mummification process itself a complicated affair, but there were also elaborate rituals before, during, and after death.",3,2,,,,0,1,1,1,,,,,0,20,20,20,,,,,,,,,,,,,,,,,,,,,,,,,,,,,,,1,1.4204022670164704,,,,,,,,,,,,,,,,,,,,,,,,,,,,031119_p1,001,2019_Mar_11_1352,body_behavioural,3.0.4,60.038328344799,
1,The practice required teams of experts with years of training and took a total of 70 days to complete.” ,3,2,,,,0,1,1,1,,,,,0,21,21,21,,,,,,,,,,,,,,,,,,,,,,,,,,,,,,,1,0.9196145049936604,,,,,,,,,,,,,,,,,,,,,,,,,,,,031119_p1,001,2019_Mar_11_1352,body_behavioural,3.0.4,60.038328344799,
1,"Ariana passed the note back to Leon, and she had replied, “No, but maybe my twin and I were separated at birth.”",3,2,,,,0,1,1,1,,,,,0,22,22,22,,,,,,,,,,,,,,,,,,,,,,,,,,,,,,,1,1.5864627400005702,,,,,,,,,,,,,,,,,,,,,,,,,,,,031119_p1,001,2019_Mar_11_1352,body_behavioural,3.0.4,60.038328344799,
1,They passed notes back and forth the whole class like they were back in high school.,3,2,,,,0,1,1,1,,,,,0,23,23,23,,,,,,,,,,,,,,,,,,,,,,,,,,,,,,,1,0.9531165219959803,,,,,,,,,,,,,,,,,,,,,,,,,,,,031119_p1,001,2019_Mar_11_1352,body_behavioural,3.0.4,60.038328344799,
1,"Near the end of the lecture, Leon wrote, “Would you like to go to dinner tonight?” ",3,3,,,,0,1,1,1,,,,,0,24,24,24,,,,,,,,,,,,,,,,,,,,,,,,,,,,,,,1,1.1194458219979424,,,,,,,,,,,,,,,,,,,,,,,,,,,,031119_p1,001,2019_Mar_11_1352,body_behavioural,3.0.4,60.038328344799,
1,"Ariana read the note, and looked at him and nodded her head",3,3,,,,0,1,1,1,,,,,0,25,25,25,,,,,,,,,,,,,,,,,,,,,,,,,,,,,,,1,0.7697777049907017,,,,,,,,,,,,,,,,,,,,,,,,,,,,031119_p1,001,2019_Mar_11_1352,body_behavioural,3.0.4,60.038328344799,
1,"She wrote back on the slip of paper, “Pick me up at 6 in front of Patton Hall.”",3,3,,,,0,1,1,1,,,,,0,26,26,26,,,,,,,,,,,,,,,,,,,,,,,,,,,,,,,1,1.1507327020226512,,,,,,,,,,,,,,,,,,,,,,,,,,,,031119_p1,001,2019_Mar_11_1352,body_behavioural,3.0.4,60.038328344799,
1,Then the professor ended the lecture and announced to the class that they would have their first quiz next class on Friday on mummification. ,4,3,,,,0,1,1,1,,,,,0,27,27,27,,,,,,,,,,,,,,,,,,,,,,,,,,,,,,,1,1.9512183150218334,,,,,,,,,,,,,,,,,,,,,,,,,,,,031119_p1,001,2019_Mar_11_1352,body_behavioural,3.0.4,60.038328344799,
1,"Everyone packed up and started heading out, as well as Sophie and Leon.",4,3,,,,0,1,1,1,,,,,0,28,28,28,,,,,,,,,,,,,,,,,,,,,,,,,,,,,,,1,1.1029940969892778,,,,,,,,,,,,,,,,,,,,,,,,,,,,031119_p1,001,2019_Mar_11_1352,body_behavioural,3.0.4,60.038328344799,
1,"They approached each other smiling, and Leon said, “Well it was great to meet you, again, or maybe not again, but regardless it was great to meet you.” ",4,3,,,,0,1,1,1,,,,,0,29,29,29,,,,,,,,,,,,,,,,,,,,,,,,,,,,,,,9,1.8197668500069994,,,,,,,,,,,,,,,,,,,,,,,,,,,,031119_p1,001,2019_Mar_11_1352,body_behavioural,3.0.4,60.038328344799,
1,"She replied, “Yes, it was.",4,4,,,,0,1,1,1,,,,,0,30,30,30,,,,,,,,,,,,,,,,,,,,,,,,,,,,,,,1,0.5361648820107803,,,,,,,,,,,,,,,,,,,,,,,,,,,,031119_p1,001,2019_Mar_11_1352,body_behavioural,3.0.4,60.038328344799,
1,"I have to run to my next class, but I’ll see you later tonight.” ",4,4,,,,0,1,1,1,,,,,0,31,31,31,,,,,,,,,,,,,,,,,,,,,,,,,,,,,,,1,0.5858938950113952,,,,,,,,,,,,,,,,,,,,,,,,,,,,031119_p1,001,2019_Mar_11_1352,body_behavioural,3.0.4,60.038328344799,
1,"She waved as they parted ways outside of the door of the classroom, and Leon was still trying to figure out where he had seen her before as he watched her go. ",4,4,,,,0,1,1,1,,,,,0,32,32,32,,,,,,,,,,,,,,,,,,,,,,,,,,,,,,,1,1.8531925920106005,,,,,,,,,,,,,,,,,,,,,,,,,,,,031119_p1,001,2019_Mar_11_1352,body_behavioural,3.0.4,60.038328344799,
1,,,,,,,0,1,1,1,,,,,,,,,,,,,,,,,,,,,,,,,,,,,,,,,,,,,,,,,,,,,,,,,,,,,,,,,,,,,,,,,,,,031119_p1,001,2019_Mar_11_1352,body_behavioural,3.0.4,60.038328344799,
2,,,,,,,0,2,2,2,0,0,0,0,,,,,,,,,,,,,,,,,,,,,,,,,,,,,space,0.7528826520137955,space,0.6199419600015972,space,0.7364932149939705,,,,,,,,,,,,,,,,,,,,,,,,,,,,,,031119_p1,001,2019_Mar_11_1352,body_behavioural,3.0.4,60.038328344799,
2,,,,,,,0,2,2,2,1,0,1,0,,,,,,,,,,,,,,,,,,,,,,,,,,,,,,,,,space,0.6695660620171111,,,,,,,,,,,,,,,,,,,,,,,,,,,,,,031119_p1,001,2019_Mar_11_1352,body_behavioural,3.0.4,60.038328344799,
2,,,,,,,0,2,2,2,2,0,2,0,,,,,,,,,,,,,,,,,,,,,,,,,,,,,,,,,space,0.6198174000019208,,,,,,,,,,,,,,,,,,,,,,,,,,,,,,031119_p1,001,2019_Mar_11_1352,body_behavioural,3.0.4,60.038328344799,
2,,,,,,,0,2,2,2,3,0,3,0,,,,,,,,,,,,,,,,,,,,,,,,,,,,,,,,,space,0.5196678299980704,,,,,,,,,,,,,,,,,,,,,,,,,,,,,,031119_p1,001,2019_Mar_11_1352,body_behavioural,3.0.4,60.038328344799,
2,,,,,,,0,2,2,2,4,0,4,0,,,,,,,,,,,,,,,,,,,,,,,,,,,,,,,,,space,0.41984876501373947,,,,,,,,,,,,,,,,,,,,,,,,,,,,,,031119_p1,001,2019_Mar_11_1352,body_behavioural,3.0.4,60.038328344799,
2,Mr. Shelton and Mr. Gordon shook hands inside the foyer of the restaurant: lunch today was about big business. ,1,1,,,,0,2,2,2,,,,,0,0,0,0,,,,,,,,,,,,,,,,,,,,,,,,,,,,,,,1,5.269969732005848,,,,,,,,,,,,,,,,,,,,,,,,,,,,031119_p1,001,2019_Mar_11_1352,body_behavioural,3.0.4,60.038328344799,
2,Mr. Shelton and Mr. Gordon both were CEOs of airplane manufacturing companies.,1,1,,,,0,2,2,2,,,,,0,1,1,1,,,,,,,,,,,,,,,,,,,,,,,,,,,,,,,1,0.8698988969845232,,,,,,,,,,,,,,,,,,,,,,,,,,,,031119_p1,001,2019_Mar_11_1352,body_behavioural,3.0.4,60.038328344799,
2,"Mr. Shelton was in charge of a larger, well-established company and had been in the aviation business for decades.",1,1,,,,0,2,2,2,,,,,0,2,2,2,,,,,,,,,,,,,,,,,,,,,,,,,,,,,,,1,0.9507342900033109,,,,,,,,,,,,,,,,,,,,,,,,,,,,031119_p1,001,2019_Mar_11_1352,body_behavioural,3.0.4,60.038328344799,
2,"On the other hand, Mr. Gordon led a smaller but technologically-advanced company that was projected to disrupt the airplane manufacturing market. ",1,1,,,,0,2,2,2,,,,,0,3,3,3,,,,,,,,,,,,,,,,,,,,,,,,,,,,,,,1,1.1196008499828167,,,,,,,,,,,,,,,,,,,,,,,,,,,,031119_p1,001,2019_Mar_11_1352,body_behavioural,3.0.4,60.038328344799,
2,"The restaurant they chose to meet at was old and fancy with high ceilings, dark wood paneling, and crystal chandeliers.",1,1,,,,0,2,2,2,,,,,0,4,4,4,,,,,,,,,,,,,,,,,,,,,,,,,,,,,,,1,1.302819134987658,,,,,,,,,,,,,,,,,,,,,,,,,,,,031119_p1,001,2019_Mar_11_1352,body_behavioural,3.0.4,60.038328344799,
2,"The waitress led them to their table in the back, and they settled into a private table in the corner by the fireplace. ",2,1,,,,0,2,2,2,,,,,0,5,5,5,,,,,,,,,,,,,,,,,,,,,,,,,,,,,,,1,2.669711484981235,,,,,,,,,,,,,,,,,,,,,,,,,,,,031119_p1,001,2019_Mar_11_1352,body_behavioural,3.0.4,60.038328344799,
2,The waitress brought out the menus and they broke the ice with some small talk.,2,1,,,,0,2,2,2,,,,,0,6,6,6,,,,,,,,,,,,,,,,,,,,,,,,,,,,,,,1,1.1032484750030562,,,,,,,,,,,,,,,,,,,,,,,,,,,,031119_p1,001,2019_Mar_11_1352,body_behavioural,3.0.4,60.038328344799,
2,"Mr. Gordon took out a picture of his daughter and talked about her recent engagement, and Mr. Gordon boasted about his purchase of a Tesla. ",2,1,,,,0,2,2,2,,,,,0,7,7,7,,,,,,,,,,,,,,,,,,,,,,,,,,,,,,,9,1.1030930500128306,,,,,,,,,,,,,,,,,,,,,,,,,,,,031119_p1,001,2019_Mar_11_1352,body_behavioural,3.0.4,60.038328344799,
2,"They looked at the menus as well, which were full of Italian classics like Carbonara and Tiramisu, and in the back section of the menu was a lengthy drink selection.",2,1,,,,0,2,2,2,,,,,0,8,8,8,,,,,,,,,,,,,,,,,,,,,,,,,,,,,,,1,0.7029277199762873,,,,,,,,,,,,,,,,,,,,,,,,,,,,031119_p1,001,2019_Mar_11_1352,body_behavioural,3.0.4,60.038328344799,
2,"After awhile, Mr. Shelton brought the conversation around to business.",2,2,,,,0,2,2,2,,,,,0,9,9,9,,,,,,,,,,,,,,,,,,,,,,,,,,,,,,,1,1.5031964349909686,,,,,,,,,,,,,,,,,,,,,,,,,,,,031119_p1,001,2019_Mar_11_1352,body_behavioural,3.0.4,60.038328344799,
2,"“Mr. Gordon, we really admire what you’re doing at your company.",2,2,,,,0,2,2,2,,,,,0,10,10,10,,,,,,,,,,,,,,,,,,,,,,,,,,,,,,,9,2.0861700369860046,,,,,,,,,,,,,,,,,,,,,,,,,,,,031119_p1,001,2019_Mar_11_1352,body_behavioural,3.0.4,60.038328344799,
2,We think it’s genius; we want to support your vision and make this tiny company of yours internationally known.,2,2,,,,0,2,2,2,,,,,0,11,11,11,,,,,,,,,,,,,,,,,,,,,,,,,,,,,,,1,0.5365618249925319,,,,,,,,,,,,,,,,,,,,,,,,,,,,031119_p1,001,2019_Mar_11_1352,body_behavioural,3.0.4,60.038328344799,
2,"But honestly, your company doesn’t have the resources to reach international markets right now.",2,2,,,,0,2,2,2,,,,,0,12,12,12,,,,,,,,,,,,,,,,,,,,,,,,,,,,,,,1,0.7195627900073305,,,,,,,,,,,,,,,,,,,,,,,,,,,,031119_p1,001,2019_Mar_11_1352,body_behavioural,3.0.4,60.038328344799,
2,"Maybe in a few years you could, but by that time, other companies may have already filled your niche.",2,2,,,,0,2,2,2,,,,,0,13,13,13,,,,,,,,,,,,,,,,,,,,,,,,,,,,,,,1,0.886272532021394,,,,,,,,,,,,,,,,,,,,,,,,,,,,031119_p1,001,2019_Mar_11_1352,body_behavioural,3.0.4,60.038328344799,
2,I think we should join forces.”,2,2,,,,0,2,2,2,,,,,0,14,14,14,,,,,,,,,,,,,,,,,,,,,,,,,,,,,,,1,0.8197100480028894,,,,,,,,,,,,,,,,,,,,,,,,,,,,031119_p1,001,2019_Mar_11_1352,body_behavioural,3.0.4,60.038328344799,
2,The waitress came up to them and asked if they were ready to order.,3,2,,,,0,2,2,2,,,,,0,15,15,15,,,,,,,,,,,,,,,,,,,,,,,,,,,,,,,1,1.0858284549904056,,,,,,,,,,,,,,,,,,,,,,,,,,,,031119_p1,001,2019_Mar_11_1352,body_behavioural,3.0.4,60.038328344799,
2,"Mr. Gordon ordered a medium-rare steak and martini, and Mr. Shelton ordered veal and a manhattan. ",3,2,,,,0,2,2,2,,,,,0,16,16,16,,,,,,,,,,,,,,,,,,,,,,,,,,,,,,,1,1.2364876299980097,,,,,,,,,,,,,,,,,,,,,,,,,,,,031119_p1,001,2019_Mar_11_1352,body_behavioural,3.0.4,60.038328344799,
2,"Then Mr. Shelton continued, “Look, I’ve talked to other members of the board, and we are prepared to offer $600 million to buy your company. ",3,2,,,,0,2,2,2,,,,,0,17,17,17,,,,,,,,,,,,,,,,,,,,,,,,,,,,,,,1,2.052579526993213,,,,,,,,,,,,,,,,,,,,,,,,,,,,031119_p1,001,2019_Mar_11_1352,body_behavioural,3.0.4,60.038328344799,
2,"We'd keep on all of your current employees, and you would join as the director of your company branch.” ",3,2,,,,0,2,2,2,,,,,0,18,18,18,,,,,,,,,,,,,,,,,,,,,,,,,,,,,,,1,0.6863203469838481,,,,,,,,,,,,,,,,,,,,,,,,,,,,031119_p1,001,2019_Mar_11_1352,body_behavioural,3.0.4,60.038328344799,
2,Mr. Gordon sat looking at Mr. Shelton for a few moments considering his response. ,3,2,,,,0,2,2,2,,,,,0,19,19,19,,,,,,,,,,,,,,,,,,,,,,,,,,,,,,,1,0.8194166049943306,,,,,,,,,,,,,,,,,,,,,,,,,,,,031119_p1,001,2019_Mar_11_1352,body_behavioural,3.0.4,60.038328344799,
2,He looked at Mr. Shelton skeptically.,3,2,,,,0,2,2,2,,,,,0,20,20,20,,,,,,,,,,,,,,,,,,,,,,,,,,,,,,,1,0.5863368870050181,,,,,,,,,,,,,,,,,,,,,,,,,,,,031119_p1,001,2019_Mar_11_1352,body_behavioural,3.0.4,60.038328344799,
2,"He said, “Mr. Shelton, I think that you make a compelling offer, but there are definitely some disadvantages to attaching our small, streamlined productions to a large company like yours.",3,3,,,,0,2,2,2,,,,,0,21,21,21,,,,,,,,,,,,,,,,,,,,,,,,,,,,,,,1,3.3034977549978066,,,,,,,,,,,,,,,,,,,,,,,,,,,,031119_p1,001,2019_Mar_11_1352,body_behavioural,3.0.4,60.038328344799,
2,"We operate in a very different way than a large company, and the kind of administrative complexity that makes the scale of your productions possible would suffocate our business.",3,3,,,,0,2,2,2,,,,,0,22,22,22,,,,,,,,,,,,,,,,,,,,,,,,,,,,,,,1,1.369605589978164,,,,,,,,,,,,,,,,,,,,,,,,,,,,031119_p1,001,2019_Mar_11_1352,body_behavioural,3.0.4,60.038328344799,
2,"With our product, scaling-up doesn’t necessarily make sense.” ",3,3,,,,0,2,2,2,,,,,0,23,23,23,,,,,,,,,,,,,,,,,,,,,,,,,,,,,,,1,0.9027198900002986,,,,,,,,,,,,,,,,,,,,,,,,,,,,031119_p1,001,2019_Mar_11_1352,body_behavioural,3.0.4,60.038328344799,
2,Mr. Shelton had expected this response and had come prepared.,3,3,,,,0,2,2,2,,,,,0,24,24,24,,,,,,,,,,,,,,,,,,,,,,,,,,,,,,,1,0.8862442969984841,,,,,,,,,,,,,,,,,,,,,,,,,,,,031119_p1,001,2019_Mar_11_1352,body_behavioural,3.0.4,60.038328344799,
2,He began laying out the details of how he had handled similar acquisitions successfully in the past.,3,3,,,,0,2,2,2,,,,,0,25,25,25,,,,,,,,,,,,,,,,,,,,,,,,,,,,,,,1,1.5836206240055617,,,,,,,,,,,,,,,,,,,,,,,,,,,,031119_p1,001,2019_Mar_11_1352,body_behavioural,3.0.4,60.038328344799,
2,"Mr. Gordon was impressed, and they went back and forth hashing out what the company configuration would look like post-merger. ",3,3,,,,0,2,2,2,,,,,0,26,26,26,,,,,,,,,,,,,,,,,,,,,,,,,,,,,,,9,2.37059418001445,,,,,,,,,,,,,,,,,,,,,,,,,,,,031119_p1,001,2019_Mar_11_1352,body_behavioural,3.0.4,60.038328344799,
2,"The waitress brought the food out, interrupting their animated conversation.",4,3,,,,0,2,2,2,,,,,0,27,27,27,,,,,,,,,,,,,,,,,,,,,,,,,,,,,,,1,0.936397860001307,,,,,,,,,,,,,,,,,,,,,,,,,,,,031119_p1,001,2019_Mar_11_1352,body_behavioural,3.0.4,60.038328344799,
2,“Oh this looks so good!” Mr. Gordon said. ,4,3,,,,0,2,2,2,,,,,0,28,28,28,,,,,,,,,,,,,,,,,,,,,,,,,,,,,,,1,1.2506550649995916,,,,,,,,,,,,,,,,,,,,,,,,,,,,031119_p1,001,2019_Mar_11_1352,body_behavioural,3.0.4,60.038328344799,
2, “Can I get you anything else?” the waitress asked.,4,3,,,,0,2,2,2,,,,,0,29,29,29,,,,,,,,,,,,,,,,,,,,,,,,,,,,,,,1,0.667342019994976,,,,,,,,,,,,,,,,,,,,,,,,,,,,031119_p1,001,2019_Mar_11_1352,body_behavioural,3.0.4,60.038328344799,
2,They declined and continued to talk.,4,3,,,,0,2,2,2,,,,,0,30,30,30,,,,,,,,,,,,,,,,,,,,,,,,,,,,,,,1,0.636397135007428,,,,,,,,,,,,,,,,,,,,,,,,,,,,031119_p1,001,2019_Mar_11_1352,body_behavioural,3.0.4,60.038328344799,
2,"The meal lived up to the reputation of the restaurant, which was known for having the best cuts of meat in the area.",4,3,,,,0,2,2,2,,,,,0,31,31,31,,,,,,,,,,,,,,,,,,,,,,,,,,,,,,,9,1.6196639599802438,,,,,,,,,,,,,,,,,,,,,,,,,,,,031119_p1,001,2019_Mar_11_1352,body_behavioural,3.0.4,60.038328344799,
2,"Mr. Gordon, after taking a contemplative bite of his food, said, “Mr. Shelton, I think we have a deal. ",4,4,,,,0,2,2,2,,,,,0,32,32,32,,,,,,,,,,,,,,,,,,,,,,,,,,,,,,,1,0.45073551702080294,,,,,,,,,,,,,,,,,,,,,,,,,,,,031119_p1,001,2019_Mar_11_1352,body_behavioural,3.0.4,60.038328344799,
2,"If you can guarantee that I can still have the final say in the all the work done by my team, I think this could be beneficial for both of us.",4,4,,,,0,2,2,2,,,,,0,33,33,33,,,,,,,,,,,,,,,,,,,,,,,,,,,,,,,1,0.4506299819913693,,,,,,,,,,,,,,,,,,,,,,,,,,,,031119_p1,001,2019_Mar_11_1352,body_behavioural,3.0.4,60.038328344799,
2,I propose a toast to the merging of our companies.”,4,4,,,,0,2,2,2,,,,,0,34,34,34,,,,,,,,,,,,,,,,,,,,,,,,,,,,,,,1,0.469706657982897,,,,,,,,,,,,,,,,,,,,,,,,,,,,031119_p1,001,2019_Mar_11_1352,body_behavioural,3.0.4,60.038328344799,
2,Mr. Shelton grinned and lifted his martini to clink glasses.,4,4,,,,0,2,2,2,,,,,0,35,35,35,,,,,,,,,,,,,,,,,,,,,,,,,,,,,,,1,0.4198241649719421,,,,,,,,,,,,,,,,,,,,,,,,,,,,031119_p1,001,2019_Mar_11_1352,body_behavioural,3.0.4,60.038328344799,
2,"He said, “Cheers to a lifelong partnership and to the growth of your company.” ",4,4,,,,0,2,2,2,,,,,0,36,36,36,,,,,,,,,,,,,,,,,,,,,,,,,,,,,,,1,0.4695786219963338,,,,,,,,,,,,,,,,,,,,,,,,,,,,031119_p1,001,2019_Mar_11_1352,body_behavioural,3.0.4,60.038328344799,
2,,,,,,,0,2,2,2,,,,,,,,,,,,,,,,,,,,,,,,,,,,,,,,,,,,,,,,,,,,,,,,,,,,,,,,,,,,,,,,,,,,031119_p1,001,2019_Mar_11_1352,body_behavioural,3.0.4,60.038328344799,
3,,,,,,,0,3,3,3,0,0,0,0,,,,,,,,,,,,,,,,,,,,,,,,,,,,,space,0.6363501430023462,space,0.5197930150025059,space,1.1366070430085529,,,,,,,,,,,,,,,,,,,,,,,,,,,,,,031119_p1,001,2019_Mar_11_1352,body_behavioural,3.0.4,60.038328344799,
3,,,,,,,0,3,3,3,1,0,1,0,,,,,,,,,,,,,,,,,,,,,,,,,,,,,,,,,space,0.6863192400196567,,,,,,,,,,,,,,,,,,,,,,,,,,,,,,031119_p1,001,2019_Mar_11_1352,body_behavioural,3.0.4,60.038328344799,
3,"Alvira and Senna walked into the restaurant hand in sweaty hand with quite different expectations: Senna was going to propose tonight, and Alvira had no idea.",1,1,None,None,,0,3,3,3,,,,,0,0,0,0,,,,,,,,,,,,,,,,,,,,,,,,,,,,,,,1,3.05294960498577,,,,,,,,,,,,,,,,,,,,,,,,,,,,031119_p1,001,2019_Mar_11_1352,body_behavioural,3.0.4,60.038328344799,
3,"He took a deep breath, trying to calm his nerves as worst case scenarios ran through his mind. ",1,1,None,None,,0,3,3,3,,,,,0,1,1,1,,,,,,,,,,,,,,,,,,,,,,,,,,,,,,,1,2.0026209949865006,,,,,,,,,,,,,,,,,,,,,,,,,,,,031119_p1,001,2019_Mar_11_1352,body_behavioural,3.0.4,60.038328344799,
3,The entrance of the restaurant was dazzling; chandeliers spread their warm light onto the delicate place settings of all the tables filled with guests dressed to the nines. ,1,1,None,None,,0,3,3,3,,,,,0,2,2,2,,,,,,,,,,,,,,,,,,,,,,,,,,,,,,,9,1.6844480799918529,,,,,,,,,,,,,,,,,,,,,,,,,,,,031119_p1,001,2019_Mar_11_1352,body_behavioural,3.0.4,60.038328344799,
3,"Through the floor-to-ceiling arched windows of the back wall, they saw the sun setting onto the Pacific ocean.",1,1,None,None,,0,3,3,3,,,,,0,3,3,3,,,,,,,,,,,,,,,,,,,,,,,,,,,,,,,1,1.6365288799861446,,,,,,,,,,,,,,,,,,,,,,,,,,,,031119_p1,001,2019_Mar_11_1352,body_behavioural,3.0.4,60.038328344799,
3,"This was surely one of the best restaurants on the west coast, situated right on the beach.",1,1,None,None,,0,3,3,3,,,,,0,4,4,4,,,,,,,,,,,,,,,,,,,,,,,,,,,,,,,1,0.8201336129859556,,,,,,,,,,,,,,,,,,,,,,,,,,,,031119_p1,001,2019_Mar_11_1352,body_behavioural,3.0.4,60.038328344799,
3,"Senna gave his name to the host, who quickly located their reservation with an almost comically wide customer-service smile.",1,1,7.0,None,,0,3,3,3,,,,,0,5,5,5,,,,,,,,,,,,,,,,,,,,,,,,,,,,,,,9,1.9364595699880738,,,,,,,,,,,,,,,,,,,,,,,,,,,,031119_p1,001,2019_Mar_11_1352,body_behavioural,3.0.4,60.038328344799,
3,He led them to a table right by the window.,2,1,None,None,,0,3,3,3,,,,,0,6,6,6,,,,,,,,,,,,,,,,,,,,,,,,,,,,,,,1,0.4197664149978664,,,,,,,,,,,,,,,,,,,,,,,,,,,,031119_p1,001,2019_Mar_11_1352,body_behavioural,3.0.4,60.038328344799,
3,"He brought out some very small menus, with a short list of the celebrity chef's carefully selected daily dishes written in a loopy, cursive font unadorned by any mention of prices.",2,1,None,9.0,,0,3,3,3,,,,,0,7,7,7,,,,,,,,,,,,,,,,,,,,,,,,,,,,,,,1,1.2530391869950108,,,,,,,,,,,,,,,,,,,,,,,,,,,,031119_p1,001,2019_Mar_11_1352,body_behavioural,3.0.4,60.038328344799,
3,Senna slipped off to the bathroom to check to make sure the ring was in order.,2,2,None,None,,0,3,3,3,,,,,0,8,8,8,,,,,,,,,,,,,,,,,,,,,,,,,,,,,,,1,1.2363771669915877,,,,,,,,,,,,,,,,,,,,,,,,,,,,031119_p1,001,2019_Mar_11_1352,body_behavioural,3.0.4,60.038328344799,
3,"The ring contained a canary diamond that had been in his grandmother’s wedding ring, and it was a brilliant stone that was accentuated by the small white diamonds encircling it.",2,2,None,None,,0,3,3,3,,,,,0,9,9,9,,,,,,,,,,,,,,,,,,,,,,,,,,,,,,,9,2.869514216989046,,,,,,,,,,,,,,,,,,,,,,,,,,,,031119_p1,001,2019_Mar_11_1352,body_behavioural,3.0.4,60.038328344799,
3,"He walked back to the table after handing the small, velvet box to a waiter at the front podium.",2,2,6.0,None,,0,3,3,3,,,,,0,10,10,10,,,,,,,,,,,,,,,,,,,,,,,,,,,,,,,1,1.7696010250074323,,,,,,,,,,,,,,,,,,,,,,,,,,,,031119_p1,001,2019_Mar_11_1352,body_behavioural,3.0.4,60.038328344799,
3,He came back just as their waiter was approaching the table to get their order.,3,2,None,None,,0,3,3,3,,,,,0,11,11,11,,,,,,,,,,,,,,,,,,,,,,,,,,,,,,,1,0.6673806750040967,,,,,,,,,,,,,,,,,,,,,,,,,,,,031119_p1,001,2019_Mar_11_1352,body_behavioural,3.0.4,60.038328344799,
3,"Senna ordered the oysters with garlic-parmesan sauce, and Alvira ordered the sauteed sea scallops with caramelized apples. ",3,2,None,None,,0,3,3,3,,,,,0,12,12,12,,,,,,,,,,,,,,,,,,,,,,,,,,,,,,,1,2.7192092399927787,,,,,,,,,,,,,,,,,,,,,,,,,,,,031119_p1,001,2019_Mar_11_1352,body_behavioural,3.0.4,60.038328344799,
3,"“Excellent choices,” the waiter said with a subsequent brisk spin away from the table.",3,2,None,None,,0,3,3,3,,,,,0,13,13,13,,,,,,,,,,,,,,,,,,,,,,,,,,,,,,,1,1.737172235007165,,,,,,,,,,,,,,,,,,,,,,,,,,,,031119_p1,001,2019_Mar_11_1352,body_behavioural,3.0.4,60.038328344799,
3,"“What a beautiful place, Senna. ",3,2,None,None,,0,3,3,3,,,,,0,14,14,14,,,,,,,,,,,,,,,,,,,,,,,,,,,,,,,1,0.7860596170066856,,,,,,,,,,,,,,,,,,,,,,,,,,,,031119_p1,001,2019_Mar_11_1352,body_behavioural,3.0.4,60.038328344799,
3,"Really this is too much just to celebrate the first tomatoes I grew in the garden, like, this is absurd,” Alvira said.",3,2,None,None,,0,3,3,3,,,,,0,15,15,15,,,,,,,,,,,,,,,,,,,,,,,,,,,,,,,1,3.96800369801349,,,,,,,,,,,,,,,,,,,,,,,,,,,,031119_p1,001,2019_Mar_11_1352,body_behavioural,3.0.4,60.038328344799,
3,"Senna laughed and said, “No, those were really the best tomatoes I’ve ever had. ",3,2,None,None,,0,3,3,3,,,,,0,16,16,16,,,,,,,,,,,,,,,,,,,,,,,,,,,,,,,1,2.720346564979991,,,,,,,,,,,,,,,,,,,,,,,,,,,,031119_p1,001,2019_Mar_11_1352,body_behavioural,3.0.4,60.038328344799,
3,We had to celebrate.” ,3,2,None,None,,0,3,3,3,,,,,0,17,17,17,,,,,,,,,,,,,,,,,,,,,,,,,,,,,,,1,0.5534509099961724,,,,,,,,,,,,,,,,,,,,,,,,,,,,031119_p1,001,2019_Mar_11_1352,body_behavioural,3.0.4,60.038328344799,
3,"They talked and laughed as the sun sank below the horizon, and the glow from the ocean was replaced by the glow from the chandeliers.",3,2,8.0,None,,0,3,3,3,,,,,0,18,18,18,,,,,,,,,,,,,,,,,,,,,,,,,,,,,,,9,1.4704804840148427,,,,,,,,,,,,,,,,,,,,,,,,,,,,031119_p1,001,2019_Mar_11_1352,body_behavioural,3.0.4,60.038328344799,
3,"The waiter eventually returned with their meals, and everything was even more delicious than they had expected, especially the oysters, which Senna said tasted like the ocean. ",4,2,None,None,,0,3,3,3,,,,,0,19,19,19,,,,,,,,,,,,,,,,,,,,,,,,,,,,,,,1,1.6197079170087818,,,,,,,,,,,,,,,,,,,,,,,,,,,,031119_p1,001,2019_Mar_11_1352,body_behavioural,3.0.4,60.038328344799,
3,Then he paused and looked at Alvira meaningfully. ,4,2,None,None,,0,3,3,3,,,,,0,20,20,20,,,,,,,,,,,,,,,,,,,,,,,,,,,,,,,1,0.9859862820012495,,,,,,,,,,,,,,,,,,,,,,,,,,,,031119_p1,001,2019_Mar_11_1352,body_behavioural,3.0.4,60.038328344799,
3, “It’s really been the best three years of my life with you.,4,2,None,None,,0,3,3,3,,,,,0,21,21,21,,,,,,,,,,,,,,,,,,,,,,,,,,,,,,,1,0.7699313469929621,,,,,,,,,,,,,,,,,,,,,,,,,,,,031119_p1,001,2019_Mar_11_1352,body_behavioural,3.0.4,60.038328344799,
3,"I couldn’t imagine it any other way, and I don’t want to.",4,2,None,None,,0,3,3,3,,,,,0,22,22,22,,,,,,,,,,,,,,,,,,,,,,,,,,,,,,,1,1.033899987989571,,,,,,,,,,,,,,,,,,,,,,,,,,,,031119_p1,001,2019_Mar_11_1352,body_behavioural,3.0.4,60.038328344799,
3,"I really want to spend the rest of my years eating garden tomatoes, whatever it is, with you.” ",4,2,None,None,,0,3,3,3,,,,,0,23,23,23,,,,,,,,,,,,,,,,,,,,,,,,,,,,,,,1,0.5344782919855788,,,,,,,,,,,,,,,,,,,,,,,,,,,,031119_p1,001,2019_Mar_11_1352,body_behavioural,3.0.4,60.038328344799,
3,"Alvira smiled, “I want the same with you too, Senna.” ",4,2,None,17.0,,0,3,3,3,,,,,0,24,24,24,,,,,,,,,,,,,,,,,,,,,,,,,,,,,,,1,0.8697675000003073,,,,,,,,,,,,,,,,,,,,,,,,,,,,031119_p1,001,2019_Mar_11_1352,body_behavioural,3.0.4,60.038328344799,
3,"Senna nodded at the waiter who had been watching attentively, and he quickly strode over to place a small, elegant cake topped with the ring in front of Alvira. ",4,3,None,None,,0,3,3,3,,,,,0,25,25,25,,,,,,,,,,,,,,,,,,,,,,,,,,,,,,,1,2.653169343015179,,,,,,,,,,,,,,,,,,,,,,,,,,,,031119_p1,001,2019_Mar_11_1352,body_behavioural,3.0.4,60.038328344799,
3,Her eyes widened in shock when she realized what she was looking at.,4,3,None,None,,0,3,3,3,,,,,0,26,26,26,,,,,,,,,,,,,,,,,,,,,,,,,,,,,,,1,1.0673634619743098,,,,,,,,,,,,,,,,,,,,,,,,,,,,031119_p1,001,2019_Mar_11_1352,body_behavioural,3.0.4,60.038328344799,
3,"“Alvira, will you marry me? ",4,3,None,None,,0,3,3,3,,,,,0,27,27,27,,,,,,,,,,,,,,,,,,,,,,,,,,,,,,,1,2.9178339729842264,,,,,,,,,,,,,,,,,,,,,,,,,,,,031119_p1,001,2019_Mar_11_1352,body_behavioural,3.0.4,60.038328344799,
3,"I love you, and I will never stop loving you.” ",4,3,None,None,,0,3,3,3,,,,,0,28,28,28,,,,,,,,,,,,,,,,,,,,,,,,,,,,,,,1,0.6866014749975875,,,,,,,,,,,,,,,,,,,,,,,,,,,,031119_p1,001,2019_Mar_11_1352,body_behavioural,3.0.4,60.038328344799,
3,Alvira started to cry.,4,3,None,None,,0,3,3,3,,,,,0,29,29,29,,,,,,,,,,,,,,,,,,,,,,,,,,,,,,,9,0.9526927050028462,,,,,,,,,,,,,,,,,,,,,,,,,,,,031119_p1,001,2019_Mar_11_1352,body_behavioural,3.0.4,60.038328344799,
3,"The room became silent, and everyone turned to their table. ",4,3,None,5.0,,0,3,3,3,,,,,0,30,30,30,,,,,,,,,,,,,,,,,,,,,,,,,,,,,,,1,0.45300583200878464,,,,,,,,,,,,,,,,,,,,,,,,,,,,031119_p1,001,2019_Mar_11_1352,body_behavioural,3.0.4,60.038328344799,
3,"“Yes, of course, yes!” she shouted as she wiped away tears.",4,4,None,None,,0,3,3,3,,,,,0,31,31,31,,,,,,,,,,,,,,,,,,,,,,,,,,,,,,,1,0.5694327079982031,,,,,,,,,,,,,,,,,,,,,,,,,,,,031119_p1,001,2019_Mar_11_1352,body_behavioural,3.0.4,60.038328344799,
3,The neighboring tables exploded in applause.,4,4,None,None,,0,3,3,3,,,,,0,32,32,32,,,,,,,,,,,,,,,,,,,,,,,,,,,,,,,1,0.6526037350122351,,,,,,,,,,,,,,,,,,,,,,,,,,,,031119_p1,001,2019_Mar_11_1352,body_behavioural,3.0.4,60.038328344799,
3,The waiter returned with a bottle of champagne and popped it. ,4,4,None,None,,0,3,3,3,,,,,0,33,33,33,,,,,,,,,,,,,,,,,,,,,,,,,,,,,,,1,0.8196628169971518,,,,,,,,,,,,,,,,,,,,,,,,,,,,031119_p1,001,2019_Mar_11_1352,body_behavioural,3.0.4,60.038328344799,
3,"All of this went unnoticed by Senna and Alvira as they looked into each others’ eyes, and he slipped the ring onto her finger. ",4,4,None,None,,0,3,3,3,,,,,0,34,34,34,,,,,,,,,,,,,,,,,,,,,,,,,,,,,,,1,1.9861262479971629,,,,,,,,,,,,,,,,,,,,,,,,,,,,031119_p1,001,2019_Mar_11_1352,body_behavioural,3.0.4,60.038328344799,
3,"She held up her hand to admire it, and her glittering tears of joy matched the shine from her ring.   
",4,4,17.0,5.0,,0,3,3,3,,,,,0,35,35,35,,,,,,,,,,,,,,,,,,,,,,,,,,,,,,,1,0.9532941800134722,,,,,,,,,,,,,,,,,,,,,,,,,,,,031119_p1,001,2019_Mar_11_1352,body_behavioural,3.0.4,60.038328344799,
3,,,,,,,0,3,3,3,,,,,,,,,,,,,,,,,,,,,,,,,,,,,,,,,,,,,,,,,,,,,,,,,,,,,,,,,,,,,,,,,,,,031119_p1,001,2019_Mar_11_1352,body_behavioural,3.0.4,60.038328344799,
4,,,,,,,0,4,4,4,0,0,0,0,,,,,,,,,,,,,,,,,,,,,,,,,,,,,space,0.567326470016269,space,0.46915603199158795,space,0.5528032429865561,,,,,,,,,,,,,,,,,,,,,,,,,,,,,,031119_p1,001,2019_Mar_11_1352,body_behavioural,3.0.4,60.038328344799,
4,,,,,,,0,4,4,4,1,0,1,0,,,,,,,,,,,,,,,,,,,,,,,,,,,,,,,,,space,0.48630191999836825,,,,,,,,,,,,,,,,,,,,,,,,,,,,,,031119_p1,001,2019_Mar_11_1352,body_behavioural,3.0.4,60.038328344799,
4,"Maria walked into lecture beside Henry, and she was mentally rehearsing what she should say to break up with him.",1,1,,,,0,4,4,4,,,,,0,0,0,0,,,,,,,,,,,,,,,,,,,,,,,,,,,,,,,1,6.953708885004744,,,,,,,,,,,,,,,,,,,,,,,,,,,,031119_p1,001,2019_Mar_11_1352,body_behavioural,3.0.4,60.038328344799,
4,"She had been putting it off with a growing sense of dread, and now this lecture was the last chance before she had to leave campus. ",1,1,,,,0,4,4,4,,,,,0,1,1,1,,,,,,,,,,,,,,,,,,,,,,,,,,,,,,,1,1.1696957150124945,,,,,,,,,,,,,,,,,,,,,,,,,,,,031119_p1,001,2019_Mar_11_1352,body_behavioural,3.0.4,60.038328344799,
4,"The lecture hall was large, with a stage for the lecturer in the front of the room, and tiered seats that stretched up in 15 stacked rows. ",1,1,,,,0,4,4,4,,,,,0,2,2,2,,,,,,,,,,,,,,,,,,,,,,,,,,,,,,,1,1.603102687979117,,,,,,,,,,,,,,,,,,,,,,,,,,,,031119_p1,001,2019_Mar_11_1352,body_behavioural,3.0.4,60.038328344799,
4,"The clock struck 3 pm, and Maria and Henry slid into neighboring seats near the back of the room.",1,1,,,,0,4,4,4,,,,,0,3,3,3,,,,,,,,,,,,,,,,,,,,,,,,,,,,,,,9,1.4363112700229976,,,,,,,,,,,,,,,,,,,,,,,,,,,,031119_p1,001,2019_Mar_11_1352,body_behavioural,3.0.4,60.038328344799,
4,"“Good afternoon, everybody,” said the professor, fiddling to connect his laptop with the projector.",2,1,,,,0,4,4,4,,,,,0,4,4,4,,,,,,,,,,,,,,,,,,,,,,,,,,,,,,,1,0.9507423219911288,,,,,,,,,,,,,,,,,,,,,,,,,,,,031119_p1,001,2019_Mar_11_1352,body_behavioural,3.0.4,60.038328344799,
4,“Welcome to week 4 of Intro to Ancient Philosophy. ,2,1,,,,0,4,4,4,,,,,0,5,5,5,,,,,,,,,,,,,,,,,,,,,,,,,,,,,,,1,0.6863123250077479,,,,,,,,,,,,,,,,,,,,,,,,,,,,031119_p1,001,2019_Mar_11_1352,body_behavioural,3.0.4,60.038328344799,
4,Today we are going to continue our lecture on Aristotelian Philosophy.”,2,1,,,,0,4,4,4,,,,,0,6,6,6,,,,,,,,,,,,,,,,,,,,,,,,,,,,,,,1,1.1697004250017926,,,,,,,,,,,,,,,,,,,,,,,,,,,,031119_p1,001,2019_Mar_11_1352,body_behavioural,3.0.4,60.038328344799,
4,Everyone in class pulled out their notebooks and settled in their seats as the slides appeared on the large front screens.,2,1,,,,0,4,4,4,,,,,0,7,7,7,,,,,,,,,,,,,,,,,,,,,,,,,,,,,,,1,0.919502509990707,,,,,,,,,,,,,,,,,,,,,,,,,,,,031119_p1,001,2019_Mar_11_1352,body_behavioural,3.0.4,60.038328344799,
4,"“Henry,” Maria whispered.",2,1,,,,0,4,4,4,,,,,0,8,8,8,,,,,,,,,,,,,,,,,,,,,,,,,,,,,,,1,0.6529205619881395,,,,,,,,,,,,,,,,,,,,,,,,,,,,031119_p1,001,2019_Mar_11_1352,body_behavioural,3.0.4,60.038328344799,
4,"“Hmm?” he replied, distracted.",2,1,,,,0,4,4,4,,,,,0,9,9,9,,,,,,,,,,,,,,,,,,,,,,,,,,,,,,,1,0.4529186449944973,,,,,,,,,,,,,,,,,,,,,,,,,,,,031119_p1,001,2019_Mar_11_1352,body_behavioural,3.0.4,60.038328344799,
4,"“Henry, I need to tell you something really important, and I don’t know when else I’ll have a chance to do it,” she said.",2,1,,,,0,4,4,4,,,,,0,10,10,10,,,,,,,,,,,,,,,,,,,,,,,,,,,,,,,1,1.3365151349862572,,,,,,,,,,,,,,,,,,,,,,,,,,,,031119_p1,001,2019_Mar_11_1352,body_behavioural,3.0.4,60.038328344799,
4,"“Okay, what's up?”, he said, tilting his head close to her. ",2,1,,,,0,4,4,4,,,,,0,11,11,11,,,,,,,,,,,,,,,,,,,,,,,,,,,,,,,1,1.2197893249976914,,,,,,,,,,,,,,,,,,,,,,,,,,,,031119_p1,001,2019_Mar_11_1352,body_behavioural,3.0.4,60.038328344799,
4," “Henry, I don’t think I can do long distance.",2,2,,,,0,4,4,4,,,,,0,12,12,12,,,,,,,,,,,,,,,,,,,,,,,,,,,,,,,1,2.0684749519859906,,,,,,,,,,,,,,,,,,,,,,,,,,,,031119_p1,001,2019_Mar_11_1352,body_behavioural,3.0.4,60.038328344799,
4,"I think what we have here is great, but I think it will be really hard when we are so far apart for such an extended period.",2,2,,,,0,4,4,4,,,,,0,13,13,13,,,,,,,,,,,,,,,,,,,,,,,,,,,,,,,1,1.036789393023355,,,,,,,,,,,,,,,,,,,,,,,,,,,,031119_p1,001,2019_Mar_11_1352,body_behavioural,3.0.4,60.038328344799,
4,"I’m sorry I’m telling you now in lecture, but I'm out of time, and it’s taken me awhile to come to this decision.",2,2,,,,0,4,4,4,,,,,0,14,14,14,,,,,,,,,,,,,,,,,,,,,,,,,,,,,,,1,0.5694890099985059,,,,,,,,,,,,,,,,,,,,,,,,,,,,031119_p1,001,2019_Mar_11_1352,body_behavioural,3.0.4,60.038328344799,
4,"I really think this is best, and who knows what will happen when I get back from my study abroad.” ",2,2,,,,0,4,4,4,,,,,0,15,15,15,,,,,,,,,,,,,,,,,,,,,,,,,,,,,,,1,0.8530639450182207,,,,,,,,,,,,,,,,,,,,,,,,,,,,031119_p1,001,2019_Mar_11_1352,body_behavioural,3.0.4,60.038328344799,
4,"While Henry tried to think of what to say, he and Maria stared unlistening at the professor as he started the lecture, “First we will talk about Aristotle’s work, The Categories.",3,2,,,,0,4,4,4,,,,,0,16,16,16,,,,,,,,,,,,,,,,,,,,,,,,,,,,,,,1,3.152811879001092,,,,,,,,,,,,,,,,,,,,,,,,,,,,031119_p1,001,2019_Mar_11_1352,body_behavioural,3.0.4,60.038328344799,
4,"This text, as you might have been able to guess, is about the kinds, or categories, of things that there are.",3,2,,,,0,4,4,4,,,,,0,17,17,17,,,,,,,,,,,,,,,,,,,,,,,,,,,,,,,1,1.286666914995294,,,,,,,,,,,,,,,,,,,,,,,,,,,,031119_p1,001,2019_Mar_11_1352,body_behavioural,3.0.4,60.038328344799,
4,"In fact, our term category comes from this Aristotelian context.” ",3,2,,,,0,4,4,4,,,,,0,18,18,18,,,,,,,,,,,,,,,,,,,,,,,,,,,,,,,1,0.6368875800108071,,,,,,,,,,,,,,,,,,,,,,,,,,,,031119_p1,001,2019_Mar_11_1352,body_behavioural,3.0.4,60.038328344799,
4,"Henry felt horrible, like the wind had just been knocked out of him.",3,2,,,,0,4,4,4,,,,,0,19,19,19,,,,,,,,,,,,,,,,,,,,,,,,,,,,,,,9,2.486750869982643,,,,,,,,,,,,,,,,,,,,,,,,,,,,031119_p1,001,2019_Mar_11_1352,body_behavioural,3.0.4,60.038328344799,
4,"A few tears started to fall down his cheeks as he whispered back, “Maria, I think we can make it work.",3,3,,,,0,4,4,4,,,,,0,20,20,20,,,,,,,,,,,,,,,,,,,,,,,,,,,,,,,1,0.8029388250142802,,,,,,,,,,,,,,,,,,,,,,,,,,,,031119_p1,001,2019_Mar_11_1352,body_behavioural,3.0.4,60.038328344799,
4,I’ll come visit you.,3,3,,,,0,4,4,4,,,,,0,21,21,21,,,,,,,,,,,,,,,,,,,,,,,,,,,,,,,1,0.5685647100035567,,,,,,,,,,,,,,,,,,,,,,,,,,,,031119_p1,001,2019_Mar_11_1352,body_behavioural,3.0.4,60.038328344799,
4,It will be fine.,3,3,,,,0,4,4,4,,,,,0,22,22,22,,,,,,,,,,,,,,,,,,,,,,,,,,,,,,,1,0.4363186550035607,,,,,,,,,,,,,,,,,,,,,,,,,,,,031119_p1,001,2019_Mar_11_1352,body_behavioural,3.0.4,60.038328344799,
4,I don’t want to break up.”,3,3,,,,0,4,4,4,,,,,0,23,23,23,,,,,,,,,,,,,,,,,,,,,,,,,,,,,,,1,0.4030973699991591,,,,,,,,,,,,,,,,,,,,,,,,,,,,031119_p1,001,2019_Mar_11_1352,body_behavioural,3.0.4,60.038328344799,
4,"Maria felt so guilty that she nearly gave in, but forced herself to hold her ground, knowing that this would make things much easier for both of them in the future.",3,3,,,,0,4,4,4,,,,,0,24,24,24,,,,,,,,,,,,,,,,,,,,,,,,,,,,,,,1,2.5529664299974684,,,,,,,,,,,,,,,,,,,,,,,,,,,,031119_p1,001,2019_Mar_11_1352,body_behavioural,3.0.4,60.038328344799,
4,"She gave his hand a squeeze but shook her head sadly, before turning back to her laptop and half-heartedly taking notes on the lecture which they sat through in painful silence.",3,3,,,,0,4,4,4,,,,,0,25,25,25,,,,,,,,,,,,,,,,,,,,,,,,,,,,,,,1,3.3031868370017037,,,,,,,,,,,,,,,,,,,,,,,,,,,,031119_p1,001,2019_Mar_11_1352,body_behavioural,3.0.4,60.038328344799,
4,"Finally, the professor was wrapping up, “This is what Aristotle means when he says that an animal’s or plant’s form rather than its matter is its nature. ",4,3,,,,0,4,4,4,,,,,0,26,26,26,,,,,,,,,,,,,,,,,,,,,,,,,,,,,,,9,2.002508006989956,,,,,,,,,,,,,,,,,,,,,,,,,,,,031119_p1,001,2019_Mar_11_1352,body_behavioural,3.0.4,60.038328344799,
4,"Alright class, that’s all for today. ",4,3,,,,0,4,4,4,,,,,0,27,27,27,,,,,,,,,,,,,,,,,,,,,,,,,,,,,,,1,0.6369383200071752,,,,,,,,,,,,,,,,,,,,,,,,,,,,031119_p1,001,2019_Mar_11_1352,body_behavioural,3.0.4,60.038328344799,
4,"Remember the final exam is coming up next week on Tuesday on the Pre-Socratics, Plato, and Aristotle, so feel free to come by office hours to discuss if you have the inspiration.",4,3,,,,0,4,4,4,,,,,0,28,28,28,,,,,,,,,,,,,,,,,,,,,,,,,,,,,,,1,0.836607350007398,,,,,,,,,,,,,,,,,,,,,,,,,,,,031119_p1,001,2019_Mar_11_1352,body_behavioural,3.0.4,60.038328344799,
4,"And if anyone is doing the 20 page paper in lieu of the final, that’s due next Tuesday as well.",4,3,,,,0,4,4,4,,,,,0,29,29,29,,,,,,,,,,,,,,,,,,,,,,,,,,,,,,,1,1.1509644850157201,,,,,,,,,,,,,,,,,,,,,,,,,,,,031119_p1,001,2019_Mar_11_1352,body_behavioural,3.0.4,60.038328344799,
4,"Have a good day, folks.” ",4,3,,,,0,4,4,4,,,,,0,30,30,30,,,,,,,,,,,,,,,,,,,,,,,,,,,,,,,1,0.5695080570003483,,,,,,,,,,,,,,,,,,,,,,,,,,,,031119_p1,001,2019_Mar_11_1352,body_behavioural,3.0.4,60.038328344799,
4,"Maria and Henry packed up hurriedly, and slipped quickly out of the class before the rest of the crowd. ",4,3,,,,0,4,4,4,,,,,0,31,31,31,,,,,,,,,,,,,,,,,,,,,,,,,,,,,,,9,1.3362378519959748,,,,,,,,,,,,,,,,,,,,,,,,,,,,031119_p1,001,2019_Mar_11_1352,body_behavioural,3.0.4,60.038328344799,
4,"They hugged outside, and both of them were crying. ",4,4,,,,0,4,4,4,,,,,0,32,32,32,,,,,,,,,,,,,,,,,,,,,,,,,,,,,,,1,0.653769544995157,,,,,,,,,,,,,,,,,,,,,,,,,,,,031119_p1,001,2019_Mar_11_1352,body_behavioural,3.0.4,60.038328344799,
4,"“Maria, I don’t want you to leave.",4,4,,,,0,4,4,4,,,,,0,33,33,33,,,,,,,,,,,,,,,,,,,,,,,,,,,,,,,1,1.3697134450194426,,,,,,,,,,,,,,,,,,,,,,,,,,,,031119_p1,001,2019_Mar_11_1352,body_behavioural,3.0.4,60.038328344799,
4,I don’t want this to end. ,4,4,,,,0,4,4,4,,,,,0,34,34,34,,,,,,,,,,,,,,,,,,,,,,,,,,,,,,,1,0.5866068599862047,,,,,,,,,,,,,,,,,,,,,,,,,,,,031119_p1,001,2019_Mar_11_1352,body_behavioural,3.0.4,60.038328344799,
4,"But if this is what you think is best, I can’t make it otherwise.” ",4,4,,,,0,4,4,4,,,,,0,35,35,35,,,,,,,,,,,,,,,,,,,,,,,,,,,,,,,1,0.8193155579792801,,,,,,,,,,,,,,,,,,,,,,,,,,,,031119_p1,001,2019_Mar_11_1352,body_behavioural,3.0.4,60.038328344799,
4,"They hugged one last time, and Maria ran off to get her things from her dorm.",4,4,,,,0,4,4,4,,,,,0,36,36,36,,,,,,,,,,,,,,,,,,,,,,,,,,,,,,,1,1.2363902299839538,,,,,,,,,,,,,,,,,,,,,,,,,,,,031119_p1,001,2019_Mar_11_1352,body_behavioural,3.0.4,60.038328344799,
4,Henry sadly watched her go. ,4,4,,,,0,4,4,4,,,,,0,37,37,37,,,,,,,,,,,,,,,,,,,,,,,,,,,,,,,1,0.6361103579984047,,,,,,,,,,,,,,,,,,,,,,,,,,,,031119_p1,001,2019_Mar_11_1352,body_behavioural,3.0.4,60.038328344799,
4,,,,,,,0,4,4,4,,,,,,,,,,,,,,,,,,,,,,,,,,,,,,,,,,,,,,,,,,,,,,,,,,,,,,,,,,,,,,,,,,,,031119_p1,001,2019_Mar_11_1352,body_behavioural,3.0.4,60.038328344799,
5,,,,,,,0,5,5,5,0,0,0,0,,,,,,,,,,,,,,,,,,,,,,,,,,,,,space,0.8530691869964357,space,0.45308870199369267,space,0.5859473120071925,,,,,,,,,,,,,,,,,,,,,,,,,,,,,,031119_p1,001,2019_Mar_11_1352,body_behavioural,3.0.4,60.038328344799,
5,,,,,,,0,5,5,5,1,0,1,0,,,,,,,,,,,,,,,,,,,,,,,,,,,,,,,,,space,0.5692552200052887,,,,,,,,,,,,,,,,,,,,,,,,,,,,,,031119_p1,001,2019_Mar_11_1352,body_behavioural,3.0.4,60.038328344799,
5,"Jeff, hoping that today would be a pivotal day for his new business, had only been waiting inside the doors of the airport for a few minutes when he saw William and eagerly waved him over. ",1,1,,,,0,5,5,5,,,,,0,0,0,0,,,,,,,,,,,,,,,,,,,,,,,,,,,,,,,1,5.603206533996854,,,,,,,,,,,,,,,,,,,,,,,,,,,,031119_p1,001,2019_Mar_11_1352,body_behavioural,3.0.4,60.038328344799,
5,"Jeff, checking his watch, was pleased to see that the two of them had two hours to discuss business before their flights left Boston.",1,1,,,,0,5,5,5,,,,,0,1,1,1,,,,,,,,,,,,,,,,,,,,,,,,,,,,,,,1,1.8869532049866393,,,,,,,,,,,,,,,,,,,,,,,,,,,,031119_p1,001,2019_Mar_11_1352,body_behavioural,3.0.4,60.038328344799,
5,The two had met the night before in line for the bathroom at a local bar. ,1,1,,,,0,5,5,5,,,,,0,2,2,2,,,,,,,,,,,,,,,,,,,,,,,,,,,,,,,9,1.6353641460009385,,,,,,,,,,,,,,,,,,,,,,,,,,,,031119_p1,001,2019_Mar_11_1352,body_behavioural,3.0.4,60.038328344799,
5,Jeff had delivered some surprisingly-detailed complaints to William about the wine selection.,1,1,,,,0,5,5,5,,,,,0,3,3,3,,,,,,,,,,,,,,,,,,,,,,,,,,,,,,,1,0.8038499699905515,,,,,,,,,,,,,,,,,,,,,,,,,,,,031119_p1,001,2019_Mar_11_1352,body_behavioural,3.0.4,60.038328344799,
5,They quickly learned about each other that Jeff was a representative for wine vineyards in the Northeast and William was a wine buyer for corporate events.,1,1,,,,0,5,5,5,,,,,0,4,4,4,,,,,,,,,,,,,,,,,,,,,,,,,,,,,,,1,1.703647114976775,,,,,,,,,,,,,,,,,,,,,,,,,,,,031119_p1,001,2019_Mar_11_1352,body_behavioural,3.0.4,60.038328344799,
5,"Since they both had flights out of Boston at the same time, they had agreed to meet at the airport and talk about potentially doing business. ",1,1,,,,0,5,5,5,,,,,0,5,5,5,,,,,,,,,,,,,,,,,,,,,,,,,,,,,,,1,1.833449935016688,,,,,,,,,,,,,,,,,,,,,,,,,,,,031119_p1,001,2019_Mar_11_1352,body_behavioural,3.0.4,60.038328344799,
5,"They headed to security together, pleased to find that the line was not so long, and they chatted a little as they were waiting. ",2,1,,,,0,5,5,5,,,,,0,6,6,6,,,,,,,,,,,,,,,,,,,,,,,,,,,,,,,1,2.319697717000963,,,,,,,,,,,,,,,,,,,,,,,,,,,,031119_p1,001,2019_Mar_11_1352,body_behavioural,3.0.4,60.038328344799,
5,"“It’s crazy that we met last night,” William said, “I am flying out right now to meet my boss, and was worried that I was going to show up empty handed without any local retailer prepared.” ",2,1,,,,0,5,5,5,,,,,0,7,7,7,,,,,,,,,,,,,,,,,,,,,,,,,,,,,,,9,2.417456889990717,,,,,,,,,,,,,,,,,,,,,,,,,,,,031119_p1,001,2019_Mar_11_1352,body_behavioural,3.0.4,60.038328344799,
5,"“I know, what are the chances, right?” Jeff said.",2,1,,,,0,5,5,5,,,,,0,8,8,8,,,,,,,,,,,,,,,,,,,,,,,,,,,,,,,1,0.5859682880109176,,,,,,,,,,,,,,,,,,,,,,,,,,,,031119_p1,001,2019_Mar_11_1352,body_behavioural,3.0.4,60.038328344799,
5,"William laughed and said, “I’m glad our shared complaining can come in handy.",2,1,,,,0,5,5,5,,,,,0,9,9,9,,,,,,,,,,,,,,,,,,,,,,,,,,,,,,,1,1.037157273007324,,,,,,,,,,,,,,,,,,,,,,,,,,,,031119_p1,001,2019_Mar_11_1352,body_behavioural,3.0.4,60.038328344799,
5,"I know this is fast, but I'd like to get right down to specifics.",2,2,,,,0,5,5,5,,,,,0,10,10,10,,,,,,,,,,,,,,,,,,,,,,,,,,,,,,,1,0.7194647669966798,,,,,,,,,,,,,,,,,,,,,,,,,,,,031119_p1,001,2019_Mar_11_1352,body_behavioural,3.0.4,60.038328344799,
5,I'd like to order a couple of sample shipments from you and present them to our corporate buyers.,2,2,,,,0,5,5,5,,,,,0,11,11,11,,,,,,,,,,,,,,,,,,,,,,,,,,,,,,,1,1.0197315030090977,,,,,,,,,,,,,,,,,,,,,,,,,,,,031119_p1,001,2019_Mar_11_1352,body_behavioural,3.0.4,60.038328344799,
5,"Typically we expect to get these kinds of samples at a deep discount, at least half-off the label price.",2,2,,,,0,5,5,5,,,,,0,12,12,12,,,,,,,,,,,,,,,,,,,,,,,,,,,,,,,1,1.8527519149938598,,,,,,,,,,,,,,,,,,,,,,,,,,,,031119_p1,001,2019_Mar_11_1352,body_behavioural,3.0.4,60.038328344799,
5,"This is nothing, okay, compared to what you will be making if one of these buyers makes a contract.",2,2,,,,0,5,5,5,,,,,0,13,13,13,,,,,,,,,,,,,,,,,,,,,,,,,,,,,,,1,2.32016835999093,,,,,,,,,,,,,,,,,,,,,,,,,,,,031119_p1,001,2019_Mar_11_1352,body_behavioural,3.0.4,60.038328344799,
5,So I propose that you send us $600 worth of wine shipments for a price of $300.”,2,2,,,,0,5,5,5,,,,,0,14,14,14,,,,,,,,,,,,,,,,,,,,,,,,,,,,,,,1,1.9029522849887144,,,,,,,,,,,,,,,,,,,,,,,,,,,,031119_p1,001,2019_Mar_11_1352,body_behavioural,3.0.4,60.038328344799,
5,"When it was their turn to go through the metal detector, they took off their shoes and pulled out their laptops.",2,2,,,,0,5,5,5,,,,,0,15,15,15,,,,,,,,,,,,,,,,,,,,,,,,,,,,,,,9,1.9694076019804925,,,,,,,,,,,,,,,,,,,,,,,,,,,,031119_p1,001,2019_Mar_11_1352,body_behavioural,3.0.4,60.038328344799,
5,"Jeff mulled over the offer, nodding noncommittally to William's pitch as they proceeded through the metal detector and retrieved their belongings.",2,2,,,,0,5,5,5,,,,,0,16,16,16,,,,,,,,,,,,,,,,,,,,,,,,,,,,,,,1,3.2864767870050855,,,,,,,,,,,,,,,,,,,,,,,,,,,,031119_p1,001,2019_Mar_11_1352,body_behavioural,3.0.4,60.038328344799,
5,"They began to walk through the concourse, and William handed some printed spreadsheets to Jeff as they navigated toward their gates at the end of the terminal.",3,2,,,,0,5,5,5,,,,,0,17,17,17,,,,,,,,,,,,,,,,,,,,,,,,,,,,,,,9,5.436726819985779,,,,,,,,,,,,,,,,,,,,,,,,,,,,031119_p1,001,2019_Mar_11_1352,body_behavioural,3.0.4,60.038328344799,
5,"Jeff, weaving through the crowds of travelers, squinted at William's rosy projections of the number of bottles he could be able to purchase in the future.",3,2,,,,0,5,5,5,,,,,0,18,18,18,,,,,,,,,,,,,,,,,,,,,,,,,,,,,,,1,1.586212885013083,,,,,,,,,,,,,,,,,,,,,,,,,,,,031119_p1,001,2019_Mar_11_1352,body_behavioural,3.0.4,60.038328344799,
5,"Finally Jeff said, “I don’t know, we’re not coming from corporate vineyards, so gambling with sample shipments is the kind of risk we can’t necessarily make. ",3,3,,,,0,5,5,5,,,,,0,19,19,19,,,,,,,,,,,,,,,,,,,,,,,,,,,,,,,1,2.3032437570218462,,,,,,,,,,,,,,,,,,,,,,,,,,,,031119_p1,001,2019_Mar_11_1352,body_behavioural,3.0.4,60.038328344799,
5,"These corporate purchases would have to be huge and practically guaranteed, to offset the loss from selling sample shipments at this price.”",3,3,,,,0,5,5,5,,,,,0,20,20,20,,,,,,,,,,,,,,,,,,,,,,,,,,,,,,,1,2.0677547179802787,,,,,,,,,,,,,,,,,,,,,,,,,,,,031119_p1,001,2019_Mar_11_1352,body_behavioural,3.0.4,60.038328344799,
5,"They walked to the gates very slowly, barely registering the hubbub of the airport since they were so caught up in figuring out this deal before their flights left.",3,3,,,,0,5,5,5,,,,,0,21,21,21,,,,,,,,,,,,,,,,,,,,,,,,,,,,,,,9,2.1531125769834034,,,,,,,,,,,,,,,,,,,,,,,,,,,,031119_p1,001,2019_Mar_11_1352,body_behavioural,3.0.4,60.038328344799,
5,"At the end of their long walk, they got to Jeff’s gate first, which had begun boarding passengers.",3,3,,,,0,5,5,5,,,,,0,22,22,22,,,,,,,,,,,,,,,,,,,,,,,,,,,,,,,1,1.0199409799824934,,,,,,,,,,,,,,,,,,,,,,,,,,,,031119_p1,001,2019_Mar_11_1352,body_behavioural,3.0.4,60.038328344799,
5,"In these last minutes, William and Jeff agreed on a compromise rate on the sample shipment, paying $400 for a $600 shipment, and they finalized the deal with a handshake. ",3,4,,,,0,5,5,5,,,,,0,23,23,23,,,,,,,,,,,,,,,,,,,,,,,,,,,,,,,1,2.9675447320041712,,,,,,,,,,,,,,,,,,,,,,,,,,,,031119_p1,001,2019_Mar_11_1352,body_behavioural,3.0.4,60.038328344799,
5,"“Well, what a tremendous pleasure to do business with you and to have all this work out,” William said.",3,4,,,,0,5,5,5,,,,,0,24,24,24,,,,,,,,,,,,,,,,,,,,,,,,,,,,,,,1,1.0195881499967072,,,,,,,,,,,,,,,,,,,,,,,,,,,,031119_p1,001,2019_Mar_11_1352,body_behavioural,3.0.4,60.038328344799,
5,"Jeff nodded enthusiastically, and responded, “Likewise, this has been great.  ",3,4,,,,0,5,5,5,,,,,0,25,25,25,,,,,,,,,,,,,,,,,,,,,,,,,,,,,,,1,0.5699037250014953,,,,,,,,,,,,,,,,,,,,,,,,,,,,031119_p1,001,2019_Mar_11_1352,body_behavioural,3.0.4,60.038328344799,
5,I'll let you get to your gate.,3,4,,,,0,5,5,5,,,,,0,26,26,26,,,,,,,,,,,,,,,,,,,,,,,,,,,,,,,1,0.6695859320170712,,,,,,,,,,,,,,,,,,,,,,,,,,,,031119_p1,001,2019_Mar_11_1352,body_behavioural,3.0.4,60.038328344799,
5,"Once we’re both back on the ground, we can get all the shipments in the books.”",3,4,,,,0,5,5,5,,,,,0,27,27,27,,,,,,,,,,,,,,,,,,,,,,,,,,,,,,,1,0.8358124800142832,,,,,,,,,,,,,,,,,,,,,,,,,,,,031119_p1,001,2019_Mar_11_1352,body_behavioural,3.0.4,60.038328344799,
5,They parted with a wave as Jeff scanned his boarding pass at the gate. ,3,4,,,,0,5,5,5,,,,,0,28,28,28,,,,,,,,,,,,,,,,,,,,,,,,,,,,,,,9,0.6527173109934665,,,,,,,,,,,,,,,,,,,,,,,,,,,,031119_p1,001,2019_Mar_11_1352,body_behavioural,3.0.4,60.038328344799,
5,He walked onto the plane and sat down in his aisle seat in the business class section.,4,4,,,,0,5,5,5,,,,,0,29,29,29,,,,,,,,,,,,,,,,,,,,,,,,,,,,,,,1,0.5852038070152048,,,,,,,,,,,,,,,,,,,,,,,,,,,,031119_p1,001,2019_Mar_11_1352,body_behavioural,3.0.4,60.038328344799,
5,He typed out a quick email on his phone letting the rest of his team know the good news. ,4,4,,,,0,5,5,5,,,,,0,30,30,30,,,,,,,,,,,,,,,,,,,,,,,,,,,,,,,1,0.8525820770009886,,,,,,,,,,,,,,,,,,,,,,,,,,,,031119_p1,001,2019_Mar_11_1352,body_behavioural,3.0.4,60.038328344799,
5,"When the flight attendant came by, he ordered a glass of champagne to celebrate.",4,4,,,,0,5,5,5,,,,,0,31,31,31,,,,,,,,,,,,,,,,,,,,,,,,,,,,,,,1,1.0537057770125102,,,,,,,,,,,,,,,,,,,,,,,,,,,,031119_p1,001,2019_Mar_11_1352,body_behavioural,3.0.4,60.038328344799,
5,,,,,,,0,5,5,5,,,,,,,,,,,,,,,,,,,,,,,,,,,,,,,,,,,,,,,,,,,,,,,,,,,,,,,,,,,,,,,,,,,,031119_p1,001,2019_Mar_11_1352,body_behavioural,3.0.4,60.038328344799,
6,,,,,,,0,6,6,6,0,0,0,0,,,,,,,,,,,,,,,,,,,,,,,,,,,,,space,0.7363724070019089,space,0.4859240500081796,space,0.5023658139980398,,,,,,,,,,,,,,,,,,,,,,,,,,,,,,031119_p1,001,2019_Mar_11_1352,body_behavioural,3.0.4,60.038328344799,
6,"Simon and Carina noticed each other as they walked into the grocery store at the same time, their carts nearly colliding as they squeezed into the entrance.",1,1,,,,0,6,6,6,,,,,0,0,0,0,,,,,,,,,,,,,,,,,,,,,,,,,,,,,,,1,2.6539201099949423,,,,,,,,,,,,,,,,,,,,,,,,,,,,031119_p1,001,2019_Mar_11_1352,body_behavioural,3.0.4,60.038328344799,
6,"They were both new to the Boston area, and this was their first time in this store. ",1,1,,,,0,6,6,6,,,,,0,1,1,1,,,,,,,,,,,,,,,,,,,,,,,,,,,,,,,1,0.6509174429811537,,,,,,,,,,,,,,,,,,,,,,,,,,,,031119_p1,001,2019_Mar_11_1352,body_behavioural,3.0.4,60.038328344799,
6,"It kind of looked like a large warehouse, with high unfurnished ceilings, industrial lights, and large packages of food. ",1,1,,,,0,6,6,6,,,,,0,2,2,2,,,,,,,,,,,,,,,,,,,,,,,,,,,,,,,1,1.5697647219931241,,,,,,,,,,,,,,,,,,,,,,,,,,,,031119_p1,001,2019_Mar_11_1352,body_behavioural,3.0.4,60.038328344799,
6,"They went off along separate routes, but soon ended up back together in the meat section. ",2,1,,,,0,6,6,6,,,,,0,3,3,3,,,,,,,,,,,,,,,,,,,,,,,,,,,,,,,1,1.3695356149983127,,,,,,,,,,,,,,,,,,,,,,,,,,,,031119_p1,001,2019_Mar_11_1352,body_behavioural,3.0.4,60.038328344799,
6,"They were both preparing for barbecues, so they were looking over the same cuts of meat. ",2,1,,,,0,6,6,6,,,,,0,4,4,4,,,,,,,,,,,,,,,,,,,,,,,,,,,,,,,1,0.8341006719856523,,,,,,,,,,,,,,,,,,,,,,,,,,,,031119_p1,001,2019_Mar_11_1352,body_behavioural,3.0.4,60.038328344799,
6,"Simon really wanted to talk to Carina, and Carina really wanted to say something to Simon, but they felt embarrassed striking up a conversation with a stranger.",2,1,,,,0,6,6,6,,,,,0,5,5,5,,,,,,,,,,,,,,,,,,,,,,,,,,,,,,,9,0.5023106499866117,,,,,,,,,,,,,,,,,,,,,,,,,,,,031119_p1,001,2019_Mar_11_1352,body_behavioural,3.0.4,60.038328344799,
6,"Carina suddenly turned to Simon and, pointing at a Cornish hen, asked, “Isn’t this meat cute?”",2,2,,,,0,6,6,6,,,,,0,6,6,6,,,,,,,,,,,,,,,,,,,,,,,,,,,,,,,1,1.0536144280049484,,,,,,,,,,,,,,,,,,,,,,,,,,,,031119_p1,001,2019_Mar_11_1352,body_behavioural,3.0.4,60.038328344799,
6,"He laughed, and said, “It is very cute.",2,2,,,,0,6,6,6,,,,,0,7,7,7,,,,,,,,,,,,,,,,,,,,,,,,,,,,,,,1,0.5532612499955576,,,,,,,,,,,,,,,,,,,,,,,,,,,,031119_p1,001,2019_Mar_11_1352,body_behavioural,3.0.4,60.038328344799,
6,"Probably the younger brother of this guy,” and he picked up a regular-sized chicken.",2,2,,,,0,6,6,6,,,,,0,8,8,8,,,,,,,,,,,,,,,,,,,,,,,,,,,,,,,1,1.3864809999940917,,,,,,,,,,,,,,,,,,,,,,,,,,,,031119_p1,001,2019_Mar_11_1352,body_behavioural,3.0.4,60.038328344799,
6,"“Unlucky family,” she responded. ",2,2,,,,0,6,6,6,,,,,0,9,9,9,,,,,,,,,,,,,,,,,,,,,,,,,,,,,,,1,0.5866540150018409,,,,,,,,,,,,,,,,,,,,,,,,,,,,031119_p1,001,2019_Mar_11_1352,body_behavioural,3.0.4,60.038328344799,
6,They continued to chat as they picked out their groceries.,2,2,,,,0,6,6,6,,,,,0,10,10,10,,,,,,,,,,,,,,,,,,,,,,,,,,,,,,,9,1.3696913949970622,,,,,,,,,,,,,,,,,,,,,,,,,,,,031119_p1,001,2019_Mar_11_1352,body_behavioural,3.0.4,60.038328344799,
6,"Simon helped Carina pick out the best ribs and his personal favorite barbeque sauce, and she helped him gather the  peppers, onions, and spices for a vegetable kabob she recommended.",2,2,,,,0,6,6,6,,,,,0,11,11,11,,,,,,,,,,,,,,,,,,,,,,,,,,,,,,,1,1.3531306749791838,,,,,,,,,,,,,,,,,,,,,,,,,,,,031119_p1,001,2019_Mar_11_1352,body_behavioural,3.0.4,60.038328344799,
6,"When they were both finished shopping, they went to the checkout area.",3,2,,,,0,6,6,6,,,,,0,12,12,12,,,,,,,,,,,,,,,,,,,,,,,,,,,,,,,1,0.719759184983559,,,,,,,,,,,,,,,,,,,,,,,,,,,,031119_p1,001,2019_Mar_11_1352,body_behavioural,3.0.4,60.038328344799,
6,"Simon was disappointed to see that the lines were short, since he had been hoping for an excuse to spend more time with Carina.",3,2,,,,0,6,6,6,,,,,0,13,13,13,,,,,,,,,,,,,,,,,,,,,,,,,,,,,,,1,1.686492434993852,,,,,,,,,,,,,,,,,,,,,,,,,,,,031119_p1,001,2019_Mar_11_1352,body_behavioural,3.0.4,60.038328344799,
6,"They had real chemistry, and both of them could definitely see a future together despite having just met.",3,2,,,,0,6,6,6,,,,,0,14,14,14,,,,,,,,,,,,,,,,,,,,,,,,,,,,,,,1,0.9190461699909065,,,,,,,,,,,,,,,,,,,,,,,,,,,,031119_p1,001,2019_Mar_11_1352,body_behavioural,3.0.4,60.038328344799,
6,"“So you haven’t been around the city much?”, Simon asked. ",3,2,,,,0,6,6,6,,,,,0,15,15,15,,,,,,,,,,,,,,,,,,,,,,,,,,,,,,,9,0.717964432988083,,,,,,,,,,,,,,,,,,,,,,,,,,,,031119_p1,001,2019_Mar_11_1352,body_behavioural,3.0.4,60.038328344799,
6,"“No, not really.",3,2,,,,0,6,6,6,,,,,0,16,16,16,,,,,,,,,,,,,,,,,,,,,,,,,,,,,,,1,0.4197112000256311,,,,,,,,,,,,,,,,,,,,,,,,,,,,031119_p1,001,2019_Mar_11_1352,body_behavioural,3.0.4,60.038328344799,
6,I’ve mainly been working and setting up my apartment.”,3,2,,,,0,6,6,6,,,,,0,17,17,17,,,,,,,,,,,,,,,,,,,,,,,,,,,,,,,1,0.38496132197906263,,,,,,,,,,,,,,,,,,,,,,,,,,,,031119_p1,001,2019_Mar_11_1352,body_behavioural,3.0.4,60.038328344799,
6,"Simon asked her, “Ok well, if you’d like I could pick you up next weekend, and we could go around Harvard Square and get dinner.",3,3,,,,0,6,6,6,,,,,0,18,18,18,,,,,,,,,,,,,,,,,,,,,,,,,,,,,,,1,1.6535436580015812,,,,,,,,,,,,,,,,,,,,,,,,,,,,031119_p1,001,2019_Mar_11_1352,body_behavioural,3.0.4,60.038328344799,
6,"There are a lot of great places around there, and it’s really nice during the summer.",3,3,,,,0,6,6,6,,,,,0,19,19,19,,,,,,,,,,,,,,,,,,,,,,,,,,,,,,,1,0.7531180949881673,,,,,,,,,,,,,,,,,,,,,,,,,,,,031119_p1,001,2019_Mar_11_1352,body_behavioural,3.0.4,60.038328344799,
6,The Harvard campus is also beautiful.” ,3,3,,,,0,6,6,6,,,,,0,20,20,20,,,,,,,,,,,,,,,,,,,,,,,,,,,,,,,1,0.6669836149958428,,,,,,,,,,,,,,,,,,,,,,,,,,,,031119_p1,001,2019_Mar_11_1352,body_behavioural,3.0.4,60.038328344799,
6,"Carina smiled, “I’d love to: that sounds great!”",3,3,,,,0,6,6,6,,,,,0,21,21,21,,,,,,,,,,,,,,,,,,,,,,,,,,,,,,,1,1.13635762501508,,,,,,,,,,,,,,,,,,,,,,,,,,,,031119_p1,001,2019_Mar_11_1352,body_behavioural,3.0.4,60.038328344799,
6,"She quickly entered her number in his phone, since they only had to wait a couple minutes in line.",3,3,,,,0,6,6,6,,,,,0,22,22,22,,,,,,,,,,,,,,,,,,,,,,,,,,,,,,,1,1.2032402320182882,,,,,,,,,,,,,,,,,,,,,,,,,,,,031119_p1,001,2019_Mar_11_1352,body_behavioural,3.0.4,60.038328344799,
6,Then it was her turn to check out with the cashier. ,4,3,,,,0,6,6,6,,,,,0,23,23,23,,,,,,,,,,,,,,,,,,,,,,,,,,,,,,,9,1.5029392649885267,,,,,,,,,,,,,,,,,,,,,,,,,,,,031119_p1,001,2019_Mar_11_1352,body_behavioural,3.0.4,60.038328344799,
6,"Simon, wanting to make a gesture of his affection, lifted up the divider on the conveyor belt and said to the cashier, “Actually these are together.",4,3,,,,0,6,6,6,,,,,0,24,24,24,,,,,,,,,,,,,,,,,,,,,,,,,,,,,,,1,0.5693041720078327,,,,,,,,,,,,,,,,,,,,,,,,,,,,031119_p1,001,2019_Mar_11_1352,body_behavioural,3.0.4,60.038328344799,
6,"Carina, I’ve got it.",4,3,,,,0,6,6,6,,,,,0,25,25,25,,,,,,,,,,,,,,,,,,,,,,,,,,,,,,,1,0.550626327021746,,,,,,,,,,,,,,,,,,,,,,,,,,,,031119_p1,001,2019_Mar_11_1352,body_behavioural,3.0.4,60.038328344799,
6,This was kind-of a date today.”,4,3,,,,0,6,6,6,,,,,0,26,26,26,,,,,,,,,,,,,,,,,,,,,,,,,,,,,,,1,0.4861868520092685,,,,,,,,,,,,,,,,,,,,,,,,,,,,031119_p1,001,2019_Mar_11_1352,body_behavioural,3.0.4,60.038328344799,
6,Carina blushed and laughed; she thought this was ridiculous but also very sweet. ,4,3,,,,0,6,6,6,,,,,0,27,27,27,,,,,,,,,,,,,,,,,,,,,,,,,,,,,,,1,0.8197780949994922,,,,,,,,,,,,,,,,,,,,,,,,,,,,031119_p1,001,2019_Mar_11_1352,body_behavioural,3.0.4,60.038328344799,
6,"The cashier rolled her eyes when they weren’t looking, and she scanned the rest of his items. ",4,3,,,,0,6,6,6,,,,,0,28,28,28,,,,,,,,,,,,,,,,,,,,,,,,,,,,,,,1,1.0865200319967698,,,,,,,,,,,,,,,,,,,,,,,,,,,,031119_p1,001,2019_Mar_11_1352,body_behavioural,3.0.4,60.038328344799,
6,"The total came to $120, and he paid with his credit card.",4,3,,,,0,6,6,6,,,,,0,29,29,29,,,,,,,,,,,,,,,,,,,,,,,,,,,,,,,1,1.269784661999438,,,,,,,,,,,,,,,,,,,,,,,,,,,,031119_p1,001,2019_Mar_11_1352,body_behavioural,3.0.4,60.038328344799,
6,"Carina thanked him, and they took the groceries and walked out.",4,3,,,,0,6,6,6,,,,,0,30,30,30,,,,,,,,,,,,,,,,,,,,,,,,,,,,,,,1,0.7194610850128811,,,,,,,,,,,,,,,,,,,,,,,,,,,,031119_p1,001,2019_Mar_11_1352,body_behavioural,3.0.4,60.038328344799,
6,"As they were walking towards the exit, Carina reluctantly said goodbye since she was running late for the barbeque she was hosting that afternoon.",4,4,,,,0,6,6,6,,,,,0,31,31,31,,,,,,,,,,,,,,,,,,,,,,,,,,,,,,,9,1.6531488120090216,,,,,,,,,,,,,,,,,,,,,,,,,,,,031119_p1,001,2019_Mar_11_1352,body_behavioural,3.0.4,60.038328344799,
6,"They hugged and parted ways, stealing glances at each other as they both walked back to their cars.",4,4,,,,0,6,6,6,,,,,0,32,32,32,,,,,,,,,,,,,,,,,,,,,,,,,,,,,,,1,2.2867435730004217,,,,,,,,,,,,,,,,,,,,,,,,,,,,031119_p1,001,2019_Mar_11_1352,body_behavioural,3.0.4,60.038328344799,
6,,,,,,,0,6,6,6,,,,,,,,,,,,,,,,,,,,,,,,,,,,,,,,,,,,,,,,,,,,,,,,,,,,,,,,,,,,,,,,,,,,031119_p1,001,2019_Mar_11_1352,body_behavioural,3.0.4,60.038328344799,
7,,,,,,,0,7,7,7,0,0,0,0,,,,,,,,,,,,,,,,,,,,,,,,,,,,,space,0.7191315600066446,space,0.5362644519773312,space,0.8359701799927279,,,,,,,,,,,,,,,,,,,,,,,,,,,,,,031119_p1,001,2019_Mar_11_1352,body_behavioural,3.0.4,60.038328344799,
7,"Sven and Isabel walked hurriedly from the cab into the Barcelona Airport after an incredible weekend with Isabel’s family, which had wiped away any doubts Sven had had about his decision to propose. ",1,1,,,,0,7,7,7,,,,,0,0,0,0,,,,,,,,,,,,,,,,,,,,,,,,,,,,,,,1,10.753663073002826,,,,,,,,,,,,,,,,,,,,,,,,,,,,031119_p1,001,2019_Mar_11_1352,body_behavioural,3.0.4,60.038328344799,
7,"They were a little pressed for time, with only a little over an hour until their flight would take off to go back to the US, but they already had their online boarding passes and no checked luggage. ",1,1,,,,0,7,7,7,,,,,0,1,1,1,,,,,,,,,,,,,,,,,,,,,,,,,,,,,,,1,2.236056972993538,,,,,,,,,,,,,,,,,,,,,,,,,,,,031119_p1,001,2019_Mar_11_1352,body_behavioural,3.0.4,60.038328344799,
7,"When Isabel stopped to rummage through her purse looking for her phone, Sven turned his back to her and took the velvet box out of his backpack, opening it to look at the ring he bought her.",1,2,,,,0,7,7,7,,,,,0,2,2,2,,,,,,,,,,,,,,,,,,,,,,,,,,,,,,,1,0.9197777820227202,,,,,,,,,,,,,,,,,,,,,,,,,,,,031119_p1,001,2019_Mar_11_1352,body_behavioural,3.0.4,60.038328344799,
7,"He had received her parents’ blessing during the trip, and he was almost giddy with excitement. ",1,2,,,,0,7,7,7,,,,,0,3,3,3,,,,,,,,,,,,,,,,,,,,,,,,,,,,,,,1,1.5033763199753594,,,,,,,,,,,,,,,,,,,,,,,,,,,,031119_p1,001,2019_Mar_11_1352,body_behavioural,3.0.4,60.038328344799,
7,"He tilted the ring backward and forward, despite having already studied it daily since he had purchased it a few weeks ago. ",1,2,,,,0,7,7,7,,,,,0,4,4,4,,,,,,,,,,,,,,,,,,,,,,,,,,,,,,,1,1.2698183469765354,,,,,,,,,,,,,,,,,,,,,,,,,,,,031119_p1,001,2019_Mar_11_1352,body_behavioural,3.0.4,60.038328344799,
7,"It was a simple design, with a clear, white diamond on a thin silver band.",1,2,,,,0,7,7,7,,,,,0,5,5,5,,,,,,,,,,,,,,,,,,,,,,,,,,,,,,,1,0.7189761640038341,,,,,,,,,,,,,,,,,,,,,,,,,,,,031119_p1,001,2019_Mar_11_1352,body_behavioural,3.0.4,60.038328344799,
7,"“Sven, let’s go! ” Isabel said. ",1,2,,,,0,7,7,7,,,,,0,6,6,6,,,,,,,,,,,,,,,,,,,,,,,,,,,,,,,9,1.0366614850063343,,,,,,,,,,,,,,,,,,,,,,,,,,,,031119_p1,001,2019_Mar_11_1352,body_behavioural,3.0.4,60.038328344799,
7,Sven discretely closed the box and put it in his pocket.,1,2,,,,0,7,7,7,,,,,0,7,7,7,,,,,,,,,,,,,,,,,,,,,,,,,,,,,,,1,0.6174185400013812,,,,,,,,,,,,,,,,,,,,,,,,,,,,031119_p1,001,2019_Mar_11_1352,body_behavioural,3.0.4,60.038328344799,
7," They entered the security line, weaving through the roped walkways to the front. ",2,2,,,,0,7,7,7,,,,,0,8,8,8,,,,,,,,,,,,,,,,,,,,,,,,,,,,,,,1,1.5866451069887262,,,,,,,,,,,,,,,,,,,,,,,,,,,,031119_p1,001,2019_Mar_11_1352,body_behavioural,3.0.4,60.038328344799,
7,"When they were up, Isabel realized her laptop was buried somewhere in her duffle bag. ",2,2,,,,0,7,7,7,,,,,0,9,9,9,,,,,,,,,,,,,,,,,,,,,,,,,,,,,,,1,1.6507737819920294,,,,,,,,,,,,,,,,,,,,,,,,,,,,031119_p1,001,2019_Mar_11_1352,body_behavioural,3.0.4,60.038328344799,
7,Sven had to hold the growing mound of objects she pulled from her bag until she unearthed the laptop.,2,2,,,,0,7,7,7,,,,,0,10,10,10,,,,,,,,,,,,,,,,,,,,,,,,,,,,,,,1,2.0031632199825253,,,,,,,,,,,,,,,,,,,,,,,,,,,,031119_p1,001,2019_Mar_11_1352,body_behavioural,3.0.4,60.038328344799,
7,She set it into a bin and then had to unstrap her leather boots and put everything else into the bins.,2,2,,,,0,7,7,7,,,,,0,11,11,11,,,,,,,,,,,,,,,,,,,,,,,,,,,,,,,1,1.119391282001743,,,,,,,,,,,,,,,,,,,,,,,,,,,,031119_p1,001,2019_Mar_11_1352,body_behavioural,3.0.4,60.038328344799,
7,"Finally, she relieved Sven of his holding duties, and he hurriedly deposited his own backpack on the belt as the people behind them glared without shame. ",2,2,,,,0,7,7,7,,,,,0,12,12,12,,,,,,,,,,,,,,,,,,,,,,,,,,,,,,,1,1.3698688829899766,,,,,,,,,,,,,,,,,,,,,,,,,,,,031119_p1,001,2019_Mar_11_1352,body_behavioural,3.0.4,60.038328344799,
7,"Sven went into the millimeter wave scanner after Isabel, put his hands up, and the metal bars whirled around him.",2,2,,,,0,7,7,7,,,,,0,13,13,13,,,,,,,,,,,,,,,,,,,,,,,,,,,,,,,1,1.2030289899848867,,,,,,,,,,,,,,,,,,,,,,,,,,,,031119_p1,001,2019_Mar_11_1352,body_behavioural,3.0.4,60.038328344799,
7,"“Sir, please step to the side.",2,2,,,,0,7,7,7,,,,,0,14,14,14,,,,,,,,,,,,,,,,,,,,,,,,,,,,,,,9,0.6362993299844675,,,,,,,,,,,,,,,,,,,,,,,,,,,,031119_p1,001,2019_Mar_11_1352,body_behavioural,3.0.4,60.038328344799,
7,"You need to empty your pockets,” the security guard said.",2,2,,,,0,7,7,7,,,,,0,15,15,15,,,,,,,,,,,,,,,,,,,,,,,,,,,,,,,1,0.4843803280091379,,,,,,,,,,,,,,,,,,,,,,,,,,,,031119_p1,001,2019_Mar_11_1352,body_behavioural,3.0.4,60.038328344799,
7,"With a sinking feeling Sven realized the mistake he had made forgetting to put the ring back in his bag, as Isabel and the guard both looked at him expectantly.",2,2,,,,0,7,7,7,,,,,0,16,16,16,,,,,,,,,,,,,,,,,,,,,,,,,,,,,,,1,2.802911025006324,,,,,,,,,,,,,,,,,,,,,,,,,,,,031119_p1,001,2019_Mar_11_1352,body_behavioural,3.0.4,60.038328344799,
7,"Sven,  deciding he would make the best of the situation, grabbed Isabel's hand as he reached into his pocket.",2,2,,,,0,7,7,7,,,,,0,17,17,17,,,,,,,,,,,,,,,,,,,,,,,,,,,,,,,1,2.186487950006267,,,,,,,,,,,,,,,,,,,,,,,,,,,,031119_p1,001,2019_Mar_11_1352,body_behavioural,3.0.4,60.038328344799,
7,"He got down on one knee and, giggling slightly at her confused look, said, “Isabel, this isn't quite how I'd planned this, but - will you marry me?”",2,3,,,,0,7,7,7,,,,,0,18,18,18,,,,,,,,,,,,,,,,,,,,,,,,,,,,,,,1,1.6531434200005606,,,,,,,,,,,,,,,,,,,,,,,,,,,,031119_p1,001,2019_Mar_11_1352,body_behavioural,3.0.4,60.038328344799,
7,The security guard gasped.,2,3,,,,0,7,7,7,,,,,0,19,19,19,,,,,,,,,,,,,,,,,,,,,,,,,,,,,,,1,0.8363232800038531,,,,,,,,,,,,,,,,,,,,,,,,,,,,031119_p1,001,2019_Mar_11_1352,body_behavioural,3.0.4,60.038328344799,
7,All the people who were putting their shoes back on and gathering their belongings stopped what they were doing and walked closer to the couple.,2,3,,,,0,7,7,7,,,,,0,20,20,20,,,,,,,,,,,,,,,,,,,,,,,,,,,,,,,1,1.6359044919954613,,,,,,,,,,,,,,,,,,,,,,,,,,,,031119_p1,001,2019_Mar_11_1352,body_behavioural,3.0.4,60.038328344799,
7,"Isabel was astonished, and far too shy to respond in front of the backup of passengers waiting behind them.",2,3,,,,0,7,7,7,,,,,0,21,21,21,,,,,,,,,,,,,,,,,,,,,,,,,,,,,,,1,2.6031442649837118,,,,,,,,,,,,,,,,,,,,,,,,,,,,031119_p1,001,2019_Mar_11_1352,body_behavioural,3.0.4,60.038328344799,
7,"She attempted to stammer a response as she frantically grabbed her and Sven’s shoes, leaving Sven to retrieve their bags.",2,3,,,,0,7,7,7,,,,,0,22,22,22,,,,,,,,,,,,,,,,,,,,,,,,,,,,,,,1,1.452407526987372,,,,,,,,,,,,,,,,,,,,,,,,,,,,031119_p1,001,2019_Mar_11_1352,body_behavioural,3.0.4,60.038328344799,
7,"Both of them slipping in their socked feet, she fled onto the concourse with Sven trying to catch up behind her.",3,3,,,,0,7,7,7,,,,,0,23,23,23,,,,,,,,,,,,,,,,,,,,,,,,,,,,,,,1,2.8200785249937326,,,,,,,,,,,,,,,,,,,,,,,,,,,,031119_p1,001,2019_Mar_11_1352,body_behavioural,3.0.4,60.038328344799,
7,"Everyone in the terminal was looking at them with confusion as Sven, holding the bags in one hand and the open ring box in the other, finally caught up to her.",3,3,,,,0,7,7,7,,,,,0,24,24,24,,,,,,,,,,,,,,,,,,,,,,,,,,,,,,,9,5.003181617008522,,,,,,,,,,,,,,,,,,,,,,,,,,,,031119_p1,001,2019_Mar_11_1352,body_behavioural,3.0.4,60.038328344799,
7,“Isabel?”,3,3,,,,0,7,7,7,,,,,0,25,25,25,,,,,,,,,,,,,,,,,,,,,,,,,,,,,,,1,0.4838246979925316,,,,,,,,,,,,,,,,,,,,,,,,,,,,031119_p1,001,2019_Mar_11_1352,body_behavioural,3.0.4,60.038328344799,
7,"He watched her face as she turned, trying to read her expression.",3,3,,,,0,7,7,7,,,,,0,26,26,26,,,,,,,,,,,,,,,,,,,,,,,,,,,,,,,1,0.5026516469952185,,,,,,,,,,,,,,,,,,,,,,,,,,,,031119_p1,001,2019_Mar_11_1352,body_behavioural,3.0.4,60.038328344799,
7,"Her eyes were wide, but she was smiling as she hyperventilated, “Of course yes, Sven, yes!” ",3,4,,,,0,7,7,7,,,,,0,27,27,27,,,,,,,,,,,,,,,,,,,,,,,,,,,,,,,1,1.9027736379939597,,,,,,,,,,,,,,,,,,,,,,,,,,,,031119_p1,001,2019_Mar_11_1352,body_behavioural,3.0.4,60.038328344799,
7,"They dropped their belongings and hugged, and Sven slipped the ring onto Isabel’s finger. ",3,4,,,,0,7,7,7,,,,,0,28,28,28,,,,,,,,,,,,,,,,,,,,,,,,,,,,,,,1,1.0033816719951574,,,,,,,,,,,,,,,,,,,,,,,,,,,,031119_p1,001,2019_Mar_11_1352,body_behavioural,3.0.4,60.038328344799,
7,"After getting their shoes back on, they practically skipped to the gate, filled with joy.",3,4,,,,0,7,7,7,,,,,0,29,29,29,,,,,,,,,,,,,,,,,,,,,,,,,,,,,,,1,0.9840283200028352,,,,,,,,,,,,,,,,,,,,,,,,,,,,031119_p1,001,2019_Mar_11_1352,body_behavioural,3.0.4,60.038328344799,
7,Sven high-fived a confused shoe-shine attendant as they passed.,3,4,,,,0,7,7,7,,,,,0,30,30,30,,,,,,,,,,,,,,,,,,,,,,,,,,,,,,,1,2.6696244449994992,,,,,,,,,,,,,,,,,,,,,,,,,,,,031119_p1,001,2019_Mar_11_1352,body_behavioural,3.0.4,60.038328344799,
7,"They sat down outside their gate, having actually made good time, until the attendant called for passengers.",3,4,,,,0,7,7,7,,,,,0,31,31,31,,,,,,,,,,,,,,,,,,,,,,,,,,,,,,,9,1.6199295050173532,,,,,,,,,,,,,,,,,,,,,,,,,,,,031119_p1,001,2019_Mar_11_1352,body_behavioural,3.0.4,60.038328344799,
7,"They boarded, sitting together in first class, and had a glass of champagne to celebrate the departure into their new life together.",4,4,,,,0,7,7,7,,,,,0,32,32,32,,,,,,,,,,,,,,,,,,,,,,,,,,,,,,,1,1.3193452319828793,,,,,,,,,,,,,,,,,,,,,,,,,,,,031119_p1,001,2019_Mar_11_1352,body_behavioural,3.0.4,60.038328344799,
7,"Some of their neighboring passengers who had witnessed the proposal congratulated them, and a woman next to them showed them that she had been live-tweeting the whole event and that it was already going viral online.",4,4,,,,0,7,7,7,,,,,0,33,33,33,,,,,,,,,,,,,,,,,,,,,,,,,,,,,,,1,2.717845587001648,,,,,,,,,,,,,,,,,,,,,,,,,,,,031119_p1,001,2019_Mar_11_1352,body_behavioural,3.0.4,60.038328344799,
7,"Isabel slid down in her seat with her hands over her face, both embarrassed and overjoyed at the same time.
",4,4,,,,0,7,7,7,,,,,0,34,34,34,,,,,,,,,,,,,,,,,,,,,,,,,,,,,,,1,1.469692885002587,,,,,,,,,,,,,,,,,,,,,,,,,,,,031119_p1,001,2019_Mar_11_1352,body_behavioural,3.0.4,60.038328344799,
7,,,,,,,0,7,7,7,,,,,,,,,,,,,,,,,,,,,,,,,,,,,,,,,,,,,,,,,,,,,,,,,,,,,,,,,,,,,,,,,,,,031119_p1,001,2019_Mar_11_1352,body_behavioural,3.0.4,60.038328344799,
,,,,,,,,,,,,,,,,,,,,,,,,,,,,,,,,,,,,,,,,,,,,,,,,,,,627.2899141439993,space,0.8697207549994346,,,,,,,,,,,,,,,,,,,,,,,,,031119_p1,001,2019_Mar_11_1352,body_behavioural,3.0.4,60.038328344799,
,,,,,,The next task in the experiment is to recall each story to the best of your ability.,,,,,,,,,,,,,0,0,0,0,,,,,,,,,,,,,,,,,,,,,,,,,,,,,,,,space,1.0029386270034593,,,,,,,,,,,,,,,,,,,,,,,031119_p1,001,2019_Mar_11_1352,body_behavioural,3.0.4,60.038328344799,
,,,,,,"You will be presented with the story title, names, the images, and a blank text box for each story.",,,,,,,,,,,,,0,1,1,1,,,,,,,,,,,,,,,,,,,,,,,,,,,,,,,,space,3.850576671975432,,,,,,,,,,,,,,,,,,,,,,,031119_p1,001,2019_Mar_11_1352,body_behavioural,3.0.4,60.038328344799,
,,,,,,Describe the story with as many details as you can remember in the space provided. ,,,,,,,,,,,,,0,2,2,2,,,,,,,,,,,,,,,,,,,,,,,,,,,,,,,,space,0.7861754199839197,,,,,,,,,,,,,,,,,,,,,,,031119_p1,001,2019_Mar_11_1352,body_behavioural,3.0.4,60.038328344799,
,,,,,,"When you are finished recalling one story, to move onto the next one hit ‘return’. ",,,,,,,,,,,,,0,3,3,3,,,,,,,,,,,,,,,,,,,,,,,,,,,,,,,,space,0.8366114079835825,,,,,,,,,,,,,,,,,,,,,,,031119_p1,001,2019_Mar_11_1352,body_behavioural,3.0.4,60.038328344799,
,,,,,,There is a 5 minute time limit to make your response. ,,,,,,,,,,,,,0,4,4,4,,,,,,,,,,,,,,,,,,,,,,,,,,,,,,,,space,0.9844331050117034,,,,,,,,,,,,,,,,,,,,,,,031119_p1,001,2019_Mar_11_1352,body_behavioural,3.0.4,60.038328344799,
0,,,,,,,,,,,,,,,,,,,,,,,0,0,0,0,,,,,,,,,,,,,,,,,,,,,,,,,,,,,,space,0.5364182099874597,Don't recall.,,,,,,,,,,,,,,,,,,,,031119_p1,001,2019_Mar_11_1352,body_behavioural,3.0.4,60.038328344799,
1,,,,,,,,,,,,,,,,,,,,,,,0,1,1,1,,,,,,,,,,,,,,,,,,,,,,,,,,,,,,space,0.9530356570030563,"Leon thinks he knows ariana from somewhere else while sitting in their egyptian history class. he attempts to slip her a note while the lecture is going on, asking if he knows her from somewhere. ariana and leon start to talk in class, and leon asks ariana if she would like to get dinner afterwards.",,,,,,,,,,,,,,,,,,,,031119_p1,001,2019_Mar_11_1352,body_behavioural,3.0.4,60.038328344799,
2,,,,,,,,,,,,,,,,,,,,,,,0,2,2,2,,,,,,,,,,,,,,,,,,,,,,,,,,,,,,space,0.8360941450227983,"Shelton and gordon are businesspeople at a restaurant. i don't recall what exactly the purposes of their companies were, but at the end of their conversation and before their food came, they settled on merging their two corporations. either shelton or gordon said that the food looked quite good.",,,,,,,,,,,,,,,,,,,,031119_p1,001,2019_Mar_11_1352,body_behavioural,3.0.4,60.038328344799,
3,,,,,,,,,,,,,,,,,,,,,,,0,3,3,3,,,,,,,,,,,,,,,,,,,,,,,,,,,,,,space,0.5367133599938825,"Alvira is attempting to propose to senna at a restaurant. she uses the restroom beforehand to check if the ring is okay, and she gives it to the waiter to later put it in a cake. senna thinks that this is just about him growing his first tomatoes in his garden. they're at a restaurant that has a nice view of the ocean, and alvira proposes to senna by putting the ring on top of a cake. senna says yes.",,,,,,,,,,,,,,,,,,,,031119_p1,001,2019_Mar_11_1352,body_behavioural,3.0.4,60.038328344799,
4,,,,,,,,,,,,,,,,,,,,,,,0,4,4,4,,,,,,,,,,,,,,,,,,,,,,,,,,,,,,space,0.6364611059834715,"Maria is about to break up with henry, and can't find a great time to do it outside of class. during the middle of aristotelian philosophy, maria taps henry on the shoulder and breaks up with him by whispering it to him. henry is taken back by this and tries to say that they can do long-distance, but maria is firm. they hug and everything outside after class.",,,,,,,,,,,,,,,,,,,,031119_p1,001,2019_Mar_11_1352,body_behavioural,3.0.4,60.038328344799,
5,,,,,,,,,,,,,,,,,,,,,,,0,5,5,5,,,,,,,,,,,,,,,,,,,,,,,,,,,,,,space,0.5192927099997178,"Jeff is a wine salesman who meets william the day before, who buys wine. jeff indicates that he'd like to do business with william and they discuss it while waiting at the airport. william offers $300 for a $600 shipment of wine to sample, but jeff says that's too big of a risk for a small company. william counter-offers $400 for the same shipment, and jeff agrees. jeff orders a glass of champagne on the airplane to celebrate.",,,,,,,,,,,,,,,,,,,,031119_p1,001,2019_Mar_11_1352,body_behavioural,3.0.4,60.038328344799,
6,,,,,,,,,,,,,,,,,,,,,,,0,6,6,6,,,,,,,,,,,,,,,,,,,,,,,,,,,,,,space,0.7181757790094707,"Simon and carina are at the grocery store and carina is having a barbecue. simon picks out carina's meats, since they just met, and they have a conversation at the checkout line as well. simon offers to take carina out to harvard square for dinner. they leave.",,,,,,,,,,,,,,,,,,,,031119_p1,001,2019_Mar_11_1352,body_behavioural,3.0.4,60.038328344799,
7,,,,,,,,,,,,,,,,,,,,,,,0,7,7,7,,,,,,,,,,,,,,,,,,,,,,,,,,,,,,space,0.5199911149975378,Don't recall.,,,,,,,,,,,,,,,,,,,,031119_p1,001,2019_Mar_11_1352,body_behavioural,3.0.4,60.038328344799,
,,,,,,,,,,,,,,,,,,,,,,,,,,,,,,,,,,,,,,,,,,,,,,,,,,,,,,,,,,,1113.2201238390116,space,0.9366438020078931,,,,,,,,,,,,,,,,,031119_p1,001,2019_Mar_11_1352,body_behavioural,3.0.4,60.038328344799,
,,,,,,The next part of the task is to answer 8 questions about each story.,,,,,,,,,,,,,,,,,,,,,0,0,0,0,,,,,,,,,,,,,,,,,,,,,,,,,,,,,,,,space,0.7025643849920016,,,,,,,,,,,,,,,031119_p1,001,2019_Mar_11_1352,body_behavioural,3.0.4,60.038328344799,
,,,,,,Some of the questions are not related to the perspective you were asked to assume.,,,,,,,,,,,,,,,,,,,,,0,1,1,1,,,,,,,,,,,,,,,,,,,,,,,,,,,,,,,,space,1.3510946599999443,,,,,,,,,,,,,,,031119_p1,001,2019_Mar_11_1352,body_behavioural,3.0.4,60.038328344799,
,,,,,,"We realize that we did not tell you to think of these questions during the story, but do your best to answer them.",,,,,,,,,,,,,,,,,,,,,0,2,2,2,,,,,,,,,,,,,,,,,,,,,,,,,,,,,,,,space,1.7363876519957557,,,,,,,,,,,,,,,031119_p1,001,2019_Mar_11_1352,body_behavioural,3.0.4,60.038328344799,
,,,,,,"When you have finished typing your answer, hit ‘return’ to submit your answer and move onto the next question. ",,,,,,,,,,,,,,,,,,,,,0,3,3,3,,,,,,,,,,,,,,,,,,,,,,,,,,,,,,,,space,0.9193320969934575,,,,,,,,,,,,,,,031119_p1,001,2019_Mar_11_1352,body_behavioural,3.0.4,60.038328344799,
0,,,,,,,,,,,,,,,,,,,,,,,,,,,,,,,0,0,0,0,,,,,,,,,,,,,,,,,,,,,,,,"$120, credit card",,,,,,space,0.6679933170089498,Don't recall,non-primed first,Don't recall,Don't recall,Don't recall,Clean,Don't recall,"There's no checkout line, if i recall correctly, but they wait a while","$120, credit card",,,,031119_p1,001,2019_Mar_11_1352,body_behavioural,3.0.4,60.038328344799,
1,,,,,,,,,,,,,,,,,,,,,,,,,,,,,,,0,1,1,1,,,,,,,,,,,,,,,,,,,,,,,,Don't recall,,,,,,space,0.48410688000149094,Leon notices ariana first because he thinks he knows her from somewhere else.,non-primed first,Leon passes a note,"Leon, dinner after class",Ariana,Large,"Egyptian history, about mummification",Mummification,Don't recall,,,,031119_p1,001,2019_Mar_11_1352,body_behavioural,3.0.4,60.038328344799,
2,,,,,,,,,,,,,,,,,,,,,,,,,,,,,,,0,2,2,2,,,,,,,,,,,,,,,,,,,,,,,,They really like it!,,,,,,space,0.586348265002016,Don't recall,non-primed first,"A merger, don't recall how much money",Agree,Merger between the two companies,Don't recal,Don't recall,Don't recall,They really like it!,,,,031119_p1,001,2019_Mar_11_1352,body_behavioural,3.0.4,60.038328344799,
3,,,,,,,,,,,,,,,,,,,,,,,,,,,,,,,0,3,3,3,,,,,,,,,,,,,,,,,,,,,,,,Everyone in the restaurant,,,,,,space,0.5526867249864154,It's got a nice view,non-primed first,Seafood,"Oysters, i'm not sure what the other one ordered",They like it a lot,Good!,It's on the cake,The waiter,Everyone in the restaurant,,,,031119_p1,001,2019_Mar_11_1352,body_behavioural,3.0.4,60.038328344799,
4,,,,,,,,,,,,,,,,,,,,,,,,,,,,,,,0,4,4,4,,,,,,,,,,,,,,,,,,,,,,,,Yes,,,,,,space,0.43696969901793636,Don't recall,non-primed first,"Aristotelian philosophy, about aristotle",Aristotle's writings,Not sure,Hesitant,Can't do long distance,"Sadly, but accepting",Yes,,,,031119_p1,001,2019_Mar_11_1352,body_behavioural,3.0.4,60.038328344799,
5,,,,,,,,,,,,,,,,,,,,,,,,,,,,,,,0,5,5,5,,,,,,,,,,,,,,,,,,,,,,,,Business transaction,,,,,,space,0.4528722800023388,Not a lot of time,non-primed first,Don't recall,Don't recall,Don't recall,Wine,"Wine selling, and $300-$600",Agree,Business transaction,,,,031119_p1,001,2019_Mar_11_1352,body_behavioural,3.0.4,60.038328344799,
6,,,,,,,,,,,,,,,,,,,,,,,,,,,,,,,0,6,6,6,,,,,,,,,,,,,,,,,,,,,,,,They both leave mutually,,,,,,space,0.5527001250011381,Don't recall,non-primed first,Meats,Don't reacll,"$120, credit card",Don't recall,Picking out meats,"Simon, going to harvard square",They both leave mutually,,,,031119_p1,001,2019_Mar_11_1352,body_behavioural,3.0.4,60.038328344799,
7,,,,,,,,,,,,,,,,,,,,,,,,,,,,,,,0,7,7,7,,,,,,,,,,,,,,,,,,,,,,,,They don't get on the plane yet,,,,,,space,0.46958548499969766,Good!,non-primed first,Don't reacll,No,Everyone in the airport,Not much,"Take off shoes, belts, pockets, etc.",Don't recall,They don't get on the plane yet,,,,031119_p1,001,2019_Mar_11_1352,body_behavioural,3.0.4,60.038328344799,
,,,,,,,,,,,,,,,,,,,,,,,,,,,,,,,,,,,,,,,,,,,,,,,,,,,,,,,,,,,,,,,,,,,,,,,,,,,1441.2761755009997,space,0.5362496750021819,031119_p1,001,2019_Mar_11_1352,body_behavioural,3.0.4,60.038328344799,
,,,,,,,,,,,,,,,,,,,,,,,,,,,,,,,,,,,0,0,0,0,,,,,,,,,,,,,,,,,,,,,,,,,,,,,,,,,,,,,,,,031119_p1,001,2019_Mar_11_1352,body_behavioural,3.0.4,60.038328344799,
,,,,,,,,,,,,,,,,,,,,,,,,,,,,,,,,,,,1,0,1,0,,,,,,,,,,,,,,,,,,,,,,,,,,,,,,,,,,,,,,,,031119_p1,001,2019_Mar_11_1352,body_behavioural,3.0.4,60.038328344799,
,,,,,,,,,,,,,,,,,,,,,,,,,,,,,,,,,,,2,0,2,0,,,,,,,,,,,,,,,,,,,,,,,,,,,,,,,,,,,,,,,,031119_p1,001,2019_Mar_11_1352,body_behavioural,3.0.4,60.038328344799,
,,,,,,,,,,,,,,,,,,,,,,,,,,,,,,,,,,,3,0,3,0,,,,,,,,,,,,,,,,,,,,,,,,,,,,,,,,,,,,,,,,031119_p1,001,2019_Mar_11_1352,body_behavioural,3.0.4,60.038328344799,
,,,,,,,,,,,,,,,,,,,,,,,,,,,,,,,,,,,4,0,4,0,,,,,,,,,,,,,,,,,,,,,,,,,,,,,,,,,,,,,,,,031119_p1,001,2019_Mar_11_1352,body_behavioural,3.0.4,60.038328344799,
