count,storyText,locationEvent,socialEvent,story,locationEventSize,socialEventSize,socialAnswer,locationAnswer,instructText,trials.thisRepN,trials.thisTrialN,trials.thisN,trials.thisIndex,trials_7.thisRepN,trials_7.thisTrialN,trials_7.thisN,trials_7.thisIndex,trials_2.thisRepN,trials_2.thisTrialN,trials_2.thisN,trials_2.thisIndex,trials_5.thisRepN,trials_5.thisTrialN,trials_5.thisN,trials_5.thisIndex,trials_6.thisRepN,trials_6.thisTrialN,trials_6.thisN,trials_6.thisIndex,order of stories,order of perspectives,participant 2 order - stories,participant 2 order  - schemas types,key_resp_8.keys,key_resp_8.rt,key_resp_5.keys,key_resp_5.rt,key_resp_7.keys,key_resp_7.rt,story_presses.keys,story_presses.rt,recall time,key_resp_12.keys,key_resp_12.rt,key_resp_3.keys,key_resp_3.rt,key_resp_11.keys,key_resp_11.rt,recall,question1_answer,order of question,question2_answer,question3_answer,question4_answer,question5_answer,question6_answer,question7_answer,question8_answer,participant,session,date,expName,psychopyVersion,frameRate,
0,,,,,,,,,,0,0,0,0,0,0,0,0,,,,,,,,,,,,,[23 11 44 32 24 31 43 12 34 33 22 14 13 41 42 21],"['Social' 'Location' 'Social' 'Location' 'Location' 'Social' 'Location'
 'Social' 'Location' 'Social' 'Location' 'Social' 'Location' 'Location'
 'Social' 'Social']",[34 33 22 14 13 41 42 21],"['Location' 'Social' 'Location' 'Social' 'Location' 'Location' 'Social'
 'Social']",space,5.855718649996561,space,1.236370792001253,space,1.9861653400002979,,,,,,,,,,,,,,,,,,,,050419_p1,001,2019_May_04_1353,body_behavioural_mayedit,3.0.4,60.00930444189581,
0,,,,,,,,,,0,0,0,0,1,0,1,0,,,,,,,,,,,,,,,,,,,,,space,1.3361313119967235,,,,,,,,,,,,,,,,,,,,050419_p1,001,2019_May_04_1353,body_behavioural_mayedit,3.0.4,60.00930444189581,
0,,,,,,,,,,0,0,0,0,2,0,2,0,,,,,,,,,,,,,,,,,,,,,space,0.5693996850022813,,,,,,,,,,,,,,,,,,,,050419_p1,001,2019_May_04_1353,body_behavioural_mayedit,3.0.4,60.00930444189581,
0,,,,,,,,,,0,0,0,0,3,0,3,0,,,,,,,,,,,,,,,,,,,,,space,0.6861493559990777,,,,,,,,,,,,,,,,,,,,050419_p1,001,2019_May_04_1353,body_behavioural_mayedit,3.0.4,60.00930444189581,
0,,,,,,,,,,0,0,0,0,4,0,4,0,,,,,,,,,,,,,,,,,,,,,space,0.5194598600064637,,,,,,,,,,,,,,,,,,,,050419_p1,001,2019_May_04_1353,body_behavioural_mayedit,3.0.4,60.00930444189581,
0,,,,,,,,,,0,0,0,0,5,0,5,0,,,,,,,,,,,,,,,,,,,,,space,0.46957305500109214,,,,,,,,,,,,,,,,,,,,050419_p1,001,2019_May_04_1353,body_behavioural_mayedit,3.0.4,60.00930444189581,
0,"Alex was a distracted, sweaty mess as he walked into the grocery store with Chloe; he was hoping that she wouldn't suspect that he was about to propose.",1.0,1.0,23.0,,,,,,0,0,0,0,,,,,0,0,0,0,,,,,,,,,,,,,,,,,,,9,15.30171428200265,,,,,,,,,,,,,,,,,,050419_p1,001,2019_May_04_1353,body_behavioural_mayedit,3.0.4,60.00930444189581,
0,The grocery store was brightly lit with singing pouring in through glass walls at the front of the store.,1.0,1.0,None,,,,,,0,0,0,0,,,,,0,1,1,1,,,,,,,,,,,,,,,,,,,1,10.086821152988705,,,,,,,,,,,,,,,,,,050419_p1,001,2019_May_04_1353,body_behavioural_mayedit,3.0.4,60.00930444189581,
0,Also at the front of the store were large posters advertising thanksgiving promotions.,1.0,1.0,None,,,,,,0,0,0,0,,,,,0,2,2,2,,,,,,,,,,,,,,,,,,,1,2.902998232995742,,,,,,,,,,,,,,,,,,050419_p1,001,2019_May_04_1353,body_behavioural_mayedit,3.0.4,60.00930444189581,
0,"The atmosphere was also buzzing because tomorrow was Thanksgiving, and most shoppers had carts piled high with turkey, stuffing, and pies.",1.0,1.0,None,,,,,,0,0,0,0,,,,,0,3,3,3,,,,,,,,,,,,,,,,,,,1,6.87007446300413,,,,,,,,,,,,,,,,,,050419_p1,001,2019_May_04_1353,body_behavioural_mayedit,3.0.4,60.00930444189581,
0,Alex wanted to propose to Chloe here because he knew she would not suspect it at all. ,1.0,1.0,None,,,,,,0,0,0,0,,,,,0,4,4,4,,,,,,,,,,,,,,,,,,,1,2.7865288949979004,,,,,,,,,,,,,,,,,,050419_p1,001,2019_May_04_1353,body_behavioural_mayedit,3.0.4,60.00930444189581,
0,"After 23 months of dating, Alex know one of the things Chloe loved most was surprises. ",1.0,1.0,None,,,,,,0,0,0,0,,,,,0,5,5,5,,,,,,,,,,,,,,,,,,,1,5.334425292996457,,,,,,,,,,,,,,,,,,050419_p1,001,2019_May_04_1353,body_behavioural_mayedit,3.0.4,60.00930444189581,
0,She led the way to the section of the store that held the canned foods. ,2.0,1.0,None,,,,,,0,0,0,0,,,,,0,6,6,6,,,,,,,,,,,,,,,,,,,9,7.536245675000828,,,,,,,,,,,,,,,,,,050419_p1,001,2019_May_04_1353,body_behavioural_mayedit,3.0.4,60.00930444189581,
0,"“Alex, we need to get some cranberry sauce, so we’re going there first.” ",2.0,1.0,None,,,,,,0,0,0,0,,,,,0,7,7,7,,,,,,,,,,,,,,,,,,,9,2.6533896629989613,,,,,,,,,,,,,,,,,,050419_p1,001,2019_May_04_1353,body_behavioural_mayedit,3.0.4,60.00930444189581,
0,"Alex was jittery and as they were walking there, Chloe asked him, “Is everything okay, dear?”",2.0,1.0,None,,,,,,0,0,0,0,,,,,0,8,8,8,,,,,,,,,,,,,,,,,,,9,1.7366172500042012,,,,,,,,,,,,,,,,,,050419_p1,001,2019_May_04_1353,body_behavioural_mayedit,3.0.4,60.00930444189581,
0,"“Oh yeah, for sure,” he said, unconvincingly. ",2.0,1.0,None,,,,,,0,0,0,0,,,,,0,9,9,9,,,,,,,,,,,,,,,,,,,9,1.786379102995852,,,,,,,,,,,,,,,,,,050419_p1,001,2019_May_04_1353,body_behavioural_mayedit,3.0.4,60.00930444189581,
0,"She chuckled, “Alright, whatever you say.” ",2.0,1.0,None,,,,,,0,0,0,0,,,,,0,10,10,10,,,,,,,,,,,,,,,,,,,9,0.8840252280060668,,,,,,,,,,,,,,,,,,050419_p1,001,2019_May_04_1353,body_behavioural_mayedit,3.0.4,60.00930444189581,
0,"She had already picked out a can of pumpkin puree, vinegar, and she was now mulling over the different cans of cranberry sauce, and Alex knew she would be a while.",2.0,1.0,None,,,,,,0,0,0,0,,,,,0,11,11,11,,,,,,,,,,,,,,,,,,,1,8.76770757799386,,,,,,,,,,,,,,,,,,050419_p1,001,2019_May_04_1353,body_behavioural_mayedit,3.0.4,60.00930444189581,
0,He turned his back to her and pulled out the ring.,2.0,2.0,None,,,,,,0,0,0,0,,,,,0,12,12,12,,,,,,,,,,,,,,,,,,,9,12.903825795001467,,,,,,,,,,,,,,,,,,050419_p1,001,2019_May_04_1353,body_behavioural_mayedit,3.0.4,60.00930444189581,
0,The ring had one white diamond on a thin band that sparkled in the light. ,2.0,2.0,None,,,,,,0,0,0,0,,,,,0,13,13,13,,,,,,,,,,,,,,,,,,,1,1.4194617479952285,,,,,,,,,,,,,,,,,,050419_p1,001,2019_May_04_1353,body_behavioural_mayedit,3.0.4,60.00930444189581,
0,"“Alex?”, Chloe said suspiciously with the chosen can of cranberry sauce in her hand. ",2.0,2.0,None,,,,,,0,0,0,0,,,,,0,14,14,14,,,,,,,,,,,,,,,,,,,1,2.7694364550116006,,,,,,,,,,,,,,,,,,050419_p1,001,2019_May_04_1353,body_behavioural_mayedit,3.0.4,60.00930444189581,
0,He closed the box and whipped around. “Yes?”,2.0,2.0,None,,,,,,0,0,0,0,,,,,0,15,15,15,,,,,,,,,,,,,,,,,,,1,2.8026303600054234,,,,,,,,,,,,,,,,,,050419_p1,001,2019_May_04_1353,body_behavioural_mayedit,3.0.4,60.00930444189581,
0,“Do we need anything else?”,2.0,2.0,None,,,,,,0,0,0,0,,,,,0,16,16,16,,,,,,,,,,,,,,,,,,,1,1.336465127998963,,,,,,,,,,,,,,,,,,050419_p1,001,2019_May_04_1353,body_behavioural_mayedit,3.0.4,60.00930444189581,
0,"“Yeah I don’t know, honey.” ",2.0,2.0,None,,,,,,0,0,0,0,,,,,0,17,17,17,,,,,,,,,,,,,,,,,,,1,1.1370803250028985,,,,,,,,,,,,,,,,,,050419_p1,001,2019_May_04_1353,body_behavioural_mayedit,3.0.4,60.00930444189581,
0,They went to the checkout where there were 5 aisles open and they stepped in line for station 3. ,3.0,2.0,None,,,,,,0,0,0,0,,,,,0,18,18,18,,,,,,,,,,,,,,,,,,,1,2.3534038530051475,,,,,,,,,,,,,,,,,,050419_p1,001,2019_May_04_1353,body_behavioural_mayedit,3.0.4,60.00930444189581,
0,Alex was staring intensely off into the distance for most of the time and fidgeting with his wallet. ,3.0,2.0,None,,,,,,0,0,0,0,,,,,0,19,19,19,,,,,,,,,,,,,,,,,,,1,3.8867241450061556,,,,,,,,,,,,,,,,,,050419_p1,001,2019_May_04_1353,body_behavioural_mayedit,3.0.4,60.00930444189581,
0,"Chloe watched him trying to decide whether he looked scared or confused, and shrugged, pulling out her phone since she figured he’d talk about whatever was on his mind when he was ready. ",3.0,2.0,None,,,,,,0,0,0,0,,,,,0,20,20,20,,,,,,,,,,,,,,,,,,,1,6.117538890001015,,,,,,,,,,,,,,,,,,050419_p1,001,2019_May_04_1353,body_behavioural_mayedit,3.0.4,60.00930444189581,
0,Alex looked over at their friends who were waiting by the entrance of the grocery store.,3.0,2.0,None,,,,,,0,0,0,0,,,,,0,21,21,21,,,,,,,,,,,,,,,,,,,1,2.2199655050062574,,,,,,,,,,,,,,,,,,050419_p1,001,2019_May_04_1353,body_behavioural_mayedit,3.0.4,60.00930444189581,
0,They got the message and walked over slowly. ,3.0,2.0,None,,,,,,0,0,0,0,,,,,0,22,22,22,,,,,,,,,,,,,,,,,,,1,6.9843831729958765,,,,,,,,,,,,,,,,,,050419_p1,001,2019_May_04_1353,body_behavioural_mayedit,3.0.4,60.00930444189581,
0,"“Honey,” he said to get her attention, “Look, Chloe, I love you so much and I want to be with you forever, I can’t imagine a day without you.”",3.0,2.0,None,,,,,,0,0,0,0,,,,,0,23,23,23,,,,,,,,,,,,,,,,,,,9,7.919985504006036,,,,,,,,,,,,,,,,,,050419_p1,001,2019_May_04_1353,body_behavioural_mayedit,3.0.4,60.00930444189581,
0,"“Awww, Alex, me too.”",3.0,2.0,None,,,,,,0,0,0,0,,,,,0,24,24,24,,,,,,,,,,,,,,,,,,,1,2.6026656700123567,,,,,,,,,,,,,,,,,,050419_p1,001,2019_May_04_1353,body_behavioural_mayedit,3.0.4,60.00930444189581,
0,"Alex got down on one knee, and Chloe gasped. ",3.0,3.0,None,,,,,,0,0,0,0,,,,,0,25,25,25,,,,,,,,,,,,,,,,,,,1,1.3365826350054704,,,,,,,,,,,,,,,,,,050419_p1,001,2019_May_04_1353,body_behavioural_mayedit,3.0.4,60.00930444189581,
0,"The ring was in the crevice of his wallet, and he opened it.",None,None,None,,,,,,0,0,0,0,,,,,0,26,26,26,,,,,,,,,,,,,,,,,,,1,2.9197194930020487,,,,,,,,,,,,,,,,,,050419_p1,001,2019_May_04_1353,body_behavioural_mayedit,3.0.4,60.00930444189581,
0,"“I am serious, Chloe. Will you marry me?”",3.0,3.0,None,,,,,,0,0,0,0,,,,,0,27,27,27,,,,,,,,,,,,,,,,,,,1,1.2697472629952244,,,,,,,,,,,,,,,,,,050419_p1,001,2019_May_04_1353,body_behavioural_mayedit,3.0.4,60.00930444189581,
0,"The people in line around them realized what was happening, stepped back, and started taking pictures.",3.0,3.0,None,,,,,,0,0,0,0,,,,,0,28,28,28,,,,,,,,,,,,,,,,,,,1,4.719393000006676,,,,,,,,,,,,,,,,,,050419_p1,001,2019_May_04_1353,body_behavioural_mayedit,3.0.4,60.00930444189581,
0,Their friends were no longer trying to hide and were videotaping and taking pictures too. ,3.0,3.0,None,,,,,,0,0,0,0,,,,,0,29,29,29,,,,,,,,,,,,,,,,,,,1,6.934500527000637,,,,,,,,,,,,,,,,,,050419_p1,001,2019_May_04_1353,body_behavioural_mayedit,3.0.4,60.00930444189581,
0,Chloe looked around and laughed. ,3.0,3.0,None,,,,,,0,0,0,0,,,,,0,30,30,30,,,,,,,,,,,,,,,,,,,1,1.286229317993275,,,,,,,,,,,,,,,,,,050419_p1,001,2019_May_04_1353,body_behavioural_mayedit,3.0.4,60.00930444189581,
0,"“Yes!” she shouted, and jumped to embrace Alex in a hug. ",3.0,4.0,None,,,,,,0,0,0,0,,,,,0,31,31,31,,,,,,,,,,,,,,,,,,,1,1.6862276379979448,,,,,,,,,,,,,,,,,,050419_p1,001,2019_May_04_1353,body_behavioural_mayedit,3.0.4,60.00930444189581,
0,Everyone in line clapped and cheered. ,3.0,4.0,None,,,,,,0,0,0,0,,,,,0,32,32,32,,,,,,,,,,,,,,,,,,,1,1.1530525300040608,,,,,,,,,,,,,,,,,,050419_p1,001,2019_May_04_1353,body_behavioural_mayedit,3.0.4,60.00930444189581,
0,"Alex put the ring on Chloe’s finger, who was nearly spinning in excitement.",3.0,4.0,None,,,,,,0,0,0,0,,,,,0,33,33,33,,,,,,,,,,,,,,,,,,,9,2.136485922994325,,,,,,,,,,,,,,,,,,050419_p1,001,2019_May_04_1353,body_behavioural_mayedit,3.0.4,60.00930444189581,
0,"“I love it, oh my gosh, it’s so glittery!",3.0,4.0,None,,,,,,0,0,0,0,,,,,0,34,34,34,,,,,,,,,,,,,,,,,,,1,0.903057510004146,,,,,,,,,,,,,,,,,,050419_p1,001,2019_May_04_1353,body_behavioural_mayedit,3.0.4,60.00930444189581,
0,Look at this!” she said as she shoved her hand in a stranger’s face.,3.0,4.0,None,,,,,,0,0,0,0,,,,,0,35,35,35,,,,,,,,,,,,,,,,,,,1,1.2507031400018604,,,,,,,,,,,,,,,,,,050419_p1,001,2019_May_04_1353,body_behavioural_mayedit,3.0.4,60.00930444189581,
0,Her friends came over and hugged them.,3.0,4.0,None,,,,,,0,0,0,0,,,,,0,36,36,36,,,,,,,,,,,,,,,,,,,1,1.7193739530048333,,,,,,,,,,,,,,,,,,050419_p1,001,2019_May_04_1353,body_behavioural_mayedit,3.0.4,60.00930444189581,
0,The other people let them move up to the front of the checkout line. ,3.0,4.0,None,,,,,,0,0,0,0,,,,,0,37,37,37,,,,,,,,,,,,,,,,,,,1,1.7864064080058597,,,,,,,,,,,,,,,,,,050419_p1,001,2019_May_04_1353,body_behavioural_mayedit,3.0.4,60.00930444189581,
0,Chloe immediately texted her mom a picture of her hand. ,3.0,4.0,None,,,,,,0,0,0,0,,,,,0,38,38,38,,,,,,,,,,,,,,,,,,,9,10.586584930002573,,,,,,,,,,,,,,,,,,050419_p1,001,2019_May_04_1353,body_behavioural_mayedit,3.0.4,60.00930444189581,
0,The cashier congratulated them and scanned their cranberry sauce. ,4.0,4.0,None,,,,,,0,0,0,0,,,,,0,39,39,39,,,,,,,,,,,,,,,,,,,1,2.686457977993996,,,,,,,,,,,,,,,,,,050419_p1,001,2019_May_04_1353,body_behavioural_mayedit,3.0.4,60.00930444189581,
0,The total came to $14 and Alex paid in cash while Chloe greeted their friends.,4.0,4.0,None,,,,,,0,0,0,0,,,,,0,40,40,40,,,,,,,,,,,,,,,,,,,1,3.3031385549984407,,,,,,,,,,,,,,,,,,050419_p1,001,2019_May_04_1353,body_behavioural_mayedit,3.0.4,60.00930444189581,
0,"Alex grabbed the bags, and they all walked out together working out where they’d go to celebrate.  ",4.0,4.0,None,,,,,,0,0,0,0,,,,,0,41,41,41,,,,,,,,,,,,,,,,,,,1,5.6204216920014005,,,,,,,,,,,,,,,,,,050419_p1,001,2019_May_04_1353,body_behavioural_mayedit,3.0.4,60.00930444189581,
0,,,,,,,,,,0,0,0,0,,,,,,,,,,,,,,,,,,,,,,,,,,,,,,,,,,,,,,,,,,,,,,050419_p1,001,2019_May_04_1353,body_behavioural_mayedit,3.0.4,60.00930444189581,
1,,,,,,,,,,0,1,1,1,0,0,0,0,,,,,,,,,,,,,,,,,space,1.919918810002855,space,0.88608145499893,space,0.703622228000313,,,,,,,,,,,,,,,,,,,,050419_p1,001,2019_May_04_1353,body_behavioural_mayedit,3.0.4,60.00930444189581,
1,,,,,,,,,,0,1,1,1,1,0,1,0,,,,,,,,,,,,,,,,,,,,,space,0.5195448599988595,,,,,,,,,,,,,,,,,,,,050419_p1,001,2019_May_04_1353,body_behavioural_mayedit,3.0.4,60.00930444189581,
1,,,,,,,,,,0,1,1,1,2,0,2,0,,,,,,,,,,,,,,,,,,,,,space,0.4702263929939363,,,,,,,,,,,,,,,,,,,,050419_p1,001,2019_May_04_1353,body_behavioural_mayedit,3.0.4,60.00930444189581,
1,,,,,,,,,,0,1,1,1,3,0,3,0,,,,,,,,,,,,,,,,,,,,,space,0.5195016049983678,,,,,,,,,,,,,,,,,,,,050419_p1,001,2019_May_04_1353,body_behavioural_mayedit,3.0.4,60.00930444189581,
1,"Thomas, dreading the conversation he was about to have, got to Annika’s Finer Diner early.",1.0,1.0,11.0,None,None,None,None,,0,1,1,1,,,,,0,0,0,0,,,,,,,,,,,,,,,,,,,9,4.653347838000627,,,,,,,,,,,,,,,,,,050419_p1,001,2019_May_04_1353,body_behavioural_mayedit,3.0.4,60.00930444189581,
1,"He had been thinking about breaking up with his girlfriend, Sadie, for 2 months now.",1.0,1.0,None,None,None,1.0,None,,0,1,1,1,,,,,0,1,1,1,,,,,,,,,,,,,,,,,,,1,5.153423114999896,,,,,,,,,,,,,,,,,,050419_p1,001,2019_May_04_1353,body_behavioural_mayedit,3.0.4,60.00930444189581,
1,"The restaurant was reminiscent of a diner from the 70’s, with black and white checkerboard tiling on the floor, a long bar in the front, and red, leather upholstery on the stools and booths. ",1.0,1.0,None,None,None,None,1.0,,0,1,1,1,,,,,0,2,2,2,,,,,,,,,,,,,,,,,,,1,11.819636722008,,,,,,,,,,,,,,,,,,050419_p1,001,2019_May_04_1353,body_behavioural_mayedit,3.0.4,60.00930444189581,
1,A bell chimed as the door swung open and Sadie entered to find Thomas deep in thought on a stool at the bar.,1.0,1.0,None,None,None,None,None,,0,1,1,1,,,,,0,3,3,3,,,,,,,,,,,,,,,,,,,1,4.7202368959988235,,,,,,,,,,,,,,,,,,050419_p1,001,2019_May_04_1353,body_behavioural_mayedit,3.0.4,60.00930444189581,
1,He stood up and gave her a side hug. ,1.0,1.0,None,None,None,None,None,,0,1,1,1,,,,,0,4,4,4,,,,,,,,,,,,,,,,,,,1,1.486450580006931,,,,,,,,,,,,,,,,,,050419_p1,001,2019_May_04_1353,body_behavioural_mayedit,3.0.4,60.00930444189581,
1,"“How was your day?”, he asked.",1.0,1.0,None,None,None,None,None,,0,1,1,1,,,,,0,5,5,5,,,,,,,,,,,,,,,,,,,9,7.267817945001298,,,,,,,,,,,,,,,,,,050419_p1,001,2019_May_04_1353,body_behavioural_mayedit,3.0.4,60.00930444189581,
1,"She clung onto him, “It was okay- I missed you today.”",1.0,1.0,None,None,None,None,None,,0,1,1,1,,,,,0,6,6,6,,,,,,,,,,,,,,,,,,,1,1.886593699993682,,,,,,,,,,,,,,,,,,050419_p1,001,2019_May_04_1353,body_behavioural_mayedit,3.0.4,60.00930444189581,
1,He looked away and addressed the hostess coming towards them.,1.0,1.0,None,None,None,None,None,,0,1,1,1,,,,,0,7,7,7,,,,,,,,,,,,,,,,,,,1,1.6199615780060412,,,,,,,,,,,,,,,,,,050419_p1,001,2019_May_04_1353,body_behavioural_mayedit,3.0.4,60.00930444189581,
1,"“Can we have a booth in the back?”, Thomas asked.",1.0,1.0,None,None,None,None,None,,0,1,1,1,,,,,0,8,8,8,,,,,,,,,,,,,,,,,,,1,2.169836650005891,,,,,,,,,,,,,,,,,,050419_p1,001,2019_May_04_1353,body_behavioural_mayedit,3.0.4,60.00930444189581,
1,"She shrugged and, as she loudly popped her bubblegum, replied, “Sure, honey, this way.”",1.0,1.0,None,9.0,None,None,None,,0,1,1,1,,,,,0,9,9,9,,,,,,,,,,,,,,,,,,,1,7.136308403001749,,,,,,,,,,,,,,,,,,050419_p1,001,2019_May_04_1353,body_behavioural_mayedit,3.0.4,60.00930444189581,
1,She led them to the requested booth in the back corner of the diner.  ,2.0,1.0,None,None,None,None,None,,0,1,1,1,,,,,0,10,10,10,,,,,,,,,,,,,,,,,,,9,5.786709499996505,,,,,,,,,,,,,,,,,,050419_p1,001,2019_May_04_1353,body_behavioural_mayedit,3.0.4,60.00930444189581,
1,"“Is this alright?”, the hostess asked.",2.0,1.0,None,None,None,None,None,,0,1,1,1,,,,,0,11,11,11,,,,,,,,,,,,,,,,,,,1,0.853840041992953,,,,,,,,,,,,,,,,,,050419_p1,001,2019_May_04_1353,body_behavioural_mayedit,3.0.4,60.00930444189581,
1,"Thomas replied, “This is great- thank you.”",2.0,1.0,None,None,None,None,None,,0,1,1,1,,,,,0,12,12,12,,,,,,,,,,,,,,,,,,,1,0.8696874869929161,,,,,,,,,,,,,,,,,,050419_p1,001,2019_May_04_1353,body_behavioural_mayedit,3.0.4,60.00930444189581,
1,Sadie slipped into the cushioned seat and grabbed Thomas’ hand.,2.0,1.0,None,None,None,None,None,,0,1,1,1,,,,,0,13,13,13,,,,,,,,,,,,,,,,,,,1,2.385784166006488,,,,,,,,,,,,,,,,,,050419_p1,001,2019_May_04_1353,body_behavioural_mayedit,3.0.4,60.00930444189581,
1,"“Tell me about your day!”, Sadie sang as Thomas sat down.",2.0,1.0,None,None,None,None,None,,0,1,1,1,,,,,0,14,14,14,,,,,,,,,,,,,,,,,,,9,3.2506875780090922,,,,,,,,,,,,,,,,,,050419_p1,001,2019_May_04_1353,body_behavioural_mayedit,3.0.4,60.00930444189581,
1,He looked at her silently and pulled his hand slowly from hers.,2.0,1.0,None,None,None,None,None,,0,1,1,1,,,,,0,15,15,15,,,,,,,,,,,,,,,,,,,1,0.9699668290122645,,,,,,,,,,,,,,,,,,050419_p1,001,2019_May_04_1353,body_behavioural_mayedit,3.0.4,60.00930444189581,
1,Sadie gave him a puzzled look.,2.0,1.0,None,None,None,None,None,,0,1,1,1,,,,,0,16,16,16,,,,,,,,,,,,,,,,,,,1,0.7366206320002675,,,,,,,,,,,,,,,,,,050419_p1,001,2019_May_04_1353,body_behavioural_mayedit,3.0.4,60.00930444189581,
1,Thomas looked away and took a deep breath. ,2.0,1.0,None,None,None,None,None,,0,1,1,1,,,,,0,17,17,17,,,,,,,,,,,,,,,,,,,1,1.3528767020034138,,,,,,,,,,,,,,,,,,050419_p1,001,2019_May_04_1353,body_behavioural_mayedit,3.0.4,60.00930444189581,
1,"Sadie asked, “What’s wrong?” ",2.0,1.0,None,None,None,None,None,,0,1,1,1,,,,,0,18,18,18,,,,,,,,,,,,,,,,,,,1,1.3338799119956093,,,,,,,,,,,,,,,,,,050419_p1,001,2019_May_04_1353,body_behavioural_mayedit,3.0.4,60.00930444189581,
1,Thomas picked at his fingernails.,2.0,1.0,None,None,22.0,None,None,,0,1,1,1,,,,,0,19,19,19,,,,,,,,,,,,,,,,,,,1,0.9195075129973702,,,,,,,,,,,,,,,,,,050419_p1,001,2019_May_04_1353,body_behavioural_mayedit,3.0.4,60.00930444189581,
1,"Finally, after a few moments, Thomas let out a deep breath and said, “Sadie, I’ve been thinking, and I need a break from this relationship because I need to figure out my career path on my own.”",2.0,2.0,None,None,None,None,None,,0,1,1,1,,,,,0,20,20,20,,,,,,,,,,,,,,,,,,,9,1.3341159900010098,,,,,,,,,,,,,,,,,,050419_p1,001,2019_May_04_1353,body_behavioural_mayedit,3.0.4,60.00930444189581,
1,Sadie sat back in her seat.,2.0,2.0,None,None,None,None,None,,0,1,1,1,,,,,0,21,21,21,,,,,,,,,,,,,,,,,,,1,1.0530083530029515,,,,,,,,,,,,,,,,,,050419_p1,001,2019_May_04_1353,body_behavioural_mayedit,3.0.4,60.00930444189581,
1,"Thomas continued, “Things have been really picking up at work and I’m not sure that this is the job I want to do anymore.",2.0,2.0,None,None,None,None,None,,0,1,1,1,,,,,0,22,22,22,,,,,,,,,,,,,,,,,,,1,4.336658339991118,,,,,,,,,,,,,,,,,,050419_p1,001,2019_May_04_1353,body_behavioural_mayedit,3.0.4,60.00930444189581,
1,It’s been really overwhelming between working and figuring out if I should change careers and I really feel like I need more time to figure it out.” ,2.0,2.0,None,17.0,None,None,None,,0,1,1,1,,,,,0,23,23,23,,,,,,,,,,,,,,,,,,,1,3.3199351529910928,,,,,,,,,,,,,,,,,,050419_p1,001,2019_May_04_1353,body_behavioural_mayedit,3.0.4,60.00930444189581,
1,The waiter appeared and interrupted the spiel Thomas had been practicing.,3.0,2.0,None,None,None,None,None,,0,1,1,1,,,,,0,24,24,24,,,,,,,,,,,,,,,,,,,9,6.703129154993803,,,,,,,,,,,,,,,,,,050419_p1,001,2019_May_04_1353,body_behavioural_mayedit,3.0.4,60.00930444189581,
1,"“Hello you two!”, the waiter said.",3.0,2.0,None,None,None,None,None,,0,1,1,1,,,,,0,25,25,25,,,,,,,,,,,,,,,,,,,1,0.869762094996986,,,,,,,,,,,,,,,,,,050419_p1,001,2019_May_04_1353,body_behavioural_mayedit,3.0.4,60.00930444189581,
1,“Have you decided what you would like?”,3.0,2.0,None,None,None,None,None,,0,1,1,1,,,,,0,26,26,26,,,,,,,,,,,,,,,,,,,1,1.0360910550080007,,,,,,,,,,,,,,,,,,050419_p1,001,2019_May_04_1353,body_behavioural_mayedit,3.0.4,60.00930444189581,
1,"Thomas and Sadie realized there were menus on the table, and they glanced at them quickly.",3.0,2.0,None,None,None,None,None,,0,1,1,1,,,,,0,27,27,27,,,,,,,,,,,,,,,,,,,1,4.9536455149936955,,,,,,,,,,,,,,,,,,050419_p1,001,2019_May_04_1353,body_behavioural_mayedit,3.0.4,60.00930444189581,
1,"The menus were laminated posters with silly names for all the foods, and since they didn’t want to read through the description they settled on familiar orders.",3.0,2.0,None,None,None,None,None,,0,1,1,1,,,,,0,28,28,28,,,,,,,,,,,,,,,,,,,1,9.136702484989655,,,,,,,,,,,,,,,,,,050419_p1,001,2019_May_04_1353,body_behavioural_mayedit,3.0.4,60.00930444189581,
1,"“I’ll have a burger, no tomatoes,” Thomas said.",3.0,2.0,None,None,None,None,None,,0,1,1,1,,,,,0,29,29,29,,,,,,,,,,,,,,,,,,,1,0.8696443149965489,,,,,,,,,,,,,,,,,,050419_p1,001,2019_May_04_1353,body_behavioural_mayedit,3.0.4,60.00930444189581,
1,"Sadie asked about the reuben, and the waiter told her it was excellent.",3.0,2.0,None,None,None,None,None,,0,1,1,1,,,,,0,30,30,30,,,,,,,,,,,,,,,,,,,1,1.9031519379932433,,,,,,,,,,,,,,,,,,050419_p1,001,2019_May_04_1353,body_behavioural_mayedit,3.0.4,60.00930444189581,
1,"Once she agreed to get that, he walked away. ",3.0,2.0,None,None,None,None,None,,0,1,1,1,,,,,0,31,31,31,,,,,,,,,,,,,,,,,,,1,1.453285944997333,,,,,,,,,,,,,,,,,,050419_p1,001,2019_May_04_1353,body_behavioural_mayedit,3.0.4,60.00930444189581,
1,Sadie and Thomas looked at each other. ,3.0,2.0,None,None,None,None,None,,0,1,1,1,,,,,0,32,32,32,,,,,,,,,,,,,,,,,,,9,5.036411281005712,,,,,,,,,,,,,,,,,,050419_p1,001,2019_May_04_1353,body_behavioural_mayedit,3.0.4,60.00930444189581,
1,"“So what are you saying?”, Sadie asked. ",3.0,2.0,None,None,None,None,None,,0,1,1,1,,,,,0,33,33,33,,,,,,,,,,,,,,,,,,,1,1.8701225249969866,,,,,,,,,,,,,,,,,,050419_p1,001,2019_May_04_1353,body_behavioural_mayedit,3.0.4,60.00930444189581,
1,"Thomas replied, “I want to take a break for awhile.",3.0,2.0,None,None,None,None,None,,0,1,1,1,,,,,0,34,34,34,,,,,,,,,,,,,,,,,,,1,0.9697014599951217,,,,,,,,,,,,,,,,,,050419_p1,001,2019_May_04_1353,body_behavioural_mayedit,3.0.4,60.00930444189581,
1,"You know, have space to figure out what I’m supposed to be doing.”",3.0,2.0,None,None,17.0,None,None,,0,1,1,1,,,,,0,35,35,35,,,,,,,,,,,,,,,,,,,1,1.686796405003406,,,,,,,,,,,,,,,,,,050419_p1,001,2019_May_04_1353,body_behavioural_mayedit,3.0.4,60.00930444189581,
1,Finally Sadie reacted and quietly burst into tears. ,3.0,3.0,None,None,None,None,None,,0,1,1,1,,,,,0,36,36,36,,,,,,,,,,,,,,,,,,,1,3.002986494990182,,,,,,,,,,,,,,,,,,050419_p1,001,2019_May_04_1353,body_behavioural_mayedit,3.0.4,60.00930444189581,
1,"Nevertheless, people sitting at the adjacent table looked over and quickly averted their gaze as they realized what was happening. ",3.0,3.0,None,None,None,None,None,,0,1,1,1,,,,,0,37,37,37,,,,,,,,,,,,,,,,,,,9,1.9198484780063154,,,,,,,,,,,,,,,,,,050419_p1,001,2019_May_04_1353,body_behavioural_mayedit,3.0.4,60.00930444189581,
1,“Is this really what you want?,3.0,3.0,None,None,None,None,None,,0,1,1,1,,,,,0,38,38,38,,,,,,,,,,,,,,,,,,,1,1.1700033230008557,,,,,,,,,,,,,,,,,,050419_p1,001,2019_May_04_1353,body_behavioural_mayedit,3.0.4,60.00930444189581,
1,"I don’t understand- things were fine, I thought. ",3.0,3.0,None,None,None,None,None,,0,1,1,1,,,,,0,39,39,39,,,,,,,,,,,,,,,,,,,1,1.3025585100112949,,,,,,,,,,,,,,,,,,050419_p1,001,2019_May_04_1353,body_behavioural_mayedit,3.0.4,60.00930444189581,
1,I think we should stay together because we can change how much we hang out. ,3.0,3.0,None,None,None,None,None,,0,1,1,1,,,,,0,40,40,40,,,,,,,,,,,,,,,,,,,1,2.5197050479910104,,,,,,,,,,,,,,,,,,050419_p1,001,2019_May_04_1353,body_behavioural_mayedit,3.0.4,60.00930444189581,
1,"We don’t have to hang out all the time, or as much as we do now.”",3.0,3.0,None,None,None,None,None,,0,1,1,1,,,,,0,41,41,41,,,,,,,,,,,,,,,,,,,1,1.553179545007879,,,,,,,,,,,,,,,,,,050419_p1,001,2019_May_04_1353,body_behavioural_mayedit,3.0.4,60.00930444189581,
1,Thomas chewed on his bottom lip and picked at his now bleeding hangnail. ,3.0,3.0,None,20.0,None,None,None,,0,1,1,1,,,,,0,42,42,42,,,,,,,,,,,,,,,,,,,1,2.1865748380078003,,,,,,,,,,,,,,,,,,050419_p1,001,2019_May_04_1353,body_behavioural_mayedit,3.0.4,60.00930444189581,
1,"Suddenly, the waiter arrived with the burger and reuben and set them on the table.",4.0,3.0,None,None,None,None,None,,0,1,1,1,,,,,0,43,43,43,,,,,,,,,,,,,,,,,,,9,2.217601954995189,,,,,,,,,,,,,,,,,,050419_p1,001,2019_May_04_1353,body_behavioural_mayedit,3.0.4,60.00930444189581,
1,“Is there anything else I can get for you two?,4.0,3.0,None,None,None,None,None,,0,1,1,1,,,,,0,44,44,44,,,,,,,,,,,,,,,,,,,1,1.3532672700093826,,,,,,,,,,,,,,,,,,050419_p1,001,2019_May_04_1353,body_behavioural_mayedit,3.0.4,60.00930444189581,
1,"Will you be getting dessert tonight?”, he asked.",4.0,3.0,None,None,None,None,None,,0,1,1,1,,,,,0,45,45,45,,,,,,,,,,,,,,,,,,,1,2.4695329600072,,,,,,,,,,,,,,,,,,050419_p1,001,2019_May_04_1353,body_behavioural_mayedit,3.0.4,60.00930444189581,
1,"“Oh no, we’re good, thanks,” Thomas said.",4.0,3.0,None,None,None,None,None,,0,1,1,1,,,,,0,46,46,46,,,,,,,,,,,,,,,,,,,1,1.6841340620012488,,,,,,,,,,,,,,,,,,050419_p1,001,2019_May_04_1353,body_behavioural_mayedit,3.0.4,60.00930444189581,
1,"Once the waiter had walked away still oblivious to the situation, Thomas sighed and said, “Sadie, I’m sorry.",4.0,3.0,None,None,None,None,None,,0,1,1,1,,,,,0,47,47,47,,,,,,,,,,,,,,,,,,,1,3.053217799999402,,,,,,,,,,,,,,,,,,050419_p1,001,2019_May_04_1353,body_behavioural_mayedit,3.0.4,60.00930444189581,
1,"You are so great, and I love hanging out with you.",4.0,3.0,None,None,None,None,None,,0,1,1,1,,,,,0,48,48,48,,,,,,,,,,,,,,,,,,,1,4.202807734996895,,,,,,,,,,,,,,,,,,050419_p1,001,2019_May_04_1353,body_behavioural_mayedit,3.0.4,60.00930444189581,
1,But I need some time.,4.0,3.0,None,None,None,None,None,,0,1,1,1,,,,,0,49,49,49,,,,,,,,,,,,,,,,,,,1,0.8864063229993917,,,,,,,,,,,,,,,,,,050419_p1,001,2019_May_04_1353,body_behavioural_mayedit,3.0.4,60.00930444189581,
1,I’m so sorry.”,4.0,3.0,None,None,None,None,None,,0,1,1,1,,,,,0,50,50,50,,,,,,,,,,,,,,,,,,,1,2.9195315599936293,,,,,,,,,,,,,,,,,,050419_p1,001,2019_May_04_1353,body_behavioural_mayedit,3.0.4,60.00930444189581,
1,"He grabbed her hand, and she pulled it out of his.",4.0,3.0,None,None,None,None,None,,0,1,1,1,,,,,0,51,51,51,,,,,,,,,,,,,,,,,,,9,1.6031192150112474,,,,,,,,,,,,,,,,,,050419_p1,001,2019_May_04_1353,body_behavioural_mayedit,3.0.4,60.00930444189581,
1,"“Sadie,” he said.",4.0,3.0,None,None,17.0,None,None,,0,1,1,1,,,,,0,52,52,52,,,,,,,,,,,,,,,,,,,1,0.7692832449974958,,,,,,,,,,,,,,,,,,050419_p1,001,2019_May_04_1353,body_behavioural_mayedit,3.0.4,60.00930444189581,
1," She stood up, grabbed half of the reuben and shook it at him as she growled, “Don’t follow me, and don’t talk to me anymore!",4.0,4.0,None,None,None,None,None,,0,1,1,1,,,,,0,53,53,53,,,,,,,,,,,,,,,,,,,9,3.102638759999536,,,,,,,,,,,,,,,,,,050419_p1,001,2019_May_04_1353,body_behavioural_mayedit,3.0.4,60.00930444189581,
1,"Also, I want my polaroid camera and Beatle’s poster back!”",None,None,None,None,None,None,None,,0,1,1,1,,,,,0,54,54,54,,,,,,,,,,,,,,,,,,,1,1.53647691498918,,,,,,,,,,,,,,,,,,050419_p1,001,2019_May_04_1353,body_behavioural_mayedit,3.0.4,60.00930444189581,
1,"She stormed off, her heels clacking loudly against the black and white floor, and the bell above the door jingled cheerfully as the door closed behind her.",4.0,4.0,None,None,None,None,None,,0,1,1,1,,,,,0,55,55,55,,,,,,,,,,,,,,,,,,,1,1.4033880269998917,,,,,,,,,,,,,,,,,,050419_p1,001,2019_May_04_1353,body_behavioural_mayedit,3.0.4,60.00930444189581,
1,Thomas sat there for awhile in shock at how quickly everything transpired. ,4.0,4.0,None,None,None,None,None,,0,1,1,1,,,,,0,56,56,56,,,,,,,,,,,,,,,,,,,1,0.9364466779952636,,,,,,,,,,,,,,,,,,050419_p1,001,2019_May_04_1353,body_behavioural_mayedit,3.0.4,60.00930444189581,
1,"He grabbed his burger and took a bite of it, creating a dry and fishy taste in his mouth.",4.0,4.0,None,None,None,None,None,,0,1,1,1,,,,,0,57,57,57,,,,,,,,,,,,,,,,,,,9,3.3509187379968353,,,,,,,,,,,,,,,,,,050419_p1,001,2019_May_04_1353,body_behavioural_mayedit,3.0.4,60.00930444189581,
1,He dropped it back on his plate and wondered if the restaurant was responsible for the foul taste. ,4.0,4.0,None,13.0,5.0,None,None,,0,1,1,1,,,,,0,58,58,58,,,,,,,,,,,,,,,,,,,1,2.5531641199922888,,,,,,,,,,,,,,,,,,050419_p1,001,2019_May_04_1353,body_behavioural_mayedit,3.0.4,60.00930444189581,
1,,,,,,,,,,0,1,1,1,,,,,,,,,,,,,,,,,,,,,,,,,,,,,,,,,,,,,,,,,,,,,,050419_p1,001,2019_May_04_1353,body_behavioural_mayedit,3.0.4,60.00930444189581,
2,,,,,,,,,,0,2,2,2,0,0,0,0,,,,,,,,,,,,,,,,,space,2.136687461999827,space,0.6528656799928285,space,5.3201911649957765,,,,,,,,,,,,,,,,,,,,050419_p1,001,2019_May_04_1353,body_behavioural_mayedit,3.0.4,60.00930444189581,
2,,,,,,,,,,0,2,2,2,1,0,1,0,,,,,,,,,,,,,,,,,,,,,space,0.5369848770060344,,,,,,,,,,,,,,,,,,,,050419_p1,001,2019_May_04_1353,body_behavioural_mayedit,3.0.4,60.00930444189581,
2,,,,,,,,,,0,2,2,2,2,0,2,0,,,,,,,,,,,,,,,,,,,,,space,0.5196014730026945,,,,,,,,,,,,,,,,,,,,050419_p1,001,2019_May_04_1353,body_behavioural_mayedit,3.0.4,60.00930444189581,
2,,,,,,,,,,0,2,2,2,3,0,3,0,,,,,,,,,,,,,,,,,,,,,space,0.400696215001517,,,,,,,,,,,,,,,,,,,,050419_p1,001,2019_May_04_1353,body_behavioural_mayedit,3.0.4,60.00930444189581,
2,"Leon and Ariana hurried into the classroom at the same time, and Leon did a double-take when he saw her, almost dropping the eraser he had in his hand. ",1,1,44.0,,,,,,0,2,2,2,,,,,0,0,0,0,,,,,,,,,,,,,,,,,,,9,14.003995837003458,,,,,,,,,,,,,,,,,,050419_p1,001,2019_May_04_1353,body_behavioural_mayedit,3.0.4,60.00930444189581,
2,"This was his first day after transferring to this university, and he had assumed that he wouldn’t know anyone on campus, but he couldn't shake the nagging feeling  that he had seen her somewhere before. ",1,1,None,,,,,,0,2,2,2,,,,,0,1,1,1,,,,,,,,,,,,,,,,,,,1,5.302992233991972,,,,,,,,,,,,,,,,,,050419_p1,001,2019_May_04_1353,body_behavioural_mayedit,3.0.4,60.00930444189581,
2,"They were both a bit late, so they quickly slid into seats next to each other in the back of the class.",1,1,None,,,,,,0,2,2,2,,,,,0,2,2,2,,,,,,,,,,,,,,,,,,,1,4.301811611003359,,,,,,,,,,,,,,,,,,050419_p1,001,2019_May_04_1353,body_behavioural_mayedit,3.0.4,60.00930444189581,
2,They were in a small classroom with rows of chairs with foldable desks facing the speaker’s podium and a blackboard on wheels. ,1,1,None,,,,,,0,2,2,2,,,,,0,3,3,3,,,,,,,,,,,,,,,,,,,9,1.869891677997657,,,,,,,,,,,,,,,,,,050419_p1,001,2019_May_04_1353,body_behavioural_mayedit,3.0.4,60.00930444189581,
2,"There were no windows in the room, since they were down in the basement of the history department.",1,1,None,,,,,,0,2,2,2,,,,,0,4,4,4,,,,,,,,,,,,,,,,,,,1,5.686524227989139,,,,,,,,,,,,,,,,,,050419_p1,001,2019_May_04_1353,body_behavioural_mayedit,3.0.4,60.00930444189581,
2,"Leon, trying to figure out where he had seen her before, could not stop looking over at Ariana.",1,1,None,,,,,,0,2,2,2,,,,,0,5,5,5,,,,,,,,,,,,,,,,,,,1,8.186943916996825,,,,,,,,,,,,,,,,,,050419_p1,001,2019_May_04_1353,body_behavioural_mayedit,3.0.4,60.00930444189581,
2,Ariana was oblivious to Leon’s gaze and was only focused on getting ready for class. ,1,1,None,,,,,,0,2,2,2,,,,,0,6,6,6,,,,,,,,,,,,,,,,,,,1,6.636916525007109,,,,,,,,,,,,,,,,,,050419_p1,001,2019_May_04_1353,body_behavioural_mayedit,3.0.4,60.00930444189581,
2,"“Good afternoon class,” the professor began.",2,1,None,,,,,,0,2,2,2,,,,,0,7,7,7,,,,,,,,,,,,,,,,,,,9,2.853148231995874,,,,,,,,,,,,,,,,,,050419_p1,001,2019_May_04_1353,body_behavioural_mayedit,3.0.4,60.00930444189581,
2,“Welcome to History of Egypt. ,2,1,None,,,,,,0,2,2,2,,,,,0,8,8,8,,,,,,,,,,,,,,,,,,,1,1.5507418250053888,,,,,,,,,,,,,,,,,,050419_p1,001,2019_May_04_1353,body_behavioural_mayedit,3.0.4,60.00930444189581,
2,"Today we will be talking about mummification, one of the most famous and often misunderstood customs in ancient Egyptian society.”",2,1,None,,,,,,0,2,2,2,,,,,0,9,9,9,,,,,,,,,,,,,,,,,,,1,3.833789384996635,,,,,,,,,,,,,,,,,,050419_p1,001,2019_May_04_1353,body_behavioural_mayedit,3.0.4,60.00930444189581,
2,Leon pulled out his notebook and tried to concentrate on the class.,2,1,None,,,,,,0,2,2,2,,,,,0,10,10,10,,,,,,,,,,,,,,,,,,,1,1.6866289350000443,,,,,,,,,,,,,,,,,,050419_p1,001,2019_May_04_1353,body_behavioural_mayedit,3.0.4,60.00930444189581,
2,Within a few minutes though he found his attention wandering back to Ariana.,2,1,None,,,,,,0,2,2,2,,,,,0,11,11,11,,,,,,,,,,,,,,,,,,,1,3.4342621200048598,,,,,,,,,,,,,,,,,,050419_p1,001,2019_May_04_1353,body_behavioural_mayedit,3.0.4,60.00930444189581,
2,"He decided to do something about his hunch so he ripped off a corner of a page in his notebook, wrote a note, and set it on her desk.",2,1,None,,,,,,0,2,2,2,,,,,0,12,12,12,,,,,,,,,,,,,,,,,,,9,10.251295368012507,,,,,,,,,,,,,,,,,,050419_p1,001,2019_May_04_1353,body_behavioural_mayedit,3.0.4,60.00930444189581,
2,"“Are you from LA?” it read, “Sorry to distract you from mummies, but you look really familiar.”",2,2,None,,,,,,0,2,2,2,,,,,0,13,13,13,,,,,,,,,,,,,,,,,,,1,3.4179075849970104,,,,,,,,,,,,,,,,,,050419_p1,001,2019_May_04_1353,body_behavioural_mayedit,3.0.4,60.00930444189581,
2,It continued: “Do I know you from somewhere?”,2,2,None,,,,,,0,2,2,2,,,,,0,14,14,14,,,,,,,,,,,,,,,,,,,1,2.9869797650026157,,,,,,,,,,,,,,,,,,050419_p1,001,2019_May_04_1353,body_behavioural_mayedit,3.0.4,60.00930444189581,
2,"She looked at the note with surprise, and then turned to notice Leon for the first time. ",2,2,None,,,,,,0,2,2,2,,,,,0,15,15,15,,,,,,,,,,,,,,,,,,,9,5.903283494990319,,,,,,,,,,,,,,,,,,050419_p1,001,2019_May_04_1353,body_behavioural_mayedit,3.0.4,60.00930444189581,
2,"She instantly liked him when she saw him; he had very soft eyes and sharp features, a combination that made him seem  trustworthy and genuine.",2,2,None,,,,,,0,2,2,2,,,,,0,16,16,16,,,,,,,,,,,,,,,,,,,1,12.420235388010042,,,,,,,,,,,,,,,,,,050419_p1,001,2019_May_04_1353,body_behavioural_mayedit,3.0.4,60.00930444189581,
2,He smiled at her and she flashed him a smile back.,2,2,None,,,,,,0,2,2,2,,,,,0,17,17,17,,,,,,,,,,,,,,,,,,,1,2.8031261430005543,,,,,,,,,,,,,,,,,,050419_p1,001,2019_May_04_1353,body_behavioural_mayedit,3.0.4,60.00930444189581,
2,Then she turned the note over to the back and started to write a reply.,2,2,None,,,,,,0,2,2,2,,,,,0,18,18,18,,,,,,,,,,,,,,,,,,,1,6.186749133004923,,,,,,,,,,,,,,,,,,050419_p1,001,2019_May_04_1353,body_behavioural_mayedit,3.0.4,60.00930444189581,
2,"Meanwhile the professor continued, “One may well question why the ancient Egyptians spent so much time and effort on their funerary practices.",3,2,None,,,,,,0,2,2,2,,,,,0,19,19,19,,,,,,,,,,,,,,,,,,,9,5.103138512989972,,,,,,,,,,,,,,,,,,050419_p1,001,2019_May_04_1353,body_behavioural_mayedit,3.0.4,60.00930444189581,
2,"Not only was the mummification process itself a complicated affair, but there were also elaborate rituals before, during, and after death.",3,2,None,,,,,,0,2,2,2,,,,,0,20,20,20,,,,,,,,,,,,,,,,,,,1,5.834332393002114,,,,,,,,,,,,,,,,,,050419_p1,001,2019_May_04_1353,body_behavioural_mayedit,3.0.4,60.00930444189581,
2,The practice required teams of experts with years of training and took a total of 70 days to complete.” ,3,2,None,,,,,,0,2,2,2,,,,,0,21,21,21,,,,,,,,,,,,,,,,,,,1,1.4364954699994996,,,,,,,,,,,,,,,,,,050419_p1,001,2019_May_04_1353,body_behavioural_mayedit,3.0.4,60.00930444189581,
2,"Ariana passed the note back to Leon, and she had replied, “No, but maybe my twin and I were separated at birth.”",3,2,None,,,,,,0,2,2,2,,,,,0,22,22,22,,,,,,,,,,,,,,,,,,,1,12.253749480005354,,,,,,,,,,,,,,,,,,050419_p1,001,2019_May_04_1353,body_behavioural_mayedit,3.0.4,60.00930444189581,
2,They passed notes back and forth the whole class like they were back in high school.,3,2,None,,,,,,0,2,2,2,,,,,0,23,23,23,,,,,,,,,,,,,,,,,,,1,3.2196614550048253,,,,,,,,,,,,,,,,,,050419_p1,001,2019_May_04_1353,body_behavioural_mayedit,3.0.4,60.00930444189581,
2,"Near the end of the lecture, Leon wrote, “Would you like to go on a walk this evening?” ",3,3,None,,,,,,0,2,2,2,,,,,0,24,24,24,,,,,,,,,,,,,,,,,,,9,5.3206876079930225,,,,,,,,,,,,,,,,,,050419_p1,001,2019_May_04_1353,body_behavioural_mayedit,3.0.4,60.00930444189581,
2,"Ariana read the note, and looked at him and nodded her head",3,3,None,,,,,,0,2,2,2,,,,,0,25,25,25,,,,,,,,,,,,,,,,,,,1,1.919379229992046,,,,,,,,,,,,,,,,,,050419_p1,001,2019_May_04_1353,body_behavioural_mayedit,3.0.4,60.00930444189581,
2,"She wrote back on the slip of paper, “Let’s meet at 8 in front of Patton Hall.”",3,3,None,,,,,,0,2,2,2,,,,,0,26,26,26,,,,,,,,,,,,,,,,,,,1,2.5863461600092705,,,,,,,,,,,,,,,,,,050419_p1,001,2019_May_04_1353,body_behavioural_mayedit,3.0.4,60.00930444189581,
2,Then the professor ended the lecture and announced to the class that they would have their first quiz next class on Friday on mummification. ,4,3,None,,,,,,0,2,2,2,,,,,0,27,27,27,,,,,,,,,,,,,,,,,,,9,7.03693599300459,,,,,,,,,,,,,,,,,,050419_p1,001,2019_May_04_1353,body_behavioural_mayedit,3.0.4,60.00930444189581,
2,"Everyone packed up and started heading out, as well as Sophie and Leon.",4,3,None,,,,,,0,2,2,2,,,,,0,28,28,28,,,,,,,,,,,,,,,,,,,1,6.220060445004492,,,,,,,,,,,,,,,,,,050419_p1,001,2019_May_04_1353,body_behavioural_mayedit,3.0.4,60.00930444189581,
2,"They approached each other smiling, and Leon said, “Well it was great to meet you, again, or maybe not again, but regardless it was great to meet you.” ",4,3,None,,,,,,0,2,2,2,,,,,0,29,29,29,,,,,,,,,,,,,,,,,,,1,5.820051392001915,,,,,,,,,,,,,,,,,,050419_p1,001,2019_May_04_1353,body_behavioural_mayedit,3.0.4,60.00930444189581,
2,"She replied, “Yes, it was.”",4,3,None,,,,,,0,2,2,2,,,,,0,30,30,30,,,,,,,,,,,,,,,,,,,1,1.5198059430113062,,,,,,,,,,,,,,,,,,050419_p1,001,2019_May_04_1353,body_behavioural_mayedit,3.0.4,60.00930444189581,
2,"She looked at the clock which read noon and, shocked, headed for the door saying, “I have to run to my next class, but I’ll see you later tonight!” ",4,4,None,,,,,,0,2,2,2,,,,,0,31,31,31,,,,,,,,,,,,,,,,,,,9,8.020872196007986,,,,,,,,,,,,,,,,,,050419_p1,001,2019_May_04_1353,body_behavioural_mayedit,3.0.4,60.00930444189581,
2,"She waved as they parted ways, and Leon was still trying to figure out where he had seen her before as he watched her go. ",4,4,None,,,,,,0,2,2,2,,,,,0,32,32,32,,,,,,,,,,,,,,,,,,,1,2.353095275000669,,,,,,,,,,,,,,,,,,050419_p1,001,2019_May_04_1353,body_behavioural_mayedit,3.0.4,60.00930444189581,
2,He figured that he’d ask about it more later during their walk. ,4,4,None,,,,,,0,2,2,2,,,,,0,33,33,33,,,,,,,,,,,,,,,,,,,1,1.5010220400145045,,,,,,,,,,,,,,,,,,050419_p1,001,2019_May_04_1353,body_behavioural_mayedit,3.0.4,60.00930444189581,
2,,,,,,,,,,0,2,2,2,,,,,,,,,,,,,,,,,,,,,,,,,,,,,,,,,,,,,,,,,,,,,,050419_p1,001,2019_May_04_1353,body_behavioural_mayedit,3.0.4,60.00930444189581,
3,,,,,,,,,,0,3,3,3,0,0,0,0,,,,,,,,,,,,,,,,,space,3.2036015300109284,space,1.7031566299992846,space,1.2526855149917537,,,,,,,,,,,,,,,,,,,,050419_p1,001,2019_May_04_1353,body_behavioural_mayedit,3.0.4,60.00930444189581,
3,"Jeff, hoping that today would be a pivotal day for his company, had only been waiting inside the doors of the airport for a few minutes when he saw William and eagerly waved him over. ",1,1,32.0,,,,,,0,3,3,3,,,,,0,0,0,0,,,,,,,,,,,,,,,,,,,9,10.220331594988238,,,,,,,,,,,,,,,,,,050419_p1,001,2019_May_04_1353,body_behavioural_mayedit,3.0.4,60.00930444189581,
3,"Jeff, checking his watch, was pleased to see that the two of them had two hours to discuss business before their flights left Boston.",1,1,None,,,,,,0,3,3,3,,,,,0,1,1,1,,,,,,,,,,,,,,,,,,,1,4.450492028001463,,,,,,,,,,,,,,,,,,050419_p1,001,2019_May_04_1353,body_behavioural_mayedit,3.0.4,60.00930444189581,
3,The two had met the night before in line for the bathroom at a local bar. ,1,1,None,,,,,,0,3,3,3,,,,,0,2,2,2,,,,,,,,,,,,,,,,,,,1,3.553384583006846,,,,,,,,,,,,,,,,,,050419_p1,001,2019_May_04_1353,body_behavioural_mayedit,3.0.4,60.00930444189581,
3,Jeff had delivered some surprisingly-detailed complaints to William about the wine selection.,1,1,None,,,,,,0,3,3,3,,,,,0,3,3,3,,,,,,,,,,,,,,,,,,,1,4.086677070008591,,,,,,,,,,,,,,,,,,050419_p1,001,2019_May_04_1353,body_behavioural_mayedit,3.0.4,60.00930444189581,
3,They quickly learned that they were both in the wine industry: Jeff was a sales associate for wine vineyards in the Northeast and William was a wine buyer for corporate events.,1,1,None,,,,,,0,3,3,3,,,,,0,4,4,4,,,,,,,,,,,,,,,,,,,9,6.91961879900191,,,,,,,,,,,,,,,,,,050419_p1,001,2019_May_04_1353,body_behavioural_mayedit,3.0.4,60.00930444189581,
3,"Since they both had flights out of Boston at the same time, they had agreed to meet at the airport and talk about potentially doing business. ",1,1,None,,,,,,0,3,3,3,,,,,0,5,5,5,,,,,,,,,,,,,,,,,,,1,3.769871009993949,,,,,,,,,,,,,,,,,,050419_p1,001,2019_May_04_1353,body_behavioural_mayedit,3.0.4,60.00930444189581,
3,"They headed to security together, and waited in the line.",2,1,None,,,,,,0,3,3,3,,,,,0,6,6,6,,,,,,,,,,,,,,,,,,,1,4.237787650010432,,,,,,,,,,,,,,,,,,050419_p1,001,2019_May_04_1353,body_behavioural_mayedit,3.0.4,60.00930444189581,
3,"“It’s crazy that we met last night,” William said, “I am flying out right now to meet my boss, and was worried that I was going to show up empty handed without any local retailer prepared.” ",2,1,None,,,,,,0,3,3,3,,,,,0,7,7,7,,,,,,,,,,,,,,,,,,,1,23.921275824992335,,,,,,,,,,,,,,,,,,050419_p1,001,2019_May_04_1353,body_behavioural_mayedit,3.0.4,60.00930444189581,
3,"“I know, what are the chances, right?” Jeff said.",2,1,None,,,,,,0,3,3,3,,,,,0,8,8,8,,,,,,,,,,,,,,,,,,,1,1.3360826800053474,,,,,,,,,,,,,,,,,,050419_p1,001,2019_May_04_1353,body_behavioural_mayedit,3.0.4,60.00930444189581,
3,"William laughed and said, “I’m glad our shared complaining can come in handy.",2,1,None,,,,,,0,3,3,3,,,,,0,9,9,9,,,,,,,,,,,,,,,,,,,1,1.7535484999971231,,,,,,,,,,,,,,,,,,050419_p1,001,2019_May_04_1353,body_behavioural_mayedit,3.0.4,60.00930444189581,
3,"Ok, so, I know this is fast, but I'd like to get right down to business since I don’t want to worry about time.",2,2,None,,,,,,0,3,3,3,,,,,0,10,10,10,,,,,,,,,,,,,,,,,,,1,5.31783452500531,,,,,,,,,,,,,,,,,,050419_p1,001,2019_May_04_1353,body_behavioural_mayedit,3.0.4,60.00930444189581,
3,I'd really like to order a couple of sample shipments from you and present them to our corporate buyers: I think they’d really love to have some East Coast variety. ,2,2,None,,,,,,0,3,3,3,,,,,0,11,11,11,,,,,,,,,,,,,,,,,,,1,4.136731154998415,,,,,,,,,,,,,,,,,,050419_p1,001,2019_May_04_1353,body_behavioural_mayedit,3.0.4,60.00930444189581,
3,"Now, typically we expect to get these kinds of samples at a deep discount, at least half-off the label price.",2,2,None,,,,,,0,3,3,3,,,,,0,12,12,12,,,,,,,,,,,,,,,,,,,1,7.886426647994085,,,,,,,,,,,,,,,,,,050419_p1,001,2019_May_04_1353,body_behavioural_mayedit,3.0.4,60.00930444189581,
3,"This is nothing, okay, compared to what you will be making if one of these buyers makes a contract.",2,2,None,,,,,,0,3,3,3,,,,,0,13,13,13,,,,,,,,,,,,,,,,,,,1,4.386596278010984,,,,,,,,,,,,,,,,,,050419_p1,001,2019_May_04_1353,body_behavioural_mayedit,3.0.4,60.00930444189581,
3,So I propose that you send us 5 barrels of your select wines for $800.”,2,2,None,,,,,,0,3,3,3,,,,,0,14,14,14,,,,,,,,,,,,,,,,,,,1,6.186944764995133,,,,,,,,,,,,,,,,,,050419_p1,001,2019_May_04_1353,body_behavioural_mayedit,3.0.4,60.00930444189581,
3,"Before going through the metal detector, they slipped off their loafers, undid their belts and watches and pulled out their laptops from their briefcase bags. ",2,2,None,,,,,,0,3,3,3,,,,,0,15,15,15,,,,,,,,,,,,,,,,,,,9,9.334750735011767,,,,,,,,,,,,,,,,,,050419_p1,001,2019_May_04_1353,body_behavioural_mayedit,3.0.4,60.00930444189581,
3,They placed everything in the bins. ,2,2,None,,,,,,0,3,3,3,,,,,0,16,16,16,,,,,,,,,,,,,,,,,,,1,1.3369670399988536,,,,,,,,,,,,,,,,,,050419_p1,001,2019_May_04_1353,body_behavioural_mayedit,3.0.4,60.00930444189581,
3,"Jeff mulled over the offer, nodding noncommittally to William's pitch as they proceeded through the metal detector and retrieved their belongings.",2,2,None,,,,,,0,3,3,3,,,,,0,17,17,17,,,,,,,,,,,,,,,,,,,1,6.920075269998051,,,,,,,,,,,,,,,,,,050419_p1,001,2019_May_04_1353,body_behavioural_mayedit,3.0.4,60.00930444189581,
3,"Having recovered from the security check, they began to walk through the concourse toward Jeff’s gate, B8, and William handed some printed spreadsheets to Jeff as they walked.",3,2,None,,,,,,0,3,3,3,,,,,0,18,18,18,,,,,,,,,,,,,,,,,,,9,6.970143842991092,,,,,,,,,,,,,,,,,,050419_p1,001,2019_May_04_1353,body_behavioural_mayedit,3.0.4,60.00930444189581,
3,"Jeff, weaving through the crowds of travelers, squinted at William's rosy projections of the number of bottles he could be able to purchase in the future.",3,2,None,,,,,,0,3,3,3,,,,,0,19,19,19,,,,,,,,,,,,,,,,,,,1,2.8697851069882745,,,,,,,,,,,,,,,,,,050419_p1,001,2019_May_04_1353,body_behavioural_mayedit,3.0.4,60.00930444189581,
3,"Jeff said, “I don’t know, we’re not coming from corporate vineyards, so gambling with sample shipments is the kind of risk we can’t necessarily make. ",3,3,None,,,,,,0,3,3,3,,,,,0,20,20,20,,,,,,,,,,,,,,,,,,,1,22.321123962989077,,,,,,,,,,,,,,,,,,050419_p1,001,2019_May_04_1353,body_behavioural_mayedit,3.0.4,60.00930444189581,
3,"These corporate purchases would have to be huge and practically guaranteed, to offset the loss from selling sample shipments at this price.”",3,3,None,,,,,,0,3,3,3,,,,,0,21,21,21,,,,,,,,,,,,,,,,,,,1,6.753141044988297,,,,,,,,,,,,,,,,,,050419_p1,001,2019_May_04_1353,body_behavioural_mayedit,3.0.4,60.00930444189581,
3,"William decided to tell Jeff that they had med the same offer to their competitor, East Vines, who had refused and that they would make a better offer to Jeff and his company.",3,3,None,,,,,,0,3,3,3,,,,,0,22,22,22,,,,,,,,,,,,,,,,,,,9,14.987066267000046,,,,,,,,,,,,,,,,,,050419_p1,001,2019_May_04_1353,body_behavioural_mayedit,3.0.4,60.00930444189581,
3,"They walked to the gates very slowly, barely registering the hubbub of the airport since they were so caught up in figuring out this deal before their flights left.",3,3,None,,,,,,0,3,3,3,,,,,0,23,23,23,,,,,,,,,,,,,,,,,,,1,5.13626519999525,,,,,,,,,,,,,,,,,,050419_p1,001,2019_May_04_1353,body_behavioural_mayedit,3.0.4,60.00930444189581,
3,"At the end of their long walk, they got to Jeff’s gate first, which had begun boarding passengers.",3,3,None,,,,,,0,3,3,3,,,,,0,24,24,24,,,,,,,,,,,,,,,,,,,1,4.269884389999788,,,,,,,,,,,,,,,,,,050419_p1,001,2019_May_04_1353,body_behavioural_mayedit,3.0.4,60.00930444189581,
3,"In these last minutes, William and Jeff agreed on a compromise rate on the sample shipment, paying $400 for a $600 shipment, and they finalized the deal with a handshake. ",3,4,None,,,,,,0,3,3,3,,,,,0,25,25,25,,,,,,,,,,,,,,,,,,,9,15.370590547987376,,,,,,,,,,,,,,,,,,050419_p1,001,2019_May_04_1353,body_behavioural_mayedit,3.0.4,60.00930444189581,
3,"“Well, what a tremendous pleasure to do business with you and to have all this work out,” William said.",3,4,None,,,,,,0,3,3,3,,,,,0,26,26,26,,,,,,,,,,,,,,,,,,,1,2.969499070008169,,,,,,,,,,,,,,,,,,050419_p1,001,2019_May_04_1353,body_behavioural_mayedit,3.0.4,60.00930444189581,
3,"Jeff nodded enthusiastically, and responded, “Likewise, this has been great.  ",3,4,None,,,,,,0,3,3,3,,,,,0,27,27,27,,,,,,,,,,,,,,,,,,,1,1.8032209950033575,,,,,,,,,,,,,,,,,,050419_p1,001,2019_May_04_1353,body_behavioural_mayedit,3.0.4,60.00930444189581,
3,I'll let you get to your gate.,3,4,None,,,,,,0,3,3,3,,,,,0,28,28,28,,,,,,,,,,,,,,,,,,,1,0.9866921299981186,,,,,,,,,,,,,,,,,,050419_p1,001,2019_May_04_1353,body_behavioural_mayedit,3.0.4,60.00930444189581,
3,"Once we’re both back on the ground, we can get all the shipments in the books.”",3,4,None,,,,,,0,3,3,3,,,,,0,29,29,29,,,,,,,,,,,,,,,,,,,1,2.3695341479906347,,,,,,,,,,,,,,,,,,050419_p1,001,2019_May_04_1353,body_behavioural_mayedit,3.0.4,60.00930444189581,
3,They parted with a wave as Jeff scanned his boarding pass at the gate. ,3,4,None,,,,,,0,3,3,3,,,,,0,30,30,30,,,,,,,,,,,,,,,,,,,1,2.5864321400003973,,,,,,,,,,,,,,,,,,050419_p1,001,2019_May_04_1353,body_behavioural_mayedit,3.0.4,60.00930444189581,
3,He walked onto the plane and sat down in seat 4A in the business class section.,4,4,None,,,,,,0,3,3,3,,,,,0,31,31,31,,,,,,,,,,,,,,,,,,,9,2.786453469991102,,,,,,,,,,,,,,,,,,050419_p1,001,2019_May_04_1353,body_behavioural_mayedit,3.0.4,60.00930444189581,
3,He typed out a quick email on his phone letting the rest of his team know the good news. ,4,4,None,,,,,,0,3,3,3,,,,,0,32,32,32,,,,,,,,,,,,,,,,,,,1,2.6529519780015107,,,,,,,,,,,,,,,,,,050419_p1,001,2019_May_04_1353,body_behavioural_mayedit,3.0.4,60.00930444189581,
3,"When the flight attendant came by, he ordered a glass of champagne to celebrate.",4,4,None,,,,,,0,3,3,3,,,,,0,33,33,33,,,,,,,,,,,,,,,,,,,1,2.803129167004954,,,,,,,,,,,,,,,,,,050419_p1,001,2019_May_04_1353,body_behavioural_mayedit,3.0.4,60.00930444189581,
3,,,,,,,,,,0,3,3,3,,,,,,,,,,,,,,,,,,,,,,,,,,,,,,,,,,,,,,,,,,,,,,050419_p1,001,2019_May_04_1353,body_behavioural_mayedit,3.0.4,60.00930444189581,
4,,,,,,,,,,0,4,4,4,0,0,0,0,,,,,,,,,,,,,,,,,space,2.653456511994591,space,0.5701223130017752,space,0.5363446779956575,,,,,,,,,,,,,,,,,,,,050419_p1,001,2019_May_04_1353,body_behavioural_mayedit,3.0.4,60.00930444189581,
4,"Lana walked into lecture holding hands with her boyfriend, Aaron, who was trying to contain his excitement and anticipation for proposing to Lana in this class. ",1,1,24.0,,,,,,0,4,4,4,,,,,0,0,0,0,,,,,,,,,,,,,,,,,,,9,10.537234338000417,,,,,,,,,,,,,,,,,,050419_p1,001,2019_May_04_1353,body_behavioural_mayedit,3.0.4,60.00930444189581,
4,"Lana was lost in thought, still puzzling over a calculus problem on her problem set due that night.",1,1,None,,,,,,0,4,4,4,,,,,0,1,1,1,,,,,,,,,,,,,,,,,,,1,8.38640006800415,,,,,,,,,,,,,,,,,,050419_p1,001,2019_May_04_1353,body_behavioural_mayedit,3.0.4,60.00930444189581,
4,"The lecture hall was the fanciest one at Princeton, with chandeliers, high ceilings, wood floors and a large projector screen where chalkboards used to be. ",1,1,None,,,,,,0,4,4,4,,,,,0,2,2,2,,,,,,,,,,,,,,,,,,,1,9.13725835000514,,,,,,,,,,,,,,,,,,050419_p1,001,2019_May_04_1353,body_behavioural_mayedit,3.0.4,60.00930444189581,
4,"This is where Aaron and Lana had met when they first started dating three years ago in freshman year, and now they were back together in the same lecture hall for a class they had chosen to take together. ",1,1,None,,,,,,0,4,4,4,,,,,0,3,3,3,,,,,,,,,,,,,,,,,,,1,9.053545592003502,,,,,,,,,,,,,,,,,,050419_p1,001,2019_May_04_1353,body_behavioural_mayedit,3.0.4,60.00930444189581,
4,The professor caught Aaron's eye as he walked up to the front of the classroom and gave him a wink before the lecture began. ,1,1,None,,,,,,0,4,4,4,,,,,0,4,4,4,,,,,,,,,,,,,,,,,,,9,3.603089509997517,,,,,,,,,,,,,,,,,,050419_p1,001,2019_May_04_1353,body_behavioural_mayedit,3.0.4,60.00930444189581,
4,Aaron flashed him a half-smile and nodded. ,1,1,None,,,,,,0,4,4,4,,,,,0,5,5,5,,,,,,,,,,,,,,,,,,,1,5.503413168000407,,,,,,,,,,,,,,,,,,050419_p1,001,2019_May_04_1353,body_behavioural_mayedit,3.0.4,60.00930444189581,
4,"The professor cleared his throat to begin the class and said,“Alright, good afternoon, everyone!",2,1,None,,,,,,0,4,4,4,,,,,0,6,6,6,,,,,,,,,,,,,,,,,,,9,8.08449166500941,,,,,,,,,,,,,,,,,,050419_p1,001,2019_May_04_1353,body_behavioural_mayedit,3.0.4,60.00930444189581,
4,"Last week we talked about the structure of the periodic table, and this week the topic is ions.",2,1,None,,,,,,0,4,4,4,,,,,0,7,7,7,,,,,,,,,,,,,,,,,,,1,9.00304680300178,,,,,,,,,,,,,,,,,,050419_p1,001,2019_May_04_1353,body_behavioural_mayedit,3.0.4,60.00930444189581,
4,These are atoms or molecules in which the number of electrons does not equal the number of protons.,2,1,None,,,,,,0,4,4,4,,,,,0,8,8,8,,,,,,,,,,,,,,,,,,,1,2.8197812930011423,,,,,,,,,,,,,,,,,,050419_p1,001,2019_May_04_1353,body_behavioural_mayedit,3.0.4,60.00930444189581,
4,"Now, let me get my computer set up, one moment, class.”",2,1,None,,,,,,0,4,4,4,,,,,0,9,9,9,,,,,,,,,,,,,,,,,,,1,3.720273068000097,,,,,,,,,,,,,,,,,,050419_p1,001,2019_May_04_1353,body_behavioural_mayedit,3.0.4,60.00930444189581,
4,Lana pulled out her Calculus problem set and puzzled over it.,2,1,None,,,,,,0,4,4,4,,,,,0,10,10,10,,,,,,,,,,,,,,,,,,,9,2.819496039999649,,,,,,,,,,,,,,,,,,050419_p1,001,2019_May_04_1353,body_behavioural_mayedit,3.0.4,60.00930444189581,
4,"While she was distracted, Aaron unzipped the small pocket in his backpack and pulled out the ring box.",2,2,None,,,,,,0,4,4,4,,,,,0,11,11,11,,,,,,,,,,,,,,,,,,,1,2.786222340000677,,,,,,,,,,,,,,,,,,050419_p1,001,2019_May_04_1353,body_behavioural_mayedit,3.0.4,60.00930444189581,
4,He opened it up and looked at the ring.,2,2,None,,,,,,0,4,4,4,,,,,0,12,12,12,,,,,,,,,,,,,,,,,,,1,1.7868753700022353,,,,,,,,,,,,,,,,,,050419_p1,001,2019_May_04_1353,body_behavioural_mayedit,3.0.4,60.00930444189581,
4,"Instead of one large diamond, there were 5 red diamonds embedded in a thick band. ",2,2,None,,,,,,0,4,4,4,,,,,0,13,13,13,,,,,,,,,,,,,,,,,,,1,5.869974444998661,,,,,,,,,,,,,,,,,,050419_p1,001,2019_May_04_1353,body_behavioural_mayedit,3.0.4,60.00930444189581,
4,He knew Lana would like this because her style was more avant grad than traditional.,2,2,None,,,,,,0,4,4,4,,,,,0,14,14,14,,,,,,,,,,,,,,,,,,,1,5.369738070003223,,,,,,,,,,,,,,,,,,050419_p1,001,2019_May_04_1353,body_behavioural_mayedit,3.0.4,60.00930444189581,
4,Aaron put the ring back into the bag as the professor began the lecture. ,3,2,None,,,,,,0,4,4,4,,,,,0,15,15,15,,,,,,,,,,,,,,,,,,,1,11.403380705000018,,,,,,,,,,,,,,,,,,050419_p1,001,2019_May_04_1353,body_behavioural_mayedit,3.0.4,60.00930444189581,
4,“Recall from previous lectures that the number of protons determines the identity of the element. ,3,2,None,,,,,,0,4,4,4,,,,,0,16,16,16,,,,,,,,,,,,,,,,,,,9,3.319897868001135,,,,,,,,,,,,,,,,,,050419_p1,001,2019_May_04_1353,body_behavioural_mayedit,3.0.4,60.00930444189581,
4,"So for example, all atoms of sodium have 11 protons in the nucleus. ",3,2,None,,,,,,0,4,4,4,,,,,0,17,17,17,,,,,,,,,,,,,,,,,,,1,2.569834499998251,,,,,,,,,,,,,,,,,,050419_p1,001,2019_May_04_1353,body_behavioural_mayedit,3.0.4,60.00930444189581,
4,"And if you look on the periodic table, the atomic number for sodium, the symbol is Na, is eleven.”",3,2,None,,,,,,0,4,4,4,,,,,0,18,18,18,,,,,,,,,,,,,,,,,,,1,7.253461298008915,,,,,,,,,,,,,,,,,,050419_p1,001,2019_May_04_1353,body_behavioural_mayedit,3.0.4,60.00930444189581,
4,Lana was taking notes while Aaron was texting all of his friends in the class to get ready for the proposal. ,3,2,None,,,,,,0,4,4,4,,,,,0,19,19,19,,,,,,,,,,,,,,,,,,,9,4.5684866690135095,,,,,,,,,,,,,,,,,,050419_p1,001,2019_May_04_1353,body_behavioural_mayedit,3.0.4,60.00930444189581,
4,"Right after talking about how two ions bond into one stable molecule by covalent bonds, the professor stopped the lecture and asked Lana to come to the front of the class to do a demonstration. ",3,2,None,,,,,,0,4,4,4,,,,,0,20,20,20,,,,,,,,,,,,,,,,,,,1,4.453432775000692,,,,,,,,,,,,,,,,,,050419_p1,001,2019_May_04_1353,body_behavioural_mayedit,3.0.4,60.00930444189581,
4,"She walked to the front of the class confused, and the professor asked her to stand in the middle of the stage.",3,2,None,,,,,,0,4,4,4,,,,,0,21,21,21,,,,,,,,,,,,,,,,,,,1,4.886804375011707,,,,,,,,,,,,,,,,,,050419_p1,001,2019_May_04_1353,body_behavioural_mayedit,3.0.4,60.00930444189581,
4,"Then Aaron walked up and, taking Lana’s hand, got down on one knee. ",3,3,None,,,,,,0,4,4,4,,,,,0,22,22,22,,,,,,,,,,,,,,,,,,,9,6.070069289999083,,,,,,,,,,,,,,,,,,050419_p1,001,2019_May_04_1353,body_behavioural_mayedit,3.0.4,60.00930444189581,
4,The professor quickly switched to the last slide on the powerpoint which was a photo collage of pictures of Aaron and Lana which Aaron had sent the professor previously. ,3,3,None,,,,,,0,4,4,4,,,,,0,23,23,23,,,,,,,,,,,,,,,,,,,1,5.718976561998716,,,,,,,,,,,,,,,,,,050419_p1,001,2019_May_04_1353,body_behavioural_mayedit,3.0.4,60.00930444189581,
4,"“It's time for us to make a bond of our own, Lana.”",3,3,None,,,,,,0,4,4,4,,,,,0,24,24,24,,,,,,,,,,,,,,,,,,,9,6.854270355994231,,,,,,,,,,,,,,,,,,050419_p1,001,2019_May_04_1353,body_behavioural_mayedit,3.0.4,60.00930444189581,
4,He opens the small notebook he has in his hand and the ring is sitting on the page. ,3,3,None,,,,,,0,4,4,4,,,,,0,25,25,25,,,,,,,,,,,,,,,,,,,1,4.136525592999533,,,,,,,,,,,,,,,,,,050419_p1,001,2019_May_04_1353,body_behavioural_mayedit,3.0.4,60.00930444189581,
4,Will you marry me?” ,3,3,None,,,,,,0,4,4,4,,,,,0,26,26,26,,,,,,,,,,,,,,,,,,,1,1.4002778600115562,,,,,,,,,,,,,,,,,,050419_p1,001,2019_May_04_1353,body_behavioural_mayedit,3.0.4,60.00930444189581,
4,Lana gasped and put her other hand to her mouth and started looking around the room as if trying to convince herself that this was really happening.,3,3,None,,,,,,0,4,4,4,,,,,0,27,27,27,,,,,,,,,,,,,,,,,,,9,5.653398975002347,,,,,,,,,,,,,,,,,,050419_p1,001,2019_May_04_1353,body_behavioural_mayedit,3.0.4,60.00930444189581,
4,For a few moments everyone was in suspense waiting for the Lana’s shock to wear off and for her to answer. ,3,3,None,,,,,,0,4,4,4,,,,,0,28,28,28,,,,,,,,,,,,,,,,,,,1,2.867532932999893,,,,,,,,,,,,,,,,,,050419_p1,001,2019_May_04_1353,body_behavioural_mayedit,3.0.4,60.00930444189581,
4,"Finally, she said, “Yes!”",3,4,None,,,,,,0,4,4,4,,,,,0,29,29,29,,,,,,,,,,,,,,,,,,,1,1.3189103260083357,,,,,,,,,,,,,,,,,,050419_p1,001,2019_May_04_1353,body_behavioural_mayedit,3.0.4,60.00930444189581,
4,"Aaron put the ring on her finger, and they hugged while the whole class clapped. ",3,4,None,,,,,,0,4,4,4,,,,,0,30,30,30,,,,,,,,,,,,,,,,,,,1,1.5690049419936258,,,,,,,,,,,,,,,,,,050419_p1,001,2019_May_04_1353,body_behavioural_mayedit,3.0.4,60.00930444189581,
4,"Their friends came up and hugged both of them, and the professor gave Aaron a celebratory handshake.",3,4,None,,,,,,0,4,4,4,,,,,0,31,31,31,,,,,,,,,,,,,,,,,,,1,2.203196394999395,,,,,,,,,,,,,,,,,,050419_p1,001,2019_May_04_1353,body_behavioural_mayedit,3.0.4,60.00930444189581,
4,"They made their way back to their seats, Lana and Aaron hand-in-hand and beaming. ",3,4,None,,,,,,0,4,4,4,,,,,0,32,32,32,,,,,,,,,,,,,,,,,,,1,2.002624372995342,,,,,,,,,,,,,,,,,,050419_p1,001,2019_May_04_1353,body_behavioural_mayedit,3.0.4,60.00930444189581,
4,"When they got back to their seats, Lana pulled out her phone to text her sister. ",3,4,None,,,,,,0,4,4,4,,,,,0,33,33,33,,,,,,,,,,,,,,,,,,,1,24.23735967000539,,,,,,,,,,,,,,,,,,050419_p1,001,2019_May_04_1353,body_behavioural_mayedit,3.0.4,60.00930444189581,
4,"The professor then dismissed the class, saying, “That was enough excitement for today!",4,4,None,,,,,,0,4,4,4,,,,,0,34,34,34,,,,,,,,,,,,,,,,,,,9,3.3540110180038027,,,,,,,,,,,,,,,,,,050419_p1,001,2019_May_04_1353,body_behavioural_mayedit,3.0.4,60.00930444189581,
4,Don’t forget there’s a midterm exam next week on Monday on the material covered in the first 4 weeks of the semester.,4,4,None,,,,,,0,4,4,4,,,,,0,35,35,35,,,,,,,,,,,,,,,,,,,1,4.003292565001175,,,,,,,,,,,,,,,,,,050419_p1,001,2019_May_04_1353,body_behavioural_mayedit,3.0.4,60.00930444189581,
4,"As everyone was packing up their notebooks and leaving, Lana and Aaron were surrounded by their friends eager to get a glimpse of the ring and congratulate them. ",4,4,None,,,,,,0,4,4,4,,,,,0,36,36,36,,,,,,,,,,,,,,,,,,,9,4.719912034997833,,,,,,,,,,,,,,,,,,050419_p1,001,2019_May_04_1353,body_behavioural_mayedit,3.0.4,60.00930444189581,
4,,,,,,,,,,0,4,4,4,,,,,,,,,,,,,,,,,,,,,,,,,,,,,,,,,,,,,,,,,,,,,,050419_p1,001,2019_May_04_1353,body_behavioural_mayedit,3.0.4,60.00930444189581,
5,,,,,,,,,,0,5,5,5,0,0,0,0,,,,,,,,,,,,,,,,,space,3.203230861996417,space,0.7362908179929946,space,0.6860011079988908,,,,,,,,,,,,,,,,,,,,050419_p1,001,2019_May_04_1353,body_behavioural_mayedit,3.0.4,60.00930444189581,
5,,,,,,,,,,0,5,5,5,1,0,1,0,,,,,,,,,,,,,,,,,,,,,space,0.4507112900028005,,,,,,,,,,,,,,,,,,,,050419_p1,001,2019_May_04_1353,body_behavioural_mayedit,3.0.4,60.00930444189581,
5,,,,,,,,,,0,5,5,5,2,0,2,0,,,,,,,,,,,,,,,,,,,,,space,0.5862256370019168,,,,,,,,,,,,,,,,,,,,050419_p1,001,2019_May_04_1353,body_behavioural_mayedit,3.0.4,60.00930444189581,
5,,,,,,,,,,0,5,5,5,3,0,3,0,,,,,,,,,,,,,,,,,,,,,space,0.4029579729976831,,,,,,,,,,,,,,,,,,,,050419_p1,001,2019_May_04_1353,body_behavioural_mayedit,3.0.4,60.00930444189581,
5,,,,,,,,,,0,5,5,5,4,0,4,0,,,,,,,,,,,,,,,,,,,,,space,0.5202158950123703,,,,,,,,,,,,,,,,,,,,050419_p1,001,2019_May_04_1353,body_behavioural_mayedit,3.0.4,60.00930444189581,
5,Mr. Shelton and Mr. Gordon shook hands inside the foyer of the restaurant: lunch today was about big business. ,1,1,31.0,,,,,,0,5,5,5,,,,,0,0,0,0,,,,,,,,,,,,,,,,,,,9,3.8197516149957664,,,,,,,,,,,,,,,,,,050419_p1,001,2019_May_04_1353,body_behavioural_mayedit,3.0.4,60.00930444189581,
5,Mr. Shelton and Mr. Gordon were both in the airplane manufacturing industry.,1,1,None,,,,,,0,5,5,5,,,,,0,1,1,1,,,,,,,,,,,,,,,,,,,1,2.1029431329952786,,,,,,,,,,,,,,,,,,050419_p1,001,2019_May_04_1353,body_behavioural_mayedit,3.0.4,60.00930444189581,
5,"Mr. Shelton was the CFO of a larger, well-established company and had been in the aviation business for decades.",1,1,None,,,,,,0,5,5,5,,,,,0,2,2,2,,,,,,,,,,,,,,,,,,,1,3.836730772993178,,,,,,,,,,,,,,,,,,050419_p1,001,2019_May_04_1353,body_behavioural_mayedit,3.0.4,60.00930444189581,
5,Mr. Gordon was the CEO of a smaller but technologically-advanced company that was projected to disrupt the airplane manufacturing market. ,1,1,None,,,,,,0,5,5,5,,,,,0,3,3,3,,,,,,,,,,,,,,,,,,,1,3.470004604998394,,,,,,,,,,,,,,,,,,050419_p1,001,2019_May_04_1353,body_behavioural_mayedit,3.0.4,60.00930444189581,
5,"The restaurant they chose to meeting at was an old steakhouse with dark wood paneling on the floor and ceilings, taxidermy animals on the walls and tables with a candelabras sitting on each one. ",1,1,None,,,,,,0,5,5,5,,,,,0,4,4,4,,,,,,,,,,,,,,,,,,,9,8.337183412993909,,,,,,,,,,,,,,,,,,050419_p1,001,2019_May_04_1353,body_behavioural_mayedit,3.0.4,60.00930444189581,
5,"The waitress led them to their table in the back, and they settled into a private table in the corner. ",2,1,None,,,,,,0,5,5,5,,,,,0,5,5,5,,,,,,,,,,,,,,,,,,,1,3.9200363400013885,,,,,,,,,,,,,,,,,,050419_p1,001,2019_May_04_1353,body_behavioural_mayedit,3.0.4,60.00930444189581,
5,The waitress brought out the menus and they briefly chatted about personal happenings. ,2,1,None,,,,,,0,5,5,5,,,,,0,6,6,6,,,,,,,,,,,,,,,,,,,1,4.253371525002876,,,,,,,,,,,,,,,,,,050419_p1,001,2019_May_04_1353,body_behavioural_mayedit,3.0.4,60.00930444189581,
5,"Mr. Gordon took out a picture of his daughter and talked about her recent engagement, and Mr. Gordon mentioned his purchase of a Tesla. ",2,1,None,,,,,,0,5,5,5,,,,,0,7,7,7,,,,,,,,,,,,,,,,,,,9,4.9365657979942625,,,,,,,,,,,,,,,,,,050419_p1,001,2019_May_04_1353,body_behavioural_mayedit,3.0.4,60.00930444189581,
5,"They looked at the menus as well, which were heavy and covered in felt and they contained in the back section a lengthy drink selection. ",2,1,None,,,,,,0,5,5,5,,,,,0,8,8,8,,,,,,,,,,,,,,,,,,,1,2.8675600229908014,,,,,,,,,,,,,,,,,,050419_p1,001,2019_May_04_1353,body_behavioural_mayedit,3.0.4,60.00930444189581,
5,"After awhile, Mr. Shelton brought the conversation around to business.",2,2,None,,,,,,0,5,5,5,,,,,0,9,9,9,,,,,,,,,,,,,,,,,,,1,2.236394673003815,,,,,,,,,,,,,,,,,,050419_p1,001,2019_May_04_1353,body_behavioural_mayedit,3.0.4,60.00930444189581,
5,"“Mr. Gordon, we really admire what you’re doing at your company.",2,2,None,,,,,,0,5,5,5,,,,,0,10,10,10,,,,,,,,,,,,,,,,,,,9,2.53427593500237,,,,,,,,,,,,,,,,,,050419_p1,001,2019_May_04_1353,body_behavioural_mayedit,3.0.4,60.00930444189581,
5,We think it’s genius; we want to support your vision and make this tiny company of yours internationally known.,2,2,None,,,,,,0,5,5,5,,,,,0,11,11,11,,,,,,,,,,,,,,,,,,,1,2.136190320001333,,,,,,,,,,,,,,,,,,050419_p1,001,2019_May_04_1353,body_behavioural_mayedit,3.0.4,60.00930444189581,
5,"But honestly, your company doesn’t have the resources to reach international markets right now.",2,2,None,,,,,,0,5,5,5,,,,,0,12,12,12,,,,,,,,,,,,,,,,,,,1,1.4027988629968604,,,,,,,,,,,,,,,,,,050419_p1,001,2019_May_04_1353,body_behavioural_mayedit,3.0.4,60.00930444189581,
5,"Maybe in a few years you could, but by that time, other companies may have already filled your niche.",2,2,None,,,,,,0,5,5,5,,,,,0,13,13,13,,,,,,,,,,,,,,,,,,,1,1.4027927230054047,,,,,,,,,,,,,,,,,,050419_p1,001,2019_May_04_1353,body_behavioural_mayedit,3.0.4,60.00930444189581,
5,I think we should join forces.”,2,2,None,,,,,,0,5,5,5,,,,,0,14,14,14,,,,,,,,,,,,,,,,,,,1,0.6187677129928488,,,,,,,,,,,,,,,,,,050419_p1,001,2019_May_04_1353,body_behavioural_mayedit,3.0.4,60.00930444189581,
5,The waitress came up to them and asked if they were ready to order.,3,2,None,,,,,,0,5,5,5,,,,,0,15,15,15,,,,,,,,,,,,,,,,,,,9,1.1198775570082944,,,,,,,,,,,,,,,,,,050419_p1,001,2019_May_04_1353,body_behavioural_mayedit,3.0.4,60.00930444189581,
5,"Mr. Gordon ordered a medium-rare steak and martini, and Mr. Shelton ordered veal and a manhattan. ",3,2,None,,,,,,0,5,5,5,,,,,0,16,16,16,,,,,,,,,,,,,,,,,,,1,2.736455969992676,,,,,,,,,,,,,,,,,,050419_p1,001,2019_May_04_1353,body_behavioural_mayedit,3.0.4,60.00930444189581,
5,"Then Mr. Shelton continued, “Look, I’ve talked to other members of the board, and we are prepared to offer $600 million to buy your company. ",3,2,None,,,,,,0,5,5,5,,,,,0,17,17,17,,,,,,,,,,,,,,,,,,,9,5.003444275003858,,,,,,,,,,,,,,,,,,050419_p1,001,2019_May_04_1353,body_behavioural_mayedit,3.0.4,60.00930444189581,
5,"We'd keep on all of your current employees, and you would join as the director of your company branch.” ",3,2,None,,,,,,0,5,5,5,,,,,0,18,18,18,,,,,,,,,,,,,,,,,,,1,8.53429831500398,,,,,,,,,,,,,,,,,,050419_p1,001,2019_May_04_1353,body_behavioural_mayedit,3.0.4,60.00930444189581,
5,Mr. Gordon sat looking at Mr. Shelton for a few moments considering his response. ,3,2,None,,,,,,0,5,5,5,,,,,0,19,19,19,,,,,,,,,,,,,,,,,,,1,4.136183082999196,,,,,,,,,,,,,,,,,,050419_p1,001,2019_May_04_1353,body_behavioural_mayedit,3.0.4,60.00930444189581,
5,He looked at Mr. Shelton skeptically.,3,2,None,,,,,,0,5,5,5,,,,,0,20,20,20,,,,,,,,,,,,,,,,,,,1,1.702671350009041,,,,,,,,,,,,,,,,,,050419_p1,001,2019_May_04_1353,body_behavioural_mayedit,3.0.4,60.00930444189581,
5,"He said, “Mr. Shelton, I think that you make a compelling offer, but there are definitely some disadvantages to attaching our small, streamlined productions to a large company like yours.",3,3,None,,,,,,0,5,5,5,,,,,0,21,21,21,,,,,,,,,,,,,,,,,,,9,6.303549965014099,,,,,,,,,,,,,,,,,,050419_p1,001,2019_May_04_1353,body_behavioural_mayedit,3.0.4,60.00930444189581,
5,"We operate in a very different way than a large company, and the kind of administrative complexity that makes the scale of your productions possible would suffocate our business.",3,3,None,,,,,,0,5,5,5,,,,,0,22,22,22,,,,,,,,,,,,,,,,,,,1,4.734175247998792,,,,,,,,,,,,,,,,,,050419_p1,001,2019_May_04_1353,body_behavioural_mayedit,3.0.4,60.00930444189581,
5,"With our product, scaling-up doesn’t necessarily make sense.” ",3,3,None,,,,,,0,5,5,5,,,,,0,23,23,23,,,,,,,,,,,,,,,,,,,1,1.8199955070012948,,,,,,,,,,,,,,,,,,050419_p1,001,2019_May_04_1353,body_behavioural_mayedit,3.0.4,60.00930444189581,
5,Mr. Shelton had expected this response and had come prepared.,3,3,None,,,,,,0,5,5,5,,,,,0,24,24,24,,,,,,,,,,,,,,,,,,,9,3.2698549880005885,,,,,,,,,,,,,,,,,,050419_p1,001,2019_May_04_1353,body_behavioural_mayedit,3.0.4,60.00930444189581,
5,He began laying out the details of how he had handled similar acquisitions successfully in the past.,3,3,None,,,,,,0,5,5,5,,,,,0,25,25,25,,,,,,,,,,,,,,,,,,,1,3.9699200350005412,,,,,,,,,,,,,,,,,,050419_p1,001,2019_May_04_1353,body_behavioural_mayedit,3.0.4,60.00930444189581,
5,"He also played out projections of how Mr. Gordon’s company could out-compete their own main competitor in the industry, TechJet, by using the resources of a larger corporation. ",3,3,None,,,,,,0,5,5,5,,,,,0,26,26,26,,,,,,,,,,,,,,,,,,,1,0.8364306350122206,,,,,,,,,,,,,,,,,,050419_p1,001,2019_May_04_1353,body_behavioural_mayedit,3.0.4,60.00930444189581,
5,"Mr. Gordon was impressed, and they went back and forth hashing out what the company configuration would look like post-merger. ",3,3,None,,,,,,0,5,5,5,,,,,0,27,27,27,,,,,,,,,,,,,,,,,,,9,2.4536767329991562,,,,,,,,,,,,,,,,,,050419_p1,001,2019_May_04_1353,body_behavioural_mayedit,3.0.4,60.00930444189581,
5,"The waitress brought the food out, interrupting their animated conversation.",4,3,None,,,,,,0,5,5,5,,,,,0,28,28,28,,,,,,,,,,,,,,,,,,,1,1.2841680349956732,,,,,,,,,,,,,,,,,,050419_p1,001,2019_May_04_1353,body_behavioural_mayedit,3.0.4,60.00930444189581,
5,“Oh this looks so good!” Mr. Gordon said. ,4,3,None,,,,,,0,5,5,5,,,,,0,29,29,29,,,,,,,,,,,,,,,,,,,1,1.0029682680033147,,,,,,,,,,,,,,,,,,050419_p1,001,2019_May_04_1353,body_behavioural_mayedit,3.0.4,60.00930444189581,
5, “Can I get you anything else?” the waitress asked.,4,3,None,,,,,,0,5,5,5,,,,,0,30,30,30,,,,,,,,,,,,,,,,,,,1,1.5363437599880854,,,,,,,,,,,,,,,,,,050419_p1,001,2019_May_04_1353,body_behavioural_mayedit,3.0.4,60.00930444189581,
5,They declined and began to eat. ,4,3,None,,,,,,0,5,5,5,,,,,0,31,31,31,,,,,,,,,,,,,,,,,,,1,1.669715964992065,,,,,,,,,,,,,,,,,,050419_p1,001,2019_May_04_1353,body_behavioural_mayedit,3.0.4,60.00930444189581,
5,The meal was alright- they both found the meat to be a bit overcooked and dry. ,4,3,None,,,,,,0,5,5,5,,,,,0,32,32,32,,,,,,,,,,,,,,,,,,,9,1.8364827730110846,,,,,,,,,,,,,,,,,,050419_p1,001,2019_May_04_1353,body_behavioural_mayedit,3.0.4,60.00930444189581,
5,"Finally, Mr. Gordon, after taking a contemplative bite of his food and swallowing, said, “Mr. Shelton, I think we have a deal. ",4,4,None,,,,,,0,5,5,5,,,,,0,33,33,33,,,,,,,,,,,,,,,,,,,1,2.4698963849950815,,,,,,,,,,,,,,,,,,050419_p1,001,2019_May_04_1353,body_behavioural_mayedit,3.0.4,60.00930444189581,
5,"If you can guarantee that I can still have the final say in the all the work done by my team, I think this could be beneficial for both of us.",4,4,None,,,,,,0,5,5,5,,,,,0,34,34,34,,,,,,,,,,,,,,,,,,,1,3.0360523580020526,,,,,,,,,,,,,,,,,,050419_p1,001,2019_May_04_1353,body_behavioural_mayedit,3.0.4,60.00930444189581,
5,I propose a toast to the merging of our companies.”,4,4,None,,,,,,0,5,5,5,,,,,0,35,35,35,,,,,,,,,,,,,,,,,,,1,2.236360635011806,,,,,,,,,,,,,,,,,,050419_p1,001,2019_May_04_1353,body_behavioural_mayedit,3.0.4,60.00930444189581,
5,Mr. Shelton grinned and lifted his martini to clink glasses.,4,4,None,,,,,,0,5,5,5,,,,,0,36,36,36,,,,,,,,,,,,,,,,,,,9,2.3199049469985766,,,,,,,,,,,,,,,,,,050419_p1,001,2019_May_04_1353,body_behavioural_mayedit,3.0.4,60.00930444189581,
5,"He said, “Cheers to a lifelong partnership and to the growth of your company.” ",4,4,None,,,,,,0,5,5,5,,,,,0,37,37,37,,,,,,,,,,,,,,,,,,,1,0.9698191130009945,,,,,,,,,,,,,,,,,,050419_p1,001,2019_May_04_1353,body_behavioural_mayedit,3.0.4,60.00930444189581,
5,They clinked glasses in unison. ,4,4,None,,,,,,0,5,5,5,,,,,0,38,38,38,,,,,,,,,,,,,,,,,,,1,0.6529562100040494,,,,,,,,,,,,,,,,,,050419_p1,001,2019_May_04_1353,body_behavioural_mayedit,3.0.4,60.00930444189581,
5,,,,,,,,,,0,5,5,5,,,,,,,,,,,,,,,,,,,,,,,,,,,,,,,,,,,,,,,,,,,,,,050419_p1,001,2019_May_04_1353,body_behavioural_mayedit,3.0.4,60.00930444189581,
6,,,,,,,,,,0,6,6,6,0,0,0,0,,,,,,,,,,,,,,,,,space,1.353115718011395,space,0.5029028199933236,space,1.0697461529925931,,,,,,,,,,,,,,,,,,,,050419_p1,001,2019_May_04_1353,body_behavioural_mayedit,3.0.4,60.00930444189581,
6,,,,,,,,,,0,6,6,6,1,0,1,0,,,,,,,,,,,,,,,,,,,,,space,0.4507079879986122,,,,,,,,,,,,,,,,,,,,050419_p1,001,2019_May_04_1353,body_behavioural_mayedit,3.0.4,60.00930444189581,
6,"Carina noticed Simon first as they walked into the grocery store at the same time, both distracted in thought. ",1,1,43.0,,,,,,0,6,6,6,,,,,0,0,0,0,,,,,,,,,,,,,,,,,,,9,5.303022908003186,,,,,,,,,,,,,,,,,,050419_p1,001,2019_May_04_1353,body_behavioural_mayedit,3.0.4,60.00930444189581,
6,She nearly dropped the keys she was holding. ,1,1,None,,,,,,0,6,6,6,,,,,0,1,1,1,,,,,,,,,,,,,,,,,,,1,0.9029488749947632,,,,,,,,,,,,,,,,,,050419_p1,001,2019_May_04_1353,body_behavioural_mayedit,3.0.4,60.00930444189581,
6,"They were both new to the Boston area, and this was their first time in this store. ",1,1,None,,,,,,0,6,6,6,,,,,0,2,2,2,,,,,,,,,,,,,,,,,,,1,0.8365454049926484,,,,,,,,,,,,,,,,,,050419_p1,001,2019_May_04_1353,body_behavioural_mayedit,3.0.4,60.00930444189581,
6,"It kind of looked like a large warehouse, with high, black ceilings, industrial lights, and large packages of food. ",1,1,None,,,,,,0,6,6,6,,,,,0,3,3,3,,,,,,,,,,,,,,,,,,,1,10.453719584998908,,,,,,,,,,,,,,,,,,050419_p1,001,2019_May_04_1353,body_behavioural_mayedit,3.0.4,60.00930444189581,
6,"They went off along separate routes, but soon ended up back together in the meat section. ",2,1,None,,,,,,0,6,6,6,,,,,0,4,4,4,,,,,,,,,,,,,,,,,,,1,1.8524309719941812,,,,,,,,,,,,,,,,,,050419_p1,001,2019_May_04_1353,body_behavioural_mayedit,3.0.4,60.00930444189581,
6,"They were both preparing for barbecues, so they were looking over the same cuts of meat. ",2,1,None,,,,,,0,6,6,6,,,,,0,5,5,5,,,,,,,,,,,,,,,,,,,1,2.2537612820015056,,,,,,,,,,,,,,,,,,050419_p1,001,2019_May_04_1353,body_behavioural_mayedit,3.0.4,60.00930444189581,
6,"Simon really wanted to talk to Carina, and Carina really wanted to say something to Simon, but they felt embarrassed striking up a conversation with a stranger.",2,1,None,,,,,,0,6,6,6,,,,,0,6,6,6,,,,,,,,,,,,,,,,,,,1,4.786827614996582,,,,,,,,,,,,,,,,,,050419_p1,001,2019_May_04_1353,body_behavioural_mayedit,3.0.4,60.00930444189581,
6,"Carina suddenly turned to Simon and, pointing at a Cornish hen, asked, “Isn’t this meat cute?”",2,2,None,,,,,,0,6,6,6,,,,,0,7,7,7,,,,,,,,,,,,,,,,,,,9,2.686625489994185,,,,,,,,,,,,,,,,,,050419_p1,001,2019_May_04_1353,body_behavioural_mayedit,3.0.4,60.00930444189581,
6,"He laughed, and said, “It is very cute.",2,2,None,,,,,,0,6,6,6,,,,,0,8,8,8,,,,,,,,,,,,,,,,,,,1,0.8696641080023255,,,,,,,,,,,,,,,,,,050419_p1,001,2019_May_04_1353,body_behavioural_mayedit,3.0.4,60.00930444189581,
6,"Probably the younger brother of this guy,” and he picked up a regular-sized chicken.",2,2,None,,,,,,0,6,6,6,,,,,0,9,9,9,,,,,,,,,,,,,,,,,,,9,3.9532942599907983,,,,,,,,,,,,,,,,,,050419_p1,001,2019_May_04_1353,body_behavioural_mayedit,3.0.4,60.00930444189581,
6,"“Unlucky family,” she responded. ",2,2,None,,,,,,0,6,6,6,,,,,0,10,10,10,,,,,,,,,,,,,,,,,,,1,1.5340841229917714,,,,,,,,,,,,,,,,,,050419_p1,001,2019_May_04_1353,body_behavioural_mayedit,3.0.4,60.00930444189581,
6,They continued to chat as they picked out a few last-minute groceries.,2,2,None,,,,,,0,6,6,6,,,,,0,11,11,11,,,,,,,,,,,,,,,,,,,1,1.0673652500117896,,,,,,,,,,,,,,,,,,050419_p1,001,2019_May_04_1353,body_behavioural_mayedit,3.0.4,60.00930444189581,
6,"Simon helped Carina select the best ribs and his personal favorite barbecue sauce, and she helped him gather red  peppers and spices for a vegetable kabob she recommended.",2,2,None,,,,,,0,6,6,6,,,,,0,12,12,12,,,,,,,,,,,,,,,,,,,9,5.953375065000728,,,,,,,,,,,,,,,,,,050419_p1,001,2019_May_04_1353,body_behavioural_mayedit,3.0.4,60.00930444189581,
6,"When they were both finished shopping, they went to the checkout area.",3,2,None,,,,,,0,6,6,6,,,,,0,13,13,13,,,,,,,,,,,,,,,,,,,1,1.3674438149901107,,,,,,,,,,,,,,,,,,050419_p1,001,2019_May_04_1353,body_behavioural_mayedit,3.0.4,60.00930444189581,
6,"Simon was disappointed to see that the lines were short, as he had been hoping for an excuse to spend more time with Carina.",3,2,None,,,,,,0,6,6,6,,,,,0,14,14,14,,,,,,,,,,,,,,,,,,,1,4.536644047999289,,,,,,,,,,,,,,,,,,050419_p1,001,2019_May_04_1353,body_behavioural_mayedit,3.0.4,60.00930444189581,
6,There were there lines open and they went to aisle 8. ,3,2,None,,,,,,0,6,6,6,,,,,0,15,15,15,,,,,,,,,,,,,,,,,,,1,3.4199803699884797,,,,,,,,,,,,,,,,,,050419_p1,001,2019_May_04_1353,body_behavioural_mayedit,3.0.4,60.00930444189581,
6,"They had real chemistry, and both of them could definitely see a future together despite having just met.",3,2,None,,,,,,0,6,6,6,,,,,0,16,16,16,,,,,,,,,,,,,,,,,,,9,2.500882790001924,,,,,,,,,,,,,,,,,,050419_p1,001,2019_May_04_1353,body_behavioural_mayedit,3.0.4,60.00930444189581,
6,"“So you haven’t been around the city much?”, Simon asked. ",3,2,None,,,,,,0,6,6,6,,,,,0,17,17,17,,,,,,,,,,,,,,,,,,,1,0.453029783006059,,,,,,,,,,,,,,,,,,050419_p1,001,2019_May_04_1353,body_behavioural_mayedit,3.0.4,60.00930444189581,
6,"“No, not really.",3,2,None,,,,,,0,6,6,6,,,,,0,18,18,18,,,,,,,,,,,,,,,,,,,1,0.6363589899992803,,,,,,,,,,,,,,,,,,050419_p1,001,2019_May_04_1353,body_behavioural_mayedit,3.0.4,60.00930444189581,
6,I’ve mainly been working and setting up my apartment.”,3,2,None,,,,,,0,6,6,6,,,,,0,19,19,19,,,,,,,,,,,,,,,,,,,1,0.7530087370105321,,,,,,,,,,,,,,,,,,050419_p1,001,2019_May_04_1353,body_behavioural_mayedit,3.0.4,60.00930444189581,
6,"Simon asked her, “Ok well, if you’d like next Saturday let’s tour around Harvard Square and get something to eat.",3,3,None,,,,,,0,6,6,6,,,,,0,20,20,20,,,,,,,,,,,,,,,,,,,1,7.236874053007341,,,,,,,,,,,,,,,,,,050419_p1,001,2019_May_04_1353,body_behavioural_mayedit,3.0.4,60.00930444189581,
6,"There are a lot of great places around there, and it’s really nice during the summer.”",3,3,None,,,,,,0,6,6,6,,,,,0,21,21,21,,,,,,,,,,,,,,,,,,,1,1.069414074998349,,,,,,,,,,,,,,,,,,050419_p1,001,2019_May_04_1353,body_behavioural_mayedit,3.0.4,60.00930444189581,
6,"Carina smiled, “I’d love to: that sounds great!”",3,3,None,,,,,,0,6,6,6,,,,,0,22,22,22,,,,,,,,,,,,,,,,,,,9,1.9528699000074994,,,,,,,,,,,,,,,,,,050419_p1,001,2019_May_04_1353,body_behavioural_mayedit,3.0.4,60.00930444189581,
6,"She quickly entered her number in his phone, since they only had to wait a couple minutes in line.",3,3,None,,,,,,0,6,6,6,,,,,0,23,23,23,,,,,,,,,,,,,,,,,,,1,1.7369762919988716,,,,,,,,,,,,,,,,,,050419_p1,001,2019_May_04_1353,body_behavioural_mayedit,3.0.4,60.00930444189581,
6,Then it was her turn to check out with the cashier. ,4,3,None,,,,,,0,6,6,6,,,,,0,24,24,24,,,,,,,,,,,,,,,,,,,1,1.187009298009798,,,,,,,,,,,,,,,,,,050419_p1,001,2019_May_04_1353,body_behavioural_mayedit,3.0.4,60.00930444189581,
6,"Simon, wanting to make a gesture of his affection, lifted up the divider on the conveyor belt and said to the cashier, “Actually these are together.",4,3,None,,,,,,0,6,6,6,,,,,0,25,25,25,,,,,,,,,,,,,,,,,,,9,6.069762074999744,,,,,,,,,,,,,,,,,,050419_p1,001,2019_May_04_1353,body_behavioural_mayedit,3.0.4,60.00930444189581,
6,"Carina, I’ve got it.",4,3,None,,,,,,0,6,6,6,,,,,0,26,26,26,,,,,,,,,,,,,,,,,,,1,0.5862344179913634,,,,,,,,,,,,,,,,,,050419_p1,001,2019_May_04_1353,body_behavioural_mayedit,3.0.4,60.00930444189581,
6,This was kind-of a date today.”,4,3,None,,,,,,0,6,6,6,,,,,0,27,27,27,,,,,,,,,,,,,,,,,,,1,0.9198143950052327,,,,,,,,,,,,,,,,,,050419_p1,001,2019_May_04_1353,body_behavioural_mayedit,3.0.4,60.00930444189581,
6,Carina blushed and laughed; she thought this was ridiculous but also very sweet. ,4,3,None,,,,,,0,6,6,6,,,,,0,28,28,28,,,,,,,,,,,,,,,,,,,1,2.3367330100008985,,,,,,,,,,,,,,,,,,050419_p1,001,2019_May_04_1353,body_behavioural_mayedit,3.0.4,60.00930444189581,
6,"The cashier rolled her eyes when they weren’t looking, and she scanned the rest of his items. ",4,3,None,,,,,,0,6,6,6,,,,,0,29,29,29,,,,,,,,,,,,,,,,,,,9,4.536781495000469,,,,,,,,,,,,,,,,,,050419_p1,001,2019_May_04_1353,body_behavioural_mayedit,3.0.4,60.00930444189581,
6,"The total came to $52, and he paid with his credit card.",4,3,None,,,,,,0,6,6,6,,,,,0,30,30,30,,,,,,,,,,,,,,,,,,,1,1.2195320680039003,,,,,,,,,,,,,,,,,,050419_p1,001,2019_May_04_1353,body_behavioural_mayedit,3.0.4,60.00930444189581,
6,"Carina thanked him, and they took the groceries and walked out.",4,3,None,,,,,,0,6,6,6,,,,,0,31,31,31,,,,,,,,,,,,,,,,,,,1,0.8860306999995373,,,,,,,,,,,,,,,,,,050419_p1,001,2019_May_04_1353,body_behavioural_mayedit,3.0.4,60.00930444189581,
6,"As they were walking towards the exit, Carina checked her phone for the time.",4,3,None,,,,,,0,6,6,6,,,,,0,32,32,32,,,,,,,,,,,,,,,,,,,1,1.1528150200028904,,,,,,,,,,,,,,,,,,050419_p1,001,2019_May_04_1353,body_behavioural_mayedit,3.0.4,60.00930444189581,
6,"Seeing that it was 4:30 pm, she reluctantly said goodbye since she was running late for the barbeque she was hosting that afternoon.",4,4,None,,,,,,0,6,6,6,,,,,0,33,33,33,,,,,,,,,,,,,,,,,,,1,2.7341831999947317,,,,,,,,,,,,,,,,,,050419_p1,001,2019_May_04_1353,body_behavioural_mayedit,3.0.4,60.00930444189581,
6,"They hugged and parted ways, stealing glances at each other as they both walked back to their cars.",4,4,None,,,,,,0,6,6,6,,,,,0,34,34,34,,,,,,,,,,,,,,,,,,,1,1.053053187992191,,,,,,,,,,,,,,,,,,050419_p1,001,2019_May_04_1353,body_behavioural_mayedit,3.0.4,60.00930444189581,
6,,,,,,,,,,0,6,6,6,,,,,,,,,,,,,,,,,,,,,,,,,,,,,,,,,,,,,,,,,,,,,,050419_p1,001,2019_May_04_1353,body_behavioural_mayedit,3.0.4,60.00930444189581,
7,,,,,,,,,,0,7,7,7,0,0,0,0,,,,,,,,,,,,,,,,,space,1.017333844996756,space,0.43636700499337167,space,2.6700963999901433,,,,,,,,,,,,,,,,,,,,050419_p1,001,2019_May_04_1353,body_behavioural_mayedit,3.0.4,60.00930444189581,
7,,,,,,,,,,0,7,7,7,1,0,1,0,,,,,,,,,,,,,,,,,,,,,space,0.5863077480025822,,,,,,,,,,,,,,,,,,,,050419_p1,001,2019_May_04_1353,body_behavioural_mayedit,3.0.4,60.00930444189581,
7,,,,,,,,,,0,7,7,7,2,0,2,0,,,,,,,,,,,,,,,,,,,,,space,0.36932745500234887,,,,,,,,,,,,,,,,,,,,050419_p1,001,2019_May_04_1353,body_behavioural_mayedit,3.0.4,60.00930444189581,
7,,,,,,,,,,0,7,7,7,3,0,3,0,,,,,,,,,,,,,,,,,,,,,space,0.36926506500458345,,,,,,,,,,,,,,,,,,,,050419_p1,001,2019_May_04_1353,body_behavioural_mayedit,3.0.4,60.00930444189581,
7,,,,,,,,,,0,7,7,7,4,0,4,0,,,,,,,,,,,,,,,,,,,,,space,0.31969242000195663,,,,,,,,,,,,,,,,,,,,050419_p1,001,2019_May_04_1353,body_behavioural_mayedit,3.0.4,60.00930444189581,
7,,,,,,,,,,0,7,7,7,5,0,5,0,,,,,,,,,,,,,,,,,,,,,space,0.38624199299374595,,,,,,,,,,,,,,,,,,,,050419_p1,001,2019_May_04_1353,body_behavioural_mayedit,3.0.4,60.00930444189581,
7,,,,,,,,,,0,7,7,7,6,0,6,0,,,,,,,,,,,,,,,,,,,,,space,0.3505513330019312,,,,,,,,,,,,,,,,,,,,050419_p1,001,2019_May_04_1353,body_behavioural_mayedit,3.0.4,60.00930444189581,
7,"It didn’t help the situation that Calvin and Jessie were running late to the airport, since Jessie had already been fuming at Calvin and preparing to end things with him.",1,1,12.0,,,,,,0,7,7,7,,,,,0,0,0,0,,,,,,,,,,,,,,,,,,,9,2.7027534899971215,,,,,,,,,,,,,,,,,,050419_p1,001,2019_May_04_1353,body_behavioural_mayedit,3.0.4,60.00930444189581,
7,"Upon arriving, they had only 45 minutes until their international flight would depart from Jamaica for the US.",1,1,None,,,,,,0,7,7,7,,,,,0,1,1,1,,,,,,,,,,,,,,,,,,,1,2.1357892449887004,,,,,,,,,,,,,,,,,,050419_p1,001,2019_May_04_1353,body_behavioural_mayedit,3.0.4,60.00930444189581,
7,It had been a tough vacation for them.,1,1,None,,,,,,0,7,7,7,,,,,0,2,2,2,,,,,,,,,,,,,,,,,,,1,0.23598380699695554,,,,,,,,,,,,,,,,,,050419_p1,001,2019_May_04_1353,body_behavioural_mayedit,3.0.4,60.00930444189581,
7,"Jessie had really had it with Calvin’s constant ramblings about the same excruciatingly boring golfing and work stories, which he insisted on repeating to her regardless of how little interest she showed.",1,1,None,,,,,,0,7,7,7,,,,,0,3,3,3,,,,,,,,,,,,,,,,,,,1,1.5026364199875388,,,,,,,,,,,,,,,,,,050419_p1,001,2019_May_04_1353,body_behavioural_mayedit,3.0.4,60.00930444189581,
7,She decided she would break up with him after 6 weeks of thinking about it. ,1,1,None,,,,,,0,7,7,7,,,,,0,4,4,4,,,,,,,,,,,,,,,,,,,1,1.702926239988301,,,,,,,,,,,,,,,,,,050419_p1,001,2019_May_04_1353,body_behavioural_mayedit,3.0.4,60.00930444189581,
7,"Calvin knew that Jessie was upset, but wasn't sure what to do besides attempting to carry on as normal and tell stories that took up the silence. ",1,1,None,,,,,,0,7,7,7,,,,,0,5,5,5,,,,,,,,,,,,,,,,,,,9,2.2197656300122617,,,,,,,,,,,,,,,,,,050419_p1,001,2019_May_04_1353,body_behavioural_mayedit,3.0.4,60.00930444189581,
7,"The security line was luckily very short, and once the online boarding passes were scanned, Calvin took his belt and watch and they put their bags on the conveyor belt before being ushered quickly through the metal detector.",2,1,None,,,,,,0,7,7,7,,,,,0,6,6,6,,,,,,,,,,,,,,,,,,,1,1.1202426130039385,,,,,,,,,,,,,,,,,,050419_p1,001,2019_May_04_1353,body_behavioural_mayedit,3.0.4,60.00930444189581,
7,"“The infrastructure of this airport is really quite poor," said Calvin as they waited for their bags to emerge from the x-ray machine.",2,1,None,,,,,,0,7,7,7,,,,,0,7,7,7,,,,,,,,,,,,,,,,,,,1,1.0525573979975889,,,,,,,,,,,,,,,,,,050419_p1,001,2019_May_04_1353,body_behavioural_mayedit,3.0.4,60.00930444189581,
7,“I really could've hidden something in my shoes quite easily.” ,2,1,None,,,,,,0,7,7,7,,,,,0,8,8,8,,,,,,,,,,,,,,,,,,,1,1.553137164999498,,,,,,,,,,,,,,,,,,050419_p1,001,2019_May_04_1353,body_behavioural_mayedit,3.0.4,60.00930444189581,
7,"Jessie, exasperated at his need to broadcast his every inner thought, scowled at the conveyor belt.",2,1,None,,,,,,0,7,7,7,,,,,0,9,9,9,,,,,,,,,,,,,,,,,,,9,4.350930309999967,,,,,,,,,,,,,,,,,,050419_p1,001,2019_May_04_1353,body_behavioural_mayedit,3.0.4,60.00930444189581,
7,"“What?”, he asked.",2,1,None,,,,,,0,7,7,7,,,,,0,10,10,10,,,,,,,,,,,,,,,,,,,1,0.5174112649983726,,,,,,,,,,,,,,,,,,050419_p1,001,2019_May_04_1353,body_behavioural_mayedit,3.0.4,60.00930444189581,
7,She balled up her fists and turned to face him.,2,1,None,,,,,,0,7,7,7,,,,,0,11,11,11,,,,,,,,,,,,,,,,,,,1,0.41818382299970835,,,,,,,,,,,,,,,,,,050419_p1,001,2019_May_04_1353,body_behavioural_mayedit,3.0.4,60.00930444189581,
7,"“Calvin, I really don’t think I can do this anymore because I don’t think our personalities are compatible. ",2,2,None,,,,,,0,7,7,7,,,,,0,12,12,12,,,,,,,,,,,,,,,,,,,1,1.686111710005207,,,,,,,,,,,,,,,,,,050419_p1,001,2019_May_04_1353,body_behavioural_mayedit,3.0.4,60.00930444189581,
7,I think it’s best that once we get to the States we part ways for good.” ,2,2,None,,,,,,0,7,7,7,,,,,0,13,13,13,,,,,,,,,,,,,,,,,,,1,2.5365309350017924,,,,,,,,,,,,,,,,,,050419_p1,001,2019_May_04_1353,body_behavioural_mayedit,3.0.4,60.00930444189581,
7,Calvin said nothing as he grabbed his bag and quickly walked away.,2,2,None,,,,,,0,7,7,7,,,,,0,14,14,14,,,,,,,,,,,,,,,,,,,1,2.7363801729952684,,,,,,,,,,,,,,,,,,050419_p1,001,2019_May_04_1353,body_behavioural_mayedit,3.0.4,60.00930444189581,
7,"Jessie trailed behind him as they made their way quickly toward their gate, A28, shouting at his back in hopes of getting a response.",3,2,None,,,,,,0,7,7,7,,,,,0,15,15,15,,,,,,,,,,,,,,,,,,,1,1.7507864849903854,,,,,,,,,,,,,,,,,,050419_p1,001,2019_May_04_1353,body_behavioural_mayedit,3.0.4,60.00930444189581,
7,“So now you have nothing to say?,3,2,None,,,,,,0,7,7,7,,,,,0,16,16,16,,,,,,,,,,,,,,,,,,,1,2.836742219995358,,,,,,,,,,,,,,,,,,050419_p1,001,2019_May_04_1353,body_behavioural_mayedit,3.0.4,60.00930444189581,
7,"Every time we talk, you are just looking for a way to steer the conversation back into your stories.”",3,2,None,,,,,,0,7,7,7,,,,,0,17,17,17,,,,,,,,,,,,,,,,,,,1,2.303223932001856,,,,,,,,,,,,,,,,,,050419_p1,001,2019_May_04_1353,body_behavioural_mayedit,3.0.4,60.00930444189581,
7,"Calvin didn't slow his pace, gritting his teeth and staring straight ahead. ",3,2,None,,,,,,0,7,7,7,,,,,0,18,18,18,,,,,,,,,,,,,,,,,,,9,1.6030709749902599,,,,,,,,,,,,,,,,,,050419_p1,001,2019_May_04_1353,body_behavioural_mayedit,3.0.4,60.00930444189581,
7,He was very frustrated that he had been trying to appease Jessie this whole time and this was how she responded. ,3,2,None,,,,,,0,7,7,7,,,,,0,19,19,19,,,,,,,,,,,,,,,,,,,1,2.2198083580005914,,,,,,,,,,,,,,,,,,050419_p1,001,2019_May_04_1353,body_behavioural_mayedit,3.0.4,60.00930444189581,
7,This silence was punctuated only by the rapid rhythmic clacking of their suitcase wheels over the tile floor as they continued power-walking through the terminal. ,3,2,None,,,,,,0,7,7,7,,,,,0,20,20,20,,,,,,,,,,,,,,,,,,,1,8.67032703300356,,,,,,,,,,,,,,,,,,050419_p1,001,2019_May_04_1353,body_behavioural_mayedit,3.0.4,60.00930444189581,
7,"“Well?” Jessie said,",3,2,None,,,,,,0,7,7,7,,,,,0,21,21,21,,,,,,,,,,,,,,,,,,,1,0.9861085299926344,,,,,,,,,,,,,,,,,,050419_p1,001,2019_May_04_1353,body_behavioural_mayedit,3.0.4,60.00930444189581,
7,"Calvin finally turned to her, “Well, Jessie, this makes perfect sense. ",3,3,None,,,,,,0,7,7,7,,,,,0,22,22,22,,,,,,,,,,,,,,,,,,,1,6.303614607997588,,,,,,,,,,,,,,,,,,050419_p1,001,2019_May_04_1353,body_behavioural_mayedit,3.0.4,60.00930444189581,
7,"If you feel this way, then I think we should break up because I don’t want to keep boring you.",3,3,None,,,,,,0,7,7,7,,,,,0,23,23,23,,,,,,,,,,,,,,,,,,,1,1.1196610350016272,,,,,,,,,,,,,,,,,,050419_p1,001,2019_May_04_1353,body_behavioural_mayedit,3.0.4,60.00930444189581,
7,"I agree, let’s part ways once we make it back.",3,3,None,,,,,,0,7,7,7,,,,,0,24,24,24,,,,,,,,,,,,,,,,,,,1,1.7675833020039136,,,,,,,,,,,,,,,,,,050419_p1,001,2019_May_04_1353,body_behavioural_mayedit,3.0.4,60.00930444189581,
7,You should’ve spoken up about my apparent intolerability before you decided to plan this vacation.”,3,3,None,,,,,,0,7,7,7,,,,,0,25,25,25,,,,,,,,,,,,,,,,,,,1,3.086500502002309,,,,,,,,,,,,,,,,,,050419_p1,001,2019_May_04_1353,body_behavioural_mayedit,3.0.4,60.00930444189581,
7,"He was clearly hurt, but thought it was pointless to argue. ",3,3,None,,,,,,0,7,7,7,,,,,0,26,26,26,,,,,,,,,,,,,,,,,,,9,2.0869915729999775,,,,,,,,,,,,,,,,,,050419_p1,001,2019_May_04_1353,body_behavioural_mayedit,3.0.4,60.00930444189581,
7,"They finally made it to the gate, just as they heard the final call for passengers boarding their flight.",3,3,None,,,,,,0,7,7,7,,,,,0,27,27,27,,,,,,,,,,,,,,,,,,,1,1.5864771950000431,,,,,,,,,,,,,,,,,,050419_p1,001,2019_May_04_1353,body_behavioural_mayedit,3.0.4,60.00930444189581,
7,"They scanned their tickets, and the annoyed flight attendant shooed them onto the jet bridge and then closed the door behind them.",4,3,None,,,,,,0,7,7,7,,,,,0,28,28,28,,,,,,,,,,,,,,,,,,,1,1.1197793499886757,,,,,,,,,,,,,,,,,,050419_p1,001,2019_May_04_1353,body_behavioural_mayedit,3.0.4,60.00930444189581,
7,"Luckily, they had forgotten to arrange seats next to each other on the flight back.",4,3,None,,,,,,0,7,7,7,,,,,0,29,29,29,,,,,,,,,,,,,,,,,,,1,2.2530984670011094,,,,,,,,,,,,,,,,,,050419_p1,001,2019_May_04_1353,body_behavioural_mayedit,3.0.4,60.00930444189581,
7,"They were both economy, but Jessie was headed for seat 33A while Calvin's seat was 33F. ",4,3,None,,,,,,0,7,7,7,,,,,0,30,30,30,,,,,,,,,,,,,,,,,,,1,2.6532879779988434,,,,,,,,,,,,,,,,,,050419_p1,001,2019_May_04_1353,body_behavioural_mayedit,3.0.4,60.00930444189581,
7,"Before Jessie sat down, she took a deep breath and then awkwardly shook Calvin’s hand, mumbling, “Well, have a nice flight. ",4,4,None,,,,,,0,7,7,7,,,,,0,31,31,31,,,,,,,,,,,,,,,,,,,9,2.2033799549972173,,,,,,,,,,,,,,,,,,050419_p1,001,2019_May_04_1353,body_behavioural_mayedit,3.0.4,60.00930444189581,
7,"Oh, and when you get a chance could you send me back all the philosophy books I lent you?”",4,4,None,,,,,,0,7,7,7,,,,,0,32,32,32,,,,,,,,,,,,,,,,,,,1,2.9509262469946407,,,,,,,,,,,,,,,,,,050419_p1,001,2019_May_04_1353,body_behavioural_mayedit,3.0.4,60.00930444189581,
7,He laughed in disbelief and walked to his window seat three rows back to get ready for takeoff.,4,4,None,,,,,,0,7,7,7,,,,,0,33,33,33,,,,,,,,,,,,,,,,,,,1,3.084222872988903,,,,,,,,,,,,,,,,,,050419_p1,001,2019_May_04_1353,body_behavioural_mayedit,3.0.4,60.00930444189581,
7,Both were upset but glad that they would have this flight to mull things over and recenter. ,4,4,None,,,,,,0,7,7,7,,,,,0,34,34,34,,,,,,,,,,,,,,,,,,,1,5.800434029995813,,,,,,,,,,,,,,,,,,050419_p1,001,2019_May_04_1353,body_behavioural_mayedit,3.0.4,60.00930444189581,
7,,,,,,,,,,0,7,7,7,,,,,,,,,,,,,,,,,,,,,,,,,,,,,,,,,,,,,,,,,,,,,,050419_p1,001,2019_May_04_1353,body_behavioural_mayedit,3.0.4,60.00930444189581,
8,,,,,,,,,,0,8,8,8,0,0,0,0,,,,,,,,,,,,,,,,,space,6.104338326011202,space,0.7195739349990617,space,1.2864115349948406,,,,,,,,,,,,,,,,,,,,050419_p1,001,2019_May_04_1353,body_behavioural_mayedit,3.0.4,60.00930444189581,
8,Charlie saw Alma as they walked into class and he motioned for her to come sit in the back next to him: they had business to discuss.,1,1,34.0,,,,,,0,8,8,8,,,,,0,0,0,0,,,,,,,,,,,,,,,,,,,9,4.569773454990354,,,,,,,,,,,,,,,,,,050419_p1,001,2019_May_04_1353,body_behavioural_mayedit,3.0.4,60.00930444189581,
8,Charlie and Alma were both economics students with entrepreneurial bents.,1,1,None,,,,,,0,8,8,8,,,,,0,1,1,1,,,,,,,,,,,,,,,,,,,1,1.81971736199921,,,,,,,,,,,,,,,,,,050419_p1,001,2019_May_04_1353,body_behavioural_mayedit,3.0.4,60.00930444189581,
8,They were also both very busy and in the same class.,1,1,None,,,,,,0,8,8,8,,,,,0,2,2,2,,,,,,,,,,,,,,,,,,,1,2.2531182899983833,,,,,,,,,,,,,,,,,,050419_p1,001,2019_May_04_1353,body_behavioural_mayedit,3.0.4,60.00930444189581,
8,"After talking at a party, Charlie had discovered that Alma was looking for financing for her web development company of which she was the founder and CEO.",1,1,None,,,,,,0,8,8,8,,,,,0,3,3,3,,,,,,,,,,,,,,,,,,,1,4.419953432996408,,,,,,,,,,,,,,,,,,050419_p1,001,2019_May_04_1353,body_behavioural_mayedit,3.0.4,60.00930444189581,
8,It was serendipitous because he was an investment analyst for a group on campus and he had been talking with other members of this venture capital group about making a new investment. ,1,1,None,,,,,,0,8,8,8,,,,,0,4,4,4,,,,,,,,,,,,,,,,,,,9,9.07017417300085,,,,,,,,,,,,,,,,,,050419_p1,001,2019_May_04_1353,body_behavioural_mayedit,3.0.4,60.00930444189581,
8,"His financial group had come to a decision that morning about Alma’s idea, and he didn't want to wait until after class to discuss the proposal with her. ",1,1,None,,,,,,0,8,8,8,,,,,0,5,5,5,,,,,,,,,,,,,,,,,,,1,2.453246026998386,,,,,,,,,,,,,,,,,,050419_p1,001,2019_May_04_1353,body_behavioural_mayedit,3.0.4,60.00930444189581,
8,The class was in a medium-sized auditorium which was brightly lit and very modern-looking. ,1,1,None,,,,,,0,8,8,8,,,,,0,6,6,6,,,,,,,,,,,,,,,,,,,1,1.4693915770039894,,,,,,,,,,,,,,,,,,050419_p1,001,2019_May_04_1353,body_behavioural_mayedit,3.0.4,60.00930444189581,
8,There were three projector screens and tables for each row of the audience which had power outlets and USB ports. ,1,1,None,,,,,,0,8,8,8,,,,,0,7,7,7,,,,,,,,,,,,,,,,,,,9,2.68643680299283,,,,,,,,,,,,,,,,,,050419_p1,001,2019_May_04_1353,body_behavioural_mayedit,3.0.4,60.00930444189581,
8,“Here we are at Lecture Seven already in Archaeology of Rome” said the professor. ,2,1,None,,,,,,0,8,8,8,,,,,0,8,8,8,,,,,,,,,,,,,,,,,,,1,3.0034344230080023,,,,,,,,,,,,,,,,,,050419_p1,001,2019_May_04_1353,body_behavioural_mayedit,3.0.4,60.00930444189581,
8,"“We're going to talk today about Augustus, an incredibly important influence in Roman architecture.” ",2,1,None,,,,,,0,8,8,8,,,,,0,9,9,9,,,,,,,,,,,,,,,,,,,9,4.669964444998186,,,,,,,,,,,,,,,,,,050419_p1,001,2019_May_04_1353,body_behavioural_mayedit,3.0.4,60.00930444189581,
8,"She went into some recap of the last lecture, and Charlie took this as an opportunity to start talking to Alma.",2,1,None,,,,,,0,8,8,8,,,,,0,10,10,10,,,,,,,,,,,,,,,,,,,1,2.2533944099996006,,,,,,,,,,,,,,,,,,050419_p1,001,2019_May_04_1353,body_behavioural_mayedit,3.0.4,60.00930444189581,
8,"“Okay so I’ve been thinking about your startup idea, and I have talked about it with my fellow investors.",2,2,None,,,,,,0,8,8,8,,,,,0,11,11,11,,,,,,,,,,,,,,,,,,,1,1.2021240860049147,,,,,,,,,,,,,,,,,,050419_p1,001,2019_May_04_1353,body_behavioural_mayedit,3.0.4,60.00930444189581,
8,We’d like to invest half of what you originally suggested.,2,2,None,,,,,,0,8,8,8,,,,,0,12,12,12,,,,,,,,,,,,,,,,,,,1,1.2861960380105302,,,,,,,,,,,,,,,,,,050419_p1,001,2019_May_04_1353,body_behavioural_mayedit,3.0.4,60.00930444189581,
8,"So we propose we start with wiring $28,000.",2,2,None,,,,,,0,8,8,8,,,,,0,13,13,13,,,,,,,,,,,,,,,,,,,1,2.952817650002544,,,,,,,,,,,,,,,,,,050419_p1,001,2019_May_04_1353,body_behavioural_mayedit,3.0.4,60.00930444189581,
8,We would see how the company does and then invest the other half later.” ,2,2,None,,,,,,0,8,8,8,,,,,0,14,14,14,,,,,,,,,,,,,,,,,,,1,1.6197608450020198,,,,,,,,,,,,,,,,,,050419_p1,001,2019_May_04_1353,body_behavioural_mayedit,3.0.4,60.00930444189581,
8,"Alma, tapping her pen on her notebook, narrowed her eyes and pursed her lips.",2,2,None,,,,,,0,8,8,8,,,,,0,15,15,15,,,,,,,,,,,,,,,,,,,9,1.7861116950080032,,,,,,,,,,,,,,,,,,050419_p1,001,2019_May_04_1353,body_behavioural_mayedit,3.0.4,60.00930444189581,
8,She turned back to the lecture as she considered this.,2,2,None,,,,,,0,8,8,8,,,,,0,16,16,16,,,,,,,,,,,,,,,,,,,1,1.16982634300075,,,,,,,,,,,,,,,,,,050419_p1,001,2019_May_04_1353,body_behavioural_mayedit,3.0.4,60.00930444189581,
8,"The professor was going on: “The senate had conferred upon him the title of Augustus the sacred and revered one, the restorer of traditional values, the city’s new religious leader, the restorer of temples. ",3,2,None,,,,,,0,8,8,8,,,,,0,17,17,17,,,,,,,,,,,,,,,,,,,1,4.986624605007819,,,,,,,,,,,,,,,,,,050419_p1,001,2019_May_04_1353,body_behavioural_mayedit,3.0.4,60.00930444189581,
8,"Augustus also sought to beautify Rome, make it into a new Athens, and dispel the criticisms of Rome as disorganized and ugly.”",3,2,None,,,,,,0,8,8,8,,,,,0,18,18,18,,,,,,,,,,,,,,,,,,,1,5.5195784350071335,,,,,,,,,,,,,,,,,,050419_p1,001,2019_May_04_1353,body_behavioural_mayedit,3.0.4,60.00930444189581,
8,"Alma turned back to Charlie and offered her rebuttal, “I don’t know about that: it’s not going to be possible to implement our ideas effectively unless the project is fully funded. ",3,3,None,,,,,,0,8,8,8,,,,,0,19,19,19,,,,,,,,,,,,,,,,,,,9,4.069844546989771,,,,,,,,,,,,,,,,,,050419_p1,001,2019_May_04_1353,body_behavioural_mayedit,3.0.4,60.00930444189581,
8,"We would have to find other investors like your competitor on campus, Churchill Capital Group, and that would set us back in our timeline. ",3,3,None,,,,,,0,8,8,8,,,,,0,20,20,20,,,,,,,,,,,,,,,,,,,1,6.320449357997859,,,,,,,,,,,,,,,,,,050419_p1,001,2019_May_04_1353,body_behavioural_mayedit,3.0.4,60.00930444189581,
8,"Our profit projections assumed we'd be starting relatively soon, not months down the line.” ",3,3,None,,,,,,0,8,8,8,,,,,0,21,21,21,,,,,,,,,,,,,,,,,,,1,7.270191193005303,,,,,,,,,,,,,,,,,,050419_p1,001,2019_May_04_1353,body_behavioural_mayedit,3.0.4,60.00930444189581,
