count,storyText,locationEvent,socialEvent,story,locationEventSize,socialEventSize,instructText,trials.thisRepN,trials.thisTrialN,trials.thisN,trials.thisIndex,trials_7.thisRepN,trials_7.thisTrialN,trials_7.thisN,trials_7.thisIndex,trials_2.thisRepN,trials_2.thisTrialN,trials_2.thisN,trials_2.thisIndex,trials_3.thisRepN,trials_3.thisTrialN,trials_3.thisN,trials_3.thisIndex,trials_4.thisRepN,trials_4.thisTrialN,trials_4.thisN,trials_4.thisIndex,trials_5.thisRepN,trials_5.thisTrialN,trials_5.thisN,trials_5.thisIndex,trials_6.thisRepN,trials_6.thisTrialN,trials_6.thisN,trials_6.thisIndex,trials_8.thisRepN,trials_8.thisTrialN,trials_8.thisN,trials_8.thisIndex,order of stories,order of perspectives,key_resp_8.keys,key_resp_8.rt,key_resp_5.keys,key_resp_5.rt,key_resp_7.keys,key_resp_7.rt,key_resp_15.keys,key_resp_15.rt,key_resp_14.keys,key_resp_14.rt,story_presses.keys,story_presses.rt,story time,key_resp_6.keys,key_resp_6.rt,key_resp_2.keys,key_resp_2.rt,key_resp_10.keys,key_resp_10.rt,recall time,key_resp_12.keys,key_resp_12.rt,key_resp_3.keys,key_resp_3.rt,key_resp_11.keys,key_resp_11.rt,recall,question1_answer,order of question,question2_answer,question3_answer,question4_answer,question5_answer,question6_answer,question7_answer,question8_answer,questions time,key_resp_13.keys,key_resp_13.rt,participant,session,date,expName,psychopyVersion,frameRate,
0,,,,,,,,0,0,0,0,0,0,0,0,,,,,,,,,,,,,,,,,,,,,,,,,[41 12 23 34 43 32 21 14],"['Social' 'Location' 'Social' 'Location' 'Location' 'Social' 'Location'
 'Social']",space,10.540011187000346,space,1.853663363999658,space,2.669837434999863,,,,,,,,,,,,,,,,,,,,,,,,,,,,,,,,,,061919_p1,001,2019_Jun_19_1736,body_behavioural,3.0.4,59.96791117095183,
0,,,,,,,,0,0,0,0,1,0,1,0,,,,,,,,,,,,,,,,,,,,,,,,,,,,,,,space,2.635922959999334,,,,,,,,,,,,,,,,,,,,,,,,,,,,,,,,,,061919_p1,001,2019_Jun_19_1736,body_behavioural,3.0.4,59.96791117095183,
0,,,,,,,,0,0,0,0,2,0,2,0,,,,,,,,,,,,,,,,,,,,,,,,,,,,,,,space,1.5026710600004662,,,,,,,,,,,,,,,,,,,,,,,,,,,,,,,,,,061919_p1,001,2019_Jun_19_1736,body_behavioural,3.0.4,59.96791117095183,
0,,,,,,,,0,0,0,0,3,0,3,0,,,,,,,,,,,,,,,,,,,,,,,,,,,,,,,space,0.6026264750007613,,,,,,,,,,,,,,,,,,,,,,,,,,,,,,,,,,061919_p1,001,2019_Jun_19_1736,body_behavioural,3.0.4,59.96791117095183,
0,"James noticed Teresa immediately as she walked into the restaurant - or, more accurately, as she attempted to walk into the restaurant. ",1,1,41.0,,,,0,0,0,0,,,,,0,0,0,0,,,,,,,,,,,,,,,,,,,,,,,,,,,,,space,2.134177769999951,space,1.8530027349997908,1,11.904102719999173,,,,,,,,,,,,,,,,,,,,,,,,,,,,061919_p1,001,2019_Jun_19_1736,body_behavioural,3.0.4,59.96791117095183,
0,She was typing intently on her phone and ran straight into the restaurant’s glass door with a painful thud. ,1,1,None,,,,0,0,0,0,,,,,0,1,1,1,,,,,,,,,,,,,,,,,,,,,,,,,,,,,,,,,9,9.353708085000108,,,,,,,,,,,,,,,,,,,,,,,,,,,,061919_p1,001,2019_Jun_19_1736,body_behavioural,3.0.4,59.96791117095183,
0,Everyone waiting around the cash register turned.,1,1,None,,,,0,0,0,0,,,,,0,2,2,2,,,,,,,,,,,,,,,,,,,,,,,,,,,,,,,,,9,7.403829300000325,,,,,,,,,,,,,,,,,,,,,,,,,,,,061919_p1,001,2019_Jun_19_1736,body_behavioural,3.0.4,59.96791117095183,
0,Teresa rubbed her head and put her phone away. ,1,1,None,,,,0,0,0,0,,,,,0,3,3,3,,,,,,,,,,,,,,,,,,,,,,,,,,,,,,,,,1,9.202934717999597,,,,,,,,,,,,,,,,,,,,,,,,,,,,061919_p1,001,2019_Jun_19_1736,body_behavioural,3.0.4,59.96791117095183,
0,She looked somewhat confused but primarily indignant that the door had been in her way. ,1,1,None,,,,0,0,0,0,,,,,0,4,4,4,,,,,,,,,,,,,,,,,,,,,,,,,,,,,,,,,1,3.1870701260004353,,,,,,,,,,,,,,,,,,,,,,,,,,,,061919_p1,001,2019_Jun_19_1736,body_behavioural,3.0.4,59.96791117095183,
0,"James found this quite charming and stole a couple glances at her, peeking up from the newspaper he was holding, until she noticed and wrinkled her eyebrows at him. ",1,1,None,,,,0,0,0,0,,,,,0,5,5,5,,,,,,,,,,,,,,,,,,,,,,,,,,,,,,,,,1,4.103291705000629,,,,,,,,,,,,,,,,,,,,,,,,,,,,061919_p1,001,2019_Jun_19_1736,body_behavioural,3.0.4,59.96791117095183,
0,James and Teresa had both chosen the least busy time to try out Atlanta’s newest sushi restaurant.  ,1,1,None,,,,0,0,0,0,,,,,0,6,6,6,,,,,,,,,,,,,,,,,,,,,,,,,,,,,,,,,9,5.703305497000656,,,,,,,,,,,,,,,,,,,,,,,,,,,,061919_p1,001,2019_Jun_19_1736,body_behavioural,3.0.4,59.96791117095183,
0,It was notable for both the food and the decor. ,1,1,None,,,,0,0,0,0,,,,,0,7,7,7,,,,,,,,,,,,,,,,,,,,,,,,,,,,,,,,,9,2.236895860000004,,,,,,,,,,,,,,,,,,,,,,,,,,,,061919_p1,001,2019_Jun_19_1736,body_behavioural,3.0.4,59.96791117095183,
0,"There were pine wood countertops and chairs, plants all along the sides of the walls, and branch-looking structures hanging from the ceiling. ",1,1,None,,,,0,0,0,0,,,,,0,8,8,8,,,,,,,,,,,,,,,,,,,,,,,,,,,,,,,,,1,5.402999824999824,,,,,,,,,,,,,,,,,,,,,,,,,,,,061919_p1,001,2019_Jun_19_1736,body_behavioural,3.0.4,59.96791117095183,
0,"The host sat James and Teresa, who were both dining alone, at the bar. ",2,1,None,,,,0,0,0,0,,,,,0,9,9,9,,,,,,,,,,,,,,,,,,,,,,,,,,,,,,,,,1,4.252747501999693,,,,,,,,,,,,,,,,,,,,,,,,,,,,061919_p1,001,2019_Jun_19_1736,body_behavioural,3.0.4,59.96791117095183,
0,They sat a seat apart from each other on the bench.,2,1,None,,,,0,0,0,0,,,,,0,10,10,10,,,,,,,,,,,,,,,,,,,,,,,,,,,,,,,,,1,2.48700527300025,,,,,,,,,,,,,,,,,,,,,,,,,,,,061919_p1,001,2019_Jun_19_1736,body_behavioural,3.0.4,59.96791117095183,
0,"The waitress behind the counter gave them bright neon menus that were filled with entrees in Japanese with small, English translations. ",2,1,None,,,,0,0,0,0,,,,,0,11,11,11,,,,,,,,,,,,,,,,,,,,,,,,,,,,,,,,,1,2.6697967700001755,,,,,,,,,,,,,,,,,,,,,,,,,,,,061919_p1,001,2019_Jun_19_1736,body_behavioural,3.0.4,59.96791117095183,
0,James quickly glanced through it while Teresa took a longer time. ,2,1,None,,,,0,0,0,0,,,,,0,12,12,12,,,,,,,,,,,,,,,,,,,,,,,,,,,,,,,,,1,1.6197834449994843,,,,,,,,,,,,,,,,,,,,,,,,,,,,061919_p1,001,2019_Jun_19_1736,body_behavioural,3.0.4,59.96791117095183,
0,"A few minutes passed before, James turned to Teresa and asked, “Is your forehead alright?”",2,2,None,,,,0,0,0,0,,,,,0,13,13,13,,,,,,,,,,,,,,,,,,,,,,,,,,,,,,,,,1,3.269760839999435,,,,,,,,,,,,,,,,,,,,,,,,,,,,061919_p1,001,2019_Jun_19_1736,body_behavioural,3.0.4,59.96791117095183,
0,She turned to him and smirked.,2,2,None,,,,0,0,0,0,,,,,0,14,14,14,,,,,,,,,,,,,,,,,,,,,,,,,,,,,,,,,1,1.9861513650002962,,,,,,,,,,,,,,,,,,,,,,,,,,,,061919_p1,001,2019_Jun_19_1736,body_behavioural,3.0.4,59.96791117095183,
0,“Have you ever been stung by a scorpion?” she asked him.,2,2,None,,,,0,0,0,0,,,,,0,15,15,15,,,,,,,,,,,,,,,,,,,,,,,,,,,,,,,,,1,1.9530346150004334,,,,,,,,,,,,,,,,,,,,,,,,,,,,061919_p1,001,2019_Jun_19_1736,body_behavioural,3.0.4,59.96791117095183,
0,“What?” he responded confusedly.,2,2,None,,,,0,0,0,0,,,,,0,16,16,16,,,,,,,,,,,,,,,,,,,,,,,,,,,,,,,,,1,3.3338729019997118,,,,,,,,,,,,,,,,,,,,,,,,,,,,061919_p1,001,2019_Jun_19_1736,body_behavioural,3.0.4,59.96791117095183,
0, “A scorpion.”,2,2,None,,,,0,0,0,0,,,,,0,17,17,17,,,,,,,,,,,,,,,,,,,,,,,,,,,,,,,,,1,1.069929330999912,,,,,,,,,,,,,,,,,,,,,,,,,,,,061919_p1,001,2019_Jun_19_1736,body_behavioural,3.0.4,59.96791117095183,
0,James began to worry that Teresa had possibly suffered a concussion in the door crash.,2,2,None,,,,0,0,0,0,,,,,0,18,18,18,,,,,,,,,,,,,,,,,,,,,,,,,,,,,,,,,1,5.48699431300065,,,,,,,,,,,,,,,,,,,,,,,,,,,,061919_p1,001,2019_Jun_19_1736,body_behavioural,3.0.4,59.96791117095183,
0,"“Uh no, why?” he asked.",2,2,None,,,,0,0,0,0,,,,,0,19,19,19,,,,,,,,,,,,,,,,,,,,,,,,,,,,,,,,,1,6.001043715000378,,,,,,,,,,,,,,,,,,,,,,,,,,,,061919_p1,001,2019_Jun_19_1736,body_behavioural,3.0.4,59.96791117095183,
0,"“Because I’ve been stung by one, and since then, things like bumping into doors seem like pretty small potatoes.” ",2,2,None,,,,0,0,0,0,,,,,0,20,20,20,,,,,,,,,,,,,,,,,,,,,,,,,,,,,,,,,1,5.236777295000138,,,,,,,,,,,,,,,,,,,,,,,,,,,,061919_p1,001,2019_Jun_19_1736,body_behavioural,3.0.4,59.96791117095183,
0,"They carried on talking, and Teresa told him all about her encounter with a Deathstalker scorpion while she was studying abroad in Egypt.",2,2,None,,,,0,0,0,0,,,,,0,21,21,21,,,,,,,,,,,,,,,,,,,,,,,,,,,,,,,,,1,4.6865904400001455,,,,,,,,,,,,,,,,,,,,,,,,,,,,061919_p1,001,2019_Jun_19_1736,body_behavioural,3.0.4,59.96791117095183,
0,"The waitress behind the counter came up to them and asked, “Are you ready for your order?” ",3,2,None,,,,0,0,0,0,,,,,0,22,22,22,,,,,,,,,,,,,,,,,,,,,,,,,,,,,,,,,9,3.3865368450005917,,,,,,,,,,,,,,,,,,,,,,,,,,,,061919_p1,001,2019_Jun_19_1736,body_behavioural,3.0.4,59.96791117095183,
0,"She first looked at Teresa who answered, “Yes, I’ll have a salmon roll and a Japanese beer.”",3,2,None,,,,0,0,0,0,,,,,0,23,23,23,,,,,,,,,,,,,,,,,,,,,,,,,,,,,,,,,1,2.3533391120008673,,,,,,,,,,,,,,,,,,,,,,,,,,,,061919_p1,001,2019_Jun_19_1736,body_behavioural,3.0.4,59.96791117095183,
0,Then the waitress turned to James.,3,2,None,,,,0,0,0,0,,,,,0,24,24,24,,,,,,,,,,,,,,,,,,,,,,,,,,,,,,,,,1,1.8007512720005252,,,,,,,,,,,,,,,,,,,,,,,,,,,,061919_p1,001,2019_Jun_19_1736,body_behavioural,3.0.4,59.96791117095183,
0,"He said, “I’ll have a tuna roll and a vegetable roll.” ",3,2,None,,,,0,0,0,0,,,,,0,25,25,25,,,,,,,,,,,,,,,,,,,,,,,,,,,,,,,,,1,1.4697350699998424,,,,,,,,,,,,,,,,,,,,,,,,,,,,061919_p1,001,2019_Jun_19_1736,body_behavioural,3.0.4,59.96791117095183,
0,"“Alright, thank you!” the waitress said.",3,2,None,,,,0,0,0,0,,,,,0,26,26,26,,,,,,,,,,,,,,,,,,,,,,,,,,,,,,,,,9,2.253057158000047,,,,,,,,,,,,,,,,,,,,,,,,,,,,061919_p1,001,2019_Jun_19_1736,body_behavioural,3.0.4,59.96791117095183,
0,"James and Teresa talked about a concert James was going to that night, and he suddenly and nervously invited her to come along.",3,3,None,,,,0,0,0,0,,,,,0,27,27,27,,,,,,,,,,,,,,,,,,,,,,,,,,,,,,,,,1,2.2527530000006664,,,,,,,,,,,,,,,,,,,,,,,,,,,,061919_p1,001,2019_Jun_19_1736,body_behavioural,3.0.4,59.96791117095183,
0,He promised her that the concert would be indoors and absolutely free of venomous insects.,3,3,None,,,,0,0,0,0,,,,,0,28,28,28,,,,,,,,,,,,,,,,,,,,,,,,,,,,,,,,,1,2.3338584650000485,,,,,,,,,,,,,,,,,,,,,,,,,,,,061919_p1,001,2019_Jun_19_1736,body_behavioural,3.0.4,59.96791117095183,
0,"Teresa agreed, gave him her number, and they worked out that James would pick her up that evening before the concert and drive them there.",3,3,None,,,,0,0,0,0,,,,,0,29,29,29,,,,,,,,,,,,,,,,,,,,,,,,,,,,,,,,,9,4.417567157000121,,,,,,,,,,,,,,,,,,,,,,,,,,,,061919_p1,001,2019_Jun_19_1736,body_behavioural,3.0.4,59.96791117095183,
0,"This was not what they had expected from their solitary lunch plans and were both excited, even though Teresa was doing a much better job of hiding it than James. ",3,3,None,,,,0,0,0,0,,,,,0,30,30,30,,,,,,,,,,,,,,,,,,,,,,,,,,,,,,,,,9,6.1199429670004974,,,,,,,,,,,,,,,,,,,,,,,,,,,,061919_p1,001,2019_Jun_19_1736,body_behavioural,3.0.4,59.96791117095183,
0,"The waitress brought out their food, placing the plates close to each other so James had to sit closer to Teresa on the bench. ",4,3,None,,,,0,0,0,0,,,,,0,31,31,31,,,,,,,,,,,,,,,,,,,,,,,,,,,,,,,,,1,1.9362667350005722,,,,,,,,,,,,,,,,,,,,,,,,,,,,061919_p1,001,2019_Jun_19_1736,body_behavioural,3.0.4,59.96791117095183,
0,Teresa was happy to share the meal with James. ,4,3,None,,,,0,0,0,0,,,,,0,32,32,32,,,,,,,,,,,,,,,,,,,,,,,,,,,,,,,,,9,1.7361158130006515,,,,,,,,,,,,,,,,,,,,,,,,,,,,061919_p1,001,2019_Jun_19_1736,body_behavioural,3.0.4,59.96791117095183,
0,They really enjoyed their rolls because the fish tasted very fresh. ,4,3,None,,,,0,0,0,0,,,,,0,33,33,33,,,,,,,,,,,,,,,,,,,,,,,,,,,,,,,,,9,1.6199499419999484,,,,,,,,,,,,,,,,,,,,,,,,,,,,061919_p1,001,2019_Jun_19_1736,body_behavioural,3.0.4,59.96791117095183,
0,"James looked at his watch and seeing that it was 3pm said, “I have to run- got to finish some errands before the show.”",4,4,None,,,,0,0,0,0,,,,,0,34,34,34,,,,,,,,,,,,,,,,,,,,,,,,,,,,,,,,,1,3.6531301019995226,,,,,,,,,,,,,,,,,,,,,,,,,,,,061919_p1,001,2019_Jun_19_1736,body_behavioural,3.0.4,59.96791117095183,
0,See you tonight and watch out for that door!”,4,4,None,,,,0,0,0,0,,,,,0,35,35,35,,,,,,,,,,,,,,,,,,,,,,,,,,,,,,,,,9,2.8698877420001736,,,,,,,,,,,,,,,,,,,,,,,,,,,,061919_p1,001,2019_Jun_19_1736,body_behavioural,3.0.4,59.96791117095183,
0,,,,,,,,0,0,0,0,,,,,,,,,,,,,,,,,,,,,,,,,,,,,,,,,,,,,,,,,,,,,,,,,,,,,,,,,,,,,,,,,,,,,,061919_p1,001,2019_Jun_19_1736,body_behavioural,3.0.4,59.96791117095183,
1,,,,,,,,0,1,1,1,0,0,0,0,,,,,,,,,,,,,,,,,,,,,,,,,,,space,2.503221492999728,space,1.0529472070002157,space,1.9030779770000663,,,,,,,,,,,,,,,,,,,,,,,,,,,,,,,,,,061919_p1,001,2019_Jun_19_1736,body_behavioural,3.0.4,59.96791117095183,
1,,,,,,,,0,1,1,1,1,0,1,0,,,,,,,,,,,,,,,,,,,,,,,,,,,,,,,space,0.4694872749996648,,,,,,,,,,,,,,,,,,,,,,,,,,,,,,,,,,061919_p1,001,2019_Jun_19_1736,body_behavioural,3.0.4,59.96791117095183,
1,,,,,,,,0,1,1,1,2,0,2,0,,,,,,,,,,,,,,,,,,,,,,,,,,,,,,,space,0.5528705099995932,,,,,,,,,,,,,,,,,,,,,,,,,,,,,,,,,,061919_p1,001,2019_Jun_19_1736,body_behavioural,3.0.4,59.96791117095183,
1,"It didn’t help the situation that Calvin and Jessie were running late to the airport, since Jessie had already been fuming at Calvin and preparing to end the relationship with him.",1,1,12.0,,,,0,1,1,1,,,,,0,0,0,0,,,,,,,,,,,,,,,,,,,,,,,,,,,,,space,0.819203727999593,space,1.2507179350004662,9,5.03670913499991,,,,,,,,,,,,,,,,,,,,,,,,,,,,061919_p1,001,2019_Jun_19_1736,body_behavioural,3.0.4,59.96791117095183,
1,"Upon arriving at their terminal, they had only 45 minutes until their international flight would depart from Jamaica for the US.",1,1,None,,,,0,1,1,1,,,,,0,1,1,1,,,,,,,,,,,,,,,,,,,,,,,,,,,,,,,,,1,4.603344580000339,,,,,,,,,,,,,,,,,,,,,,,,,,,,061919_p1,001,2019_Jun_19_1736,body_behavioural,3.0.4,59.96791117095183,
1,"It had been a tough vacation, which was planned well before Jessie began to think of breaking up 6 weeks ago.  ",1,1,None,,,,0,1,1,1,,,,,0,2,2,2,,,,,,,,,,,,,,,,,,,,,,,,,,,,,,,,,1,3.2365234050002982,,,,,,,,,,,,,,,,,,,,,,,,,,,,061919_p1,001,2019_Jun_19_1736,body_behavioural,3.0.4,59.96791117095183,
1,"Calvin knew that Jessie was upset, but wasn't sure what to do besides attempt to carry on as normal.",1,1,None,,,,0,1,1,1,,,,,0,3,3,3,,,,,,,,,,,,,,,,,,,,,,,,,,,,,,,,,1,4.069991440000194,,,,,,,,,,,,,,,,,,,,,,,,,,,,061919_p1,001,2019_Jun_19_1736,body_behavioural,3.0.4,59.96791117095183,
1,"The security line was very short, and once the online boarding passes were scanned, Calvin took off his belt and watch, and they put their bags on the conveyor belt.",2,1,None,,,,0,1,1,1,,,,,0,4,4,4,,,,,,,,,,,,,,,,,,,,,,,,,,,,,,,,,1,8.920268324999597,,,,,,,,,,,,,,,,,,,,,,,,,,,,061919_p1,001,2019_Jun_19_1736,body_behavioural,3.0.4,59.96791117095183,
1,"There was a short halt in security proceedings so that the security guards could change shifts, but, once everything was back in order, they were ushered quickly through the metal detector. ",2,1,None,,,,0,1,1,1,,,,,0,5,5,5,,,,,,,,,,,,,,,,,,,,,,,,,,,,,,,,,1,6.453414935000183,,,,,,,,,,,,,,,,,,,,,,,,,,,,061919_p1,001,2019_Jun_19_1736,body_behavioural,3.0.4,59.96791117095183,
1,"“The infrastructure of this airport is really quite poor," said Calvin as they waited for their bags to emerge from the x-ray machine.",2,1,None,,,,0,1,1,1,,,,,0,6,6,6,,,,,,,,,,,,,,,,,,,,,,,,,,,,,,,,,1,3.987311074999525,,,,,,,,,,,,,,,,,,,,,,,,,,,,061919_p1,001,2019_Jun_19_1736,body_behavioural,3.0.4,59.96791117095183,
1,“I could've hidden something in my shoes quite easily.” ,2,1,None,,,,0,1,1,1,,,,,0,7,7,7,,,,,,,,,,,,,,,,,,,,,,,,,,,,,,,,,1,6.336495698000363,,,,,,,,,,,,,,,,,,,,,,,,,,,,061919_p1,001,2019_Jun_19_1736,body_behavioural,3.0.4,59.96791117095183,
1,"Jessie, exasperated, scowled at the conveyor belt.",2,1,None,,,,0,1,1,1,,,,,0,8,8,8,,,,,,,,,,,,,,,,,,,,,,,,,,,,,,,,,1,3.436563424999804,,,,,,,,,,,,,,,,,,,,,,,,,,,,061919_p1,001,2019_Jun_19_1736,body_behavioural,3.0.4,59.96791117095183,
1,“What?” he asked.,2,1,None,,,,0,1,1,1,,,,,0,9,9,9,,,,,,,,,,,,,,,,,,,,,,,,,,,,,,,,,1,1.402683270000125,,,,,,,,,,,,,,,,,,,,,,,,,,,,061919_p1,001,2019_Jun_19_1736,body_behavioural,3.0.4,59.96791117095183,
1,"Balling up her fists and turning to him angrily, she said, “Calvin, I really don’t think I can do this anymore because I don’t think our personalities are compatible. ",2,2,None,,,,0,1,1,1,,,,,0,10,10,10,,,,,,,,,,,,,,,,,,,,,,,,,,,,,,,,,9,5.586891420000029,,,,,,,,,,,,,,,,,,,,,,,,,,,,061919_p1,001,2019_Jun_19_1736,body_behavioural,3.0.4,59.96791117095183,
1,I think it’s best that once we get to the States we part ways for good.” ,2,2,None,,,,0,1,1,1,,,,,0,11,11,11,,,,,,,,,,,,,,,,,,,,,,,,,,,,,,,,,1,4.967600517000392,,,,,,,,,,,,,,,,,,,,,,,,,,,,061919_p1,001,2019_Jun_19_1736,body_behavioural,3.0.4,59.96791117095183,
1,Calvin said nothing as he grabbed his bag.,3,2,None,,,,0,1,1,1,,,,,0,12,12,12,,,,,,,,,,,,,,,,,,,,,,,,,,,,,,,,,1,1.3364864920004038,,,,,,,,,,,,,,,,,,,,,,,,,,,,061919_p1,001,2019_Jun_19_1736,body_behavioural,3.0.4,59.96791117095183,
1,Jessie trailed behind him as they hurried their way quickly toward gate A28.,3,2,None,,,,0,1,1,1,,,,,0,13,13,13,,,,,,,,,,,,,,,,,,,,,,,,,,,,,,,,,1,3.816805211999963,,,,,,,,,,,,,,,,,,,,,,,,,,,,061919_p1,001,2019_Jun_19_1736,body_behavioural,3.0.4,59.96791117095183,
1,“So now you have nothing to say?” Jessie said. ,3,2,None,,,,0,1,1,1,,,,,0,14,14,14,,,,,,,,,,,,,,,,,,,,,,,,,,,,,,,,,1,1.6533603930001846,,,,,,,,,,,,,,,,,,,,,,,,,,,,061919_p1,001,2019_Jun_19_1736,body_behavioural,3.0.4,59.96791117095183,
1,"Calvin didn't answer, gritting his teeth and staring straight ahead. ",3,2,None,,,,0,1,1,1,,,,,0,15,15,15,,,,,,,,,,,,,,,,,,,,,,,,,,,,,,,,,1,1.6696974420001425,,,,,,,,,,,,,,,,,,,,,,,,,,,,061919_p1,001,2019_Jun_19_1736,body_behavioural,3.0.4,59.96791117095183,
1,"He was very frustrated that he felt he had been trying to appease Jessie for the entirety of the vacation, and it seemed to be completed unappreciated. ",3,2,None,,,,0,1,1,1,,,,,0,16,16,16,,,,,,,,,,,,,,,,,,,,,,,,,,,,,,,,,1,5.219551809999757,,,,,,,,,,,,,,,,,,,,,,,,,,,,061919_p1,001,2019_Jun_19_1736,body_behavioural,3.0.4,59.96791117095183,
1,"Their silence was punctuated only by the rapid, rhythmic clacking of their suitcase wheels over the tile floor as they continued power-walking through the terminal. ",3,2,None,,,,0,1,1,1,,,,,0,17,17,17,,,,,,,,,,,,,,,,,,,,,,,,,,,,,,,,,1,2.4862525120006467,,,,,,,,,,,,,,,,,,,,,,,,,,,,061919_p1,001,2019_Jun_19_1736,body_behavioural,3.0.4,59.96791117095183,
1,"Calvin finally turned to address her as they continued walking: “Jessie, this makes perfect sense. ",3,3,None,,,,0,1,1,1,,,,,0,18,18,18,,,,,,,,,,,,,,,,,,,,,,,,,,,,,,,,,1,4.41933416000029,,,,,,,,,,,,,,,,,,,,,,,,,,,,061919_p1,001,2019_Jun_19_1736,body_behavioural,3.0.4,59.96791117095183,
1,"If you feel this way, then I think we should break up because I don’t want to keep boring you.",3,3,None,,,,0,1,1,1,,,,,0,19,19,19,,,,,,,,,,,,,,,,,,,,,,,,,,,,,,,,,1,1.3673893670002144,,,,,,,,,,,,,,,,,,,,,,,,,,,,061919_p1,001,2019_Jun_19_1736,body_behavioural,3.0.4,59.96791117095183,
1,"I agree, let’s part ways once we make it back.",3,3,None,,,,0,1,1,1,,,,,0,20,20,20,,,,,,,,,,,,,,,,,,,,,,,,,,,,,,,,,1,1.2029488220005078,,,,,,,,,,,,,,,,,,,,,,,,,,,,061919_p1,001,2019_Jun_19_1736,body_behavioural,3.0.4,59.96791117095183,
1,You should’ve spoken up about my apparent intolerability before you decided to plan this vacation.”,3,3,None,,,,0,1,1,1,,,,,0,21,21,21,,,,,,,,,,,,,,,,,,,,,,,,,,,,,,,,,1,2.700884750000114,,,,,,,,,,,,,,,,,,,,,,,,,,,,061919_p1,001,2019_Jun_19_1736,body_behavioural,3.0.4,59.96791117095183,
1,"He was very hurt, even though he didn’t want to show it. ",3,3,None,,,,0,1,1,1,,,,,0,22,22,22,,,,,,,,,,,,,,,,,,,,,,,,,,,,,,,,,9,1.9520651949997045,,,,,,,,,,,,,,,,,,,,,,,,,,,,061919_p1,001,2019_Jun_19_1736,body_behavioural,3.0.4,59.96791117095183,
1,"Having made it to their gate, they scanned their tickets, and the annoyed flight attendant shooed them onto the jet bridge and then closed the plane door behind them.",4,3,None,,,,0,1,1,1,,,,,0,23,23,23,,,,,,,,,,,,,,,,,,,,,,,,,,,,,,,,,9,2.069969780000065,,,,,,,,,,,,,,,,,,,,,,,,,,,,061919_p1,001,2019_Jun_19_1736,body_behavioural,3.0.4,59.96791117095183,
1,"Luckily, they had forgotten to arrange seats next to each other on the flight back.",4,3,None,,,,0,1,1,1,,,,,0,24,24,24,,,,,,,,,,,,,,,,,,,,,,,,,,,,,,,,,9,2.6532379020000008,,,,,,,,,,,,,,,,,,,,,,,,,,,,061919_p1,001,2019_Jun_19_1736,body_behavioural,3.0.4,59.96791117095183,
1,"They were both in economy, but Jessie was headed for seat 33A while Calvin's seat was 33F. ",4,3,None,,,,0,1,1,1,,,,,0,25,25,25,,,,,,,,,,,,,,,,,,,,,,,,,,,,,,,,,9,2.236442905000331,,,,,,,,,,,,,,,,,,,,,,,,,,,,061919_p1,001,2019_Jun_19_1736,body_behavioural,3.0.4,59.96791117095183,
1,"Before Jessie sat down, she took a deep breath, calmed her emotions, and then awkwardly shook Calvin’s hand, mumbling, “Have a nice flight. ",4,4,None,,,,0,1,1,1,,,,,0,26,26,26,,,,,,,,,,,,,,,,,,,,,,,,,,,,,,,,,9,4.319696439999461,,,,,,,,,,,,,,,,,,,,,,,,,,,,061919_p1,001,2019_Jun_19_1736,body_behavioural,3.0.4,59.96791117095183,
1,"Oh, and when you get a chance, could you send me back all the philosophy books I lent you?”",4,4,None,,,,0,1,1,1,,,,,0,27,27,27,,,,,,,,,,,,,,,,,,,,,,,,,,,,,,,,,1,2.719849119999708,,,,,,,,,,,,,,,,,,,,,,,,,,,,061919_p1,001,2019_Jun_19_1736,body_behavioural,3.0.4,59.96791117095183,
1,He laughed in disbelief and walked to his window seat three rows back to get ready for takeoff.,4,4,None,,,,0,1,1,1,,,,,0,28,28,28,,,,,,,,,,,,,,,,,,,,,,,,,,,,,,,,,1,2.7030824499997834,,,,,,,,,,,,,,,,,,,,,,,,,,,,061919_p1,001,2019_Jun_19_1736,body_behavioural,3.0.4,59.96791117095183,
1,Both were upset but glad that they would have this flight in solitude.,4,4,None,,,,0,1,1,1,,,,,0,29,29,29,,,,,,,,,,,,,,,,,,,,,,,,,,,,,,,,,1,2.1864370519997465,,,,,,,,,,,,,,,,,,,,,,,,,,,,061919_p1,001,2019_Jun_19_1736,body_behavioural,3.0.4,59.96791117095183,
1,,,,,,,,0,1,1,1,,,,,,,,,,,,,,,,,,,,,,,,,,,,,,,,,,,,,,,,,,,,,,,,,,,,,,,,,,,,,,,,,,,,,,061919_p1,001,2019_Jun_19_1736,body_behavioural,3.0.4,59.96791117095183,
2,,,,,,,,0,2,2,2,0,0,0,0,,,,,,,,,,,,,,,,,,,,,,,,,,,space,1.8697150469997723,space,0.6867824749997453,space,0.6836374550002802,,,,,,,,,,,,,,,,,,,,,,,,,,,,,,,,,,061919_p1,001,2019_Jun_19_1736,body_behavioural,3.0.4,59.96791117095183,
2,"Alex was a distracted, sweaty mess as he walked into the grocery store with Chloe; he was hoping that she wouldn't suspect that he was about to propose.",1,1,23.0,,,,0,2,2,2,,,,,0,0,0,0,,,,,,,,,,,,,,,,,,,,,,,,,,,,,space,5.936657332000323,space,2.3193495600007736,9,9.885006718000113,,,,,,,,,,,,,,,,,,,,,,,,,,,,061919_p1,001,2019_Jun_19_1736,body_behavioural,3.0.4,59.96791117095183,
2,The grocery store was brightly lit with sunshine pouring in through glass walls at the front of the store.,1,1,None,,,,0,2,2,2,,,,,0,1,1,1,,,,,,,,,,,,,,,,,,,,,,,,,,,,,,,,,1,7.453196415999628,,,,,,,,,,,,,,,,,,,,,,,,,,,,061919_p1,001,2019_Jun_19_1736,body_behavioural,3.0.4,59.96791117095183,
2,Also in the front area were large posters advertising thanksgiving promotions.,1,1,None,,,,0,2,2,2,,,,,0,2,2,2,,,,,,,,,,,,,,,,,,,,,,,,,,,,,,,,,1,2.603139989999363,,,,,,,,,,,,,,,,,,,,,,,,,,,,061919_p1,001,2019_Jun_19_1736,body_behavioural,3.0.4,59.96791117095183,
2,"The store was buzzing with activity because the next day was Thanksgiving, and most shoppers had carts piled high with turkey, stuffing, and pies.",1,1,None,,,,0,2,2,2,,,,,0,3,3,3,,,,,,,,,,,,,,,,,,,,,,,,,,,,,,,,,1,3.419727342999977,,,,,,,,,,,,,,,,,,,,,,,,,,,,061919_p1,001,2019_Jun_19_1736,body_behavioural,3.0.4,59.96791117095183,
2,Alex wanted to propose here because he knew Chloe would be wonderfully surprised. ,1,1,None,,,,0,2,2,2,,,,,0,4,4,4,,,,,,,,,,,,,,,,,,,,,,,,,,,,,,,,,9,2.4695018519996665,,,,,,,,,,,,,,,,,,,,,,,,,,,,061919_p1,001,2019_Jun_19_1736,body_behavioural,3.0.4,59.96791117095183,
2,"After 23 months of dating, Alex knew one of the things Chloe loved most was surprises. ",1,1,None,,,,0,2,2,2,,,,,0,5,5,5,,,,,,,,,,,,,,,,,,,,,,,,,,,,,,,,,1,4.76974535699992,,,,,,,,,,,,,,,,,,,,,,,,,,,,061919_p1,001,2019_Jun_19_1736,body_behavioural,3.0.4,59.96791117095183,
2,"Chloe perused the canned goods aisle, and said, “Alex, we need a couple things.”",2,1,None,,,,0,2,2,2,,,,,0,6,6,6,,,,,,,,,,,,,,,,,,,,,,,,,,,,,,,,,1,1.5191433259997211,,,,,,,,,,,,,,,,,,,,,,,,,,,,061919_p1,001,2019_Jun_19_1736,body_behavioural,3.0.4,59.96791117095183,
2,"He didn’t hear her and was fanning himself, and Chloe asked him if he was okay.",2,1,None,,,,0,2,2,2,,,,,0,7,7,7,,,,,,,,,,,,,,,,,,,,,,,,,,,,,,,,,1,1.8870191720006915,,,,,,,,,,,,,,,,,,,,,,,,,,,,061919_p1,001,2019_Jun_19_1736,body_behavioural,3.0.4,59.96791117095183,
2,"“Oh yeah, for sure,” he said, unconvincingly. ",2,1,None,,,,0,2,2,2,,,,,0,8,8,8,,,,,,,,,,,,,,,,,,,,,,,,,,,,,,,,,1,1.0530583670006308,,,,,,,,,,,,,,,,,,,,,,,,,,,,061919_p1,001,2019_Jun_19_1736,body_behavioural,3.0.4,59.96791117095183,
2,"She chuckled, “Alright, whatever you say.” ",2,1,None,,,,0,2,2,2,,,,,0,9,9,9,,,,,,,,,,,,,,,,,,,,,,,,,,,,,,,,,1,1.6030413600001339,,,,,,,,,,,,,,,,,,,,,,,,,,,,061919_p1,001,2019_Jun_19_1736,body_behavioural,3.0.4,59.96791117095183,
2,"She had a can of pumpkin puree and a bottle of vinegar picked out, and she was now mulling over the different cans of cranberry sauce.",2,1,None,,,,0,2,2,2,,,,,0,10,10,10,,,,,,,,,,,,,,,,,,,,,,,,,,,,,,,,,1,3.500962946999607,,,,,,,,,,,,,,,,,,,,,,,,,,,,061919_p1,001,2019_Jun_19_1736,body_behavioural,3.0.4,59.96791117095183,
2,"Alex was guessing she would be a while, and he turned his back to her and pulled out the ring to look at it one more time. ",2,2,None,,,,0,2,2,2,,,,,0,11,11,11,,,,,,,,,,,,,,,,,,,,,,,,,,,,,,,,,1,16.23758127200017,,,,,,,,,,,,,,,,,,,,,,,,,,,,061919_p1,001,2019_Jun_19_1736,body_behavioural,3.0.4,59.96791117095183,
2,The ring a thin band with one white diamond that glittered excessively in the light. ,2,2,None,,,,0,2,2,2,,,,,0,12,12,12,,,,,,,,,,,,,,,,,,,,,,,,,,,,,,,,,9,4.751203925000482,,,,,,,,,,,,,,,,,,,,,,,,,,,,061919_p1,001,2019_Jun_19_1736,body_behavioural,3.0.4,59.96791117095183,
2,“Do we need anything else?” she called out to him. ,2,2,None,,,,0,2,2,2,,,,,0,13,13,13,,,,,,,,,,,,,,,,,,,,,,,,,,,,,,,,,1,3.819864671999312,,,,,,,,,,,,,,,,,,,,,,,,,,,,061919_p1,001,2019_Jun_19_1736,body_behavioural,3.0.4,59.96791117095183,
2,"“Yeah I don’t know, honey,” he said back, still looking at the ring. ",2,2,None,,,,0,2,2,2,,,,,0,14,14,14,,,,,,,,,,,,,,,,,,,,,,,,,,,,,,,,,1,3.8029731270007687,,,,,,,,,,,,,,,,,,,,,,,,,,,,061919_p1,001,2019_Jun_19_1736,body_behavioural,3.0.4,59.96791117095183,
2,"In the checkout area, there were 5 aisles open and they stepped in line for station 3. ",3,2,None,,,,0,2,2,2,,,,,0,15,15,15,,,,,,,,,,,,,,,,,,,,,,,,,,,,,,,,,1,3.3533859980007037,,,,,,,,,,,,,,,,,,,,,,,,,,,,061919_p1,001,2019_Jun_19_1736,body_behavioural,3.0.4,59.96791117095183,
2,Alex was staring intensely off into the distance for most of the time and fidgeting with his wallet. ,3,2,None,,,,0,2,2,2,,,,,0,16,16,16,,,,,,,,,,,,,,,,,,,,,,,,,,,,,,,,,1,2.8031034569994517,,,,,,,,,,,,,,,,,,,,,,,,,,,,061919_p1,001,2019_Jun_19_1736,body_behavioural,3.0.4,59.96791117095183,
2,"Chloe watched him trying to decide whether he looked scared or confused, and shrugged, pulling out her phone since she figured he’d talk about whatever was on his mind when he was ready. ",3,2,None,,,,0,2,2,2,,,,,0,17,17,17,,,,,,,,,,,,,,,,,,,,,,,,,,,,,,,,,9,6.720066720000432,,,,,,,,,,,,,,,,,,,,,,,,,,,,061919_p1,001,2019_Jun_19_1736,body_behavioural,3.0.4,59.96791117095183,
2,Alex looked over at their friends who were waiting by the entrance of the grocery store.,3,2,None,,,,0,2,2,2,,,,,0,18,18,18,,,,,,,,,,,,,,,,,,,,,,,,,,,,,,,,,1,3.036512159999802,,,,,,,,,,,,,,,,,,,,,,,,,,,,061919_p1,001,2019_Jun_19_1736,body_behavioural,3.0.4,59.96791117095183,
2,They walked over slowly. ,3,2,None,,,,0,2,2,2,,,,,0,19,19,19,,,,,,,,,,,,,,,,,,,,,,,,,,,,,,,,,1,2.45279120000032,,,,,,,,,,,,,,,,,,,,,,,,,,,,061919_p1,001,2019_Jun_19_1736,body_behavioural,3.0.4,59.96791117095183,
2,"Seemingly out of nowhere, Alex took Chloe’s hand and he got down on one knee. ",3,3,None,,,,0,2,2,2,,,,,0,20,20,20,,,,,,,,,,,,,,,,,,,,,,,,,,,,,,,,,1,3.119873910000024,,,,,,,,,,,,,,,,,,,,,,,,,,,,061919_p1,001,2019_Jun_19_1736,body_behavioural,3.0.4,59.96791117095183,
2,Chloe gasped,3,3,None,,,,0,2,2,2,,,,,0,21,21,21,,,,,,,,,,,,,,,,,,,,,,,,,,,,,,,,,1,2.153329912999652,,,,,,,,,,,,,,,,,,,,,,,,,,,,061919_p1,001,2019_Jun_19_1736,body_behavioural,3.0.4,59.96791117095183,
2,"“Chloe, I love you so much and I want to be with you forever, I can’t imagine a day without you.”",3,3,None,,,,0,2,2,2,,,,,0,22,22,22,,,,,,,,,,,,,,,,,,,,,,,,,,,,,,,,,1,1.8866770049999104,,,,,,,,,,,,,,,,,,,,,,,,,,,,061919_p1,001,2019_Jun_19_1736,body_behavioural,3.0.4,59.96791117095183,
2,"“Alex, me too,” she replied.",3,3,None,,,,0,2,2,2,,,,,0,23,23,23,,,,,,,,,,,,,,,,,,,,,,,,,,,,,,,,,1,0.9027270070000668,,,,,,,,,,,,,,,,,,,,,,,,,,,,061919_p1,001,2019_Jun_19_1736,body_behavioural,3.0.4,59.96791117095183,
2,"The ring was in the crevice of his wallet, and he opened it.",3,3,None,,,,0,2,2,2,,,,,0,24,24,24,,,,,,,,,,,,,,,,,,,,,,,,,,,,,,,,,1,3.1531596519998857,,,,,,,,,,,,,,,,,,,,,,,,,,,,061919_p1,001,2019_Jun_19_1736,body_behavioural,3.0.4,59.96791117095183,
2,“Will you marry me?”,3,3,None,,,,0,2,2,2,,,,,0,25,25,25,,,,,,,,,,,,,,,,,,,,,,,,,,,,,,,,,1,0.6029552650006735,,,,,,,,,,,,,,,,,,,,,,,,,,,,061919_p1,001,2019_Jun_19_1736,body_behavioural,3.0.4,59.96791117095183,
2,"The people in line around them realized what was happening, stepped back, and started taking pictures.",3,3,None,,,,0,2,2,2,,,,,0,26,26,26,,,,,,,,,,,,,,,,,,,,,,,,,,,,,,,,,1,2.150728703000823,,,,,,,,,,,,,,,,,,,,,,,,,,,,061919_p1,001,2019_Jun_19_1736,body_behavioural,3.0.4,59.96791117095183,
2,Their friends were no longer trying to hide and were videotaping and taking pictures too. ,3,3,None,,,,0,2,2,2,,,,,0,27,27,27,,,,,,,,,,,,,,,,,,,,,,,,,,,,,,,,,1,2.503173094999511,,,,,,,,,,,,,,,,,,,,,,,,,,,,061919_p1,001,2019_Jun_19_1736,body_behavioural,3.0.4,59.96791117095183,
2,"After a few moments of suspense she shouted,“Yes!”, and she jumped to embrace Alex in a hug. ",3,4,None,,,,0,2,2,2,,,,,0,28,28,28,,,,,,,,,,,,,,,,,,,,,,,,,,,,,,,,,1,2.4032776299991383,,,,,,,,,,,,,,,,,,,,,,,,,,,,061919_p1,001,2019_Jun_19_1736,body_behavioural,3.0.4,59.96791117095183,
2,Everyone in line clapped and cheered. ,3,4,None,,,,0,2,2,2,,,,,0,29,29,29,,,,,,,,,,,,,,,,,,,,,,,,,,,,,,,,,1,0.8028229680003278,,,,,,,,,,,,,,,,,,,,,,,,,,,,061919_p1,001,2019_Jun_19_1736,body_behavioural,3.0.4,59.96791117095183,
2,"Alex put the ring on Chloe’s finger, who was nearly spinning in excitement.",3,4,None,,,,0,2,2,2,,,,,0,30,30,30,,,,,,,,,,,,,,,,,,,,,,,,,,,,,,,,,1,2.2871196500000224,,,,,,,,,,,,,,,,,,,,,,,,,,,,061919_p1,001,2019_Jun_19_1736,body_behavioural,3.0.4,59.96791117095183,
2,“I love it!,3,4,None,,,,0,2,2,2,,,,,0,31,31,31,,,,,,,,,,,,,,,,,,,,,,,,,,,,,,,,,1,0.8674037729997508,,,,,,,,,,,,,,,,,,,,,,,,,,,,061919_p1,001,2019_Jun_19_1736,body_behavioural,3.0.4,59.96791117095183,
2,Oh my- it’s so glittery!,3,4,None,,,,0,2,2,2,,,,,0,32,32,32,,,,,,,,,,,,,,,,,,,,,,,,,,,,,,,,,1,0.9840604820001317,,,,,,,,,,,,,,,,,,,,,,,,,,,,061919_p1,001,2019_Jun_19_1736,body_behavioural,3.0.4,59.96791117095183,
2,Look at this!” she said as she shoved her hand in a stranger’s face.,3,4,None,,,,0,2,2,2,,,,,0,33,33,33,,,,,,,,,,,,,,,,,,,,,,,,,,,,,,,,,1,4.953389822000645,,,,,,,,,,,,,,,,,,,,,,,,,,,,061919_p1,001,2019_Jun_19_1736,body_behavioural,3.0.4,59.96791117095183,
2,Their friends came over and hugged them.,3,4,None,,,,0,2,2,2,,,,,0,34,34,34,,,,,,,,,,,,,,,,,,,,,,,,,,,,,,,,,1,0.7860064119995513,,,,,,,,,,,,,,,,,,,,,,,,,,,,061919_p1,001,2019_Jun_19_1736,body_behavioural,3.0.4,59.96791117095183,
2,The other people let them move up to the front of the checkout line. ,3,4,None,,,,0,2,2,2,,,,,0,35,35,35,,,,,,,,,,,,,,,,,,,,,,,,,,,,,,,,,1,1.0698061669991148,,,,,,,,,,,,,,,,,,,,,,,,,,,,061919_p1,001,2019_Jun_19_1736,body_behavioural,3.0.4,59.96791117095183,
2,Chloe immediately texted her mom a picture of her hand. ,3,4,None,,,,0,2,2,2,,,,,0,36,36,36,,,,,,,,,,,,,,,,,,,,,,,,,,,,,,,,,9,4.017626500000006,,,,,,,,,,,,,,,,,,,,,,,,,,,,061919_p1,001,2019_Jun_19_1736,body_behavioural,3.0.4,59.96791117095183,
2,The cashier congratulated them and scanned their groceries. ,4,4,None,,,,0,2,2,2,,,,,0,37,37,37,,,,,,,,,,,,,,,,,,,,,,,,,,,,,,,,,1,5.653333257000668,,,,,,,,,,,,,,,,,,,,,,,,,,,,061919_p1,001,2019_Jun_19_1736,body_behavioural,3.0.4,59.96791117095183,
2,The total came to $14 and Alex paid in cash while Chloe greeted their friends.,4,4,None,,,,0,2,2,2,,,,,0,38,38,38,,,,,,,,,,,,,,,,,,,,,,,,,,,,,,,,,9,1.7361246119999123,,,,,,,,,,,,,,,,,,,,,,,,,,,,061919_p1,001,2019_Jun_19_1736,body_behavioural,3.0.4,59.96791117095183,
2,"Alex grabbed the bags, and they all walked out together working out where they’d go to celebrate.  ",4,4,None,,,,0,2,2,2,,,,,0,39,39,39,,,,,,,,,,,,,,,,,,,,,,,,,,,,,,,,,9,2.503093947000707,,,,,,,,,,,,,,,,,,,,,,,,,,,,061919_p1,001,2019_Jun_19_1736,body_behavioural,3.0.4,59.96791117095183,
2,,,,,,,,0,2,2,2,,,,,,,,,,,,,,,,,,,,,,,,,,,,,,,,,,,,,,,,,,,,,,,,,,,,,,,,,,,,,,,,,,,,,,061919_p1,001,2019_Jun_19_1736,body_behavioural,3.0.4,59.96791117095183,
3,,,,,,,,0,3,3,3,0,0,0,0,,,,,,,,,,,,,,,,,,,,,,,,,,,space,1.2687256099998194,space,0.8529988869995577,space,0.5529689869999856,,,,,,,,,,,,,,,,,,,,,,,,,,,,,,,,,,061919_p1,001,2019_Jun_19_1736,body_behavioural,3.0.4,59.96791117095183,
3,"Charlie saw Alma as they walked into class, and he motioned for her to come sit in the back next to him because they had a deal to discuss.",1,1,34.0,,,,0,3,3,3,,,,,0,0,0,0,,,,,,,,,,,,,,,,,,,,,,,,,,,,,space,0.7507686270000704,space,0.8362466370008406,1,6.7370709899996655,,,,,,,,,,,,,,,,,,,,,,,,,,,,061919_p1,001,2019_Jun_19_1736,body_behavioural,3.0.4,59.96791117095183,
3,Charlie and Alma were both history majors with entrepreneurial bents.,1,1,None,,,,0,3,3,3,,,,,0,1,1,1,,,,,,,,,,,,,,,,,,,,,,,,,,,,,,,,,1,4.336339417999625,,,,,,,,,,,,,,,,,,,,,,,,,,,,061919_p1,001,2019_Jun_19_1736,body_behavioural,3.0.4,59.96791117095183,
3,They were also both very busy and happened to be in the same class.,1,1,None,,,,0,3,3,3,,,,,0,2,2,2,,,,,,,,,,,,,,,,,,,,,,,,,,,,,,,,,1,4.153464279999753,,,,,,,,,,,,,,,,,,,,,,,,,,,,061919_p1,001,2019_Jun_19_1736,body_behavioural,3.0.4,59.96791117095183,
3,"After talking at a party, Charlie had discovered that Alma was looking for financing for her web development company of which she was the founder and CEO.",1,1,None,,,,0,3,3,3,,,,,0,3,3,3,,,,,,,,,,,,,,,,,,,,,,,,,,,,,,,,,9,3.7534873849999713,,,,,,,,,,,,,,,,,,,,,,,,,,,,061919_p1,001,2019_Jun_19_1736,body_behavioural,3.0.4,59.96791117095183,
3,It was serendipitous because he was an investment analyst for a student finance group on campus and he had been talking with other members of the group about making a new investment. ,1,1,None,,,,0,3,3,3,,,,,0,4,4,4,,,,,,,,,,,,,,,,,,,,,,,,,,,,,,,,,1,4.619913815000473,,,,,,,,,,,,,,,,,,,,,,,,,,,,061919_p1,001,2019_Jun_19_1736,body_behavioural,3.0.4,59.96791117095183,
3,"His financial group had come to a decision that morning about Alma’s startup, and he didn't want to wait until after class to discuss the proposal with her. ",1,1,None,,,,0,3,3,3,,,,,0,5,5,5,,,,,,,,,,,,,,,,,,,,,,,,,,,,,,,,,1,4.236520991999896,,,,,,,,,,,,,,,,,,,,,,,,,,,,061919_p1,001,2019_Jun_19_1736,body_behavioural,3.0.4,59.96791117095183,
3,The class was in a medium-sized auditorium which was brightly lit and very modern-looking. ,1,1,None,,,,0,3,3,3,,,,,0,6,6,6,,,,,,,,,,,,,,,,,,,,,,,,,,,,,,,,,9,1.517282091999732,,,,,,,,,,,,,,,,,,,,,,,,,,,,061919_p1,001,2019_Jun_19_1736,body_behavioural,3.0.4,59.96791117095183,
3,There were three projector screens in the front and each row of the audience had a table with power outlets and USB ports. ,1,1,None,,,,0,3,3,3,,,,,0,7,7,7,,,,,,,,,,,,,,,,,,,,,,,,,,,,,,,,,1,3.3363954369997373,,,,,,,,,,,,,,,,,,,,,,,,,,,,061919_p1,001,2019_Jun_19_1736,body_behavioural,3.0.4,59.96791117095183,
3,“Here we are at Lecture Seven of Archaeology of Rome” said the professor. ,2,1,None,,,,0,3,3,3,,,,,0,8,8,8,,,,,,,,,,,,,,,,,,,,,,,,,,,,,,,,,9,3.8698872069999197,,,,,,,,,,,,,,,,,,,,,,,,,,,,061919_p1,001,2019_Jun_19_1736,body_behavioural,3.0.4,59.96791117095183,
3,"“The topic for today is Augustus, an incredibly important influence in Roman architecture.” ",2,1,None,,,,0,3,3,3,,,,,0,9,9,9,,,,,,,,,,,,,,,,,,,,,,,,,,,,,,,,,1,1.5193657270001495,,,,,,,,,,,,,,,,,,,,,,,,,,,,061919_p1,001,2019_Jun_19_1736,body_behavioural,3.0.4,59.96791117095183,
3,She went into some recap of the last lecture.,2,1,None,,,,0,3,3,3,,,,,0,10,10,10,,,,,,,,,,,,,,,,,,,,,,,,,,,,,,,,,9,2.886605536999923,,,,,,,,,,,,,,,,,,,,,,,,,,,,061919_p1,001,2019_Jun_19_1736,body_behavioural,3.0.4,59.96791117095183,
3,"Charlie turned to Alma and said, “Okay, so I’ve been thinking about your startup, and I have talked about it with my fellow investors.",2,2,None,,,,0,3,3,3,,,,,0,11,11,11,,,,,,,,,,,,,,,,,,,,,,,,,,,,,,,,,1,3.485129648000111,,,,,,,,,,,,,,,,,,,,,,,,,,,,061919_p1,001,2019_Jun_19_1736,body_behavioural,3.0.4,59.96791117095183,
3,We’d like to invest half of what you originally suggested.,2,2,None,,,,0,3,3,3,,,,,0,12,12,12,,,,,,,,,,,,,,,,,,,,,,,,,,,,,,,,,1,2.7203620450000017,,,,,,,,,,,,,,,,,,,,,,,,,,,,061919_p1,001,2019_Jun_19_1736,body_behavioural,3.0.4,59.96791117095183,
3,"So we propose we start with wiring you $28,000.",2,2,None,,,,0,3,3,3,,,,,0,13,13,13,,,,,,,,,,,,,,,,,,,,,,,,,,,,,,,,,9,3.836590361999697,,,,,,,,,,,,,,,,,,,,,,,,,,,,061919_p1,001,2019_Jun_19_1736,body_behavioural,3.0.4,59.96791117095183,
3,We would see how the company does and then invest the other half later.” ,2,2,None,,,,0,3,3,3,,,,,0,14,14,14,,,,,,,,,,,,,,,,,,,,,,,,,,,,,,,,,9,4.303323121999711,,,,,,,,,,,,,,,,,,,,,,,,,,,,061919_p1,001,2019_Jun_19_1736,body_behavioural,3.0.4,59.96791117095183,
3,"The professor said, “The senate had conferred upon him the title of Augustus the sacred and revered one, the restorer of traditional values, the city’s new religious leader, the restorer of temples. ",3,2,None,,,,0,3,3,3,,,,,0,15,15,15,,,,,,,,,,,,,,,,,,,,,,,,,,,,,,,,,9,2.719643188000191,,,,,,,,,,,,,,,,,,,,,,,,,,,,061919_p1,001,2019_Jun_19_1736,body_behavioural,3.0.4,59.96791117095183,
3,"Augustus also sought to beautify Rome, make it into a new Athens, and dispel the criticisms of Rome as disorganized and ugly.”",3,2,None,,,,0,3,3,3,,,,,0,16,16,16,,,,,,,,,,,,,,,,,,,,,,,,,,,,,,,,,1,1.4034187999995993,,,,,,,,,,,,,,,,,,,,,,,,,,,,061919_p1,001,2019_Jun_19_1736,body_behavioural,3.0.4,59.96791117095183,
3,"Alma turned to Charlie and offered her rebuttal, “I don’t know about that.",3,3,None,,,,0,3,3,3,,,,,0,17,17,17,,,,,,,,,,,,,,,,,,,,,,,,,,,,,,,,,1,3.7031986299998607,,,,,,,,,,,,,,,,,,,,,,,,,,,,061919_p1,001,2019_Jun_19_1736,body_behavioural,3.0.4,59.96791117095183,
3,It’s not going to be possible to implement our ideas effectively unless the project is fully funded. ,3,3,None,,,,0,3,3,3,,,,,0,18,18,18,,,,,,,,,,,,,,,,,,,,,,,,,,,,,,,,,1,2.353041967000536,,,,,,,,,,,,,,,,,,,,,,,,,,,,061919_p1,001,2019_Jun_19_1736,body_behavioural,3.0.4,59.96791117095183,
3,"We would have to find other investors like your competitor on campus, Churchill Capital Group, and that would set us back in our timeline. ",3,3,None,,,,0,3,3,3,,,,,0,19,19,19,,,,,,,,,,,,,,,,,,,,,,,,,,,,,,,,,1,3.519822854999802,,,,,,,,,,,,,,,,,,,,,,,,,,,,061919_p1,001,2019_Jun_19_1736,body_behavioural,3.0.4,59.96791117095183,
3,"Our profit projections assumed we'd be starting relatively soon, not months down the line.” ",3,3,None,,,,0,3,3,3,,,,,0,20,20,20,,,,,,,,,,,,,,,,,,,,,,,,,,,,,,,,,1,2.3530606200001785,,,,,,,,,,,,,,,,,,,,,,,,,,,,061919_p1,001,2019_Jun_19_1736,body_behavioural,3.0.4,59.96791117095183,
3,They whispered back and forth during the entire class working out a compromise. ,3,3,None,,,,0,3,3,3,,,,,0,21,21,21,,,,,,,,,,,,,,,,,,,,,,,,,,,,,,,,,1,2.2705558320003547,,,,,,,,,,,,,,,,,,,,,,,,,,,,061919_p1,001,2019_Jun_19_1736,body_behavioural,3.0.4,59.96791117095183,
3,The professor dismissed the students with a reminder that the midterm paper was due on Thursday and that they should email their papers to the TA.,4,3,None,,,,0,3,3,3,,,,,0,22,22,22,,,,,,,,,,,,,,,,,,,,,,,,,,,,,,,,,9,4.602209184999992,,,,,,,,,,,,,,,,,,,,,,,,,,,,061919_p1,001,2019_Jun_19_1736,body_behavioural,3.0.4,59.96791117095183,
3,"Everyone, except Charlie and Alma, packed up their things and headed out of the lecture hall. ",4,3,None,,,,0,3,3,3,,,,,0,23,23,23,,,,,,,,,,,,,,,,,,,,,,,,,,,,,,,,,9,4.503182356999787,,,,,,,,,,,,,,,,,,,,,,,,,,,,061919_p1,001,2019_Jun_19_1736,body_behavioural,3.0.4,59.96791117095183,
3,"“Alright, so we’ll have the $30,000 wired to you by tomorrow,” Charlie said. ",4,4,None,,,,0,3,3,3,,,,,0,24,24,24,,,,,,,,,,,,,,,,,,,,,,,,,,,,,,,,,1,1.9841557219997412,,,,,,,,,,,,,,,,,,,,,,,,,,,,061919_p1,001,2019_Jun_19_1736,body_behavioural,3.0.4,59.96791117095183,
3,"This wasn't ideal for Charlie, but Alma had refused to budge, and his investment group had told him they were willing to pay the full amount if necessary. ",4,4,None,,,,0,3,3,3,,,,,0,25,25,25,,,,,,,,,,,,,,,,,,,,,,,,,,,,,,,,,1,7.519984370000202,,,,,,,,,,,,,,,,,,,,,,,,,,,,061919_p1,001,2019_Jun_19_1736,body_behavioural,3.0.4,59.96791117095183,
3,They hugged in confirmation of the deal and made plans to sign the official paperwork the next day. ,4,4,None,,,,0,3,3,3,,,,,0,26,26,26,,,,,,,,,,,,,,,,,,,,,,,,,,,,,,,,,9,5.669830134999756,,,,,,,,,,,,,,,,,,,,,,,,,,,,061919_p1,001,2019_Jun_19_1736,body_behavioural,3.0.4,59.96791117095183,
3,,,,,,,,0,3,3,3,,,,,,,,,,,,,,,,,,,,,,,,,,,,,,,,,,,,,,,,,,,,,,,,,,,,,,,,,,,,,,,,,,,,,,061919_p1,001,2019_Jun_19_1736,body_behavioural,3.0.4,59.96791117095183,
4,,,,,,,,0,4,4,4,0,0,0,0,,,,,,,,,,,,,,,,,,,,,,,,,,,space,1.6528125300001193,space,0.5866342749995965,space,0.8530106369998975,,,,,,,,,,,,,,,,,,,,,,,,,,,,,,,,,,061919_p1,001,2019_Jun_19_1736,body_behavioural,3.0.4,59.96791117095183,
4,"Carina and Simon, both distracted in thought, nearly ran into each other as they walked into the grocery store. ",1,1,43.0,,,,0,4,4,4,,,,,0,0,0,0,,,,,,,,,,,,,,,,,,,,,,,,,,,,,space,0.052763155000320694,space,1.7341182100008155,9,7.036907294999764,,,,,,,,,,,,,,,,,,,,,,,,,,,,061919_p1,001,2019_Jun_19_1736,body_behavioural,3.0.4,59.96791117095183,
4,She nearly dropped the keys she was holding. ,1,1,None,,,,0,4,4,4,,,,,0,1,1,1,,,,,,,,,,,,,,,,,,,,,,,,,,,,,,,,,1,2.919882084999699,,,,,,,,,,,,,,,,,,,,,,,,,,,,061919_p1,001,2019_Jun_19_1736,body_behavioural,3.0.4,59.96791117095183,
4,"The store they had entered looked like a warehouse, with high, black ceilings, industrial lights, and large packages of food. ",1,1,None,,,,0,4,4,4,,,,,0,2,2,2,,,,,,,,,,,,,,,,,,,,,,,,,,,,,,,,,9,4.219530090000262,,,,,,,,,,,,,,,,,,,,,,,,,,,,061919_p1,001,2019_Jun_19_1736,body_behavioural,3.0.4,59.96791117095183,
4,"In the meat section, Carina and Simon were looking over the same cuts of meat, because they were both preparing for barbecues.",2,1,None,,,,0,4,4,4,,,,,0,3,3,3,,,,,,,,,,,,,,,,,,,,,,,,,,,,,,,,,1,3.619634039999255,,,,,,,,,,,,,,,,,,,,,,,,,,,,061919_p1,001,2019_Jun_19_1736,body_behavioural,3.0.4,59.96791117095183,
4,"Simon had wanted to talk to Carina, and Carina had wanted to say something to Simon, but they felt embarrassed striking up a conversation with a stranger.",2,1,None,,,,0,4,4,4,,,,,0,4,4,4,,,,,,,,,,,,,,,,,,,,,,,,,,,,,,,,,1,2.7193599140000515,,,,,,,,,,,,,,,,,,,,,,,,,,,,061919_p1,001,2019_Jun_19_1736,body_behavioural,3.0.4,59.96791117095183,
4,"Carina mustered the courage, turned to Simon and, pointing at a Cornish hen, asked, “Isn’t this meat cute?”",2,2,None,,,,0,4,4,4,,,,,0,5,5,5,,,,,,,,,,,,,,,,,,,,,,,,,,,,,,,,,9,4.770030434000546,,,,,,,,,,,,,,,,,,,,,,,,,,,,061919_p1,001,2019_Jun_19_1736,body_behavioural,3.0.4,59.96791117095183,
4,"He laughed, and said, “It is very cute.",2,2,None,,,,0,4,4,4,,,,,0,6,6,6,,,,,,,,,,,,,,,,,,,,,,,,,,,,,,,,,1,1.5370505880000565,,,,,,,,,,,,,,,,,,,,,,,,,,,,061919_p1,001,2019_Jun_19_1736,body_behavioural,3.0.4,59.96791117095183,
4,"Probably the younger brother of this guy,” and he picked up a regular-sized chicken.",2,2,None,,,,0,4,4,4,,,,,0,7,7,7,,,,,,,,,,,,,,,,,,,,,,,,,,,,,,,,,1,4.5365043249994415,,,,,,,,,,,,,,,,,,,,,,,,,,,,061919_p1,001,2019_Jun_19_1736,body_behavioural,3.0.4,59.96791117095183,
4,"“Unlucky family,” she responded as she shook her head. ",2,2,None,,,,0,4,4,4,,,,,0,8,8,8,,,,,,,,,,,,,,,,,,,,,,,,,,,,,,,,,1,2.052929545000552,,,,,,,,,,,,,,,,,,,,,,,,,,,,061919_p1,001,2019_Jun_19_1736,body_behavioural,3.0.4,59.96791117095183,
4,They chatted as they picked out a few last-minute groceries.,2,2,None,,,,0,4,4,4,,,,,0,9,9,9,,,,,,,,,,,,,,,,,,,,,,,,,,,,,,,,,1,2.067597664999994,,,,,,,,,,,,,,,,,,,,,,,,,,,,061919_p1,001,2019_Jun_19_1736,body_behavioural,3.0.4,59.96791117095183,
4,"Simon helped Carina select the best ribs and his personal favorite barbecue sauce, and she helped him choose red peppers and spices for a vegetable kabob she recommended.",2,2,None,,,,0,4,4,4,,,,,0,10,10,10,,,,,,,,,,,,,,,,,,,,,,,,,,,,,,,,,1,3.019855497000208,,,,,,,,,,,,,,,,,,,,,,,,,,,,061919_p1,001,2019_Jun_19_1736,body_behavioural,3.0.4,59.96791117095183,
4,"In the checkout area, there were three lines open, and they went to the one labeled “8.”",3,2,None,,,,0,4,4,4,,,,,0,11,11,11,,,,,,,,,,,,,,,,,,,,,,,,,,,,,,,,,1,3.5525972400000683,,,,,,,,,,,,,,,,,,,,,,,,,,,,061919_p1,001,2019_Jun_19_1736,body_behavioural,3.0.4,59.96791117095183,
4,"Carina and Simon made jokes about the magazine covers while waiting in line, and they were laughing so hard their stomachs hurt. ",3,2,None,,,,0,4,4,4,,,,,0,12,12,12,,,,,,,,,,,,,,,,,,,,,,,,,,,,,,,,,1,4.153801542999645,,,,,,,,,,,,,,,,,,,,,,,,,,,,061919_p1,001,2019_Jun_19_1736,body_behavioural,3.0.4,59.96791117095183,
4,"Simon turned to face Carina and, while looking at her straight in the eyes, asked, “Would you like to go out to dinner with me?",3,3,None,,,,0,4,4,4,,,,,0,13,13,13,,,,,,,,,,,,,,,,,,,,,,,,,,,,,,,,,9,2.252990779999891,,,,,,,,,,,,,,,,,,,,,,,,,,,,061919_p1,001,2019_Jun_19_1736,body_behavioural,3.0.4,59.96791117095183,
4,Next Saturday we could tour around Harvard Square and get something to eat.,3,3,None,,,,0,4,4,4,,,,,0,14,14,14,,,,,,,,,,,,,,,,,,,,,,,,,,,,,,,,,1,2.9515636169999198,,,,,,,,,,,,,,,,,,,,,,,,,,,,061919_p1,001,2019_Jun_19_1736,body_behavioural,3.0.4,59.96791117095183,
4,"There are a lot of great places around there, and it’s really nice during the summer.”",3,3,None,,,,0,4,4,4,,,,,0,15,15,15,,,,,,,,,,,,,,,,,,,,,,,,,,,,,,,,,1,1.3868857549996392,,,,,,,,,,,,,,,,,,,,,,,,,,,,061919_p1,001,2019_Jun_19_1736,body_behavioural,3.0.4,59.96791117095183,
4,"Carina smiled, “I’d love to- that sounds great!”",3,3,None,,,,0,4,4,4,,,,,0,16,16,16,,,,,,,,,,,,,,,,,,,,,,,,,,,,,,,,,1,2.636433186999966,,,,,,,,,,,,,,,,,,,,,,,,,,,,061919_p1,001,2019_Jun_19_1736,body_behavioural,3.0.4,59.96791117095183,
4,The cashier scanned Carina’s groceries.,4,3,None,,,,0,4,4,4,,,,,0,17,17,17,,,,,,,,,,,,,,,,,,,,,,,,,,,,,,,,,9,0.9173644049997165,,,,,,,,,,,,,,,,,,,,,,,,,,,,061919_p1,001,2019_Jun_19_1736,body_behavioural,3.0.4,59.96791117095183,
4,"Simon lifted up the divider on the conveyor belt and said to the cashier, “Actually, these are together.",4,3,None,,,,0,4,4,4,,,,,0,18,18,18,,,,,,,,,,,,,,,,,,,,,,,,,,,,,,,,,1,2.3033311930003038,,,,,,,,,,,,,,,,,,,,,,,,,,,,061919_p1,001,2019_Jun_19_1736,body_behavioural,3.0.4,59.96791117095183,
4,"Carina, I’ve got it.",4,3,None,,,,0,4,4,4,,,,,0,19,19,19,,,,,,,,,,,,,,,,,,,,,,,,,,,,,,,,,1,1.6197928669998873,,,,,,,,,,,,,,,,,,,,,,,,,,,,061919_p1,001,2019_Jun_19_1736,body_behavioural,3.0.4,59.96791117095183,
4,This was kind-of a date today.”,4,3,None,,,,0,4,4,4,,,,,0,20,20,20,,,,,,,,,,,,,,,,,,,,,,,,,,,,,,,,,9,3.2341298900000766,,,,,,,,,,,,,,,,,,,,,,,,,,,,061919_p1,001,2019_Jun_19_1736,body_behavioural,3.0.4,59.96791117095183,
4,Carina blushed and laughed; she thought this was ridiculous but also very sweet. ,4,3,None,,,,0,4,4,4,,,,,0,21,21,21,,,,,,,,,,,,,,,,,,,,,,,,,,,,,,,,,1,1.767443380000259,,,,,,,,,,,,,,,,,,,,,,,,,,,,061919_p1,001,2019_Jun_19_1736,body_behavioural,3.0.4,59.96791117095183,
4,"The cashier rolled her eyes when they weren’t looking, and she scanned the rest of his items. ",4,3,None,,,,0,4,4,4,,,,,0,22,22,22,,,,,,,,,,,,,,,,,,,,,,,,,,,,,,,,,1,4.534340679999332,,,,,,,,,,,,,,,,,,,,,,,,,,,,061919_p1,001,2019_Jun_19_1736,body_behavioural,3.0.4,59.96791117095183,
4,"The total came to $52, and he paid with his credit card.",4,3,None,,,,0,4,4,4,,,,,0,23,23,23,,,,,,,,,,,,,,,,,,,,,,,,,,,,,,,,,9,5.803930275000312,,,,,,,,,,,,,,,,,,,,,,,,,,,,061919_p1,001,2019_Jun_19_1736,body_behavioural,3.0.4,59.96791117095183,
4,"Seeing that it was 4:30 PM on her phone, Carina gasped because she realized she was late for her own barbecue. ",4,4,None,,,,0,4,4,4,,,,,0,24,24,24,,,,,,,,,,,,,,,,,,,,,,,,,,,,,,,,,1,3.3528400469995177,,,,,,,,,,,,,,,,,,,,,,,,,,,,061919_p1,001,2019_Jun_19_1736,body_behavioural,3.0.4,59.96791117095183,
4,Carina thanked Simon and took her groceries and ran. ,4,4,None,,,,0,4,4,4,,,,,0,25,25,25,,,,,,,,,,,,,,,,,,,,,,,,,,,,,,,,,1,1.6030917569996745,,,,,,,,,,,,,,,,,,,,,,,,,,,,061919_p1,001,2019_Jun_19_1736,body_behavioural,3.0.4,59.96791117095183,
4,"“I hope her guests aren’t hungry,” the cashier remarked.",4,4,None,,,,0,4,4,4,,,,,0,26,26,26,,,,,,,,,,,,,,,,,,,,,,,,,,,,,,,,,1,3.3204817900004855,,,,,,,,,,,,,,,,,,,,,,,,,,,,061919_p1,001,2019_Jun_19_1736,body_behavioural,3.0.4,59.96791117095183,
4,Simon was thoroughly charmed and barely heard the comment as he watched her go. ,4,4,None,,,,0,4,4,4,,,,,0,27,27,27,,,,,,,,,,,,,,,,,,,,,,,,,,,,,,,,,9,3.58696546200008,,,,,,,,,,,,,,,,,,,,,,,,,,,,061919_p1,001,2019_Jun_19_1736,body_behavioural,3.0.4,59.96791117095183,
4,,,,,,,,0,4,4,4,,,,,,,,,,,,,,,,,,,,,,,,,,,,,,,,,,,,,,,,,,,,,,,,,,,,,,,,,,,,,,,,,,,,,,061919_p1,001,2019_Jun_19_1736,body_behavioural,3.0.4,59.96791117095183,
5,,,,,,,,0,5,5,5,0,0,0,0,,,,,,,,,,,,,,,,,,,,,,,,,,,space,1.3031813229999898,space,1.9508241650000855,space,1.1863830649999727,,,,,,,,,,,,,,,,,,,,,,,,,,,,,,,,,,061919_p1,001,2019_Jun_19_1736,body_behavioural,3.0.4,59.96791117095183,
5,,,,,,,,0,5,5,5,1,0,1,0,,,,,,,,,,,,,,,,,,,,,,,,,,,,,,,space,0.4536307670005044,,,,,,,,,,,,,,,,,,,,,,,,,,,,,,,,,,061919_p1,001,2019_Jun_19_1736,body_behavioural,3.0.4,59.96791117095183,
5,"Jeff, hoping that today would be a pivotal day for his company, had only been waiting inside the entrance of the airport for a few minutes when he saw William and eagerly waved him over. ",1,1,32.0,,,,0,5,5,5,,,,,0,0,0,0,,,,,,,,,,,,,,,,,,,,,,,,,,,,,space,3.6705314790006014,space,1.3195117320001373,9,8.604107389999626,,,,,,,,,,,,,,,,,,,,,,,,,,,,061919_p1,001,2019_Jun_19_1736,body_behavioural,3.0.4,59.96791117095183,
5,William checked his watch and was pleased to see that the two of them had two hours to discuss business before their flights left Boston.,1,1,None,,,,0,5,5,5,,,,,0,1,1,1,,,,,,,,,,,,,,,,,,,,,,,,,,,,,,,,,1,3.634792457000003,,,,,,,,,,,,,,,,,,,,,,,,,,,,061919_p1,001,2019_Jun_19_1736,body_behavioural,3.0.4,59.96791117095183,
5,Jeff and William had met the night before in line for the bathroom at a local bar. ,1,1,None,,,,0,5,5,5,,,,,0,2,2,2,,,,,,,,,,,,,,,,,,,,,,,,,,,,,,,,,1,2.651378098999885,,,,,,,,,,,,,,,,,,,,,,,,,,,,061919_p1,001,2019_Jun_19_1736,body_behavioural,3.0.4,59.96791117095183,
5,Jeff had delivered some surprisingly-detailed complaints to William about the wine selection.,1,1,None,,,,0,5,5,5,,,,,0,3,3,3,,,,,,,,,,,,,,,,,,,,,,,,,,,,,,,,,9,5.36820994000027,,,,,,,,,,,,,,,,,,,,,,,,,,,,061919_p1,001,2019_Jun_19_1736,body_behavioural,3.0.4,59.96791117095183,
5,They quickly learned that they were both in the wine industry: Jeff was a sales associate for wine vineyards in the Northeast and William was a wine buyer for corporate events.,1,1,None,,,,0,5,5,5,,,,,0,4,4,4,,,,,,,,,,,,,,,,,,,,,,,,,,,,,,,,,1,4.052953001999413,,,,,,,,,,,,,,,,,,,,,,,,,,,,061919_p1,001,2019_Jun_19_1736,body_behavioural,3.0.4,59.96791117095183,
5,"Since they both had flights out of Boston at the same time, they had agreed to meet at the airport and talk about doing business together. ",1,1,None,,,,0,5,5,5,,,,,0,5,5,5,,,,,,,,,,,,,,,,,,,,,,,,,,,,,,,,,1,5.571120607000012,,,,,,,,,,,,,,,,,,,,,,,,,,,,061919_p1,001,2019_Jun_19_1736,body_behavioural,3.0.4,59.96791117095183,
5,They waited in line at security.,2,1,None,,,,0,5,5,5,,,,,0,6,6,6,,,,,,,,,,,,,,,,,,,,,,,,,,,,,,,,,9,5.135671914999875,,,,,,,,,,,,,,,,,,,,,,,,,,,,061919_p1,001,2019_Jun_19_1736,body_behavioural,3.0.4,59.96791117095183,
5,"“It’s crazy that we met last night,” William said.",2,1,None,,,,0,5,5,5,,,,,0,7,7,7,,,,,,,,,,,,,,,,,,,,,,,,,,,,,,,,,1,1.502851193999959,,,,,,,,,,,,,,,,,,,,,,,,,,,,061919_p1,001,2019_Jun_19_1736,body_behavioural,3.0.4,59.96791117095183,
5,"“I am flying out right now to meet my boss, and was worried that I was going to show up empty handed without anything to show for the East Coast.” ",2,1,None,,,,0,5,5,5,,,,,0,8,8,8,,,,,,,,,,,,,,,,,,,,,,,,,,,,,,,,,1,5.451604020000559,,,,,,,,,,,,,,,,,,,,,,,,,,,,061919_p1,001,2019_Jun_19_1736,body_behavioural,3.0.4,59.96791117095183,
5,"“I know, what are the chances, right?” Jeff replied.",2,1,None,,,,0,5,5,5,,,,,0,9,9,9,,,,,,,,,,,,,,,,,,,,,,,,,,,,,,,,,1,2.369788084999527,,,,,,,,,,,,,,,,,,,,,,,,,,,,061919_p1,001,2019_Jun_19_1736,body_behavioural,3.0.4,59.96791117095183,
5,"William laughed and said, “I’m glad our complaining can come in handy.”",2,1,None,,,,0,5,5,5,,,,,0,10,10,10,,,,,,,,,,,,,,,,,,,,,,,,,,,,,,,,,1,2.619877066999834,,,,,,,,,,,,,,,,,,,,,,,,,,,,061919_p1,001,2019_Jun_19_1736,body_behavioural,3.0.4,59.96791117095183,
5,"William got focused and, shifting gears, said, “I know this is fast, but I'd like to get right down to business since time is a limiting factor.",2,2,None,,,,0,5,5,5,,,,,0,11,11,11,,,,,,,,,,,,,,,,,,,,,,,,,,,,,,,,,1,5.103453100000479,,,,,,,,,,,,,,,,,,,,,,,,,,,,061919_p1,001,2019_Jun_19_1736,body_behavioural,3.0.4,59.96791117095183,
5,I'd really like to order a couple of sample shipments from you and present them to our clients: I think they’d really love to have some East Coast variety. ,2,2,None,,,,0,5,5,5,,,,,0,12,12,12,,,,,,,,,,,,,,,,,,,,,,,,,,,,,,,,,1,6.386922279999453,,,,,,,,,,,,,,,,,,,,,,,,,,,,061919_p1,001,2019_Jun_19_1736,body_behavioural,3.0.4,59.96791117095183,
5,"Now, typically we expect to get these kinds of samples at a steep discount, at least half-off the label price.",2,2,None,,,,0,5,5,5,,,,,0,13,13,13,,,,,,,,,,,,,,,,,,,,,,,,,,,,,,,,,1,5.336704047000239,,,,,,,,,,,,,,,,,,,,,,,,,,,,061919_p1,001,2019_Jun_19_1736,body_behavioural,3.0.4,59.96791117095183,
5,This small loss is well worth the profit you’d be making if even a single client makes a contract.,2,2,None,,,,0,5,5,5,,,,,0,14,14,14,,,,,,,,,,,,,,,,,,,,,,,,,,,,,,,,,1,4.834284689999549,,,,,,,,,,,,,,,,,,,,,,,,,,,,061919_p1,001,2019_Jun_19_1736,body_behavioural,3.0.4,59.96791117095183,
5,So I propose that you send us 5 barrels of your select wines for $800.”,2,2,None,,,,0,5,5,5,,,,,0,15,15,15,,,,,,,,,,,,,,,,,,,,,,,,,,,,,,,,,1,2.8365424200001144,,,,,,,,,,,,,,,,,,,,,,,,,,,,061919_p1,001,2019_Jun_19_1736,body_behavioural,3.0.4,59.96791117095183,
5,"Before going through the metal detector, there was a pause in the security line to roll out the empty bin cart and roll in a filled one. ",2,2,None,,,,0,5,5,5,,,,,0,16,16,16,,,,,,,,,,,,,,,,,,,,,,,,,,,,,,,,,9,2.767494784999144,,,,,,,,,,,,,,,,,,,,,,,,,,,,061919_p1,001,2019_Jun_19_1736,body_behavioural,3.0.4,59.96791117095183,
5,They placed everything in their bins. ,2,2,None,,,,0,5,5,5,,,,,0,17,17,17,,,,,,,,,,,,,,,,,,,,,,,,,,,,,,,,,1,3.1363153319998673,,,,,,,,,,,,,,,,,,,,,,,,,,,,061919_p1,001,2019_Jun_19_1736,body_behavioural,3.0.4,59.96791117095183,
5,"Jeff mulled over the offer, nodding noncommittally to William's pitch as they proceeded through the metal detector.",2,2,None,,,,0,5,5,5,,,,,0,18,18,18,,,,,,,,,,,,,,,,,,,,,,,,,,,,,,,,,1,5.486696910000319,,,,,,,,,,,,,,,,,,,,,,,,,,,,061919_p1,001,2019_Jun_19_1736,body_behavioural,3.0.4,59.96791117095183,
5,"Having recovered from the security check, they began to walk through the concourse toward Jeff’s gate, B8, and William handed some printed spreadsheets to Jeff.",3,2,None,,,,0,5,5,5,,,,,0,19,19,19,,,,,,,,,,,,,,,,,,,,,,,,,,,,,,,,,9,4.286395855000592,,,,,,,,,,,,,,,,,,,,,,,,,,,,061919_p1,001,2019_Jun_19_1736,body_behavioural,3.0.4,59.96791117095183,
5,"Jeff, weaving through the crowd of travelers, squinted at William's rosy projections of the number of bottles he would purchase in the future.",3,2,None,,,,0,5,5,5,,,,,0,20,20,20,,,,,,,,,,,,,,,,,,,,,,,,,,,,,,,,,1,4.018945619999613,,,,,,,,,,,,,,,,,,,,,,,,,,,,061919_p1,001,2019_Jun_19_1736,body_behavioural,3.0.4,59.96791117095183,
5,"After thinking for a couple minutes and walking past a number of coffee shops that William was eyeing, Jeff said, “I am not sure about this since we’re not coming a corporate vineyard and gambling with sample shipments is the kind of risk we can’t necessarily make. ",3,3,None,,,,0,5,5,5,,,,,0,21,21,21,,,,,,,,,,,,,,,,,,,,,,,,,,,,,,,,,1,4.9362884970005325,,,,,,,,,,,,,,,,,,,,,,,,,,,,061919_p1,001,2019_Jun_19_1736,body_behavioural,3.0.4,59.96791117095183,
5,"These corporate purchases would have to be huge and practically guaranteed, to offset the loss from selling sample shipments at a price like you suggest.”",3,3,None,,,,0,5,5,5,,,,,0,22,22,22,,,,,,,,,,,,,,,,,,,,,,,,,,,,,,,,,1,6.1362482499998805,,,,,,,,,,,,,,,,,,,,,,,,,,,,061919_p1,001,2019_Jun_19_1736,body_behavioural,3.0.4,59.96791117095183,
5,"William decided to tell Jeff that they had made the same offer to their competitor, Yankee Vines, who had refused and that they would make a better offer to Jeff and his company.",3,3,None,,,,0,5,5,5,,,,,0,23,23,23,,,,,,,,,,,,,,,,,,,,,,,,,,,,,,,,,9,7.053476445000342,,,,,,,,,,,,,,,,,,,,,,,,,,,,061919_p1,001,2019_Jun_19_1736,body_behavioural,3.0.4,59.96791117095183,
5,"They walked to the gates very slowly, barely registering the hubbub of the airport.",3,3,None,,,,0,5,5,5,,,,,0,24,24,24,,,,,,,,,,,,,,,,,,,,,,,,,,,,,,,,,1,2.7532463699999425,,,,,,,,,,,,,,,,,,,,,,,,,,,,061919_p1,001,2019_Jun_19_1736,body_behavioural,3.0.4,59.96791117095183,
5,"William and Jeff came to an agreement on a compromise rate on the sample shipment, paying $400 for a $600 shipment of wine sample, and they finalized the deal with a handshake. ",3,4,None,,,,0,5,5,5,,,,,0,25,25,25,,,,,,,,,,,,,,,,,,,,,,,,,,,,,,,,,9,5.803612560000147,,,,,,,,,,,,,,,,,,,,,,,,,,,,061919_p1,001,2019_Jun_19_1736,body_behavioural,3.0.4,59.96791117095183,
5,"“Well, what a tremendous pleasure to do business with you and to have all this work out,” William said.",3,4,None,,,,0,5,5,5,,,,,0,26,26,26,,,,,,,,,,,,,,,,,,,,,,,,,,,,,,,,,1,4.785871785000381,,,,,,,,,,,,,,,,,,,,,,,,,,,,061919_p1,001,2019_Jun_19_1736,body_behavioural,3.0.4,59.96791117095183,
5,"Jeff nodded enthusiastically, and responded, “Likewise- this has been great.  ",3,4,None,,,,0,5,5,5,,,,,0,27,27,27,,,,,,,,,,,,,,,,,,,,,,,,,,,,,,,,,1,1.4174827299993922,,,,,,,,,,,,,,,,,,,,,,,,,,,,061919_p1,001,2019_Jun_19_1736,body_behavioural,3.0.4,59.96791117095183,
5,I'll let you get to your gate.,3,4,None,,,,0,5,5,5,,,,,0,28,28,28,,,,,,,,,,,,,,,,,,,,,,,,,,,,,,,,,9,2.286110658000325,,,,,,,,,,,,,,,,,,,,,,,,,,,,061919_p1,001,2019_Jun_19_1736,body_behavioural,3.0.4,59.96791117095183,
5,"Once we’re both back on the ground, we can work out all the official documentation and get this in the books.”",3,4,None,,,,0,5,5,5,,,,,0,29,29,29,,,,,,,,,,,,,,,,,,,,,,,,,,,,,,,,,9,3.150695471999825,,,,,,,,,,,,,,,,,,,,,,,,,,,,061919_p1,001,2019_Jun_19_1736,body_behavioural,3.0.4,59.96791117095183,
5,"Jeff jogged to his gate, scanned his boarding pass, and walked onto the plane.",4,4,None,,,,0,5,5,5,,,,,0,30,30,30,,,,,,,,,,,,,,,,,,,,,,,,,,,,,,,,,1,2.50321064200034,,,,,,,,,,,,,,,,,,,,,,,,,,,,061919_p1,001,2019_Jun_19_1736,body_behavioural,3.0.4,59.96791117095183,
5,He sat down in seat 4A in the business class section and  typed out a quick email on his phone letting the rest of his team know the good news. ,4,4,None,,,,0,5,5,5,,,,,0,31,31,31,,,,,,,,,,,,,,,,,,,,,,,,,,,,,,,,,1,1.436558901999888,,,,,,,,,,,,,,,,,,,,,,,,,,,,061919_p1,001,2019_Jun_19_1736,body_behavioural,3.0.4,59.96791117095183,
5,"When the flight attendant came by, he ordered a glass of champagne to celebrate.",4,4,None,,,,0,5,5,5,,,,,0,32,32,32,,,,,,,,,,,,,,,,,,,,,,,,,,,,,,,,,1,2.4199964999997974,,,,,,,,,,,,,,,,,,,,,,,,,,,,061919_p1,001,2019_Jun_19_1736,body_behavioural,3.0.4,59.96791117095183,
5,,,,,,,,0,5,5,5,,,,,,,,,,,,,,,,,,,,,,,,,,,,,,,,,,,,,,,,,,,,,,,,,,,,,,,,,,,,,,,,,,,,,,061919_p1,001,2019_Jun_19_1736,body_behavioural,3.0.4,59.96791117095183,
6,,,,,,,,0,6,6,6,0,0,0,0,,,,,,,,,,,,,,,,,,,,,,,,,,,space,1.4169374749999406,space,5.903190867000376,space,0.6190494170004968,,,,,,,,,,,,,,,,,,,,,,,,,,,,,,,,,,061919_p1,001,2019_Jun_19_1736,body_behavioural,3.0.4,59.96791117095183,
6,,,,,,,,0,6,6,6,1,0,1,0,,,,,,,,,,,,,,,,,,,,,,,,,,,,,,,space,0.6173948320001728,,,,,,,,,,,,,,,,,,,,,,,,,,,,,,,,,,061919_p1,001,2019_Jun_19_1736,body_behavioural,3.0.4,59.96791117095183,
6,,,,,,,,0,6,6,6,2,0,2,0,,,,,,,,,,,,,,,,,,,,,,,,,,,,,,,space,0.5006994119994488,,,,,,,,,,,,,,,,,,,,,,,,,,,,,,,,,,061919_p1,001,2019_Jun_19_1736,body_behavioural,3.0.4,59.96791117095183,
6,,,,,,,,0,6,6,6,3,0,3,0,,,,,,,,,,,,,,,,,,,,,,,,,,,,,,,space,0.6864383180000004,,,,,,,,,,,,,,,,,,,,,,,,,,,,,,,,,,061919_p1,001,2019_Jun_19_1736,body_behavioural,3.0.4,59.96791117095183,
6,,,,,,,,0,6,6,6,4,0,4,0,,,,,,,,,,,,,,,,,,,,,,,,,,,,,,,space,0.7195401279996076,,,,,,,,,,,,,,,,,,,,,,,,,,,,,,,,,,061919_p1,001,2019_Jun_19_1736,body_behavioural,3.0.4,59.96791117095183,
6,,,,,,,,0,6,6,6,5,0,5,0,,,,,,,,,,,,,,,,,,,,,,,,,,,,,,,space,0.5195249730004434,,,,,,,,,,,,,,,,,,,,,,,,,,,,,,,,,,061919_p1,001,2019_Jun_19_1736,body_behavioural,3.0.4,59.96791117095183,
6,"Alvira and Senna walked into the restaurant hand in sweaty hand with quite different expectations for the night because Senna, after 5 years of dating, was going to propose, and Alvira had no idea.",1.0,1.0,21.0,None,None,,0,6,6,6,,,,,0,0,0,0,,,,,,,,,,,,,,,,,,,,,,,,,,,,,space,0.636396765000427,space,1.902795614999377,9,5.836776826999994,,,,,,,,,,,,,,,,,,,,,,,,,,,,061919_p1,001,2019_Jun_19_1736,body_behavioural,3.0.4,59.96791117095183,
6,"He took a deep breath, trying to calm his nerves as worst case scenarios ran through his mind. ",1.0,1.0,None,None,None,,0,6,6,6,,,,,0,1,1,1,,,,,,,,,,,,,,,,,,,,,,,,,,,,,,,,,1,1.9869071829998575,,,,,,,,,,,,,,,,,,,,,,,,,,,,061919_p1,001,2019_Jun_19_1736,body_behavioural,3.0.4,59.96791117095183,
6,The restaurant was on the beach and had floor-to-ceiling arched windows that framed an incredible view of the Pacific Ocean.,1.0,1.0,None,None,None,,0,6,6,6,,,,,0,2,2,2,,,,,,,,,,,,,,,,,,,,,,,,,,,,,,,,,1,2.436465617000067,,,,,,,,,,,,,,,,,,,,,,,,,,,,061919_p1,001,2019_Jun_19_1736,body_behavioural,3.0.4,59.96791117095183,
6,"Besides the view, the restaurant itself was beautiful- crystal chandeliers hung from the high ceiling above small tables covered with white table clothes.
",1.0,1.0,None,None,None,,0,6,6,6,,,,,0,3,3,3,,,,,,,,,,,,,,,,,,,,,,,,,,,,,,,,,1,1.203038591999757,,,,,,,,,,,,,,,,,,,,,,,,,,,,061919_p1,001,2019_Jun_19_1736,body_behavioural,3.0.4,59.96791117095183,
6,This was surely one of the best restaurants on the West Coast.,1.0,1.0,None,None,None,,0,6,6,6,,,,,0,4,4,4,,,,,,,,,,,,,,,,,,,,,,,,,,,,,,,,,1,1.1531066119996467,,,,,,,,,,,,,,,,,,,,,,,,,,,,061919_p1,001,2019_Jun_19_1736,body_behavioural,3.0.4,59.96791117095183,
6,"After Senna gave his name to the host, who discretely winked at Senna, they were seated at a table right by the window. ",2.0,1.0,None,7.0,None,,0,6,6,6,,,,,0,5,5,5,,,,,,,,,,,,,,,,,,,,,,,,,,,,,,,,,1,21.904383430000053,,,,,,,,,,,,,,,,,,,,,,,,,,,,061919_p1,001,2019_Jun_19_1736,body_behavioural,3.0.4,59.96791117095183,
6,The waiter brought out some very small menus.,2.0,1.0,None,None,9.0,,0,6,6,6,,,,,0,6,6,6,,,,,,,,,,,,,,,,,,,,,,,,,,,,,,,,,1,1.836861532000512,,,,,,,,,,,,,,,,,,,,,,,,,,,,061919_p1,001,2019_Jun_19_1736,body_behavioural,3.0.4,59.96791117095183,
6,"They consisted of a short list of the head chef's carefully selected daily dishes written in a loopy, cursive font unadorned by any mention of prices.",None,None,None,None,None,,0,6,6,6,,,,,0,7,7,7,,,,,,,,,,,,,,,,,,,,,,,,,,,,,,,,,1,3.8532188119997954,,,,,,,,,,,,,,,,,,,,,,,,,,,,061919_p1,001,2019_Jun_19_1736,body_behavioural,3.0.4,59.96791117095183,
6,"Senna got nervous about the ring, and he slipped off to the bathroom to check to make sure it looked alright.",2.0,2.0,None,None,None,,0,6,6,6,,,,,0,8,8,8,,,,,,,,,,,,,,,,,,,,,,,,,,,,,,,,,1,3.0029203169997345,,,,,,,,,,,,,,,,,,,,,,,,,,,,061919_p1,001,2019_Jun_19_1736,body_behavioural,3.0.4,59.96791117095183,
6,The ring contained three canary yellow diamonds that had been in his grandmother’s wedding ring. ,2.0,2.0,None,None,None,,0,6,6,6,,,,,0,9,9,9,,,,,,,,,,,,,,,,,,,,,,,,,,,,,,,,,1,1.3202815949998694,,,,,,,,,,,,,,,,,,,,,,,,,,,,061919_p1,001,2019_Jun_19_1736,body_behavioural,3.0.4,59.96791117095183,
6,"After Senna had gotten back to the table, the waiter appeared at their table to take their order.",3.0,2.0,None,None,None,,0,6,6,6,,,,,0,10,10,10,,,,,,,,,,,,,,,,,,,,,,,,,,,,,,,,,1,1.9195347169998058,,,,,,,,,,,,,,,,,,,,,,,,,,,,061919_p1,001,2019_Jun_19_1736,body_behavioural,3.0.4,59.96791117095183,
6,"Senna ordered the oysters with garlic-parmesan sauce, and Alvira ordered the sauteed sea scallops with caramelized apples. ",3.0,2.0,None,None,None,,0,6,6,6,,,,,0,11,11,11,,,,,,,,,,,,,,,,,,,,,,,,,,,,,,,,,1,1.2694902950006508,,,,,,,,,,,,,,,,,,,,,,,,,,,,061919_p1,001,2019_Jun_19_1736,body_behavioural,3.0.4,59.96791117095183,
6,"“Excellent choices,” the waiter said, and he left.",3.0,2.0,None,None,None,,0,6,6,6,,,,,0,12,12,12,,,,,,,,,,,,,,,,,,,,,,,,,,,,,,,,,1,2.2530160099995555,,,,,,,,,,,,,,,,,,,,,,,,,,,,061919_p1,001,2019_Jun_19_1736,body_behavioural,3.0.4,59.96791117095183,
6,"“What a beautiful place, Senna. ",3.0,2.0,None,None,None,,0,6,6,6,,,,,0,13,13,13,,,,,,,,,,,,,,,,,,,,,,,,,,,,,,,,,9,1.169637407000664,,,,,,,,,,,,,,,,,,,,,,,,,,,,061919_p1,001,2019_Jun_19_1736,body_behavioural,3.0.4,59.96791117095183,
6,"This is too much just to celebrate the first tomatoes I grew in the garden- really, this is absurd,” Alvira said.",3.0,2.0,None,None,None,,0,6,6,6,,,,,0,14,14,14,,,,,,,,,,,,,,,,,,,,,,,,,,,,,,,,,1,2.836212743000033,,,,,,,,,,,,,,,,,,,,,,,,,,,,061919_p1,001,2019_Jun_19_1736,body_behavioural,3.0.4,59.96791117095183,
6,"Senna laughed and said, “No, those were really the best tomatoes I’ve ever had. ",3.0,2.0,None,None,None,,0,6,6,6,,,,,0,15,15,15,,,,,,,,,,,,,,,,,,,,,,,,,,,,,,,,,1,2.5371989999994184,,,,,,,,,,,,,,,,,,,,,,,,,,,,061919_p1,001,2019_Jun_19_1736,body_behavioural,3.0.4,59.96791117095183,
6,We had to celebrate.” ,3.0,2.0,None,None,None,,0,6,6,6,,,,,0,16,16,16,,,,,,,,,,,,,,,,,,,,,,,,,,,,,,,,,1,1.7360387700000501,,,,,,,,,,,,,,,,,,,,,,,,,,,,061919_p1,001,2019_Jun_19_1736,body_behavioural,3.0.4,59.96791117095183,
6,"They talked and laughed as the sun sank below the horizon, lighting up the sky and water, and slowly the glow from the windows was replaced by the chandeliers.",3.0,2.0,None,8.0,None,,0,6,6,6,,,,,0,17,17,17,,,,,,,,,,,,,,,,,,,,,,,,,,,,,,,,,1,5.251264020000235,,,,,,,,,,,,,,,,,,,,,,,,,,,,061919_p1,001,2019_Jun_19_1736,body_behavioural,3.0.4,59.96791117095183,
6,The waiter returned with their dishes.,4.0,2.0,None,None,None,,0,6,6,6,,,,,0,18,18,18,,,,,,,,,,,,,,,,,,,,,,,,,,,,,,,,,9,1.5863219569991998,,,,,,,,,,,,,,,,,,,,,,,,,,,,061919_p1,001,2019_Jun_19_1736,body_behavioural,3.0.4,59.96791117095183,
6,"Everything was even more delicious than they had expected, especially the oysters, which Senna said tasted like the ocean. ",4.0,2.0,None,None,None,,0,6,6,6,,,,,0,19,19,19,,,,,,,,,,,,,,,,,,,,,,,,,,,,,,,,,1,4.036520530000416,,,,,,,,,,,,,,,,,,,,,,,,,,,,061919_p1,001,2019_Jun_19_1736,body_behavioural,3.0.4,59.96791117095183,
6," As they were eating, Senna recounted to Alvira how they had met, and he told her in many words how much he loved her and what he loved about her, almost tearing up at moments. ",4.0,2.0,None,None,None,,0,6,6,6,,,,,0,20,20,20,,,,,,,,,,,,,,,,,,,,,,,,,,,,,,,,,1,7.4034080269993865,,,,,,,,,,,,,,,,,,,,,,,,,,,,061919_p1,001,2019_Jun_19_1736,body_behavioural,3.0.4,59.96791117095183,
6,"When they had finished eating, Senna nodded at the waiter who had been watching attentively, and he quickly strode over to place a small, elegant cake topped with the ring in front of Alvira. ",4.0,3.0,None,None,None,,0,6,6,6,,,,,0,21,21,21,,,,,,,,,,,,,,,,,,,,,,,,,,,,,,,,,1,3.903140312000687,,,,,,,,,,,,,,,,,,,,,,,,,,,,061919_p1,001,2019_Jun_19_1736,body_behavioural,3.0.4,59.96791117095183,
6,Her eyes widened in shock when she realized what she was looking at.,4.0,3.0,None,None,None,,0,6,6,6,,,,,0,22,22,22,,,,,,,,,,,,,,,,,,,,,,,,,,,,,,,,,9,7.020099206999475,,,,,,,,,,,,,,,,,,,,,,,,,,,,061919_p1,001,2019_Jun_19_1736,body_behavioural,3.0.4,59.96791117095183,
6,"Senna got down on one knee and said,“Alvira, will you marry me? ",4.0,3.0,None,None,None,,0,6,6,6,,,,,0,23,23,23,,,,,,,,,,,,,,,,,,,,,,,,,,,,,,,,,1,1.2860682549999183,,,,,,,,,,,,,,,,,,,,,,,,,,,,061919_p1,001,2019_Jun_19_1736,body_behavioural,3.0.4,59.96791117095183,
6,"I love you, and I will never stop loving you.” ",4.0,3.0,None,None,None,,0,6,6,6,,,,,0,24,24,24,,,,,,,,,,,,,,,,,,,,,,,,,,,,,,,,,1,1.0195427680000648,,,,,,,,,,,,,,,,,,,,,,,,,,,,061919_p1,001,2019_Jun_19_1736,body_behavioural,3.0.4,59.96791117095183,
6,"After a few moments with everyone turned and looking at Elvira in expectation, she exclaimed, “Yes, of course, yes!”",4.0,4.0,None,None,None,,0,6,6,6,,,,,0,25,25,25,,,,,,,,,,,,,,,,,,,,,,,,,,,,,,,,,9,2.7528639350002777,,,,,,,,,,,,,,,,,,,,,,,,,,,,061919_p1,001,2019_Jun_19_1736,body_behavioural,3.0.4,59.96791117095183,
6,She hugged Senna with tears flowing down her cheeks. ,4.0,4.0,None,None,None,,0,6,6,6,,,,,0,26,26,26,,,,,,,,,,,,,,,,,,,,,,,,,,,,,,,,,1,0.9190730039999835,,,,,,,,,,,,,,,,,,,,,,,,,,,,061919_p1,001,2019_Jun_19_1736,body_behavioural,3.0.4,59.96791117095183,
6,"The other guests exploded in applause, and the waiter returned with a bottle of champagne and popped it.",4.0,4.0,None,None,None,,0,6,6,6,,,,,0,27,27,27,,,,,,,,,,,,,,,,,,,,,,,,,,,,,,,,,9,1.5200415140006953,,,,,,,,,,,,,,,,,,,,,,,,,,,,061919_p1,001,2019_Jun_19_1736,body_behavioural,3.0.4,59.96791117095183,
6,Senna slipped the ring onto Alvira’s finger and she held up her hand to admire it.,4.0,4.0,None,None,None,,0,6,6,6,,,,,0,28,28,28,,,,,,,,,,,,,,,,,,,,,,,,,,,,,,,,,1,0.7864660400000503,,,,,,,,,,,,,,,,,,,,,,,,,,,,061919_p1,001,2019_Jun_19_1736,body_behavioural,3.0.4,59.96791117095183,
6,“I need to text my dad and tell him!” she sang. ,4.0,4.0,None,None,None,,0,6,6,6,,,,,0,29,29,29,,,,,,,,,,,,,,,,,,,,,,,,,,,,,,,,,1,1.102993790000255,,,,,,,,,,,,,,,,,,,,,,,,,,,,061919_p1,001,2019_Jun_19_1736,body_behavioural,3.0.4,59.96791117095183,
6,The whole restaurant proceeded in cheers with them to celebrate the joyous occasion.  ,4.0,4.0,None,None,None,,0,6,6,6,,,,,0,30,30,30,,,,,,,,,,,,,,,,,,,,,,,,,,,,,,,,,1,1.5864642319993436,,,,,,,,,,,,,,,,,,,,,,,,,,,,061919_p1,001,2019_Jun_19_1736,body_behavioural,3.0.4,59.96791117095183,
6,,,,,,,,0,6,6,6,,,,,,,,,,,,,,,,,,,,,,,,,,,,,,,,,,,,,,,,,,,,,,,,,,,,,,,,,,,,,,,,,,,,,,061919_p1,001,2019_Jun_19_1736,body_behavioural,3.0.4,59.96791117095183,
7,,,,,,,,0,7,7,7,0,0,0,0,,,,,,,,,,,,,,,,,,,,,,,,,,,space,1.1358869399991818,space,0.5529685800001971,space,2.9865106569995987,,,,,,,,,,,,,,,,,,,,,,,,,,,,,,,,,,061919_p1,001,2019_Jun_19_1736,body_behavioural,3.0.4,59.96791117095183,
7,,,,,,,,0,7,7,7,1,0,1,0,,,,,,,,,,,,,,,,,,,,,,,,,,,,,,,space,0.6201455430000351,,,,,,,,,,,,,,,,,,,,,,,,,,,,,,,,,,061919_p1,001,2019_Jun_19_1736,body_behavioural,3.0.4,59.96791117095183,
7,,,,,,,,0,7,7,7,2,0,2,0,,,,,,,,,,,,,,,,,,,,,,,,,,,,,,,space,0.6863231150000502,,,,,,,,,,,,,,,,,,,,,,,,,,,,,,,,,,061919_p1,001,2019_Jun_19_1736,body_behavioural,3.0.4,59.96791117095183,
7,Henry walked into lecture with Maria who was mentally rehearsing what she should say to break up with him.,1,1,14.0,,,,0,7,7,7,,,,,0,0,0,0,,,,,,,,,,,,,,,,,,,,,,,,,,,,,space,2.0371930709998196,space,1.186381285000607,1,4.903630512999371,,,,,,,,,,,,,,,,,,,,,,,,,,,,061919_p1,001,2019_Jun_19_1736,body_behavioural,3.0.4,59.96791117095183,
7,She had been putting it off with a growing sense of dread as she had been since she started to think about it a week ago.,1,1,None,,,,0,7,7,7,,,,,0,1,1,1,,,,,,,,,,,,,,,,,,,,,,,,,,,,,,,,,1,4.519809497000097,,,,,,,,,,,,,,,,,,,,,,,,,,,,061919_p1,001,2019_Jun_19_1736,body_behavioural,3.0.4,59.96791117095183,
7,Now this lecture was the last chance to do it. ,1,1,None,,,,0,7,7,7,,,,,0,2,2,2,,,,,,,,,,,,,,,,,,,,,,,,,,,,,,,,,9,3.253201051999895,,,,,,,,,,,,,,,,,,,,,,,,,,,,061919_p1,001,2019_Jun_19_1736,body_behavioural,3.0.4,59.96791117095183,
7,"The lecture hall was large, with a stage for the lecturer in the front of the room, and 15 tiered rows of desks. ",1,1,None,,,,0,7,7,7,,,,,0,3,3,3,,,,,,,,,,,,,,,,,,,,,,,,,,,,,,,,,9,2.2366548699992563,,,,,,,,,,,,,,,,,,,,,,,,,,,,061919_p1,001,2019_Jun_19_1736,body_behavioural,3.0.4,59.96791117095183,
7,Maria and Henry slid into neighboring seats near the back of the room.,1,1,None,,,,0,7,7,7,,,,,0,4,4,4,,,,,,,,,,,,,,,,,,,,,,,,,,,,,,,,,1,2.0532454120002512,,,,,,,,,,,,,,,,,,,,,,,,,,,,061919_p1,001,2019_Jun_19_1736,body_behavioural,3.0.4,59.96791117095183,
7,"The professor opened up the lecture with a hardy greeting, “Good afternoon, everybody.”",2,1,None,,,,0,7,7,7,,,,,0,5,5,5,,,,,,,,,,,,,,,,,,,,,,,,,,,,,,,,,1,1.3359518419993037,,,,,,,,,,,,,,,,,,,,,,,,,,,,061919_p1,001,2019_Jun_19_1736,body_behavioural,3.0.4,59.96791117095183,
7,"As he fiddled with the cords to connect his laptop to the projector, he continued to say, “Welcome to Week 4 of Intro to Ancient Philosophy. ",2,1,None,,,,0,7,7,7,,,,,0,6,6,6,,,,,,,,,,,,,,,,,,,,,,,,,,,,,,,,,1,1.7702399399995556,,,,,,,,,,,,,,,,,,,,,,,,,,,,061919_p1,001,2019_Jun_19_1736,body_behavioural,3.0.4,59.96791117095183,
7,Today we are going to continue our lecture on Aristotelian Philosophy.”,2,1,None,,,,0,7,7,7,,,,,0,7,7,7,,,,,,,,,,,,,,,,,,,,,,,,,,,,,,,,,1,1.1508617050003522,,,,,,,,,,,,,,,,,,,,,,,,,,,,061919_p1,001,2019_Jun_19_1736,body_behavioural,3.0.4,59.96791117095183,
7,Mostly everyone in class was taking notes.,2,1,None,,,,0,7,7,7,,,,,0,8,8,8,,,,,,,,,,,,,,,,,,,,,,,,,,,,,,,,,1,0.7196198699994056,,,,,,,,,,,,,,,,,,,,,,,,,,,,061919_p1,001,2019_Jun_19_1736,body_behavioural,3.0.4,59.96791117095183,
7,"Maria took a deep breath, decided to rip off the bandaid, and leaning into Henry’s desk, said, “Henry, I think we should- I think we should break up because I don’t think I can do long distance.",2,2,None,,,,0,7,7,7,,,,,0,9,9,9,,,,,,,,,,,,,,,,,,,,,,,,,,,,,,,,,9,9.553858205000324,,,,,,,,,,,,,,,,,,,,,,,,,,,,061919_p1,001,2019_Jun_19_1736,body_behavioural,3.0.4,59.96791117095183,
7,"I think what we have here is great, but I think it will be really hard when we are so far apart for so long during my study abroad.",2,2,None,,,,0,7,7,7,,,,,0,10,10,10,,,,,,,,,,,,,,,,,,,,,,,,,,,,,,,,,1,3.169891875000758,,,,,,,,,,,,,,,,,,,,,,,,,,,,061919_p1,001,2019_Jun_19_1736,body_behavioural,3.0.4,59.96791117095183,
7,"I’m sorry I’m telling you now in lecture, but you know, I have to leave for the airport after class and this is really hard for me to tell you.",2,2,None,,,,0,7,7,7,,,,,0,11,11,11,,,,,,,,,,,,,,,,,,,,,,,,,,,,,,,,,1,2.886532094999893,,,,,,,,,,,,,,,,,,,,,,,,,,,,061919_p1,001,2019_Jun_19_1736,body_behavioural,3.0.4,59.96791117095183,
7,I just know when I’m there I’m going to be so busy and I really want to be immersed in the life of the place I’m in.”,2,2,None,,,,0,7,7,7,,,,,0,12,12,12,,,,,,,,,,,,,,,,,,,,,,,,,,,,,,,,,1,2.386625637999714,,,,,,,,,,,,,,,,,,,,,,,,,,,,061919_p1,001,2019_Jun_19_1736,body_behavioural,3.0.4,59.96791117095183,
7,"The professor said, “We will now talk about one of Aristotle’s works, The Categories.",3,2,None,,,,0,7,7,7,,,,,0,13,13,13,,,,,,,,,,,,,,,,,,,,,,,,,,,,,,,,,9,6.620272803000262,,,,,,,,,,,,,,,,,,,,,,,,,,,,061919_p1,001,2019_Jun_19_1736,body_behavioural,3.0.4,59.96791117095183,
7,"This text, as you might have been able to guess, is about the kinds, or categories, of things that there are.",3,2,None,,,,0,7,7,7,,,,,0,14,14,14,,,,,,,,,,,,,,,,,,,,,,,,,,,,,,,,,1,1.5190834550003274,,,,,,,,,,,,,,,,,,,,,,,,,,,,061919_p1,001,2019_Jun_19_1736,body_behavioural,3.0.4,59.96791117095183,
7,"In fact, our term category comes from this Aristotelian context.",3,2,None,,,,0,7,7,7,,,,,0,15,15,15,,,,,,,,,,,,,,,,,,,,,,,,,,,,,,,,,1,1.5695272400007525,,,,,,,,,,,,,,,,,,,,,,,,,,,,061919_p1,001,2019_Jun_19_1736,body_behavioural,3.0.4,59.96791117095183,
7,"The Categories, traditionally interpreted as an introduction to Aristotle’s logical work, divides all of  being into ten categories.” ",3,2,None,,,,0,7,7,7,,,,,0,16,16,16,,,,,,,,,,,,,,,,,,,,,,,,,,,,,,,,,1,8.020035136999468,,,,,,,,,,,,,,,,,,,,,,,,,,,,061919_p1,001,2019_Jun_19_1736,body_behavioural,3.0.4,59.96791117095183,
7,"Henry felt horrible, like the wind had just been knocked out of him and he whispered back, “Maria, I don’t want to break up with you because I love you.",3,3,None,,,,0,7,7,7,,,,,0,17,17,17,,,,,,,,,,,,,,,,,,,,,,,,,,,,,,,,,9,2.536517360000289,,,,,,,,,,,,,,,,,,,,,,,,,,,,061919_p1,001,2019_Jun_19_1736,body_behavioural,3.0.4,59.96791117095183,
7,I’ll come visit you and it will be fine.,3,3,None,,,,0,7,7,7,,,,,0,18,18,18,,,,,,,,,,,,,,,,,,,,,,,,,,,,,,,,,9,3.369903341999816,,,,,,,,,,,,,,,,,,,,,,,,,,,,061919_p1,001,2019_Jun_19_1736,body_behavioural,3.0.4,59.96791117095183,
7,I don’t want to break up.”,3,3,None,,,,0,7,7,7,,,,,0,19,19,19,,,,,,,,,,,,,,,,,,,,,,,,,,,,,,,,,1,0.9696568469998965,,,,,,,,,,,,,,,,,,,,,,,,,,,,061919_p1,001,2019_Jun_19_1736,body_behavioural,3.0.4,59.96791117095183,
7,"Maria felt so guilty that she nearly gave in, but forced herself to hold her ground, knowing that this would make things much easier for both of them in the future.",3,3,None,,,,0,7,7,7,,,,,0,20,20,20,,,,,,,,,,,,,,,,,,,,,,,,,,,,,,,,,1,4.817050087000098,,,,,,,,,,,,,,,,,,,,,,,,,,,,061919_p1,001,2019_Jun_19_1736,body_behavioural,3.0.4,59.96791117095183,
7,"She gave his hand a squeeze but shook her head sadly, before turning back to look at her empty desk. ",3,3,None,,,,0,7,7,7,,,,,0,21,21,21,,,,,,,,,,,,,,,,,,,,,,,,,,,,,,,,,9,6.003638866999609,,,,,,,,,,,,,,,,,,,,,,,,,,,,061919_p1,001,2019_Jun_19_1736,body_behavioural,3.0.4,59.96791117095183,
7,"The professor wrapped up, “Alright, class, that’s all for today.",4,3,None,,,,0,7,7,7,,,,,0,22,22,22,,,,,,,,,,,,,,,,,,,,,,,,,,,,,,,,,9,2.184140455000488,,,,,,,,,,,,,,,,,,,,,,,,,,,,061919_p1,001,2019_Jun_19_1736,body_behavioural,3.0.4,59.96791117095183,
7,"Remember the final exam is coming up next week on Tuesday on the Pre-Socratics, Plato, and Aristotle, so feel free to come by office hours to discuss if you have the inspiration.",4,3,None,,,,0,7,7,7,,,,,0,23,23,23,,,,,,,,,,,,,,,,,,,,,,,,,,,,,,,,,1,2.2864150799996423,,,,,,,,,,,,,,,,,,,,,,,,,,,,061919_p1,001,2019_Jun_19_1736,body_behavioural,3.0.4,59.96791117095183,
7,"If anyone has any conflicts with another exam, please email me so that we can figure out a time to reschedule it. ",4,3,None,,,,0,7,7,7,,,,,0,24,24,24,,,,,,,,,,,,,,,,,,,,,,,,,,,,,,,,,1,1.6366894000002503,,,,,,,,,,,,,,,,,,,,,,,,,,,,061919_p1,001,2019_Jun_19_1736,body_behavioural,3.0.4,59.96791117095183,
7,"Have a good day, folks.” ",4,3,None,,,,0,7,7,7,,,,,0,25,25,25,,,,,,,,,,,,,,,,,,,,,,,,,,,,,,,,,1,1.1199177049993523,,,,,,,,,,,,,,,,,,,,,,,,,,,,061919_p1,001,2019_Jun_19_1736,body_behavioural,3.0.4,59.96791117095183,
7,"Maria and Henry packed up hurriedly, and they hugged; both of them had tears. ",4,4,None,,,,0,7,7,7,,,,,0,26,26,26,,,,,,,,,,,,,,,,,,,,,,,,,,,,,,,,,9,1.302974709999944,,,,,,,,,,,,,,,,,,,,,,,,,,,,061919_p1,001,2019_Jun_19_1736,body_behavioural,3.0.4,59.96791117095183,
7,"“Maria, I don’t want you to leave.",4,4,None,,,,0,7,7,7,,,,,0,27,27,27,,,,,,,,,,,,,,,,,,,,,,,,,,,,,,,,,1,1.553407745000186,,,,,,,,,,,,,,,,,,,,,,,,,,,,061919_p1,001,2019_Jun_19_1736,body_behavioural,3.0.4,59.96791117095183,
7,I don’t want this to end. ,4,4,None,,,,0,7,7,7,,,,,0,28,28,28,,,,,,,,,,,,,,,,,,,,,,,,,,,,,,,,,1,0.7863023050003903,,,,,,,,,,,,,,,,,,,,,,,,,,,,061919_p1,001,2019_Jun_19_1736,body_behavioural,3.0.4,59.96791117095183,
7,"But if this is what you think is best, I can’t make it otherwise.” ",4,4,None,,,,0,7,7,7,,,,,0,29,29,29,,,,,,,,,,,,,,,,,,,,,,,,,,,,,,,,,1,4.150844719999441,,,,,,,,,,,,,,,,,,,,,,,,,,,,061919_p1,001,2019_Jun_19_1736,body_behavioural,3.0.4,59.96791117095183,
7,"They hugged one last time, and then Maria remembered she had left her favorite Alpaca sweater in Henry’s room.",4,4,None,,,,0,7,7,7,,,,,0,30,30,30,,,,,,,,,,,,,,,,,,,,,,,,,,,,,,,,,9,1.0530184099998223,,,,,,,,,,,,,,,,,,,,,,,,,,,,061919_p1,001,2019_Jun_19_1736,body_behavioural,3.0.4,59.96791117095183,
7,"“Henry, I’m so sorry to ask this now but could you grab my alpaca sweater from your dorm and meet me in front of the student center?”",4,4,None,,,,0,7,7,7,,,,,0,31,31,31,,,,,,,,,,,,,,,,,,,,,,,,,,,,,,,,,1,2.7035980150003525,,,,,,,,,,,,,,,,,,,,,,,,,,,,061919_p1,001,2019_Jun_19_1736,body_behavioural,3.0.4,59.96791117095183,
7,"He agreed, and she ran off to get her things from her dorm as he sadly watched her go. ",4,4,None,,,,0,7,7,7,,,,,0,32,32,32,,,,,,,,,,,,,,,,,,,,,,,,,,,,,,,,,1,2.8031012200008263,,,,,,,,,,,,,,,,,,,,,,,,,,,,061919_p1,001,2019_Jun_19_1736,body_behavioural,3.0.4,59.96791117095183,
7,,,,,,,,0,7,7,7,,,,,,,,,,,,,,,,,,,,,,,,,,,,,,,,,,,,,,,,,,,,,,,,,,,,,,,,,,,,,,,,,,,,,,061919_p1,001,2019_Jun_19_1736,body_behavioural,3.0.4,59.96791117095183,
,,,,,,,,,,,,,,,,,,,,,,,,,,,,,,,,,,,,,,,,,,,,,,,,,,,,,,1461.789554518,space,1.5529718520001552,,,,,,,,,,,,,,,,,,,,,,,,,061919_p1,001,2019_Jun_19_1736,body_behavioural,3.0.4,59.96791117095183,
,,,,,,,"In this next part of the experiment, please recall each story to the best of your ability.",,,,,,,,,,,,,0,0,0,0,,,,,,,,,,,,,,,,,,,,,,,,,,,,,,,,,,space,3.903840625000157,,,,,,,,,,,,,,,,,,,,,,,061919_p1,001,2019_Jun_19_1736,body_behavioural,3.0.4,59.96791117095183,
,,,,,,,"You will be presented with the story title, names, the images, and a blank text box for each story.",,,,,,,,,,,,,0,1,1,1,,,,,,,,,,,,,,,,,,,,,,,,,,,,,,,,,,space,2.5197042700001475,,,,,,,,,,,,,,,,,,,,,,,061919_p1,001,2019_Jun_19_1736,body_behavioural,3.0.4,59.96791117095183,
,,,,,,,Describe the story indicated with as many details as you can remember in the space provided. ,,,,,,,,,,,,,0,2,2,2,,,,,,,,,,,,,,,,,,,,,,,,,,,,,,,,,,space,2.1359952949997023,,,,,,,,,,,,,,,,,,,,,,,061919_p1,001,2019_Jun_19_1736,body_behavioural,3.0.4,59.96791117095183,
,,,,,,,"When you are finished recalling one story, to move onto the next one, press the ‘return’ key. ",,,,,,,,,,,,,0,3,3,3,,,,,,,,,,,,,,,,,,,,,,,,,,,,,,,,,,space,1.6196788050001487,,,,,,,,,,,,,,,,,,,,,,,061919_p1,001,2019_Jun_19_1736,body_behavioural,3.0.4,59.96791117095183,
,,,,,,,There is a 5 minute time limit to make your response. ,,,,,,,,,,,,,0,4,4,4,,,,,,,,,,,,,,,,,,,,,,,,,,,,,,,,,,space,1.9173236249998808,,,,,,,,,,,,,,,,,,,,,,,061919_p1,001,2019_Jun_19_1736,body_behavioural,3.0.4,59.96791117095183,
,,,,,,,Please note that you will not be able to capitalize any letters except for the first letter of your answer. This will not effect the scoring of your recall answer.,,,,,,,,,,,,,0,5,5,5,,,,,,,,,,,,,,,,,,,,,,,,,,,,,,,,,,space,6.920206150000013,,,,,,,,,,,,,,,,,,,,,,,061919_p1,001,2019_Jun_19_1736,body_behavioural,3.0.4,59.96791117095183,
0,,,,,,,,,,,,,,,,,,,,,,,,0,0,0,0,,,,,,,,,,,,,,,,,,,,,,,,,,,,,,,,space,1.2697155549994932,,,,,,,,,,,,,,,,,,,,,061919_p1,001,2019_Jun_19_1736,body_behavioural,3.0.4,59.96791117095183,
1,,,,,,,,,,,,,,,,,,,,,,,,0,1,1,1,,,,,,,,,,,,,,,,,,,,,,,,,,,,,,,,space,1.6698303549992488,,,,,,,,,,,,,,,,,,,,,061919_p1,001,2019_Jun_19_1736,body_behavioural,3.0.4,59.96791117095183,
2,,,,,,,,,,,,,,,,,,,,,,,,0,2,2,2,,,,,,,,,,,,,,,,,,,,,,,,,,,,,,,,space,1.5871774819988786,,,,,,,,,,,,,,,,,,,,,061919_p1,001,2019_Jun_19_1736,body_behavioural,3.0.4,59.96791117095183,
3,,,,,,,,,,,,,,,,,,,,,,,,0,3,3,3,,,,,,,,,,,,,,,,,,,,,,,,,,,,,,,,space,0.8694981669996196,,,,,,,,,,,,,,,,,,,,,061919_p1,001,2019_Jun_19_1736,body_behavioural,3.0.4,59.96791117095183,
4,,,,,,,,,,,,,,,,,,,,,,,,0,4,4,4,,,,,,,,,,,,,,,,,,,,,,,,,,,,,,,,space,1.4174644199993054,,,,,,,,,,,,,,,,,,,,,061919_p1,001,2019_Jun_19_1736,body_behavioural,3.0.4,59.96791117095183,
5,,,,,,,,,,,,,,,,,,,,,,,,0,5,5,5,,,,,,,,,,,,,,,,,,,,,,,,,,,,,,,,space,1.236432657999103,,,,,,,,,,,,,,,,,,,,,061919_p1,001,2019_Jun_19_1736,body_behavioural,3.0.4,59.96791117095183,
6,,,,,,,,,,,,,,,,,,,,,,,,0,6,6,6,,,,,,,,,,,,,,,,,,,,,,,,,,,,,,,,space,1.5338680270015175,,,,,,,,,,,,,,,,,,,,,061919_p1,001,2019_Jun_19_1736,body_behavioural,3.0.4,59.96791117095183,
7,,,,,,,,,,,,,,,,,,,,,,,,0,7,7,7,,,,,,,,,,,,,,,,,,,,,,,,,,,,,,,,space,1.5857099420009035,,,,,,,,,,,,,,,,,,,,,061919_p1,001,2019_Jun_19_1736,body_behavioural,3.0.4,59.96791117095183,
,,,,,,,,,,,,,,,,,,,,,,,,,,,,,,,,,,,,,,,,,,,,,,,,,,,,,,,,,,,,,3894.3888786299995,space,3.0034975620001205,,,,,,,,,,,,,,,,,,061919_p1,001,2019_Jun_19_1736,body_behavioural,3.0.4,59.96791117095183,
,,,,,,,"In this last part of the experiment, please answer 8 questions about each story.",,,,,,,,,,,,,,,,,,,,,0,0,0,0,,,,,,,,,,,,,,,,,,,,,,,,,,,,,,,,,space,4.0865702030005195,,,,,,,,,,,,,,,,061919_p1,001,2019_Jun_19_1736,body_behavioural,3.0.4,59.96791117095183,
,,,,,,,Some of the questions are not related to the perspective you were asked to assume.,,,,,,,,,,,,,,,,,,,,,0,1,1,1,,,,,,,,,,,,,,,,,,,,,,,,,,,,,,,,,space,4.236281930001496,,,,,,,,,,,,,,,,061919_p1,001,2019_Jun_19_1736,body_behavioural,3.0.4,59.96791117095183,
,,,,,,,"We realize that we did not tell you to think of these questions during the story, but please do your best to answer them.",,,,,,,,,,,,,,,,,,,,,0,2,2,2,,,,,,,,,,,,,,,,,,,,,,,,,,,,,,,,,space,3.5533462069997768,,,,,,,,,,,,,,,,061919_p1,001,2019_Jun_19_1736,body_behavioural,3.0.4,59.96791117095183,
,,,,,,,"When you have finished typing your answer, hit ‘return’ to submit your answer and move onto the next question. ",,,,,,,,,,,,,,,,,,,,,0,3,3,3,,,,,,,,,,,,,,,,,,,,,,,,,,,,,,,,,space,2.9842246669995802,,,,,,,,,,,,,,,,061919_p1,001,2019_Jun_19_1736,body_behavioural,3.0.4,59.96791117095183,
0,,,,,,,,,,,,,,,,,,,,,,,,,,,,,,,,0,0,0,0,,,,,,,,,,,,,,,,,,,,,,,,,,,,,,,space,1.1032564179986366,9pm,It was a sushi restaraunt with a glass door. ,non-primed first,The menus are in japanese ,They ordered spring rolls and miso soup,Raw,Her clumsiness,What do you want to order,They will meet for a second date,9pm,,,,061919_p1,001,2019_Jun_19_1736,body_behavioural,3.0.4,59.96791117095183,
1,,,,,,,,,,,,,,,,,,,,,,,,,,,,,,,,0,1,1,1,,,,,,,,,,,,,,,,,,,,,,,,,,,,,,,space,1.9848735089999536,I dunno,The entire duration of the trip and a few months before that,non-primed first,They are incompatible,No. calvin does not want to break up. calvin does not want to break up because he is a very lonely man.,Calvin asks for his philosophy book back. jessie asks her for the last 3 years of her life back.,3 hours,Calvin is drunk and causing a scene because of the breakup,I dunno,I dunno,,,,061919_p1,001,2019_Jun_19_1736,body_behavioural,3.0.4,59.96791117095183,
2,,,,,,,,,,,,,,,,,,,,,,,,,,,,,,,,0,2,2,2,,,,,,,,,,,,,,,,,,,,,,,,,,,,,,,space,1.153004489999148,Groceries are 52,1 year,primed first,16,A flower,Her wedding planner,Empty,"Plan b, vodka, and a box of cigars",All of them are open. they step ito aisle 2,Groceries are 52,,,,061919_p1,001,2019_Jun_19_1736,body_behavioural,3.0.4,59.96791117095183,
3,,,,,,,,,,,,,,,,,,,,,,,,,,,,,,,,0,3,3,3,,,,,,,,,,,,,,,,,,,,,,,,,,,,,,,space,1.1697542699985206,A hug,It is a big lecture hall,primed first,The students are in an econ class and the day's lecture is about venture capital funding.,How to obtain vc funding,They have a final due next week,Students,"28,000''",Vandalay industries,A hug,,,,061919_p1,001,2019_Jun_19_1736,body_behavioural,3.0.4,59.96791117095183,
4,,,,,,,,,,,,,,,,,,,,,,,,,,,,,,,,0,4,4,4,,,,,,,,,,,,,,,,,,,,,,,,,,,,,,,space,6.003374235000592,4pm,It is a busy saturday,primed first,Hens,3,52,A chicken,How you doin,For a first date',4pm,,,,061919_p1,001,2019_Jun_19_1736,body_behavioural,3.0.4,59.96791117095183,
5,,,,,,,,,,,,,,,,,,,,,,,,,,,,,,,,0,5,5,5,,,,,,,,,,,,,,,,,,,,,,,,,,,,,,,space,0.7511693129999912,36r',Wine client manager associate,primed first,5000',Yellowtail,Thumbs up,30 minutes,They have too many metal objects ,Gate 7n,36r',,,,061919_p1,001,2019_Jun_19_1736,body_behavioural,3.0.4,59.96791117095183,
6,,,,,,,,,,,,,,,,,,,,,,,,,,,,,,,,0,6,6,6,,,,,,,,,,,,,,,,,,,,,,,,,,,,,,,space,0.7531590549988323,Well done,45 ,non-primed first,13,A tomato,Her boss,There is flowers everywhere,In color,Food,Well done,,,,061919_p1,001,2019_Jun_19_1736,body_behavioural,3.0.4,59.96791117095183,
7,,,,,,,,,,,,,,,,,,,,,,,,,,,,,,,,0,7,7,7,,,,,,,,,,,,,,,,,,,,,,,,,,,,,,,space,0.8696432630003983,They each ask back the 28k that was lent for the start up that their mutual friend had asked for,Small,non-primed first,Spanish. conjugation,How to breakup with someone ,There is a group project that maria and henry are working on together,Since the middle of the semester,The long distance nature of their relationship,No,They each ask back the 28k that was lent for the start up that their mutual friend had asked for,,,,061919_p1,001,2019_Jun_19_1736,body_behavioural,3.0.4,59.96791117095183,
,,,,,,,,,,,,,,,,,,,,,,,,,,,,,,,,,,,,,,,,,,,,,,,,,,,,,,,,,,,,,,,,,,,,,,,,,,,,,,4706.676873144999,space,1.319205731000693,061919_p1,001,2019_Jun_19_1736,body_behavioural,3.0.4,59.96791117095183,
,,,,,,,,,,,,,,,,,,,,,,,,,,,,,,,,,,,,0,0,0,0,,,,,,,,,,,,,,,,,,,,,,,,,,,,,,,,,,,,,,,,,,061919_p1,001,2019_Jun_19_1736,body_behavioural,3.0.4,59.96791117095183,
,,,,,,,,,,,,,,,,,,,,,,,,,,,,,,,,,,,,1,0,1,0,,,,,,,,,,,,,,,,,,,,,,,,,,,,,,,,,,,,,,,,,,061919_p1,001,2019_Jun_19_1736,body_behavioural,3.0.4,59.96791117095183,
,,,,,,,,,,,,,,,,,,,,,,,,,,,,,,,,,,,,2,0,2,0,,,,,,,,,,,,,,,,,,,,,,,,,,,,,,,,,,,,,,,,,,061919_p1,001,2019_Jun_19_1736,body_behavioural,3.0.4,59.96791117095183,
,,,,,,,,,,,,,,,,,,,,,,,,,,,,,,,,,,,,3,0,3,0,,,,,,,,,,,,,,,,,,,,,,,,,,,,,,,,,,,,,,,,,,061919_p1,001,2019_Jun_19_1736,body_behavioural,3.0.4,59.96791117095183,
,,,,,,,,,,,,,,,,,,,,,,,,,,,,,,,,,,,,4,0,4,0,,,,,,,,,,,,,,,,,,,,,,,,,,,,,,,,,,,,,,,,,,061919_p1,001,2019_Jun_19_1736,body_behavioural,3.0.4,59.96791117095183,
