count,storyText,locationEvent,socialEvent,story,locationEventSize,socialEventSize,socialAnswer,locationAnswer,instructText,trials.thisRepN,trials.thisTrialN,trials.thisN,trials.thisIndex,trials_7.thisRepN,trials_7.thisTrialN,trials_7.thisN,trials_7.thisIndex,trials_2.thisRepN,trials_2.thisTrialN,trials_2.thisN,trials_2.thisIndex,trials_3.thisRepN,trials_3.thisTrialN,trials_3.thisN,trials_3.thisIndex,trials_4.thisRepN,trials_4.thisTrialN,trials_4.thisN,trials_4.thisIndex,trials_5.thisRepN,trials_5.thisTrialN,trials_5.thisN,trials_5.thisIndex,trials_6.thisRepN,trials_6.thisTrialN,trials_6.thisN,trials_6.thisIndex,trials_8.thisRepN,trials_8.thisTrialN,trials_8.thisN,trials_8.thisIndex,order of stories,order of perspectives,participant 2 order - stories,participant 2 order  - schemas types,key_resp_8.keys,key_resp_8.rt,key_resp_5.keys,key_resp_5.rt,key_resp_7.keys,key_resp_7.rt,key_resp_15.keys,key_resp_15.rt,key_resp_14.keys,key_resp_14.rt,story_presses.keys,story_presses.rt,story time,key_resp_6.keys,key_resp_6.rt,key_resp_2.keys,key_resp_2.rt,key_resp_10.keys,key_resp_10.rt,recall,recall time,key_resp_12.keys,key_resp_12.rt,key_resp_3.keys,key_resp_3.rt,key_resp_11.keys,key_resp_11.rt,question1_answer,order of question,question2_answer,question3_answer,question4_answer,question5_answer,question6_answer,question7_answer,question8_answer,questions time,key_resp_13.keys,key_resp_13.rt,participant,session,date,expName,psychopyVersion,frameRate,
0,,,,,,,,,,0,0,0,0,0,0,0,0,,,,,,,,,,,,,,,,,,,,,,,,,[43 22 14 31 42 34 23 11 41 44 21 33 13 12 24 32],"['Social' 'Social' 'Location' 'Location' 'Location' 'Social' 'Location'
 'Social' 'Social' 'Location' 'Location' 'Location' 'Social' 'Location'
 'Social' 'Social']",[41 44 21 33 13 12 24 32],"['Social' 'Location' 'Location' 'Location' 'Social' 'Location' 'Social'
 'Social']",space,16.12228836400027,space,1.2362573070022336,space,2.5866662520020327,,,,,,,,,,,,,,,,,,,,,,,,,,,,,,,,,,062019_p2,001,2019_Jun_20_1433,body_behavioural,3.0.4,59.99197727298745,
0,"Carina and Simon, both distracted in thought, nearly ran into each other as they walked into the grocery store. ",1,1,43.0,,,,,,0,0,0,0,,,,,0,0,0,0,,,,,,,,,,,,,,,,,,,,,,,,,,,,,,,space,3.1353740189988457,space,3.7365940519994183,9,21.0523577999993,,,,,,,,,,,,,,,,,,,,,,,,,,,,062019_p2,001,2019_Jun_20_1433,body_behavioural,3.0.4,59.99197727298745,
0,She nearly dropped the keys she was holding. ,1,1,None,,,,,,0,0,0,0,,,,,0,1,1,1,,,,,,,,,,,,,,,,,,,,,,,,,,,,,,,,,,,1,3.2198430630014627,,,,,,,,,,,,,,,,,,,,,,,,,,,,062019_p2,001,2019_Jun_20_1433,body_behavioural,3.0.4,59.99197727298745,
0,"The store they had entered looked like a warehouse, with high, black ceilings, industrial lights, and large packages of food. ",1,1,None,,,,,,0,0,0,0,,,,,0,2,2,2,,,,,,,,,,,,,,,,,,,,,,,,,,,,,,,,,,,1,5.070268103001581,,,,,,,,,,,,,,,,,,,,,,,,,,,,062019_p2,001,2019_Jun_20_1433,body_behavioural,3.0.4,59.99197727298745,
0,"In the meat section, Carina and Simon were looking over the same cuts of meat, because they were both preparing for barbecues.",2,1,None,,,,,,0,0,0,0,,,,,0,3,3,3,,,,,,,,,,,,,,,,,,,,,,,,,,,,,,,,,,,1,13.287259778000589,,,,,,,,,,,,,,,,,,,,,,,,,,,,062019_p2,001,2019_Jun_20_1433,body_behavioural,3.0.4,59.99197727298745,
0,"Simon had wanted to talk to Carina, and Carina had wanted to say something to Simon, but they felt embarrassed striking up a conversation with a stranger.",2,1,None,,,,,,0,0,0,0,,,,,0,4,4,4,,,,,,,,,,,,,,,,,,,,,,,,,,,,,,,,,,,9,5.136742953000066,,,,,,,,,,,,,,,,,,,,,,,,,,,,062019_p2,001,2019_Jun_20_1433,body_behavioural,3.0.4,59.99197727298745,
0,"Carina mustered the courage, turned to Simon and, pointing at a Cornish hen, asked, “Isn’t this meat cute?”",2,2,None,,,,,,0,0,0,0,,,,,0,5,5,5,,,,,,,,,,,,,,,,,,,,,,,,,,,,,,,,,,,9,2.8197595630008436,,,,,,,,,,,,,,,,,,,,,,,,,,,,062019_p2,001,2019_Jun_20_1433,body_behavioural,3.0.4,59.99197727298745,
0,"He laughed, and said, “It is very cute.",2,2,None,,,,,,0,0,0,0,,,,,0,6,6,6,,,,,,,,,,,,,,,,,,,,,,,,,,,,,,,,,,,1,5.18666923499768,,,,,,,,,,,,,,,,,,,,,,,,,,,,062019_p2,001,2019_Jun_20_1433,body_behavioural,3.0.4,59.99197727298745,
0,"Probably the younger brother of this guy,” and he picked up a regular-sized chicken.",2,2,None,,,,,,0,0,0,0,,,,,0,7,7,7,,,,,,,,,,,,,,,,,,,,,,,,,,,,,,,,,,,1,6.9363296830015315,,,,,,,,,,,,,,,,,,,,,,,,,,,,062019_p2,001,2019_Jun_20_1433,body_behavioural,3.0.4,59.99197727298745,
0,"“Unlucky family,” she responded as she shook her head. ",2,2,None,,,,,,0,0,0,0,,,,,0,8,8,8,,,,,,,,,,,,,,,,,,,,,,,,,,,,,,,,,,,1,2.803275770002074,,,,,,,,,,,,,,,,,,,,,,,,,,,,062019_p2,001,2019_Jun_20_1433,body_behavioural,3.0.4,59.99197727298745,
0,They chatted as they picked out a few last-minute groceries.,2,2,None,,,,,,0,0,0,0,,,,,0,9,9,9,,,,,,,,,,,,,,,,,,,,,,,,,,,,,,,,,,,1,3.436883164999017,,,,,,,,,,,,,,,,,,,,,,,,,,,,062019_p2,001,2019_Jun_20_1433,body_behavioural,3.0.4,59.99197727298745,
0,"Simon helped Carina select the best ribs and his personal favorite barbecue sauce, and she helped him choose red peppers and spices for a vegetable kabob she recommended.",2,2,None,,,,,,0,0,0,0,,,,,0,10,10,10,,,,,,,,,,,,,,,,,,,,,,,,,,,,,,,,,,,9,2.853541625001526,,,,,,,,,,,,,,,,,,,,,,,,,,,,062019_p2,001,2019_Jun_20_1433,body_behavioural,3.0.4,59.99197727298745,
0,"In the checkout area, there were three lines open, and they went to the one labeled “8.”",3,2,None,,,,,,0,0,0,0,,,,,0,11,11,11,,,,,,,,,,,,,,,,,,,,,,,,,,,,,,,,,,,9,5.7367425370030105,,,,,,,,,,,,,,,,,,,,,,,,,,,,062019_p2,001,2019_Jun_20_1433,body_behavioural,3.0.4,59.99197727298745,
0,"Carina and Simon made jokes about the magazine covers while waiting in line, and they were laughing so hard their stomachs hurt. ",3,2,None,,,,,,0,0,0,0,,,,,0,12,12,12,,,,,,,,,,,,,,,,,,,,,,,,,,,,,,,,,,,1,3.803098560001672,,,,,,,,,,,,,,,,,,,,,,,,,,,,062019_p2,001,2019_Jun_20_1433,body_behavioural,3.0.4,59.99197727298745,
0,"Simon turned to face Carina and, while looking at her straight in the eyes, asked, “Would you like to go out to dinner with me?",3,3,None,,,,,,0,0,0,0,,,,,0,13,13,13,,,,,,,,,,,,,,,,,,,,,,,,,,,,,,,,,,,9,3.670030142999167,,,,,,,,,,,,,,,,,,,,,,,,,,,,062019_p2,001,2019_Jun_20_1433,body_behavioural,3.0.4,59.99197727298745,
0,Next Saturday we could tour around Harvard Square and get something to eat.,3,3,None,,,,,,0,0,0,0,,,,,0,14,14,14,,,,,,,,,,,,,,,,,,,,,,,,,,,,,,,,,,,1,3.3533067619973735,,,,,,,,,,,,,,,,,,,,,,,,,,,,062019_p2,001,2019_Jun_20_1433,body_behavioural,3.0.4,59.99197727298745,
0,"There are a lot of great places around there, and it’s really nice during the summer.”",3,3,None,,,,,,0,0,0,0,,,,,0,15,15,15,,,,,,,,,,,,,,,,,,,,,,,,,,,,,,,,,,,1,1.2197903150008642,,,,,,,,,,,,,,,,,,,,,,,,,,,,062019_p2,001,2019_Jun_20_1433,body_behavioural,3.0.4,59.99197727298745,
0,"Carina smiled, “I’d love to- that sounds great!”",3,3,None,,,,,,0,0,0,0,,,,,0,16,16,16,,,,,,,,,,,,,,,,,,,,,,,,,,,,,,,,,,,1,2.3361365999990085,,,,,,,,,,,,,,,,,,,,,,,,,,,,062019_p2,001,2019_Jun_20_1433,body_behavioural,3.0.4,59.99197727298745,
0,The cashier scanned Carina’s groceries.,4,3,None,,,,,,0,0,0,0,,,,,0,17,17,17,,,,,,,,,,,,,,,,,,,,,,,,,,,,,,,,,,,9,1.8865899619995616,,,,,,,,,,,,,,,,,,,,,,,,,,,,062019_p2,001,2019_Jun_20_1433,body_behavioural,3.0.4,59.99197727298745,
0,"Simon lifted up the divider on the conveyor belt and said to the cashier, “Actually, these are together.",4,3,None,,,,,,0,0,0,0,,,,,0,18,18,18,,,,,,,,,,,,,,,,,,,,,,,,,,,,,,,,,,,1,3.9699130799999693,,,,,,,,,,,,,,,,,,,,,,,,,,,,062019_p2,001,2019_Jun_20_1433,body_behavioural,3.0.4,59.99197727298745,
0,"Carina, I’ve got it.",4,3,None,,,,,,0,0,0,0,,,,,0,19,19,19,,,,,,,,,,,,,,,,,,,,,,,,,,,,,,,,,,,1,3.6199538050022966,,,,,,,,,,,,,,,,,,,,,,,,,,,,062019_p2,001,2019_Jun_20_1433,body_behavioural,3.0.4,59.99197727298745,
0,This was kind-of a date today.”,4,3,None,,,,,,0,0,0,0,,,,,0,20,20,20,,,,,,,,,,,,,,,,,,,,,,,,,,,,,,,,,,,1,2.8863010550012405,,,,,,,,,,,,,,,,,,,,,,,,,,,,062019_p2,001,2019_Jun_20_1433,body_behavioural,3.0.4,59.99197727298745,
0,Carina blushed and laughed; she thought this was ridiculous but also very sweet. ,4,3,None,,,,,,0,0,0,0,,,,,0,21,21,21,,,,,,,,,,,,,,,,,,,,,,,,,,,,,,,,,,,1,8.537069975001941,,,,,,,,,,,,,,,,,,,,,,,,,,,,062019_p2,001,2019_Jun_20_1433,body_behavioural,3.0.4,59.99197727298745,
0,"The cashier rolled her eyes when they weren’t looking, and she scanned the rest of his items. ",4,3,None,,,,,,0,0,0,0,,,,,0,22,22,22,,,,,,,,,,,,,,,,,,,,,,,,,,,,,,,,,,,1,2.950973384999088,,,,,,,,,,,,,,,,,,,,,,,,,,,,062019_p2,001,2019_Jun_20_1433,body_behavioural,3.0.4,59.99197727298745,
0,"The total came to $52, and he paid with his credit card.",4,3,None,,,,,,0,0,0,0,,,,,0,23,23,23,,,,,,,,,,,,,,,,,,,,,,,,,,,,,,,,,,,1,2.7360422880010447,,,,,,,,,,,,,,,,,,,,,,,,,,,,062019_p2,001,2019_Jun_20_1433,body_behavioural,3.0.4,59.99197727298745,
0,"Seeing that it was 4:30 PM on her phone, Carina gasped because she realized she was late for her own barbecue. ",4,4,None,,,,,,0,0,0,0,,,,,0,24,24,24,,,,,,,,,,,,,,,,,,,,,,,,,,,,,,,,,,,9,3.9029711399998632,,,,,,,,,,,,,,,,,,,,,,,,,,,,062019_p2,001,2019_Jun_20_1433,body_behavioural,3.0.4,59.99197727298745,
0,Carina thanked Simon and took her groceries and ran. ,4,4,None,,,,,,0,0,0,0,,,,,0,25,25,25,,,,,,,,,,,,,,,,,,,,,,,,,,,,,,,,,,,1,2.1870472699993115,,,,,,,,,,,,,,,,,,,,,,,,,,,,062019_p2,001,2019_Jun_20_1433,body_behavioural,3.0.4,59.99197727298745,
0,"“I hope her guests aren’t hungry,” the cashier remarked.",4,4,None,,,,,,0,0,0,0,,,,,0,26,26,26,,,,,,,,,,,,,,,,,,,,,,,,,,,,,,,,,,,1,4.019876099999237,,,,,,,,,,,,,,,,,,,,,,,,,,,,062019_p2,001,2019_Jun_20_1433,body_behavioural,3.0.4,59.99197727298745,
0,Simon was thoroughly charmed and barely heard the comment as he watched her go. ,4,4,None,,,,,,0,0,0,0,,,,,0,27,27,27,,,,,,,,,,,,,,,,,,,,,,,,,,,,,,,,,,,1,9.753954265001084,,,,,,,,,,,,,,,,,,,,,,,,,,,,062019_p2,001,2019_Jun_20_1433,body_behavioural,3.0.4,59.99197727298745,
0,,,,,,,,,,0,0,0,0,,,,,,,,,,,,,,,,,,,,,,,,,,,,,,,,,,,,,,,,,,,,,,,,,,,,,,,,,,,,,,,,,,,,,,,,062019_p2,001,2019_Jun_20_1433,body_behavioural,3.0.4,59.99197727298745,
1,,,,,,,,,,0,1,1,1,0,0,0,0,,,,,,,,,,,,,,,,,,,,,,,,,,,,,space,1.2535688450007,space,0.9864048029994592,space,0.6529857850000553,,,,,,,,,,,,,,,,,,,,,,,,,,,,,,,,,,062019_p2,001,2019_Jun_20_1433,body_behavioural,3.0.4,59.99197727298745,
1,"Sven and Isabel walked hurriedly from the cab into the Barcelona Airport after an incredible week with Isabel’s family, and this had wiped away any doubts Sven had had about his decision to propose. ",1,1,22.0,,,,,,0,1,1,1,,,,,0,0,0,0,,,,,,,,,,,,,,,,,,,,,,,,,,,,,,,space,0.6863877600007982,space,1.2031762000005983,9,18.687499668001692,,,,,,,,,,,,,,,,,,,,,,,,,,,,062019_p2,001,2019_Jun_20_1433,body_behavioural,3.0.4,59.99197727298745,
1,They had only been dating for 11 months so this was the first time he had met her family. ,1,1,None,,,,,,0,1,1,1,,,,,0,1,1,1,,,,,,,,,,,,,,,,,,,,,,,,,,,,,,,,,,,1,6.386732754999684,,,,,,,,,,,,,,,,,,,,,,,,,,,,062019_p2,001,2019_Jun_20_1433,body_behavioural,3.0.4,59.99197727298745,
1,"They were pressed for time at the airport, with an hour and 15 minutes until their flight would take off to go back to the US, but they already had their online boarding passes and no checked luggage. ",1,1,None,,,,,,0,1,1,1,,,,,0,2,2,2,,,,,,,,,,,,,,,,,,,,,,,,,,,,,,,,,,,9,11.553817219999473,,,,,,,,,,,,,,,,,,,,,,,,,,,,062019_p2,001,2019_Jun_20_1433,body_behavioural,3.0.4,59.99197727298745,
1,"Isabel stopped to rummage through her purse to look for her phone, and meanwhile Sven turned his back to her and took the velvet box out of his backpack, opening it to look at the ring he had bought her.",1,2,None,,,,,,0,1,1,1,,,,,0,3,3,3,,,,,,,,,,,,,,,,,,,,,,,,,,,,,,,,,,,1,7.969442544999765,,,,,,,,,,,,,,,,,,,,,,,,,,,,062019_p2,001,2019_Jun_20_1433,body_behavioural,3.0.4,59.99197727298745,
1,"He had received her parents’ blessing during the trip, and he was almost giddy with excitement. ",1,2,None,,,,,,0,1,1,1,,,,,0,4,4,4,,,,,,,,,,,,,,,,,,,,,,,,,,,,,,,,,,,1,3.5031489600005443,,,,,,,,,,,,,,,,,,,,,,,,,,,,062019_p2,001,2019_Jun_20_1433,body_behavioural,3.0.4,59.99197727298745,
1,"He tilted the ring backward and forward, despite having already studied it daily since purchasing it a few weeks ago. ",1,2,None,,,,,,0,1,1,1,,,,,0,5,5,5,,,,,,,,,,,,,,,,,,,,,,,,,,,,,,,,,,,1,2.3528982699972403,,,,,,,,,,,,,,,,,,,,,,,,,,,,062019_p2,001,2019_Jun_20_1433,body_behavioural,3.0.4,59.99197727298745,
1,"It was a simple design, with two pink diamonds on a silver band.",1,2,None,,,,,,0,1,1,1,,,,,0,6,6,6,,,,,,,,,,,,,,,,,,,,,,,,,,,,,,,,,,,1,3.020430601998669,,,,,,,,,,,,,,,,,,,,,,,,,,,,062019_p2,001,2019_Jun_20_1433,body_behavioural,3.0.4,59.99197727298745,
1,"“Sven, I’m good,” Isabel said. ",1,2,None,,,,,,0,1,1,1,,,,,0,7,7,7,,,,,,,,,,,,,,,,,,,,,,,,,,,,,,,,,,,9,4.369942601999355,,,,,,,,,,,,,,,,,,,,,,,,,,,,062019_p2,001,2019_Jun_20_1433,body_behavioural,3.0.4,59.99197727298745,
1,Sven closed the box and discretely put it in his pocket.,1,2,None,,,,,,0,1,1,1,,,,,0,8,8,8,,,,,,,,,,,,,,,,,,,,,,,,,,,,,,,,,,,1,3.569821076998778,,,,,,,,,,,,,,,,,,,,,,,,,,,,062019_p2,001,2019_Jun_20_1433,body_behavioural,3.0.4,59.99197727298745,
1,"They entered the security line, weaving through the roped walkways to the front. ",2,2,None,,,,,,0,1,1,1,,,,,0,9,9,9,,,,,,,,,,,,,,,,,,,,,,,,,,,,,,,,,,,9,6.13731179000024,,,,,,,,,,,,,,,,,,,,,,,,,,,,062019_p2,001,2019_Jun_20_1433,body_behavioural,3.0.4,59.99197727298745,
1,"When they were up, Isabel realized her laptop was buried somewhere in her duffle bag. ",2,2,None,,,,,,0,1,1,1,,,,,0,10,10,10,,,,,,,,,,,,,,,,,,,,,,,,,,,,,,,,,,,9,11.570204182000452,,,,,,,,,,,,,,,,,,,,,,,,,,,,062019_p2,001,2019_Jun_20_1433,body_behavioural,3.0.4,59.99197727298745,
1,"Luckily, at the same time, there was a stall in the line because someone ahead of them had a suspicious amount of metal pieces on his person. ",2,2,None,,,,,,0,1,1,1,,,,,0,11,11,11,,,,,,,,,,,,,,,,,,,,,,,,,,,,,,,,,,,1,6.384961060000933,,,,,,,,,,,,,,,,,,,,,,,,,,,,062019_p2,001,2019_Jun_20_1433,body_behavioural,3.0.4,59.99197727298745,
1,Sven had to hold the growing mound of objects Isabel pulled from her bag until she unearthed the laptop and set it in a bin.,2,2,None,,,,,,0,1,1,1,,,,,0,12,12,12,,,,,,,,,,,,,,,,,,,,,,,,,,,,,,,,,,,1,8.253464754998276,,,,,,,,,,,,,,,,,,,,,,,,,,,,062019_p2,001,2019_Jun_20_1433,body_behavioural,3.0.4,59.99197727298745,
1,"She then gave her bag to Sven, unstrapped her heels, and took the bag back from Sven.",2,2,None,,,,,,0,1,1,1,,,,,0,13,13,13,,,,,,,,,,,,,,,,,,,,,,,,,,,,,,,,,,,1,6.903809788000217,,,,,,,,,,,,,,,,,,,,,,,,,,,,062019_p2,001,2019_Jun_20_1433,body_behavioural,3.0.4,59.99197727298745,
1,"Sven, relieved of his holding duties, hurriedly deposited his own backpack on the belt, and took off his shoes. ",2,2,None,,,,,,0,1,1,1,,,,,0,14,14,14,,,,,,,,,,,,,,,,,,,,,,,,,,,,,,,,,,,1,9.503604754998378,,,,,,,,,,,,,,,,,,,,,,,,,,,,062019_p2,001,2019_Jun_20_1433,body_behavioural,3.0.4,59.99197727298745,
1,"Sven went into the millimeter wave scanner after Isabel, put his hands up, and the metal bars whirled around him.",2,2,None,,,,,,0,1,1,1,,,,,0,15,15,15,,,,,,,,,,,,,,,,,,,,,,,,,,,,,,,,,,,1,5.170498392002628,,,,,,,,,,,,,,,,,,,,,,,,,,,,062019_p2,001,2019_Jun_20_1433,body_behavioural,3.0.4,59.99197727298745,
1,The security guard asked Sven to wait. ,2,2,None,,,,,,0,1,1,1,,,,,0,16,16,16,,,,,,,,,,,,,,,,,,,,,,,,,,,,,,,,,,,9,2.969856105002691,,,,,,,,,,,,,,,,,,,,,,,,,,,,062019_p2,001,2019_Jun_20_1433,body_behavioural,3.0.4,59.99197727298745,
1,"After looking at the monitor, the security guard said, “Sir, please empty your pockets,”.",2,2,None,,,,,,0,1,1,1,,,,,0,17,17,17,,,,,,,,,,,,,,,,,,,,,,,,,,,,,,,,,,,1,4.436584503000631,,,,,,,,,,,,,,,,,,,,,,,,,,,,062019_p2,001,2019_Jun_20_1433,body_behavioural,3.0.4,59.99197727298745,
1,"Isabel, shoeless and wrinkling her eyebrows at Sven, looked at him expectantly.",2,2,None,,,,,,0,1,1,1,,,,,0,18,18,18,,,,,,,,,,,,,,,,,,,,,,,,,,,,,,,,,,,1,15.267970962002437,,,,,,,,,,,,,,,,,,,,,,,,,,,,062019_p2,001,2019_Jun_20_1433,body_behavioural,3.0.4,59.99197727298745,
1,"Realizing that he had forgotten the ring in his pocket, he grabbed Isabel’s, got down on one knee, and opening the velvet box, said, “Isabel, this isn't quite how I'd planned this, but - will you marry me?”",2,3,None,,,,,,0,1,1,1,,,,,0,19,19,19,,,,,,,,,,,,,,,,,,,,,,,,,,,,,,,,,,,9,5.352996122001059,,,,,,,,,,,,,,,,,,,,,,,,,,,,062019_p2,001,2019_Jun_20_1433,body_behavioural,3.0.4,59.99197727298745,
1,He held the ring up to her. ,2,3,None,,,,,,0,1,1,1,,,,,0,20,20,20,,,,,,,,,,,,,,,,,,,,,,,,,,,,,,,,,,,1,3.0865995779968216,,,,,,,,,,,,,,,,,,,,,,,,,,,,062019_p2,001,2019_Jun_20_1433,body_behavioural,3.0.4,59.99197727298745,
1,The security guard stood shocked.,2,3,None,,,,,,0,1,1,1,,,,,0,21,21,21,,,,,,,,,,,,,,,,,,,,,,,,,,,,,,,,,,,1,2.3864484229998197,,,,,,,,,,,,,,,,,,,,,,,,,,,,062019_p2,001,2019_Jun_20_1433,body_behavioural,3.0.4,59.99197727298745,
1,All the people who were putting their shoes back on and gathering their belongings stopped and walked closer to the couple.,2,3,None,,,,,,0,1,1,1,,,,,0,22,22,22,,,,,,,,,,,,,,,,,,,,,,,,,,,,,,,,,,,1,7.453361822997977,,,,,,,,,,,,,,,,,,,,,,,,,,,,062019_p2,001,2019_Jun_20_1433,body_behavioural,3.0.4,59.99197727298745,
1,Isabel didn’t know what to do since she was far too shy to respond in front of all the people around.,2,3,None,,,,,,0,1,1,1,,,,,0,23,23,23,,,,,,,,,,,,,,,,,,,,,,,,,,,,,,,,,,,1,2.0031463380000787,,,,,,,,,,,,,,,,,,,,,,,,,,,,062019_p2,001,2019_Jun_20_1433,body_behavioural,3.0.4,59.99197727298745,
1,"Without responding to Sven, she frantically grabbed her and Sven’s shoes, leaving Sven to retrieve the rest, and she quickly walked onto the concourse.",3,3,None,,,,,,0,1,1,1,,,,,0,24,24,24,,,,,,,,,,,,,,,,,,,,,,,,,,,,,,,,,,,9,14.584939718002715,,,,,,,,,,,,,,,,,,,,,,,,,,,,062019_p2,001,2019_Jun_20_1433,body_behavioural,3.0.4,59.99197727298745,
1,"Sven, terrified, grabbed everything and hurried after Isabel onto the concourse shoeless.",3,3,None,,,,,,0,1,1,1,,,,,0,25,25,25,,,,,,,,,,,,,,,,,,,,,,,,,,,,,,,,,,,1,2.069955728002242,,,,,,,,,,,,,,,,,,,,,,,,,,,,062019_p2,001,2019_Jun_20_1433,body_behavioural,3.0.4,59.99197727298745,
1,Sven eventually caught up to her with their bags and the open ring box.,3,3,None,,,,,,0,1,1,1,,,,,0,26,26,26,,,,,,,,,,,,,,,,,,,,,,,,,,,,,,,,,,,1,2.903764554997906,,,,,,,,,,,,,,,,,,,,,,,,,,,,062019_p2,001,2019_Jun_20_1433,body_behavioural,3.0.4,59.99197727298745,
1,"She stopped and with wide, excited eyes, shouted, “Of course yes, Sven!” ",3,4,None,,,,,,0,1,1,1,,,,,0,27,27,27,,,,,,,,,,,,,,,,,,,,,,,,,,,,,,,,,,,1,4.203162002999306,,,,,,,,,,,,,,,,,,,,,,,,,,,,062019_p2,001,2019_Jun_20_1433,body_behavioural,3.0.4,59.99197727298745,
1,"They dropped their belongings and hugged, and Sven put the ring onto Isabel’s finger. ",3,4,None,,,,,,0,1,1,1,,,,,0,28,28,28,,,,,,,,,,,,,,,,,,,,,,,,,,,,,,,,,,,1,2.7702239520003786,,,,,,,,,,,,,,,,,,,,,,,,,,,,062019_p2,001,2019_Jun_20_1433,body_behavioural,3.0.4,59.99197727298745,
1,"“Isabel, you scared me!” he said. ",3,4,None,,,,,,0,1,1,1,,,,,0,29,29,29,,,,,,,,,,,,,,,,,,,,,,,,,,,,,,,,,,,1,2.2694456499993976,,,,,,,,,,,,,,,,,,,,,,,,,,,,062019_p2,001,2019_Jun_20_1433,body_behavioural,3.0.4,59.99197727298745,
1,"After getting their shoes back on, they practically floated to gate C40.",3,4,None,,,,,,0,1,1,1,,,,,0,30,30,30,,,,,,,,,,,,,,,,,,,,,,,,,,,,,,,,,,,9,2.9195409229978395,,,,,,,,,,,,,,,,,,,,,,,,,,,,062019_p2,001,2019_Jun_20_1433,body_behavioural,3.0.4,59.99197727298745,
1,Sven was so happy he even high-fived a confused shoe-shine attendant as they passed.,3,4,None,,,,,,0,1,1,1,,,,,0,31,31,31,,,,,,,,,,,,,,,,,,,,,,,,,,,,,,,,,,,1,3.2022796549972554,,,,,,,,,,,,,,,,,,,,,,,,,,,,062019_p2,001,2019_Jun_20_1433,body_behavioural,3.0.4,59.99197727298745,
1,Isabel texted her best friend telling her the news as they walked. ,3,4,None,,,,,,0,1,1,1,,,,,0,32,32,32,,,,,,,,,,,,,,,,,,,,,,,,,,,,,,,,,,,1,5.003260737998062,,,,,,,,,,,,,,,,,,,,,,,,,,,,062019_p2,001,2019_Jun_20_1433,body_behavioural,3.0.4,59.99197727298745,
1,"Having arrived at their gate, they waited, until the attendant called for passengers, and they scanned their tickets to board the plane.",4,4,None,,,,,,0,1,1,1,,,,,0,33,33,33,,,,,,,,,,,,,,,,,,,,,,,,,,,,,,,,,,,1,20.654400507999526,,,,,,,,,,,,,,,,,,,,,,,,,,,,062019_p2,001,2019_Jun_20_1433,body_behavioural,3.0.4,59.99197727298745,
1,"They walked through the connecting tunnel to the plane and sat together in first class, in seats 2A and 2B.",4,4,None,,,,,,0,1,1,1,,,,,0,34,34,34,,,,,,,,,,,,,,,,,,,,,,,,,,,,,,,,,,,9,4.967660057001922,,,,,,,,,,,,,,,,,,,,,,,,,,,,062019_p2,001,2019_Jun_20_1433,body_behavioural,3.0.4,59.99197727298745,
1,"Some of their neighboring passengers who had witnessed the proposal at security congratulated them, and a woman next to them showed them that she had been live-tweeting the whole event and that it was already going viral online.",4,4,None,,,,,,0,1,1,1,,,,,0,35,35,35,,,,,,,,,,,,,,,,,,,,,,,,,,,,,,,,,,,9,6.936685455002589,,,,,,,,,,,,,,,,,,,,,,,,,,,,062019_p2,001,2019_Jun_20_1433,body_behavioural,3.0.4,59.99197727298745,
1,"Isabel slid down in her seat with her hands over her face, embarrassed and overjoyed at the same time.
",4,4,None,,,,,,0,1,1,1,,,,,0,36,36,36,,,,,,,,,,,,,,,,,,,,,,,,,,,,,,,,,,,1,2.602518339001108,,,,,,,,,,,,,,,,,,,,,,,,,,,,062019_p2,001,2019_Jun_20_1433,body_behavioural,3.0.4,59.99197727298745,
1,,,,,,,,,,0,1,1,1,,,,,,,,,,,,,,,,,,,,,,,,,,,,,,,,,,,,,,,,,,,,,,,,,,,,,,,,,,,,,,,,,,,,,,,,062019_p2,001,2019_Jun_20_1433,body_behavioural,3.0.4,59.99197727298745,
2,,,,,,,,,,0,2,2,2,0,0,0,0,,,,,,,,,,,,,,,,,,,,,,,,,,,,,space,2.819727250000142,space,0.8029834049993951,space,0.7529878650020692,,,,,,,,,,,,,,,,,,,,,,,,,,,,,,,,,,062019_p2,001,2019_Jun_20_1433,body_behavioural,3.0.4,59.99197727298745,
2,,,,,,,,,,0,2,2,2,1,0,1,0,,,,,,,,,,,,,,,,,,,,,,,,,,,,,,,,,space,0.7367452250000497,,,,,,,,,,,,,,,,,,,,,,,,,,,,,,,,,,062019_p2,001,2019_Jun_20_1433,body_behavioural,3.0.4,59.99197727298745,
2,,,,,,,,,,0,2,2,2,2,0,2,0,,,,,,,,,,,,,,,,,,,,,,,,,,,,,,,,,space,0.6196280330004811,,,,,,,,,,,,,,,,,,,,,,,,,,,,,,,,,,062019_p2,001,2019_Jun_20_1433,body_behavioural,3.0.4,59.99197727298745,
2,,,,,,,,,,0,2,2,2,3,0,3,0,,,,,,,,,,,,,,,,,,,,,,,,,,,,,,,,,space,0.6362805050011957,,,,,,,,,,,,,,,,,,,,,,,,,,,,,,,,,,062019_p2,001,2019_Jun_20_1433,body_behavioural,3.0.4,59.99197727298745,
2,,,,,,,,,,0,2,2,2,4,0,4,0,,,,,,,,,,,,,,,,,,,,,,,,,,,,,,,,,space,0.4695500199995877,,,,,,,,,,,,,,,,,,,,,,,,,,,,,,,,,,062019_p2,001,2019_Jun_20_1433,body_behavioural,3.0.4,59.99197727298745,
2,,,,,,,,,,0,2,2,2,5,0,5,0,,,,,,,,,,,,,,,,,,,,,,,,,,,,,,,,,space,0.35285703699992155,,,,,,,,,,,,,,,,,,,,,,,,,,,,,,,,,,062019_p2,001,2019_Jun_20_1433,body_behavioural,3.0.4,59.99197727298745,
2,,,,,,,,,,0,2,2,2,6,0,6,0,,,,,,,,,,,,,,,,,,,,,,,,,,,,,,,,,space,0.40316879999954836,,,,,,,,,,,,,,,,,,,,,,,,,,,,,,,,,,062019_p2,001,2019_Jun_20_1433,body_behavioural,3.0.4,59.99197727298745,
2,Henry walked into lecture with Maria who was mentally rehearsing what she should say to break up with him.,1,1,14.0,,,,,,0,2,2,2,,,,,0,0,0,0,,,,,,,,,,,,,,,,,,,,,,,,,,,,,,,space,1.8699901399995724,space,1.0032137900016096,9,28.77166608799962,,,,,,,,,,,,,,,,,,,,,,,,,,,,062019_p2,001,2019_Jun_20_1433,body_behavioural,3.0.4,59.99197727298745,
2,She had been putting it off with a growing sense of dread as she had been since she started to think about it a week ago.,1,1,None,,,,,,0,2,2,2,,,,,0,1,1,1,,,,,,,,,,,,,,,,,,,,,,,,,,,,,,,,,,,1,13.987309037998784,,,,,,,,,,,,,,,,,,,,,,,,,,,,062019_p2,001,2019_Jun_20_1433,body_behavioural,3.0.4,59.99197727298745,
2,Now this lecture was the last chance to do it. ,1,1,None,,,,,,0,2,2,2,,,,,0,2,2,2,,,,,,,,,,,,,,,,,,,,,,,,,,,,,,,,,,,1,1.9197468679994927,,,,,,,,,,,,,,,,,,,,,,,,,,,,062019_p2,001,2019_Jun_20_1433,body_behavioural,3.0.4,59.99197727298745,
2,"The lecture hall was large, with a stage for the lecturer in the front of the room, and 15 tiered rows of desks. ",1,1,None,,,,,,0,2,2,2,,,,,0,3,3,3,,,,,,,,,,,,,,,,,,,,,,,,,,,,,,,,,,,9,3.1195894649972615,,,,,,,,,,,,,,,,,,,,,,,,,,,,062019_p2,001,2019_Jun_20_1433,body_behavioural,3.0.4,59.99197727298745,
2,Maria and Henry slid into neighboring seats near the back of the room.,1,1,None,,,,,,0,2,2,2,,,,,0,4,4,4,,,,,,,,,,,,,,,,,,,,,,,,,,,,,,,,,,,1,3.536523392998788,,,,,,,,,,,,,,,,,,,,,,,,,,,,062019_p2,001,2019_Jun_20_1433,body_behavioural,3.0.4,59.99197727298745,
2,"The professor opened up the lecture with a hardy greeting, “Good afternoon, everybody.”",2,1,None,,,,,,0,2,2,2,,,,,0,5,5,5,,,,,,,,,,,,,,,,,,,,,,,,,,,,,,,,,,,1,2.5530136879970087,,,,,,,,,,,,,,,,,,,,,,,,,,,,062019_p2,001,2019_Jun_20_1433,body_behavioural,3.0.4,59.99197727298745,
2,"As he fiddled with the cords to connect his laptop to the projector, he continued to say, “Welcome to Week 4 of Intro to Ancient Philosophy. ",2,1,None,,,,,,0,2,2,2,,,,,0,6,6,6,,,,,,,,,,,,,,,,,,,,,,,,,,,,,,,,,,,9,1.437013842001761,,,,,,,,,,,,,,,,,,,,,,,,,,,,062019_p2,001,2019_Jun_20_1433,body_behavioural,3.0.4,59.99197727298745,
2,Today we are going to continue our lecture on Aristotelian Philosophy.”,2,1,None,,,,,,0,2,2,2,,,,,0,7,7,7,,,,,,,,,,,,,,,,,,,,,,,,,,,,,,,,,,,1,4.02003019300173,,,,,,,,,,,,,,,,,,,,,,,,,,,,062019_p2,001,2019_Jun_20_1433,body_behavioural,3.0.4,59.99197727298745,
2,Mostly everyone in class was taking notes.,2,1,None,,,,,,0,2,2,2,,,,,0,8,8,8,,,,,,,,,,,,,,,,,,,,,,,,,,,,,,,,,,,1,1.686912991997815,,,,,,,,,,,,,,,,,,,,,,,,,,,,062019_p2,001,2019_Jun_20_1433,body_behavioural,3.0.4,59.99197727298745,
2,"Maria took a deep breath, decided to rip off the bandaid, and leaning into Henry’s desk, said, “Henry, I think we should- I think we should break up because I don’t think I can do long distance.",2,2,None,,,,,,0,2,2,2,,,,,0,9,9,9,,,,,,,,,,,,,,,,,,,,,,,,,,,,,,,,,,,9,6.120331490001263,,,,,,,,,,,,,,,,,,,,,,,,,,,,062019_p2,001,2019_Jun_20_1433,body_behavioural,3.0.4,59.99197727298745,
2,"I think what we have here is great, but I think it will be really hard when we are so far apart for so long during my study abroad.",2,2,None,,,,,,0,2,2,2,,,,,0,10,10,10,,,,,,,,,,,,,,,,,,,,,,,,,,,,,,,,,,,1,6.770121859997744,,,,,,,,,,,,,,,,,,,,,,,,,,,,062019_p2,001,2019_Jun_20_1433,body_behavioural,3.0.4,59.99197727298745,
2,"I’m sorry I’m telling you now in lecture, but you know, I have to leave for the airport after class and this is really hard for me to tell you.",2,2,None,,,,,,0,2,2,2,,,,,0,11,11,11,,,,,,,,,,,,,,,,,,,,,,,,,,,,,,,,,,,1,5.119875033000426,,,,,,,,,,,,,,,,,,,,,,,,,,,,062019_p2,001,2019_Jun_20_1433,body_behavioural,3.0.4,59.99197727298745,
2,I just know when I’m there I’m going to be so busy and I really want to be immersed in the life of the place I’m in.”,2,2,None,,,,,,0,2,2,2,,,,,0,12,12,12,,,,,,,,,,,,,,,,,,,,,,,,,,,,,,,,,,,1,4.269941189999372,,,,,,,,,,,,,,,,,,,,,,,,,,,,062019_p2,001,2019_Jun_20_1433,body_behavioural,3.0.4,59.99197727298745,
2,"The professor said, “We will now talk about one of Aristotle’s works, The Categories.",3,2,None,,,,,,0,2,2,2,,,,,0,13,13,13,,,,,,,,,,,,,,,,,,,,,,,,,,,,,,,,,,,9,3.802961723002227,,,,,,,,,,,,,,,,,,,,,,,,,,,,062019_p2,001,2019_Jun_20_1433,body_behavioural,3.0.4,59.99197727298745,
2,"This text, as you might have been able to guess, is about the kinds, or categories, of things that there are.",3,2,None,,,,,,0,2,2,2,,,,,0,14,14,14,,,,,,,,,,,,,,,,,,,,,,,,,,,,,,,,,,,1,1.7362364230029925,,,,,,,,,,,,,,,,,,,,,,,,,,,,062019_p2,001,2019_Jun_20_1433,body_behavioural,3.0.4,59.99197727298745,
2,"In fact, our term category comes from this Aristotelian context.",3,2,None,,,,,,0,2,2,2,,,,,0,15,15,15,,,,,,,,,,,,,,,,,,,,,,,,,,,,,,,,,,,1,3.7365990430007514,,,,,,,,,,,,,,,,,,,,,,,,,,,,062019_p2,001,2019_Jun_20_1433,body_behavioural,3.0.4,59.99197727298745,
2,"The Categories, traditionally interpreted as an introduction to Aristotle’s logical work, divides all of  being into ten categories.” ",3,2,None,,,,,,0,2,2,2,,,,,0,16,16,16,,,,,,,,,,,,,,,,,,,,,,,,,,,,,,,,,,,1,5.469658174999495,,,,,,,,,,,,,,,,,,,,,,,,,,,,062019_p2,001,2019_Jun_20_1433,body_behavioural,3.0.4,59.99197727298745,
2,"Henry felt horrible, like the wind had just been knocked out of him and he whispered back, “Maria, I don’t want to break up with you because I love you.",3,3,None,,,,,,0,2,2,2,,,,,0,17,17,17,,,,,,,,,,,,,,,,,,,,,,,,,,,,,,,,,,,1,11.320427053000458,,,,,,,,,,,,,,,,,,,,,,,,,,,,062019_p2,001,2019_Jun_20_1433,body_behavioural,3.0.4,59.99197727298745,
2,I’ll come visit you and it will be fine.,3,3,None,,,,,,0,2,2,2,,,,,0,18,18,18,,,,,,,,,,,,,,,,,,,,,,,,,,,,,,,,,,,1,0.9674417669994,,,,,,,,,,,,,,,,,,,,,,,,,,,,062019_p2,001,2019_Jun_20_1433,body_behavioural,3.0.4,59.99197727298745,
2,I don’t want to break up.”,3,3,None,,,,,,0,2,2,2,,,,,0,19,19,19,,,,,,,,,,,,,,,,,,,,,,,,,,,,,,,,,,,1,0.7363345169978857,,,,,,,,,,,,,,,,,,,,,,,,,,,,062019_p2,001,2019_Jun_20_1433,body_behavioural,3.0.4,59.99197727298745,
2,"Maria felt so guilty that she nearly gave in, but forced herself to hold her ground, knowing that this would make things much easier for both of them in the future.",3,3,None,,,,,,0,2,2,2,,,,,0,20,20,20,,,,,,,,,,,,,,,,,,,,,,,,,,,,,,,,,,,9,4.600891179998143,,,,,,,,,,,,,,,,,,,,,,,,,,,,062019_p2,001,2019_Jun_20_1433,body_behavioural,3.0.4,59.99197727298745,
2,"She gave his hand a squeeze but shook her head sadly, before turning back to look at her empty desk. ",3,3,None,,,,,,0,2,2,2,,,,,0,21,21,21,,,,,,,,,,,,,,,,,,,,,,,,,,,,,,,,,,,1,1.6693935399998736,,,,,,,,,,,,,,,,,,,,,,,,,,,,062019_p2,001,2019_Jun_20_1433,body_behavioural,3.0.4,59.99197727298745,
2,"The professor wrapped up, “Alright, class, that’s all for today.",4,3,None,,,,,,0,2,2,2,,,,,0,22,22,22,,,,,,,,,,,,,,,,,,,,,,,,,,,,,,,,,,,9,9.386895104998985,,,,,,,,,,,,,,,,,,,,,,,,,,,,062019_p2,001,2019_Jun_20_1433,body_behavioural,3.0.4,59.99197727298745,
2,"Remember the final exam is coming up next week on Tuesday on the Pre-Socratics, Plato, and Aristotle, so feel free to come by office hours to discuss if you have the inspiration.",4,3,None,,,,,,0,2,2,2,,,,,0,23,23,23,,,,,,,,,,,,,,,,,,,,,,,,,,,,,,,,,,,1,5.053526677998889,,,,,,,,,,,,,,,,,,,,,,,,,,,,062019_p2,001,2019_Jun_20_1433,body_behavioural,3.0.4,59.99197727298745,
2,"If anyone has any conflicts with another exam, please email me so that we can figure out a time to reschedule it. ",4,3,None,,,,,,0,2,2,2,,,,,0,24,24,24,,,,,,,,,,,,,,,,,,,,,,,,,,,,,,,,,,,1,3.953262930001074,,,,,,,,,,,,,,,,,,,,,,,,,,,,062019_p2,001,2019_Jun_20_1433,body_behavioural,3.0.4,59.99197727298745,
2,"Have a good day, folks.” ",4,3,None,,,,,,0,2,2,2,,,,,0,25,25,25,,,,,,,,,,,,,,,,,,,,,,,,,,,,,,,,,,,1,0.7341277950035874,,,,,,,,,,,,,,,,,,,,,,,,,,,,062019_p2,001,2019_Jun_20_1433,body_behavioural,3.0.4,59.99197727298745,
2,"Maria and Henry packed up hurriedly, and they hugged; both of them had tears. ",4,4,None,,,,,,0,2,2,2,,,,,0,26,26,26,,,,,,,,,,,,,,,,,,,,,,,,,,,,,,,,,,,9,1.6840928899982828,,,,,,,,,,,,,,,,,,,,,,,,,,,,062019_p2,001,2019_Jun_20_1433,body_behavioural,3.0.4,59.99197727298745,
2,"“Maria, I don’t want you to leave.",4,4,None,,,,,,0,2,2,2,,,,,0,27,27,27,,,,,,,,,,,,,,,,,,,,,,,,,,,,,,,,,,,1,1.0029398900005617,,,,,,,,,,,,,,,,,,,,,,,,,,,,062019_p2,001,2019_Jun_20_1433,body_behavioural,3.0.4,59.99197727298745,
2,I don’t want this to end. ,4,4,None,,,,,,0,2,2,2,,,,,0,28,28,28,,,,,,,,,,,,,,,,,,,,,,,,,,,,,,,,,,,1,0.7860181000032753,,,,,,,,,,,,,,,,,,,,,,,,,,,,062019_p2,001,2019_Jun_20_1433,body_behavioural,3.0.4,59.99197727298745,
2,"But if this is what you think is best, I can’t make it otherwise.” ",4,4,None,,,,,,0,2,2,2,,,,,0,29,29,29,,,,,,,,,,,,,,,,,,,,,,,,,,,,,,,,,,,1,6.000977472998784,,,,,,,,,,,,,,,,,,,,,,,,,,,,062019_p2,001,2019_Jun_20_1433,body_behavioural,3.0.4,59.99197727298745,
2,"They hugged one last time, and then Maria remembered she had left her favorite Alpaca sweater in Henry’s room.",4,4,None,,,,,,0,2,2,2,,,,,0,30,30,30,,,,,,,,,,,,,,,,,,,,,,,,,,,,,,,,,,,1,6.720265857999038,,,,,,,,,,,,,,,,,,,,,,,,,,,,062019_p2,001,2019_Jun_20_1433,body_behavioural,3.0.4,59.99197727298745,
2,"“Henry, I’m so sorry to ask this now but could you grab my alpaca sweater from your dorm and meet me in front of the student center?”",4,4,None,,,,,,0,2,2,2,,,,,0,31,31,31,,,,,,,,,,,,,,,,,,,,,,,,,,,,,,,,,,,1,5.969920267998532,,,,,,,,,,,,,,,,,,,,,,,,,,,,062019_p2,001,2019_Jun_20_1433,body_behavioural,3.0.4,59.99197727298745,
2,"He agreed, and she ran off to get her things from her dorm as he sadly watched her go. ",4,4,None,,,,,,0,2,2,2,,,,,0,32,32,32,,,,,,,,,,,,,,,,,,,,,,,,,,,,,,,,,,,1,5.30329457300104,,,,,,,,,,,,,,,,,,,,,,,,,,,,062019_p2,001,2019_Jun_20_1433,body_behavioural,3.0.4,59.99197727298745,
2,,,,,,,,,,0,2,2,2,,,,,,,,,,,,,,,,,,,,,,,,,,,,,,,,,,,,,,,,,,,,,,,,,,,,,,,,,,,,,,,,,,,,,,,,062019_p2,001,2019_Jun_20_1433,body_behavioural,3.0.4,59.99197727298745,
3,,,,,,,,,,0,3,3,3,0,0,0,0,,,,,,,,,,,,,,,,,,,,,,,,,,,,,space,1.3340614749977249,space,0.7534094069997082,space,0.6032372529989516,,,,,,,,,,,,,,,,,,,,,,,,,,,,,,,,,,062019_p2,001,2019_Jun_20_1433,body_behavioural,3.0.4,59.99197727298745,
3,,,,,,,,,,0,3,3,3,1,0,1,0,,,,,,,,,,,,,,,,,,,,,,,,,,,,,,,,,space,0.5195822919995408,,,,,,,,,,,,,,,,,,,,,,,,,,,,,,,,,,062019_p2,001,2019_Jun_20_1433,body_behavioural,3.0.4,59.99197727298745,
3,,,,,,,,,,0,3,3,3,2,0,2,0,,,,,,,,,,,,,,,,,,,,,,,,,,,,,,,,,space,0.41977846800000407,,,,,,,,,,,,,,,,,,,,,,,,,,,,,,,,,,062019_p2,001,2019_Jun_20_1433,body_behavioural,3.0.4,59.99197727298745,
3,,,,,,,,,,0,3,3,3,3,0,3,0,,,,,,,,,,,,,,,,,,,,,,,,,,,,,,,,,space,0.45236529499743483,,,,,,,,,,,,,,,,,,,,,,,,,,,,,,,,,,062019_p2,001,2019_Jun_20_1433,body_behavioural,3.0.4,59.99197727298745,
3,Mr. Shelton and Mr. Gordon shook hands inside the waiting area of the restaurant: lunch today was about big business. ,1,1,31.0,,,,,,0,3,3,3,,,,,0,0,0,0,,,,,,,,,,,,,,,,,,,,,,,,,,,,,,,space,1.7361147199990228,space,0.5862040169995453,9,5.303166796998994,,,,,,,,,,,,,,,,,,,,,,,,,,,,062019_p2,001,2019_Jun_20_1433,body_behavioural,3.0.4,59.99197727298745,
3,They were both in the airplane manufacturing industry.,1,1,None,,,,,,0,3,3,3,,,,,0,1,1,1,,,,,,,,,,,,,,,,,,,,,,,,,,,,,,,,,,,1,7.803119977001188,,,,,,,,,,,,,,,,,,,,,,,,,,,,062019_p2,001,2019_Jun_20_1433,body_behavioural,3.0.4,59.99197727298745,
3,"Mr. Shelton was the CFO of a larger, well-established company and had been in the aviation business for decades.",1,1,None,,,,,,0,3,3,3,,,,,0,2,2,2,,,,,,,,,,,,,,,,,,,,,,,,,,,,,,,,,,,1,9.520427940002264,,,,,,,,,,,,,,,,,,,,,,,,,,,,062019_p2,001,2019_Jun_20_1433,body_behavioural,3.0.4,59.99197727298745,
3,Mr. Gordon was the CEO of a smaller but technologically-advanced company that was projected to disrupt the airplane manufacturing market. ,1,1,None,,,,,,0,3,3,3,,,,,0,3,3,3,,,,,,,,,,,,,,,,,,,,,,,,,,,,,,,,,,,1,5.253313152999908,,,,,,,,,,,,,,,,,,,,,,,,,,,,062019_p2,001,2019_Jun_20_1433,body_behavioural,3.0.4,59.99197727298745,
3,"They chose to meet at an old steakhouse with dark wood paneling on the floor and ceilings, taxidermy animals on the walls, and a candelabra on every table.",1,1,None,,,,,,0,3,3,3,,,,,0,4,4,4,,,,,,,,,,,,,,,,,,,,,,,,,,,,,,,,,,,9,6.303348034998635,,,,,,,,,,,,,,,,,,,,,,,,,,,,062019_p2,001,2019_Jun_20_1433,body_behavioural,3.0.4,59.99197727298745,
3,The waitress seated them at their table in the back. ,2,1,None,,,,,,0,3,3,3,,,,,0,5,5,5,,,,,,,,,,,,,,,,,,,,,,,,,,,,,,,,,,,1,7.1866883729999245,,,,,,,,,,,,,,,,,,,,,,,,,,,,062019_p2,001,2019_Jun_20_1433,body_behavioural,3.0.4,59.99197727298745,
3,"She brought out the menus, and they briefly chatted about personal happenings. ",2,1,None,,,,,,0,3,3,3,,,,,0,6,6,6,,,,,,,,,,,,,,,,,,,,,,,,,,,,,,,,,,,1,2.686504977998993,,,,,,,,,,,,,,,,,,,,,,,,,,,,062019_p2,001,2019_Jun_20_1433,body_behavioural,3.0.4,59.99197727298745,
3,"Mr. Gordon took out a picture of his daughter and talked about her recent engagement, and Mr. Gordon mentioned his purchase of a Tesla. ",2,1,None,,,,,,0,3,3,3,,,,,0,7,7,7,,,,,,,,,,,,,,,,,,,,,,,,,,,,,,,,,,,1,7.736969575002149,,,,,,,,,,,,,,,,,,,,,,,,,,,,062019_p2,001,2019_Jun_20_1433,body_behavioural,3.0.4,59.99197727298745,
3,They also looked over the menus which were heavy and covered in felt.,2,1,None,,,,,,0,3,3,3,,,,,0,8,8,8,,,,,,,,,,,,,,,,,,,,,,,,,,,,,,,,,,,1,5.3033225200015295,,,,,,,,,,,,,,,,,,,,,,,,,,,,062019_p2,001,2019_Jun_20_1433,body_behavioural,3.0.4,59.99197727298745,
3,Flipping to the back of the menu brought one to a lengthy drink selection.,2,1,None,,,,,,0,3,3,3,,,,,0,9,9,9,,,,,,,,,,,,,,,,,,,,,,,,,,,,,,,,,,,1,2.0365924979996635,,,,,,,,,,,,,,,,,,,,,,,,,,,,062019_p2,001,2019_Jun_20_1433,body_behavioural,3.0.4,59.99197727298745,
3,Mr. Shelton got serious and brought the conversation around to business.,2,2,None,,,,,,0,3,3,3,,,,,0,10,10,10,,,,,,,,,,,,,,,,,,,,,,,,,,,,,,,,,,,9,2.8198371950020373,,,,,,,,,,,,,,,,,,,,,,,,,,,,062019_p2,001,2019_Jun_20_1433,body_behavioural,3.0.4,59.99197727298745,
3,"“Mr. Gordon, we really admire what you’re doing at your company.",2,2,None,,,,,,0,3,3,3,,,,,0,11,11,11,,,,,,,,,,,,,,,,,,,,,,,,,,,,,,,,,,,1,2.952679285001068,,,,,,,,,,,,,,,,,,,,,,,,,,,,062019_p2,001,2019_Jun_20_1433,body_behavioural,3.0.4,59.99197727298745,
3,We think it’s genius; we want to support your vision and make this tiny company of yours internationally known.,2,2,None,,,,,,0,3,3,3,,,,,0,12,12,12,,,,,,,,,,,,,,,,,,,,,,,,,,,,,,,,,,,1,1.1032203399990976,,,,,,,,,,,,,,,,,,,,,,,,,,,,062019_p2,001,2019_Jun_20_1433,body_behavioural,3.0.4,59.99197727298745,
3,"But honestly, your company doesn’t have the resources to reach international markets right now.",2,2,None,,,,,,0,3,3,3,,,,,0,13,13,13,,,,,,,,,,,,,,,,,,,,,,,,,,,,,,,,,,,1,2.734128903000965,,,,,,,,,,,,,,,,,,,,,,,,,,,,062019_p2,001,2019_Jun_20_1433,body_behavioural,3.0.4,59.99197727298745,
3,"Maybe in a few years you could, but by that time, other companies may have already filled your niche.",2,2,None,,,,,,0,3,3,3,,,,,0,14,14,14,,,,,,,,,,,,,,,,,,,,,,,,,,,,,,,,,,,1,2.7173472450012923,,,,,,,,,,,,,,,,,,,,,,,,,,,,062019_p2,001,2019_Jun_20_1433,body_behavioural,3.0.4,59.99197727298745,
3,I think we should join forces.”,2,2,None,,,,,,0,3,3,3,,,,,0,15,15,15,,,,,,,,,,,,,,,,,,,,,,,,,,,,,,,,,,,1,1.3197060099992086,,,,,,,,,,,,,,,,,,,,,,,,,,,,062019_p2,001,2019_Jun_20_1433,body_behavioural,3.0.4,59.99197727298745,
3,The waitress arrived and asked if they were ready to order.,3,2,None,,,,,,0,3,3,3,,,,,0,16,16,16,,,,,,,,,,,,,,,,,,,,,,,,,,,,,,,,,,,9,3.286609282000427,,,,,,,,,,,,,,,,,,,,,,,,,,,,062019_p2,001,2019_Jun_20_1433,body_behavioural,3.0.4,59.99197727298745,
3,"Mr. Gordon chose the medium-rare steak and a martini, and Mr. Shelton ordered the veal and a manhattan. ",3,2,None,,,,,,0,3,3,3,,,,,0,17,17,17,,,,,,,,,,,,,,,,,,,,,,,,,,,,,,,,,,,1,5.253316632999486,,,,,,,,,,,,,,,,,,,,,,,,,,,,062019_p2,001,2019_Jun_20_1433,body_behavioural,3.0.4,59.99197727298745,
3,"Then Mr. Shelton continued, “Look, I’ve talked to other members of the board, and we are prepared to offer $600 million to buy your company. ",3,2,None,,,,,,0,3,3,3,,,,,0,18,18,18,,,,,,,,,,,,,,,,,,,,,,,,,,,,,,,,,,,9,11.40381927800263,,,,,,,,,,,,,,,,,,,,,,,,,,,,062019_p2,001,2019_Jun_20_1433,body_behavioural,3.0.4,59.99197727298745,
3,"We'd keep on all of your current employees, and you would join as the director of your company branch.” ",3,2,None,,,,,,0,3,3,3,,,,,0,19,19,19,,,,,,,,,,,,,,,,,,,,,,,,,,,,,,,,,,,1,3.8026602149984683,,,,,,,,,,,,,,,,,,,,,,,,,,,,062019_p2,001,2019_Jun_20_1433,body_behavioural,3.0.4,59.99197727298745,
3,"Mr. Gordon looked at Mr. Shelton skeptically for a few moments considering his response until he said, “Mr. Shelton, I think that you make a compelling offer, but there are definitely some disadvantages to attaching our small, streamlined productions to a large company like yours.",3,3,None,,,,,,0,3,3,3,,,,,0,20,20,20,,,,,,,,,,,,,,,,,,,,,,,,,,,,,,,,,,,1,6.552610491999076,,,,,,,,,,,,,,,,,,,,,,,,,,,,062019_p2,001,2019_Jun_20_1433,body_behavioural,3.0.4,59.99197727298745,
3,"We operate in a very different way than a large company, and the kind of administrative complexity that makes the scale of your productions possible would suffocate our business.",3,3,None,,,,,,0,3,3,3,,,,,0,21,21,21,,,,,,,,,,,,,,,,,,,,,,,,,,,,,,,,,,,1,5.770000995002192,,,,,,,,,,,,,,,,,,,,,,,,,,,,062019_p2,001,2019_Jun_20_1433,body_behavioural,3.0.4,59.99197727298745,
3,"With our product, scaling-up doesn’t necessarily make sense.” ",3,3,None,,,,,,0,3,3,3,,,,,0,22,22,22,,,,,,,,,,,,,,,,,,,,,,,,,,,,,,,,,,,1,3.853397875001974,,,,,,,,,,,,,,,,,,,,,,,,,,,,062019_p2,001,2019_Jun_20_1433,body_behavioural,3.0.4,59.99197727298745,
3,Mr. Shelton had expected this response and had come prepared.,3,3,None,,,,,,0,3,3,3,,,,,0,23,23,23,,,,,,,,,,,,,,,,,,,,,,,,,,,,,,,,,,,9,2.4869498400003067,,,,,,,,,,,,,,,,,,,,,,,,,,,,062019_p2,001,2019_Jun_20_1433,body_behavioural,3.0.4,59.99197727298745,
3,He began laying out the details of how he had handled similar acquisitions successfully in the past.,3,3,None,,,,,,0,3,3,3,,,,,0,24,24,24,,,,,,,,,,,,,,,,,,,,,,,,,,,,,,,,,,,1,3.8843904299974383,,,,,,,,,,,,,,,,,,,,,,,,,,,,062019_p2,001,2019_Jun_20_1433,body_behavioural,3.0.4,59.99197727298745,
3,"He also played out projections of how Mr. Gordon’s company could out-compete their own main competitor in the industry, TechJet, by using the resources of a larger corporation. ",3,3,None,,,,,,0,3,3,3,,,,,0,25,25,25,,,,,,,,,,,,,,,,,,,,,,,,,,,,,,,,,,,1,10.22034914300093,,,,,,,,,,,,,,,,,,,,,,,,,,,,062019_p2,001,2019_Jun_20_1433,body_behavioural,3.0.4,59.99197727298745,
3,"Mr. Gordon was impressed, and they went back and forth hashing out what the company configuration would look like post-merger. ",3,3,None,,,,,,0,3,3,3,,,,,0,26,26,26,,,,,,,,,,,,,,,,,,,,,,,,,,,,,,,,,,,1,9.287007217997598,,,,,,,,,,,,,,,,,,,,,,,,,,,,062019_p2,001,2019_Jun_20_1433,body_behavioural,3.0.4,59.99197727298745,
3,The waitress brought out their food on a large tray.,4,3,None,,,,,,0,3,3,3,,,,,0,27,27,27,,,,,,,,,,,,,,,,,,,,,,,,,,,,,,,,,,,9,1.7030853629985359,,,,,,,,,,,,,,,,,,,,,,,,,,,,062019_p2,001,2019_Jun_20_1433,body_behavioural,3.0.4,59.99197727298745,
3,“Oh this looks so good!” Mr. Gordon said. ,4,3,None,,,,,,0,3,3,3,,,,,0,28,28,28,,,,,,,,,,,,,,,,,,,,,,,,,,,,,,,,,,,1,1.0529230200008897,,,,,,,,,,,,,,,,,,,,,,,,,,,,062019_p2,001,2019_Jun_20_1433,body_behavioural,3.0.4,59.99197727298745,
3, “Can I get you anything else?” the waitress asked.,4,3,None,,,,,,0,3,3,3,,,,,0,29,29,29,,,,,,,,,,,,,,,,,,,,,,,,,,,,,,,,,,,1,3.967766768000729,,,,,,,,,,,,,,,,,,,,,,,,,,,,062019_p2,001,2019_Jun_20_1433,body_behavioural,3.0.4,59.99197727298745,
3,They declined and began to eat. ,4,3,None,,,,,,0,3,3,3,,,,,0,30,30,30,,,,,,,,,,,,,,,,,,,,,,,,,,,,,,,,,,,1,1.0194692700024461,,,,,,,,,,,,,,,,,,,,,,,,,,,,062019_p2,001,2019_Jun_20_1433,body_behavioural,3.0.4,59.99197727298745,
3,The meal was subpar- they both found the meat to be a bit overcooked and dry. ,4,3,None,,,,,,0,3,3,3,,,,,0,31,31,31,,,,,,,,,,,,,,,,,,,,,,,,,,,,,,,,,,,9,5.652798798000731,,,,,,,,,,,,,,,,,,,,,,,,,,,,062019_p2,001,2019_Jun_20_1433,body_behavioural,3.0.4,59.99197727298745,
3,"Mr. Gordon, after taking a contemplative bite and swallowing, said, “Mr. Shelton, I think we have a deal. ",4,4,None,,,,,,0,3,3,3,,,,,0,32,32,32,,,,,,,,,,,,,,,,,,,,,,,,,,,,,,,,,,,1,2.970048972998484,,,,,,,,,,,,,,,,,,,,,,,,,,,,062019_p2,001,2019_Jun_20_1433,body_behavioural,3.0.4,59.99197727298745,
3,"If you can guarantee that I can still have the final say in the all the work done by my team, I think this could be beneficial for both of us.",4,4,None,,,,,,0,3,3,3,,,,,0,33,33,33,,,,,,,,,,,,,,,,,,,,,,,,,,,,,,,,,,,1,11.320865334997507,,,,,,,,,,,,,,,,,,,,,,,,,,,,062019_p2,001,2019_Jun_20_1433,body_behavioural,3.0.4,59.99197727298745,
3,I propose a toast to the merging of our companies.”,4,4,None,,,,,,0,3,3,3,,,,,0,34,34,34,,,,,,,,,,,,,,,,,,,,,,,,,,,,,,,,,,,1,1.8699564329981513,,,,,,,,,,,,,,,,,,,,,,,,,,,,062019_p2,001,2019_Jun_20_1433,body_behavioural,3.0.4,59.99197727298745,
3,Mr. Shelton grinned and lifted his martini to clink glasses.,4,4,None,,,,,,0,3,3,3,,,,,0,35,35,35,,,,,,,,,,,,,,,,,,,,,,,,,,,,,,,,,,,1,2.3698569500011217,,,,,,,,,,,,,,,,,,,,,,,,,,,,062019_p2,001,2019_Jun_20_1433,body_behavioural,3.0.4,59.99197727298745,
3,"He said, “Cheers to a lifelong partnership and to the growth of our company.” ",4,4,None,,,,,,0,3,3,3,,,,,0,36,36,36,,,,,,,,,,,,,,,,,,,,,,,,,,,,,,,,,,,1,2.4675070029989,,,,,,,,,,,,,,,,,,,,,,,,,,,,062019_p2,001,2019_Jun_20_1433,body_behavioural,3.0.4,59.99197727298745,
3,,,,,,,,,,0,3,3,3,,,,,,,,,,,,,,,,,,,,,,,,,,,,,,,,,,,,,,,,,,,,,,,,,,,,,,,,,,,,,,,,,,,,,,,,062019_p2,001,2019_Jun_20_1433,body_behavioural,3.0.4,59.99197727298745,
4,,,,,,,,,,0,4,4,4,0,0,0,0,,,,,,,,,,,,,,,,,,,,,,,,,,,,,space,0.8029925580012787,space,0.7193923649974749,space,0.5673774949973449,,,,,,,,,,,,,,,,,,,,,,,,,,,,,,,,,,062019_p2,001,2019_Jun_20_1433,body_behavioural,3.0.4,59.99197727298745,
4,David saw Anna for the first time when she burst into the airport frazzled with her half-zipped bag skidding behind her.,1,1,42.0,,,,,,0,4,4,4,,,,,0,0,0,0,,,,,,,,,,,,,,,,,,,,,,,,,,,,,,,space,0.8696502550010337,space,0.9529198830023233,9,10.320712794997235,,,,,,,,,,,,,,,,,,,,,,,,,,,,062019_p2,001,2019_Jun_20_1433,body_behavioural,3.0.4,59.99197727298745,
4,"He had three hours until his flight and was reading a book on the laptop he was holding in the entrance to the airport, but she had only 35 minutes and was hoping to spend as little time in the entrance as possible. ",1,1,None,,,,,,0,4,4,4,,,,,0,1,1,1,,,,,,,,,,,,,,,,,,,,,,,,,,,,,,,,,,,1,7.184912317999988,,,,,,,,,,,,,,,,,,,,,,,,,,,,062019_p2,001,2019_Jun_20_1433,body_behavioural,3.0.4,59.99197727298745,
4,"Anna, a few strides into the airport, suddenly realized to her dismay that her shoes were untied, so she hunched over to tie them.",1,1,None,,,,,,0,4,4,4,,,,,0,2,2,2,,,,,,,,,,,,,,,,,,,,,,,,,,,,,,,,,,,1,4.303189344998827,,,,,,,,,,,,,,,,,,,,,,,,,,,,062019_p2,001,2019_Jun_20_1433,body_behavioural,3.0.4,59.99197727298745,
4,"David, who had been intrigued by Anna, observed that someone with a tall cart of luggage was heading straight for where she was kneeling and that both her and the person driving the cart were oblivious to the impeding collision. ",1,1,None,,,,,,0,4,4,4,,,,,0,3,3,3,,,,,,,,,,,,,,,,,,,,,,,,,,,,,,,,,,,1,6.586764334999316,,,,,,,,,,,,,,,,,,,,,,,,,,,,062019_p2,001,2019_Jun_20_1433,body_behavioural,3.0.4,59.99197727298745,
4,"After a few moment of deliberation, David decided to intervene, and he ran in front of the cart pushing her out of the way just in the nick of time, and they tumbled on the airport floor. ",1,2,None,,,,,,0,4,4,4,,,,,0,4,4,4,,,,,,,,,,,,,,,,,,,,,,,,,,,,,,,,,,,1,2.187159851000615,,,,,,,,,,,,,,,,,,,,,,,,,,,,062019_p2,001,2019_Jun_20_1433,body_behavioural,3.0.4,59.99197727298745,
4,"Anna, bewildered, looked up and saw the cart pass by and then looked at David. ",1,2,None,,,,,,0,4,4,4,,,,,0,5,5,5,,,,,,,,,,,,,,,,,,,,,,,,,,,,,,,,,,,1,2.669399868002074,,,,,,,,,,,,,,,,,,,,,,,,,,,,062019_p2,001,2019_Jun_20_1433,body_behavioural,3.0.4,59.99197727298745,
4,He flashed a smile.,1,2,None,,,,,,0,4,4,4,,,,,0,6,6,6,,,,,,,,,,,,,,,,,,,,,,,,,,,,,,,,,,,1,1.269693330003065,,,,,,,,,,,,,,,,,,,,,,,,,,,,062019_p2,001,2019_Jun_20_1433,body_behavioural,3.0.4,59.99197727298745,
4,“Were you ever a gymnast?,1,2,None,,,,,,0,4,4,4,,,,,0,7,7,7,,,,,,,,,,,,,,,,,,,,,,,,,,,,,,,,,,,1,2.86965740800224,,,,,,,,,,,,,,,,,,,,,,,,,,,,062019_p2,001,2019_Jun_20_1433,body_behavioural,3.0.4,59.99197727298745,
4," That was a nice tumble,” he said.",1,2,None,,,,,,0,4,4,4,,,,,0,8,8,8,,,,,,,,,,,,,,,,,,,,,,,,,,,,,,,,,,,1,1.1199427850006032,,,,,,,,,,,,,,,,,,,,,,,,,,,,062019_p2,001,2019_Jun_20_1433,body_behavioural,3.0.4,59.99197727298745,
4,"She managed a chuckle and said, “Actually yes, but I’d say that deserved a score of zero.",1,2,None,,,,,,0,4,4,4,,,,,0,9,9,9,,,,,,,,,,,,,,,,,,,,,,,,,,,,,,,,,,,1,2.6032506550000107,,,,,,,,,,,,,,,,,,,,,,,,,,,,062019_p2,001,2019_Jun_20_1433,body_behavioural,3.0.4,59.99197727298745,
4,Wow- I almost got smooshed by that cart.”,1,2,None,,,,,,0,4,4,4,,,,,0,10,10,10,,,,,,,,,,,,,,,,,,,,,,,,,,,,,,,,,,,1,1.1677341430004162,,,,,,,,,,,,,,,,,,,,,,,,,,,,062019_p2,001,2019_Jun_20_1433,body_behavioural,3.0.4,59.99197727298745,
4,Her head was still spinning as she stared at the handsome stranger who had saved her. ,1,2,None,,,,,,0,4,4,4,,,,,0,11,11,11,,,,,,,,,,,,,,,,,,,,,,,,,,,,,,,,,,,9,2.5031769250017533,,,,,,,,,,,,,,,,,,,,,,,,,,,,062019_p2,001,2019_Jun_20_1433,body_behavioural,3.0.4,59.99197727298745,
4,David helped her up and had to keep holding on to her arms to steady her even once they were standing.,1,2,None,,,,,,0,4,4,4,,,,,0,12,12,12,,,,,,,,,,,,,,,,,,,,,,,,,,,,,,,,,,,1,1.270105218001845,,,,,,,,,,,,,,,,,,,,,,,,,,,,062019_p2,001,2019_Jun_20_1433,body_behavioural,3.0.4,59.99197727298745,
4,"“I’m really late for my flight,” she said. ",1,2,None,,,,,,0,4,4,4,,,,,0,13,13,13,,,,,,,,,,,,,,,,,,,,,,,,,,,,,,,,,,,1,2.3366279830006533,,,,,,,,,,,,,,,,,,,,,,,,,,,,062019_p2,001,2019_Jun_20_1433,body_behavioural,3.0.4,59.99197727298745,
4,"“Don't worry,” said David, "let me help you get to your gate." ",1,2,None,,,,,,0,4,4,4,,,,,0,14,14,14,,,,,,,,,,,,,,,,,,,,,,,,,,,,,,,,,,,1,1.4006930129980901,,,,,,,,,,,,,,,,,,,,,,,,,,,,062019_p2,001,2019_Jun_20_1433,body_behavioural,3.0.4,59.99197727298745,
4,He waved off her half-hearted protests. ,1,2,None,,,,,,0,4,4,4,,,,,0,15,15,15,,,,,,,,,,,,,,,,,,,,,,,,,,,,,,,,,,,1,2.6031559450020723,,,,,,,,,,,,,,,,,,,,,,,,,,,,062019_p2,001,2019_Jun_20_1433,body_behavioural,3.0.4,59.99197727298745,
4,“Really- I have plenty of time and nothing better to do.” he said. ,1,2,None,,,,,,0,4,4,4,,,,,0,16,16,16,,,,,,,,,,,,,,,,,,,,,,,,,,,,,,,,,,,1,1.736421359997621,,,,,,,,,,,,,,,,,,,,,,,,,,,,062019_p2,001,2019_Jun_20_1433,body_behavioural,3.0.4,59.99197727298745,
4,"At security, the line was not long, but since Anna’s flight was so soon the security guard allowed them to go to the front of the line.",2,2,None,,,,,,0,4,4,4,,,,,0,17,17,17,,,,,,,,,,,,,,,,,,,,,,,,,,,,,,,,,,,9,2.8346168099997158,,,,,,,,,,,,,,,,,,,,,,,,,,,,062019_p2,001,2019_Jun_20_1433,body_behavioural,3.0.4,59.99197727298745,
4,"They had to wait however, because there was a strange malfunction of the metal detector. ",2,2,None,,,,,,0,4,4,4,,,,,0,18,18,18,,,,,,,,,,,,,,,,,,,,,,,,,,,,,,,,,,,9,4.934336793001421,,,,,,,,,,,,,,,,,,,,,,,,,,,,062019_p2,001,2019_Jun_20_1433,body_behavioural,3.0.4,59.99197727298745,
4,"In this span of time, they managed to find out that they had gone to the same high school and that Anna had graduated 3 years before David. ",2,2,None,,,,,,0,4,4,4,,,,,0,19,19,19,,,,,,,,,,,,,,,,,,,,,,,,,,,,,,,,,,,1,3.2196838349991594,,,,,,,,,,,,,,,,,,,,,,,,,,,,062019_p2,001,2019_Jun_20_1433,body_behavioural,3.0.4,59.99197727298745,
4,They hurriedly took off their shoes and coats.,2,2,None,,,,,,0,4,4,4,,,,,0,20,20,20,,,,,,,,,,,,,,,,,,,,,,,,,,,,,,,,,,,9,2.136677692997182,,,,,,,,,,,,,,,,,,,,,,,,,,,,062019_p2,001,2019_Jun_20_1433,body_behavioural,3.0.4,59.99197727298745,
4,"Anna placed her purse and suitcase on the conveyor belt, and David put his backpack on the conveyor belt as well, with his laptop in a separate bin. ",2,2,None,,,,,,0,4,4,4,,,,,0,21,21,21,,,,,,,,,,,,,,,,,,,,,,,,,,,,,,,,,,,1,5.084876113000064,,,,,,,,,,,,,,,,,,,,,,,,,,,,062019_p2,001,2019_Jun_20_1433,body_behavioural,3.0.4,59.99197727298745,
4,Both of them went through the metal detector without any problems. ,2,2,None,,,,,,0,4,4,4,,,,,0,22,22,22,,,,,,,,,,,,,,,,,,,,,,,,,,,,,,,,,,,1,1.4865237949998118,,,,,,,,,,,,,,,,,,,,,,,,,,,,062019_p2,001,2019_Jun_20_1433,body_behavioural,3.0.4,59.99197727298745,
4,"As they were rushing to put their shoes and coats on, they shared when they were coming back. ",2,2,None,,,,,,0,4,4,4,,,,,0,23,23,23,,,,,,,,,,,,,,,,,,,,,,,,,,,,,,,,,,,1,7.019834594997519,,,,,,,,,,,,,,,,,,,,,,,,,,,,062019_p2,001,2019_Jun_20_1433,body_behavioural,3.0.4,59.99197727298745,
4,"In a moment of boldness, David asked, “When we're back in town next Tuesday, is there any chance you'd want to get dinner?",2,3,None,,,,,,0,4,4,4,,,,,0,24,24,24,,,,,,,,,,,,,,,,,,,,,,,,,,,,,,,,,,,1,3.085839858998952,,,,,,,,,,,,,,,,,,,,,,,,,,,,062019_p2,001,2019_Jun_20_1433,body_behavioural,3.0.4,59.99197727298745,
4,"I know we just met, but when life throws a luggage cart at you it seems like we should listen. “",2,3,None,,,,,,0,4,4,4,,,,,0,25,25,25,,,,,,,,,,,,,,,,,,,,,,,,,,,,,,,,,,,1,6.137259221999557,,,,,,,,,,,,,,,,,,,,,,,,,,,,062019_p2,001,2019_Jun_20_1433,body_behavioural,3.0.4,59.99197727298745,
4,"She stopped packing, and said with a smile, “Yes I would love that.”",2,3,None,,,,,,0,4,4,4,,,,,0,26,26,26,,,,,,,,,,,,,,,,,,,,,,,,,,,,,,,,,,,1,1.9030642329998955,,,,,,,,,,,,,,,,,,,,,,,,,,,,062019_p2,001,2019_Jun_20_1433,body_behavioural,3.0.4,59.99197727298745,
4,"On the concourse, they were running to get to Anna’s gate, J37, which was at the end of the terminal. ",3,3,None,,,,,,0,4,4,4,,,,,0,27,27,27,,,,,,,,,,,,,,,,,,,,,,,,,,,,,,,,,,,9,3.1508521799987648,,,,,,,,,,,,,,,,,,,,,,,,,,,,062019_p2,001,2019_Jun_20_1433,body_behavioural,3.0.4,59.99197727298745,
4,"David took her suitcase, grabbed her hand, and weaved crowd of people.",3,3,None,,,,,,0,4,4,4,,,,,0,28,28,28,,,,,,,,,,,,,,,,,,,,,,,,,,,,,,,,,,,1,5.486776716999884,,,,,,,,,,,,,,,,,,,,,,,,,,,,062019_p2,001,2019_Jun_20_1433,body_behavioural,3.0.4,59.99197727298745,
4,People passing them were giving them funny looks because Anna looked so bewildered.,3,3,None,,,,,,0,4,4,4,,,,,0,29,29,29,,,,,,,,,,,,,,,,,,,,,,,,,,,,,,,,,,,1,2.5363811899987923,,,,,,,,,,,,,,,,,,,,,,,,,,,,062019_p2,001,2019_Jun_20_1433,body_behavioural,3.0.4,59.99197727298745,
4,"Before getting to the gate, explaining that she would sprint the rest of the way, Anna fished out a crumpled business card from her pocket and handed it to David, who handed her the suitcase.",3,4,None,,,,,,0,4,4,4,,,,,0,30,30,30,,,,,,,,,,,,,,,,,,,,,,,,,,,,,,,,,,,9,13.670686833000218,,,,,,,,,,,,,,,,,,,,,,,,,,,,062019_p2,001,2019_Jun_20_1433,body_behavioural,3.0.4,59.99197727298745,
4,"She gave him one last embarrassed smile, thanked him, and hurried away.",3,4,None,,,,,,0,4,4,4,,,,,0,31,31,31,,,,,,,,,,,,,,,,,,,,,,,,,,,,,,,,,,,1,2.1032475430001796,,,,,,,,,,,,,,,,,,,,,,,,,,,,062019_p2,001,2019_Jun_20_1433,body_behavioural,3.0.4,59.99197727298745,
4,"David looked at his watch which read 10:55 AM, 5 minutes before her flight was supposed to leave. ",3,4,None,,,,,,0,4,4,4,,,,,0,32,32,32,,,,,,,,,,,,,,,,,,,,,,,,,,,,,,,,,,,9,6.086640318000718,,,,,,,,,,,,,,,,,,,,,,,,,,,,062019_p2,001,2019_Jun_20_1433,body_behavioural,3.0.4,59.99197727298745,
4,"At the gate, Anna waved to the flight attendant who motioned for her to hurry and she boarded the plane. ",4,4,None,,,,,,0,4,4,4,,,,,0,33,33,33,,,,,,,,,,,,,,,,,,,,,,,,,,,,,,,,,,,1,6.103870020000613,,,,,,,,,,,,,,,,,,,,,,,,,,,,062019_p2,001,2019_Jun_20_1433,body_behavioural,3.0.4,59.99197727298745,
4,"She slid into her window seat 7D in business class, and barely containing her glee, she hugged the plastic-wrapped blanket. ",4,4,None,,,,,,0,4,4,4,,,,,0,34,34,34,,,,,,,,,,,,,,,,,,,,,,,,,,,,,,,,,,,1,22.237763994999113,,,,,,,,,,,,,,,,,,,,,,,,,,,,062019_p2,001,2019_Jun_20_1433,body_behavioural,3.0.4,59.99197727298745,
4,"She was thankful that she had not only made it onto the plane in time, but also that she had been clumsy enough to forget to tie her shoes.",4,4,None,,,,,,0,4,4,4,,,,,0,35,35,35,,,,,,,,,,,,,,,,,,,,,,,,,,,,,,,,,,,1,1.353290797000227,,,,,,,,,,,,,,,,,,,,,,,,,,,,062019_p2,001,2019_Jun_20_1433,body_behavioural,3.0.4,59.99197727298745,
4,,,,,,,,,,0,4,4,4,,,,,,,,,,,,,,,,,,,,,,,,,,,,,,,,,,,,,,,,,,,,,,,,,,,,,,,,,,,,,,,,,,,,,,,,062019_p2,001,2019_Jun_20_1433,body_behavioural,3.0.4,59.99197727298745,
5,,,,,,,,,,0,5,5,5,0,0,0,0,,,,,,,,,,,,,,,,,,,,,,,,,,,,,space,0.8030273499971372,space,0.4864084830005595,space,0.5363869829998293,,,,,,,,,,,,,,,,,,,,,,,,,,,,,,,,,,062019_p2,001,2019_Jun_20_1433,body_behavioural,3.0.4,59.99197727298745,
5,"Charlie saw Alma as they walked into class, and he motioned for her to come sit in the back next to him because they had a deal to discuss.",1,1,34.0,,,,,,0,5,5,5,,,,,0,0,0,0,,,,,,,,,,,,,,,,,,,,,,,,,,,,,,,space,0.9528907349995279,space,0.48625532999722054,9,6.8340429100026086,,,,,,,,,,,,,,,,,,,,,,,,,,,,062019_p2,001,2019_Jun_20_1433,body_behavioural,3.0.4,59.99197727298745,
5,Charlie and Alma were both history majors with entrepreneurial bents.,1,1,None,,,,,,0,5,5,5,,,,,0,1,1,1,,,,,,,,,,,,,,,,,,,,,,,,,,,,,,,,,,,1,15.504553656999633,,,,,,,,,,,,,,,,,,,,,,,,,,,,062019_p2,001,2019_Jun_20_1433,body_behavioural,3.0.4,59.99197727298745,
5,They were also both very busy and happened to be in the same class.,1,1,None,,,,,,0,5,5,5,,,,,0,2,2,2,,,,,,,,,,,,,,,,,,,,,,,,,,,,,,,,,,,1,1.2035510009991413,,,,,,,,,,,,,,,,,,,,,,,,,,,,062019_p2,001,2019_Jun_20_1433,body_behavioural,3.0.4,59.99197727298745,
5,"After talking at a party, Charlie had discovered that Alma was looking for financing for her web development company of which she was the founder and CEO.",1,1,None,,,,,,0,5,5,5,,,,,0,3,3,3,,,,,,,,,,,,,,,,,,,,,,,,,,,,,,,,,,,9,2.6696633050014498,,,,,,,,,,,,,,,,,,,,,,,,,,,,062019_p2,001,2019_Jun_20_1433,body_behavioural,3.0.4,59.99197727298745,
5,It was serendipitous because he was an investment analyst for a student finance group on campus and he had been talking with other members of the group about making a new investment. ,1,1,None,,,,,,0,5,5,5,,,,,0,4,4,4,,,,,,,,,,,,,,,,,,,,,,,,,,,,,,,,,,,1,9.953362845997617,,,,,,,,,,,,,,,,,,,,,,,,,,,,062019_p2,001,2019_Jun_20_1433,body_behavioural,3.0.4,59.99197727298745,
5,"His financial group had come to a decision that morning about Alma’s startup, and he didn't want to wait until after class to discuss the proposal with her. ",1,1,None,,,,,,0,5,5,5,,,,,0,5,5,5,,,,,,,,,,,,,,,,,,,,,,,,,,,,,,,,,,,1,5.734352562001732,,,,,,,,,,,,,,,,,,,,,,,,,,,,062019_p2,001,2019_Jun_20_1433,body_behavioural,3.0.4,59.99197727298745,
5,The class was in a medium-sized auditorium which was brightly lit and very modern-looking. ,1,1,None,,,,,,0,5,5,5,,,,,0,6,6,6,,,,,,,,,,,,,,,,,,,,,,,,,,,,,,,,,,,9,10.11755328199797,,,,,,,,,,,,,,,,,,,,,,,,,,,,062019_p2,001,2019_Jun_20_1433,body_behavioural,3.0.4,59.99197727298745,
5,There were three projector screens in the front and each row of the audience had a table with power outlets and USB ports. ,1,1,None,,,,,,0,5,5,5,,,,,0,7,7,7,,,,,,,,,,,,,,,,,,,,,,,,,,,,,,,,,,,1,2.9858639529993525,,,,,,,,,,,,,,,,,,,,,,,,,,,,062019_p2,001,2019_Jun_20_1433,body_behavioural,3.0.4,59.99197727298745,
5,“Here we are at Lecture Seven of Archaeology of Rome” said the professor. ,2,1,None,,,,,,0,5,5,5,,,,,0,8,8,8,,,,,,,,,,,,,,,,,,,,,,,,,,,,,,,,,,,1,4.97002384499865,,,,,,,,,,,,,,,,,,,,,,,,,,,,062019_p2,001,2019_Jun_20_1433,body_behavioural,3.0.4,59.99197727298745,
5,"“The topic for today is Augustus, an incredibly important influence in Roman architecture.” ",2,1,None,,,,,,0,5,5,5,,,,,0,9,9,9,,,,,,,,,,,,,,,,,,,,,,,,,,,,,,,,,,,9,1.969840710000426,,,,,,,,,,,,,,,,,,,,,,,,,,,,062019_p2,001,2019_Jun_20_1433,body_behavioural,3.0.4,59.99197727298745,
5,She went into some recap of the last lecture.,2,1,None,,,,,,0,5,5,5,,,,,0,10,10,10,,,,,,,,,,,,,,,,,,,,,,,,,,,,,,,,,,,1,1.819835869999224,,,,,,,,,,,,,,,,,,,,,,,,,,,,062019_p2,001,2019_Jun_20_1433,body_behavioural,3.0.4,59.99197727298745,
5,"Charlie turned to Alma and said, “Okay, so I’ve been thinking about your startup, and I have talked about it with my fellow investors.",2,2,None,,,,,,0,5,5,5,,,,,0,11,11,11,,,,,,,,,,,,,,,,,,,,,,,,,,,,,,,,,,,9,3.270235005002178,,,,,,,,,,,,,,,,,,,,,,,,,,,,062019_p2,001,2019_Jun_20_1433,body_behavioural,3.0.4,59.99197727298745,
5,We’d like to invest half of what you originally suggested.,2,2,None,,,,,,0,5,5,5,,,,,0,12,12,12,,,,,,,,,,,,,,,,,,,,,,,,,,,,,,,,,,,1,0.2863371300009021,,,,,,,,,,,,,,,,,,,,,,,,,,,,062019_p2,001,2019_Jun_20_1433,body_behavioural,3.0.4,59.99197727298745,
5,"So we propose we start with wiring you $28,000.",2,2,None,,,,,,0,5,5,5,,,,,0,13,13,13,,,,,,,,,,,,,,,,,,,,,,,,,,,,,,,,,,,1,1.4534543369991297,,,,,,,,,,,,,,,,,,,,,,,,,,,,062019_p2,001,2019_Jun_20_1433,body_behavioural,3.0.4,59.99197727298745,
5,We would see how the company does and then invest the other half later.” ,2,2,None,,,,,,0,5,5,5,,,,,0,14,14,14,,,,,,,,,,,,,,,,,,,,,,,,,,,,,,,,,,,1,5.603031549999287,,,,,,,,,,,,,,,,,,,,,,,,,,,,062019_p2,001,2019_Jun_20_1433,body_behavioural,3.0.4,59.99197727298745,
5,"The professor said, “The senate had conferred upon him the title of Augustus the sacred and revered one, the restorer of traditional values, the city’s new religious leader, the restorer of temples. ",3,2,None,,,,,,0,5,5,5,,,,,0,15,15,15,,,,,,,,,,,,,,,,,,,,,,,,,,,,,,,,,,,9,6.470109333000437,,,,,,,,,,,,,,,,,,,,,,,,,,,,062019_p2,001,2019_Jun_20_1433,body_behavioural,3.0.4,59.99197727298745,
5,"Augustus also sought to beautify Rome, make it into a new Athens, and dispel the criticisms of Rome as disorganized and ugly.”",3,2,None,,,,,,0,5,5,5,,,,,0,16,16,16,,,,,,,,,,,,,,,,,,,,,,,,,,,,,,,,,,,1,0.7197380400029942,,,,,,,,,,,,,,,,,,,,,,,,,,,,062019_p2,001,2019_Jun_20_1433,body_behavioural,3.0.4,59.99197727298745,
5,"Alma turned to Charlie and offered her rebuttal, “I don’t know about that.",3,3,None,,,,,,0,5,5,5,,,,,0,17,17,17,,,,,,,,,,,,,,,,,,,,,,,,,,,,,,,,,,,1,1.685739745000319,,,,,,,,,,,,,,,,,,,,,,,,,,,,062019_p2,001,2019_Jun_20_1433,body_behavioural,3.0.4,59.99197727298745,
5,It’s not going to be possible to implement our ideas effectively unless the project is fully funded. ,3,3,None,,,,,,0,5,5,5,,,,,0,18,18,18,,,,,,,,,,,,,,,,,,,,,,,,,,,,,,,,,,,1,2.7195919350015174,,,,,,,,,,,,,,,,,,,,,,,,,,,,062019_p2,001,2019_Jun_20_1433,body_behavioural,3.0.4,59.99197727298745,
5,"We would have to find other investors like your competitor on campus, Churchill Capital Group, and that would set us back in our timeline. ",3,3,None,,,,,,0,5,5,5,,,,,0,19,19,19,,,,,,,,,,,,,,,,,,,,,,,,,,,,,,,,,,,1,7.186865490002674,,,,,,,,,,,,,,,,,,,,,,,,,,,,062019_p2,001,2019_Jun_20_1433,body_behavioural,3.0.4,59.99197727298745,
5,"Our profit projections assumed we'd be starting relatively soon, not months down the line.” ",3,3,None,,,,,,0,5,5,5,,,,,0,20,20,20,,,,,,,,,,,,,,,,,,,,,,,,,,,,,,,,,,,1,4.435045890000765,,,,,,,,,,,,,,,,,,,,,,,,,,,,062019_p2,001,2019_Jun_20_1433,body_behavioural,3.0.4,59.99197727298745,
5,They whispered back and forth during the entire class working out a compromise. ,3,3,None,,,,,,0,5,5,5,,,,,0,21,21,21,,,,,,,,,,,,,,,,,,,,,,,,,,,,,,,,,,,1,4.787048344998766,,,,,,,,,,,,,,,,,,,,,,,,,,,,062019_p2,001,2019_Jun_20_1433,body_behavioural,3.0.4,59.99197727298745,
5,The professor dismissed the students with a reminder that the midterm paper was due on Thursday and that they should email their papers to the TA.,4,3,None,,,,,,0,5,5,5,,,,,0,22,22,22,,,,,,,,,,,,,,,,,,,,,,,,,,,,,,,,,,,9,5.0034259099993506,,,,,,,,,,,,,,,,,,,,,,,,,,,,062019_p2,001,2019_Jun_20_1433,body_behavioural,3.0.4,59.99197727298745,
5,"Everyone, except Charlie and Alma, packed up their things and headed out of the lecture hall. ",4,3,None,,,,,,0,5,5,5,,,,,0,23,23,23,,,,,,,,,,,,,,,,,,,,,,,,,,,,,,,,,,,9,5.036706047001644,,,,,,,,,,,,,,,,,,,,,,,,,,,,062019_p2,001,2019_Jun_20_1433,body_behavioural,3.0.4,59.99197727298745,
5,"“Alright, so we’ll have the $30,000 wired to you by tomorrow,” Charlie said. ",4,4,None,,,,,,0,5,5,5,,,,,0,24,24,24,,,,,,,,,,,,,,,,,,,,,,,,,,,,,,,,,,,1,2.0703710229972785,,,,,,,,,,,,,,,,,,,,,,,,,,,,062019_p2,001,2019_Jun_20_1433,body_behavioural,3.0.4,59.99197727298745,
5,"This wasn't ideal for Charlie, but Alma had refused to budge, and his investment group had told him they were willing to pay the full amount if necessary. ",4,4,None,,,,,,0,5,5,5,,,,,0,25,25,25,,,,,,,,,,,,,,,,,,,,,,,,,,,,,,,,,,,1,8.28680442499899,,,,,,,,,,,,,,,,,,,,,,,,,,,,062019_p2,001,2019_Jun_20_1433,body_behavioural,3.0.4,59.99197727298745,
5,They hugged in confirmation of the deal and made plans to sign the official paperwork the next day. ,4,4,None,,,,,,0,5,5,5,,,,,0,26,26,26,,,,,,,,,,,,,,,,,,,,,,,,,,,,,,,,,,,1,1.9034866349975346,,,,,,,,,,,,,,,,,,,,,,,,,,,,062019_p2,001,2019_Jun_20_1433,body_behavioural,3.0.4,59.99197727298745,
5,,,,,,,,,,0,5,5,5,,,,,,,,,,,,,,,,,,,,,,,,,,,,,,,,,,,,,,,,,,,,,,,,,,,,,,,,,,,,,,,,,,,,,,,,062019_p2,001,2019_Jun_20_1433,body_behavioural,3.0.4,59.99197727298745,
6,,,,,,,,,,0,6,6,6,0,0,0,0,,,,,,,,,,,,,,,,,,,,,,,,,,,,,space,3.6698007519989915,space,0.603190829999221,space,3.669075662000978,,,,,,,,,,,,,,,,,,,,,,,,,,,,,,,,,,062019_p2,001,2019_Jun_20_1433,body_behavioural,3.0.4,59.99197727298745,
6,,,,,,,,,,0,6,6,6,1,0,1,0,,,,,,,,,,,,,,,,,,,,,,,,,,,,,,,,,space,0.4196797769982368,,,,,,,,,,,,,,,,,,,,,,,,,,,,,,,,,,062019_p2,001,2019_Jun_20_1433,body_behavioural,3.0.4,59.99197727298745,
6,,,,,,,,,,0,6,6,6,2,0,2,0,,,,,,,,,,,,,,,,,,,,,,,,,,,,,,,,,space,0.9030929829968954,,,,,,,,,,,,,,,,,,,,,,,,,,,,,,,,,,062019_p2,001,2019_Jun_20_1433,body_behavioural,3.0.4,59.99197727298745,
6,"Alex was a distracted, sweaty mess as he walked into the grocery store with Chloe; he was hoping that she wouldn't suspect that he was about to propose.",1,1,23.0,,,,,,0,6,6,6,,,,,0,0,0,0,,,,,,,,,,,,,,,,,,,,,,,,,,,,,,,space,1.6006140379977296,space,1.5863275949996023,9,5.953907292998338,,,,,,,,,,,,,,,,,,,,,,,,,,,,062019_p2,001,2019_Jun_20_1433,body_behavioural,3.0.4,59.99197727298745,
6,The grocery store was brightly lit with sunshine pouring in through glass walls at the front of the store.,1,1,None,,,,,,0,6,6,6,,,,,0,1,1,1,,,,,,,,,,,,,,,,,,,,,,,,,,,,,,,,,,,1,7.103362523001124,,,,,,,,,,,,,,,,,,,,,,,,,,,,062019_p2,001,2019_Jun_20_1433,body_behavioural,3.0.4,59.99197727298745,
6,Also in the front area were large posters advertising thanksgiving promotions.,1,1,None,,,,,,0,6,6,6,,,,,0,2,2,2,,,,,,,,,,,,,,,,,,,,,,,,,,,,,,,,,,,1,2.470244072999776,,,,,,,,,,,,,,,,,,,,,,,,,,,,062019_p2,001,2019_Jun_20_1433,body_behavioural,3.0.4,59.99197727298745,
6,"The store was buzzing with activity because the next day was Thanksgiving, and most shoppers had carts piled high with turkey, stuffing, and pies.",1,1,None,,,,,,0,6,6,6,,,,,0,3,3,3,,,,,,,,,,,,,,,,,,,,,,,,,,,,,,,,,,,1,7.351046972999029,,,,,,,,,,,,,,,,,,,,,,,,,,,,062019_p2,001,2019_Jun_20_1433,body_behavioural,3.0.4,59.99197727298745,
6,Alex wanted to propose here because he knew Chloe would be wonderfully surprised. ,1,1,None,,,,,,0,6,6,6,,,,,0,4,4,4,,,,,,,,,,,,,,,,,,,,,,,,,,,,,,,,,,,9,6.270003619996714,,,,,,,,,,,,,,,,,,,,,,,,,,,,062019_p2,001,2019_Jun_20_1433,body_behavioural,3.0.4,59.99197727298745,
6,"After 23 months of dating, Alex knew one of the things Chloe loved most was surprises. ",1,1,None,,,,,,0,6,6,6,,,,,0,5,5,5,,,,,,,,,,,,,,,,,,,,,,,,,,,,,,,,,,,1,2.4697584150017065,,,,,,,,,,,,,,,,,,,,,,,,,,,,062019_p2,001,2019_Jun_20_1433,body_behavioural,3.0.4,59.99197727298745,
6,"Chloe perused the canned goods aisle, and said, “Alex, we need a couple things.”",2,1,None,,,,,,0,6,6,6,,,,,0,6,6,6,,,,,,,,,,,,,,,,,,,,,,,,,,,,,,,,,,,9,7.137571981998917,,,,,,,,,,,,,,,,,,,,,,,,,,,,062019_p2,001,2019_Jun_20_1433,body_behavioural,3.0.4,59.99197727298745,
6,"He didn’t hear her and was fanning himself, and Chloe asked him if he was okay.",2,1,None,,,,,,0,6,6,6,,,,,0,7,7,7,,,,,,,,,,,,,,,,,,,,,,,,,,,,,,,,,,,1,3.1197565750007925,,,,,,,,,,,,,,,,,,,,,,,,,,,,062019_p2,001,2019_Jun_20_1433,body_behavioural,3.0.4,59.99197727298745,
6,"“Oh yeah, for sure,” he said, unconvincingly. ",2,1,None,,,,,,0,6,6,6,,,,,0,8,8,8,,,,,,,,,,,,,,,,,,,,,,,,,,,,,,,,,,,1,1.2842638479996822,,,,,,,,,,,,,,,,,,,,,,,,,,,,062019_p2,001,2019_Jun_20_1433,body_behavioural,3.0.4,59.99197727298745,
6,"She chuckled, “Alright, whatever you say.” ",2,1,None,,,,,,0,6,6,6,,,,,0,9,9,9,,,,,,,,,,,,,,,,,,,,,,,,,,,,,,,,,,,1,1.3028134400010458,,,,,,,,,,,,,,,,,,,,,,,,,,,,062019_p2,001,2019_Jun_20_1433,body_behavioural,3.0.4,59.99197727298745,
6,"She had a can of pumpkin puree and a bottle of vinegar picked out, and she was now mulling over the different cans of cranberry sauce.",2,1,None,,,,,,0,6,6,6,,,,,0,10,10,10,,,,,,,,,,,,,,,,,,,,,,,,,,,,,,,,,,,9,4.069982158001949,,,,,,,,,,,,,,,,,,,,,,,,,,,,062019_p2,001,2019_Jun_20_1433,body_behavioural,3.0.4,59.99197727298745,
6,"Alex was guessing she would be a while, and he turned his back to her and pulled out the ring to look at it one more time. ",2,2,None,,,,,,0,6,6,6,,,,,0,11,11,11,,,,,,,,,,,,,,,,,,,,,,,,,,,,,,,,,,,1,1.6531160779995844,,,,,,,,,,,,,,,,,,,,,,,,,,,,062019_p2,001,2019_Jun_20_1433,body_behavioural,3.0.4,59.99197727298745,
6,The ring a thin band with one white diamond that glittered excessively in the light. ,2,2,None,,,,,,0,6,6,6,,,,,0,12,12,12,,,,,,,,,,,,,,,,,,,,,,,,,,,,,,,,,,,1,4.353018598001654,,,,,,,,,,,,,,,,,,,,,,,,,,,,062019_p2,001,2019_Jun_20_1433,body_behavioural,3.0.4,59.99197727298745,
6,“Do we need anything else?” she called out to him. ,2,2,None,,,,,,0,6,6,6,,,,,0,13,13,13,,,,,,,,,,,,,,,,,,,,,,,,,,,,,,,,,,,1,1.9867477400002826,,,,,,,,,,,,,,,,,,,,,,,,,,,,062019_p2,001,2019_Jun_20_1433,body_behavioural,3.0.4,59.99197727298745,
6,"“Yeah I don’t know, honey,” he said back, still looking at the ring. ",2,2,None,,,,,,0,6,6,6,,,,,0,14,14,14,,,,,,,,,,,,,,,,,,,,,,,,,,,,,,,,,,,1,2.386730065001757,,,,,,,,,,,,,,,,,,,,,,,,,,,,062019_p2,001,2019_Jun_20_1433,body_behavioural,3.0.4,59.99197727298745,
6,"In the checkout area, there were 5 aisles open and they stepped in line for station 3. ",3,2,None,,,,,,0,6,6,6,,,,,0,15,15,15,,,,,,,,,,,,,,,,,,,,,,,,,,,,,,,,,,,9,11.853798025000287,,,,,,,,,,,,,,,,,,,,,,,,,,,,062019_p2,001,2019_Jun_20_1433,body_behavioural,3.0.4,59.99197727298745,
6,Alex was staring intensely off into the distance for most of the time and fidgeting with his wallet. ,3,2,None,,,,,,0,6,6,6,,,,,0,16,16,16,,,,,,,,,,,,,,,,,,,,,,,,,,,,,,,,,,,1,1.502755760000582,,,,,,,,,,,,,,,,,,,,,,,,,,,,062019_p2,001,2019_Jun_20_1433,body_behavioural,3.0.4,59.99197727298745,
6,"Chloe watched him trying to decide whether he looked scared or confused, and shrugged, pulling out her phone since she figured he’d talk about whatever was on his mind when he was ready. ",3,2,None,,,,,,0,6,6,6,,,,,0,17,17,17,,,,,,,,,,,,,,,,,,,,,,,,,,,,,,,,,,,9,8.737036382000952,,,,,,,,,,,,,,,,,,,,,,,,,,,,062019_p2,001,2019_Jun_20_1433,body_behavioural,3.0.4,59.99197727298745,
6,Alex looked over at their friends who were waiting by the entrance of the grocery store.,3,2,None,,,,,,0,6,6,6,,,,,0,18,18,18,,,,,,,,,,,,,,,,,,,,,,,,,,,,,,,,,,,1,3.0366805379999278,,,,,,,,,,,,,,,,,,,,,,,,,,,,062019_p2,001,2019_Jun_20_1433,body_behavioural,3.0.4,59.99197727298745,
6,They walked over slowly. ,3,2,None,,,,,,0,6,6,6,,,,,0,19,19,19,,,,,,,,,,,,,,,,,,,,,,,,,,,,,,,,,,,1,2.200731437998911,,,,,,,,,,,,,,,,,,,,,,,,,,,,062019_p2,001,2019_Jun_20_1433,body_behavioural,3.0.4,59.99197727298745,
6,"Seemingly out of nowhere, Alex took Chloe’s hand and he got down on one knee. ",3,3,None,,,,,,0,6,6,6,,,,,0,20,20,20,,,,,,,,,,,,,,,,,,,,,,,,,,,,,,,,,,,9,4.002885472000344,,,,,,,,,,,,,,,,,,,,,,,,,,,,062019_p2,001,2019_Jun_20_1433,body_behavioural,3.0.4,59.99197727298745,
6,Chloe gasped,3,3,None,,,,,,0,6,6,6,,,,,0,21,21,21,,,,,,,,,,,,,,,,,,,,,,,,,,,,,,,,,,,1,1.1360258899985638,,,,,,,,,,,,,,,,,,,,,,,,,,,,062019_p2,001,2019_Jun_20_1433,body_behavioural,3.0.4,59.99197727298745,
6,"“Chloe, I love you so much and I want to be with you forever, I can’t imagine a day without you.”",3,3,None,,,,,,0,6,6,6,,,,,0,22,22,22,,,,,,,,,,,,,,,,,,,,,,,,,,,,,,,,,,,1,4.284116660001018,,,,,,,,,,,,,,,,,,,,,,,,,,,,062019_p2,001,2019_Jun_20_1433,body_behavioural,3.0.4,59.99197727298745,
6,"“Alex, me too,” she replied.",3,3,None,,,,,,0,6,6,6,,,,,0,23,23,23,,,,,,,,,,,,,,,,,,,,,,,,,,,,,,,,,,,1,1.7360700099998212,,,,,,,,,,,,,,,,,,,,,,,,,,,,062019_p2,001,2019_Jun_20_1433,body_behavioural,3.0.4,59.99197727298745,
6,"The ring was in the crevice of his wallet, and he opened it.",3,3,None,,,,,,0,6,6,6,,,,,0,24,24,24,,,,,,,,,,,,,,,,,,,,,,,,,,,,,,,,,,,1,4.620606111999223,,,,,,,,,,,,,,,,,,,,,,,,,,,,062019_p2,001,2019_Jun_20_1433,body_behavioural,3.0.4,59.99197727298745,
6,“Will you marry me?”,3,3,None,,,,,,0,6,6,6,,,,,0,25,25,25,,,,,,,,,,,,,,,,,,,,,,,,,,,,,,,,,,,1,1.6695200280009885,,,,,,,,,,,,,,,,,,,,,,,,,,,,062019_p2,001,2019_Jun_20_1433,body_behavioural,3.0.4,59.99197727298745,
6,"The people in line around them realized what was happening, stepped back, and started taking pictures.",3,3,None,,,,,,0,6,6,6,,,,,0,26,26,26,,,,,,,,,,,,,,,,,,,,,,,,,,,,,,,,,,,9,1.8699352680014272,,,,,,,,,,,,,,,,,,,,,,,,,,,,062019_p2,001,2019_Jun_20_1433,body_behavioural,3.0.4,59.99197727298745,
6,Their friends were no longer trying to hide and were videotaping and taking pictures too. ,3,3,None,,,,,,0,6,6,6,,,,,0,27,27,27,,,,,,,,,,,,,,,,,,,,,,,,,,,,,,,,,,,1,7.786844253001618,,,,,,,,,,,,,,,,,,,,,,,,,,,,062019_p2,001,2019_Jun_20_1433,body_behavioural,3.0.4,59.99197727298745,
6,"After a few moments of suspense she shouted,“Yes!”, and she jumped to embrace Alex in a hug. ",3,4,None,,,,,,0,6,6,6,,,,,0,28,28,28,,,,,,,,,,,,,,,,,,,,,,,,,,,,,,,,,,,1,22.40447528200093,,,,,,,,,,,,,,,,,,,,,,,,,,,,062019_p2,001,2019_Jun_20_1433,body_behavioural,3.0.4,59.99197727298745,
6,Everyone in line clapped and cheered. ,3,4,None,,,,,,0,6,6,6,,,,,0,29,29,29,,,,,,,,,,,,,,,,,,,,,,,,,,,,,,,,,,,1,1.2862998800010246,,,,,,,,,,,,,,,,,,,,,,,,,,,,062019_p2,001,2019_Jun_20_1433,body_behavioural,3.0.4,59.99197727298745,
6,"Alex put the ring on Chloe’s finger, who was nearly spinning in excitement.",3,4,None,,,,,,0,6,6,6,,,,,0,30,30,30,,,,,,,,,,,,,,,,,,,,,,,,,,,,,,,,,,,9,1.5527325000002747,,,,,,,,,,,,,,,,,,,,,,,,,,,,062019_p2,001,2019_Jun_20_1433,body_behavioural,3.0.4,59.99197727298745,
6,“I love it!,3,4,None,,,,,,0,6,6,6,,,,,0,31,31,31,,,,,,,,,,,,,,,,,,,,,,,,,,,,,,,,,,,1,1.1362308649986517,,,,,,,,,,,,,,,,,,,,,,,,,,,,062019_p2,001,2019_Jun_20_1433,body_behavioural,3.0.4,59.99197727298745,
6,Oh my- it’s so glittery!,3,4,None,,,,,,0,6,6,6,,,,,0,32,32,32,,,,,,,,,,,,,,,,,,,,,,,,,,,,,,,,,,,1,1.0026307749976695,,,,,,,,,,,,,,,,,,,,,,,,,,,,062019_p2,001,2019_Jun_20_1433,body_behavioural,3.0.4,59.99197727298745,
6,Look at this!” she said as she shoved her hand in a stranger’s face.,3,4,None,,,,,,0,6,6,6,,,,,0,33,33,33,,,,,,,,,,,,,,,,,,,,,,,,,,,,,,,,,,,1,2.719862383000873,,,,,,,,,,,,,,,,,,,,,,,,,,,,062019_p2,001,2019_Jun_20_1433,body_behavioural,3.0.4,59.99197727298745,
6,Their friends came over and hugged them.,3,4,None,,,,,,0,6,6,6,,,,,0,34,34,34,,,,,,,,,,,,,,,,,,,,,,,,,,,,,,,,,,,9,2.500723195000319,,,,,,,,,,,,,,,,,,,,,,,,,,,,062019_p2,001,2019_Jun_20_1433,body_behavioural,3.0.4,59.99197727298745,
6,The other people let them move up to the front of the checkout line. ,3,4,None,,,,,,0,6,6,6,,,,,0,35,35,35,,,,,,,,,,,,,,,,,,,,,,,,,,,,,,,,,,,1,1.4693436380002822,,,,,,,,,,,,,,,,,,,,,,,,,,,,062019_p2,001,2019_Jun_20_1433,body_behavioural,3.0.4,59.99197727298745,
6,Chloe immediately texted her mom a picture of her hand. ,3,4,None,,,,,,0,6,6,6,,,,,0,36,36,36,,,,,,,,,,,,,,,,,,,,,,,,,,,,,,,,,,,1,1.169510736999655,,,,,,,,,,,,,,,,,,,,,,,,,,,,062019_p2,001,2019_Jun_20_1433,body_behavioural,3.0.4,59.99197727298745,
6,The cashier congratulated them and scanned their groceries. ,4,4,None,,,,,,0,6,6,6,,,,,0,37,37,37,,,,,,,,,,,,,,,,,,,,,,,,,,,,,,,,,,,1,1.2367355030000908,,,,,,,,,,,,,,,,,,,,,,,,,,,,062019_p2,001,2019_Jun_20_1433,body_behavioural,3.0.4,59.99197727298745,
6,The total came to $14 and Alex paid in cash while Chloe greeted their friends.,4,4,None,,,,,,0,6,6,6,,,,,0,38,38,38,,,,,,,,,,,,,,,,,,,,,,,,,,,,,,,,,,,9,1.8864985250002064,,,,,,,,,,,,,,,,,,,,,,,,,,,,062019_p2,001,2019_Jun_20_1433,body_behavioural,3.0.4,59.99197727298745,
6,"Alex grabbed the bags, and they all walked out together working out where they’d go to celebrate.  ",4,4,None,,,,,,0,6,6,6,,,,,0,39,39,39,,,,,,,,,,,,,,,,,,,,,,,,,,,,,,,,,,,1,1.1196257219999097,,,,,,,,,,,,,,,,,,,,,,,,,,,,062019_p2,001,2019_Jun_20_1433,body_behavioural,3.0.4,59.99197727298745,
6,,,,,,,,,,0,6,6,6,,,,,,,,,,,,,,,,,,,,,,,,,,,,,,,,,,,,,,,,,,,,,,,,,,,,,,,,,,,,,,,,,,,,,,,,062019_p2,001,2019_Jun_20_1433,body_behavioural,3.0.4,59.99197727298745,
7,,,,,,,,,,0,7,7,7,0,0,0,0,,,,,,,,,,,,,,,,,,,,,,,,,,,,,space,0.8526210550007818,space,0.4196003600009135,space,1.9197815030020138,,,,,,,,,,,,,,,,,,,,,,,,,,,,,,,,,,062019_p2,001,2019_Jun_20_1433,body_behavioural,3.0.4,59.99197727298745,
7,,,,,,,,,,0,7,7,7,1,0,1,0,,,,,,,,,,,,,,,,,,,,,,,,,,,,,,,,,space,0.46958823000022676,,,,,,,,,,,,,,,,,,,,,,,,,,,,,,,,,,062019_p2,001,2019_Jun_20_1433,body_behavioural,3.0.4,59.99197727298745,
7,,,,,,,,,,0,7,7,7,2,0,2,0,,,,,,,,,,,,,,,,,,,,,,,,,,,,,,,,,space,0.5506265849980991,,,,,,,,,,,,,,,,,,,,,,,,,,,,,,,,,,062019_p2,001,2019_Jun_20_1433,body_behavioural,3.0.4,59.99197727298745,
7,,,,,,,,,,0,7,7,7,3,0,3,0,,,,,,,,,,,,,,,,,,,,,,,,,,,,,,,,,space,0.3863737850006146,,,,,,,,,,,,,,,,,,,,,,,,,,,,,,,,,,062019_p2,001,2019_Jun_20_1433,body_behavioural,3.0.4,59.99197727298745,
7,,,,,,,,,,0,7,7,7,4,0,4,0,,,,,,,,,,,,,,,,,,,,,,,,,,,,,,,,,space,0.31958724799915217,,,,,,,,,,,,,,,,,,,,,,,,,,,,,,,,,,062019_p2,001,2019_Jun_20_1433,body_behavioural,3.0.4,59.99197727298745,
7,,,,,,,,,,0,7,7,7,5,0,5,0,,,,,,,,,,,,,,,,,,,,,,,,,,,,,,,,,space,0.38397846299994853,,,,,,,,,,,,,,,,,,,,,,,,,,,,,,,,,,062019_p2,001,2019_Jun_20_1433,body_behavioural,3.0.4,59.99197727298745,
7,,,,,,,,,,0,7,7,7,6,0,6,0,,,,,,,,,,,,,,,,,,,,,,,,,,,,,,,,,space,0.3527589320001425,,,,,,,,,,,,,,,,,,,,,,,,,,,,,,,,,,062019_p2,001,2019_Jun_20_1433,body_behavioural,3.0.4,59.99197727298745,
7,"Thomas, dreading the approaching breakup conversation he was about to start, got to Annika’s Finer Diner late but Sadie, his girlfriend, was not there yet.",1,1,11.0,None,None,None,None,,0,7,7,7,,,,,0,0,0,0,,,,,,,,,,,,,,,,,,,,,,,,,,,,,,,space,0.6026127780023671,space,0.40312102299867547,9,15.385069135001686,,,,,,,,,,,,,,,,,,,,,,,,,,,,062019_p2,001,2019_Jun_20_1433,body_behavioural,3.0.4,59.99197727298745,
7,Thomas had been thinking about breaking up with her for 2 months now.,1,1,None,None,None,1.0,None,,0,7,7,7,,,,,0,1,1,1,,,,,,,,,,,,,,,,,,,,,,,,,,,,,,,,,,,1,1.869698270002118,,,,,,,,,,,,,,,,,,,,,,,,,,,,062019_p2,001,2019_Jun_20_1433,body_behavioural,3.0.4,59.99197727298745,
7,"The restaurant he had chosen to meet at was reminiscent of a diner from the 70’s; there was black and white checkerboard tiling on the floor, a long bar in the front, and booths and stools with red, leather upholstery. ",1,1,None,None,None,None,1.0,,0,7,7,7,,,,,0,2,2,2,,,,,,,,,,,,,,,,,,,,,,,,,,,,,,,,,,,9,13.02039298499949,,,,,,,,,,,,,,,,,,,,,,,,,,,,062019_p2,001,2019_Jun_20_1433,body_behavioural,3.0.4,59.99197727298745,
7,"A bell chimed as the door swung open, and Sadie entered to find Thomas ruminating at the bar.",1,1,None,None,None,None,None,,0,7,7,7,,,,,0,3,3,3,,,,,,,,,,,,,,,,,,,,,,,,,,,,,,,,,,,9,1.9366594299972348,,,,,,,,,,,,,,,,,,,,,,,,,,,,062019_p2,001,2019_Jun_20_1433,body_behavioural,3.0.4,59.99197727298745,
7,"He stood up and gave her a side hug, asking quickly, “How was your day?”",1,1,None,None,None,None,None,,0,7,7,7,,,,,0,4,4,4,,,,,,,,,,,,,,,,,,,,,,,,,,,,,,,,,,,1,1.3363550120011496,,,,,,,,,,,,,,,,,,,,,,,,,,,,062019_p2,001,2019_Jun_20_1433,body_behavioural,3.0.4,59.99197727298745,
7,"She clung onto him, “It was okay- I missed you today.”",1,1,None,None,None,None,None,,0,7,7,7,,,,,0,5,5,5,,,,,,,,,,,,,,,,,,,,,,,,,,,,,,,,,,,1,1.5360536499974842,,,,,,,,,,,,,,,,,,,,,,,,,,,,062019_p2,001,2019_Jun_20_1433,body_behavioural,3.0.4,59.99197727298745,
7,"He looked away and addressed the hostess coming towards them, “Can we have a booth in the back?”",1,1,None,None,None,None,None,,0,7,7,7,,,,,0,6,6,6,,,,,,,,,,,,,,,,,,,,,,,,,,,,,,,,,,,1,5.086764788000437,,,,,,,,,,,,,,,,,,,,,,,,,,,,062019_p2,001,2019_Jun_20_1433,body_behavioural,3.0.4,59.99197727298745,
7,"She shrugged and after loudly popping her bubblegum replied, “Sure, honey.”",1,1,None,9.0,None,None,None,,0,7,7,7,,,,,0,7,7,7,,,,,,,,,,,,,,,,,,,,,,,,,,,,,,,,,,,1,7.434562595000898,,,,,,,,,,,,,,,,,,,,,,,,,,,,062019_p2,001,2019_Jun_20_1433,body_behavioural,3.0.4,59.99197727298745,
7,She seated them at a booth in the back corner of the diner.  ,2,1,None,None,None,None,None,,0,7,7,7,,,,,0,8,8,8,,,,,,,,,,,,,,,,,,,,,,,,,,,,,,,,,,,1,1.5198011899992707,,,,,,,,,,,,,,,,,,,,,,,,,,,,062019_p2,001,2019_Jun_20_1433,body_behavioural,3.0.4,59.99197727298745,
7,Sadie slipped into the cushioned seat and grabbed Thomas’ hand.,2,1,None,None,None,None,None,,0,7,7,7,,,,,0,9,9,9,,,,,,,,,,,,,,,,,,,,,,,,,,,,,,,,,,,9,2.3364993399991363,,,,,,,,,,,,,,,,,,,,,,,,,,,,062019_p2,001,2019_Jun_20_1433,body_behavioural,3.0.4,59.99197727298745,
7,“Tell me about your day!” she sang.,2,1,None,None,None,None,None,,0,7,7,7,,,,,0,10,10,10,,,,,,,,,,,,,,,,,,,,,,,,,,,,,,,,,,,1,1.0694473549992836,,,,,,,,,,,,,,,,,,,,,,,,,,,,062019_p2,001,2019_Jun_20_1433,body_behavioural,3.0.4,59.99197727298745,
7,He looked at her silently and pulled his hand slowly from hers as a puzzled look grew on Sadie’s face. ,2,1,None,None,None,None,None,,0,7,7,7,,,,,0,11,11,11,,,,,,,,,,,,,,,,,,,,,,,,,,,,,,,,,,,9,6.286345959997561,,,,,,,,,,,,,,,,,,,,,,,,,,,,062019_p2,001,2019_Jun_20_1433,body_behavioural,3.0.4,59.99197727298745,
7,Thomas looked away and took a deep breath. ,2,1,None,None,None,None,None,,0,7,7,7,,,,,0,12,12,12,,,,,,,,,,,,,,,,,,,,,,,,,,,,,,,,,,,1,1.2862196219975885,,,,,,,,,,,,,,,,,,,,,,,,,,,,062019_p2,001,2019_Jun_20_1433,body_behavioural,3.0.4,59.99197727298745,
7,"Sadie asked, “What’s wrong?” ",2,1,None,None,None,None,None,,0,7,7,7,,,,,0,13,13,13,,,,,,,,,,,,,,,,,,,,,,,,,,,,,,,,,,,1,1.8364596930005064,,,,,,,,,,,,,,,,,,,,,,,,,,,,062019_p2,001,2019_Jun_20_1433,body_behavioural,3.0.4,59.99197727298745,
7,Thomas picked at his fingernails.,2,1,None,None,22.0,None,None,,0,7,7,7,,,,,0,14,14,14,,,,,,,,,,,,,,,,,,,,,,,,,,,,,,,,,,,1,1.4198978979984531,,,,,,,,,,,,,,,,,,,,,,,,,,,,062019_p2,001,2019_Jun_20_1433,body_behavioural,3.0.4,59.99197727298745,
7,"After a few moments, Thomas let out a deep breath and said, “Sadie, I’ve been thinking, and I need a break from this relationship because I need to figure out my career path on my own.”",2,2,None,None,None,None,None,,0,7,7,7,,,,,0,15,15,15,,,,,,,,,,,,,,,,,,,,,,,,,,,,,,,,,,,9,7.1177535349997925,,,,,,,,,,,,,,,,,,,,,,,,,,,,062019_p2,001,2019_Jun_20_1433,body_behavioural,3.0.4,59.99197727298745,
7,Sadie sat back in her seat.,2,2,None,None,None,None,None,,0,7,7,7,,,,,0,16,16,16,,,,,,,,,,,,,,,,,,,,,,,,,,,,,,,,,,,9,2.0863588100000925,,,,,,,,,,,,,,,,,,,,,,,,,,,,062019_p2,001,2019_Jun_20_1433,body_behavioural,3.0.4,59.99197727298745,
7,"Thomas continued, “Things have been really picking up at work, and I’m not sure that this is the job I want to do anymore.",2,2,None,None,None,None,None,,0,7,7,7,,,,,0,17,17,17,,,,,,,,,,,,,,,,,,,,,,,,,,,,,,,,,,,1,1.5198129980017256,,,,,,,,,,,,,,,,,,,,,,,,,,,,062019_p2,001,2019_Jun_20_1433,body_behavioural,3.0.4,59.99197727298745,
7,"Plus, it’s been really overwhelming between working and figuring out if I should change careers, and I really feel like I need more time to figure it out.” ",2,2,None,17.0,None,None,None,,0,7,7,7,,,,,0,18,18,18,,,,,,,,,,,,,,,,,,,,,,,,,,,,,,,,,,,1,5.370003129999532,,,,,,,,,,,,,,,,,,,,,,,,,,,,062019_p2,001,2019_Jun_20_1433,body_behavioural,3.0.4,59.99197727298745,
7,"The waiter appeared and cheerily asked, “Have you decided what you would like?”",3,2,None,None,None,None,None,,0,7,7,7,,,,,0,19,19,19,,,,,,,,,,,,,,,,,,,,,,,,,,,,,,,,,,,9,2.05309189000036,,,,,,,,,,,,,,,,,,,,,,,,,,,,062019_p2,001,2019_Jun_20_1433,body_behavioural,3.0.4,59.99197727298745,
7,"Thomas and Sadie realized there were menus on the table, and they glanced at them quickly.",3,2,None,None,None,None,None,,0,7,7,7,,,,,0,20,20,20,,,,,,,,,,,,,,,,,,,,,,,,,,,,,,,,,,,1,2.169841827999335,,,,,,,,,,,,,,,,,,,,,,,,,,,,062019_p2,001,2019_Jun_20_1433,body_behavioural,3.0.4,59.99197727298745,
7,"The menus were laminated posters with silly names for all the foods, and since they didn’t want to read through each item description, they settled on familiar orders.",3,2,None,None,None,None,None,,0,7,7,7,,,,,0,21,21,21,,,,,,,,,,,,,,,,,,,,,,,,,,,,,,,,,,,1,6.317459783000231,,,,,,,,,,,,,,,,,,,,,,,,,,,,062019_p2,001,2019_Jun_20_1433,body_behavioural,3.0.4,59.99197727298745,
7,"“I’ll have a burger, no tomatoes,” Thomas said.",3,2,None,None,None,None,None,,0,7,7,7,,,,,0,22,22,22,,,,,,,,,,,,,,,,,,,,,,,,,,,,,,,,,,,1,1.8865522330015665,,,,,,,,,,,,,,,,,,,,,,,,,,,,062019_p2,001,2019_Jun_20_1433,body_behavioural,3.0.4,59.99197727298745,
7,"Sadie asked about the reuben, and the waiter told her it was excellent.",3,2,None,None,None,None,None,,0,7,7,7,,,,,0,23,23,23,,,,,,,,,,,,,,,,,,,,,,,,,,,,,,,,,,,1,1.8674457000015536,,,,,,,,,,,,,,,,,,,,,,,,,,,,062019_p2,001,2019_Jun_20_1433,body_behavioural,3.0.4,59.99197727298745,
7,"Confirming that that was all they’d like, the waiter walked away. ",3,2,None,None,None,None,None,,0,7,7,7,,,,,0,24,24,24,,,,,,,,,,,,,,,,,,,,,,,,,,,,,,,,,,,1,1.61945535400082,,,,,,,,,,,,,,,,,,,,,,,,,,,,062019_p2,001,2019_Jun_20_1433,body_behavioural,3.0.4,59.99197727298745,
7,Sadie- not so quietly- burst into tears. ,3,3,None,None,None,None,None,,0,7,7,7,,,,,0,25,25,25,,,,,,,,,,,,,,,,,,,,,,,,,,,,,,,,,,,9,1.736430475000816,,,,,,,,,,,,,,,,,,,,,,,,,,,,062019_p2,001,2019_Jun_20_1433,body_behavioural,3.0.4,59.99197727298745,
7,People sitting at the bar looked over and quickly averted their gaze when they figured what was happening. ,3,3,None,None,None,None,None,,0,7,7,7,,,,,0,26,26,26,,,,,,,,,,,,,,,,,,,,,,,,,,,,,,,,,,,1,2.3031892549988697,,,,,,,,,,,,,,,,,,,,,,,,,,,,062019_p2,001,2019_Jun_20_1433,body_behavioural,3.0.4,59.99197727298745,
7,"She whispered, “Is this really what you want?",3,3,None,None,None,None,None,,0,7,7,7,,,,,0,27,27,27,,,,,,,,,,,,,,,,,,,,,,,,,,,,,,,,,,,1,1.519746018002479,,,,,,,,,,,,,,,,,,,,,,,,,,,,062019_p2,001,2019_Jun_20_1433,body_behavioural,3.0.4,59.99197727298745,
7,"I don’t understand- things were fine, I thought. ",3,3,None,None,None,None,None,,0,7,7,7,,,,,0,28,28,28,,,,,,,,,,,,,,,,,,,,,,,,,,,,,,,,,,,1,2.753136135001114,,,,,,,,,,,,,,,,,,,,,,,,,,,,062019_p2,001,2019_Jun_20_1433,body_behavioural,3.0.4,59.99197727298745,
7,I think we should stay together because we can change how much we hang out. ,3,3,None,None,None,None,None,,0,7,7,7,,,,,0,29,29,29,,,,,,,,,,,,,,,,,,,,,,,,,,,,,,,,,,,1,3.9532466380005644,,,,,,,,,,,,,,,,,,,,,,,,,,,,062019_p2,001,2019_Jun_20_1433,body_behavioural,3.0.4,59.99197727298745,
7,"We don’t have to hang out all the time, or as much as we do now.”",3,3,None,None,None,None,None,,0,7,7,7,,,,,0,30,30,30,,,,,,,,,,,,,,,,,,,,,,,,,,,,,,,,,,,1,2.8864980799990008,,,,,,,,,,,,,,,,,,,,,,,,,,,,062019_p2,001,2019_Jun_20_1433,body_behavioural,3.0.4,59.99197727298745,
7,Thomas chewed on his bottom lip and picked at his now bleeding hangnail. ,3,3,None,20.0,None,None,None,,0,7,7,7,,,,,0,31,31,31,,,,,,,,,,,,,,,,,,,,,,,,,,,,,,,,,,,9,2.4508653650009364,,,,,,,,,,,,,,,,,,,,,,,,,,,,062019_p2,001,2019_Jun_20_1433,body_behavioural,3.0.4,59.99197727298745,
7,The waiter appeared with the burger and reuben and set them in front of them.,4,3,None,None,None,None,None,,0,7,7,7,,,,,0,32,32,32,,,,,,,,,,,,,,,,,,,,,,,,,,,,,,,,,,,9,4.953243642998132,,,,,,,,,,,,,,,,,,,,,,,,,,,,062019_p2,001,2019_Jun_20_1433,body_behavioural,3.0.4,59.99197727298745,
7,“Is there anything else I can get for you two?,4,3,None,None,None,None,None,,0,7,7,7,,,,,0,33,33,33,,,,,,,,,,,,,,,,,,,,,,,,,,,,,,,,,,,1,2.2531366100010928,,,,,,,,,,,,,,,,,,,,,,,,,,,,062019_p2,001,2019_Jun_20_1433,body_behavioural,3.0.4,59.99197727298745,
7,Will you be getting dessert tonight?” he asked.,4,3,None,None,None,None,None,,0,7,7,7,,,,,0,34,34,34,,,,,,,,,,,,,,,,,,,,,,,,,,,,,,,,,,,1,3.569844364999881,,,,,,,,,,,,,,,,,,,,,,,,,,,,062019_p2,001,2019_Jun_20_1433,body_behavioural,3.0.4,59.99197727298745,
7,"“Oh no, we’re good, thanks,” Thomas said blankly.",4,3,None,None,None,None,None,,0,7,7,7,,,,,0,35,35,35,,,,,,,,,,,,,,,,,,,,,,,,,,,,,,,,,,,1,2.9197980130011274,,,,,,,,,,,,,,,,,,,,,,,,,,,,062019_p2,001,2019_Jun_20_1433,body_behavioural,3.0.4,59.99197727298745,
7," With the waiter gone, Sadie suddenly stood up, grabbed half of the reuben, and shook it at him as she growled, “Don’t follow me, and don’t talk to me anymore!",4,4,None,None,None,None,None,,0,7,7,7,,,,,0,36,36,36,,,,,,,,,,,,,,,,,,,,,,,,,,,,,,,,,,,9,6.869486120001966,,,,,,,,,,,,,,,,,,,,,,,,,,,,062019_p2,001,2019_Jun_20_1433,body_behavioural,3.0.4,59.99197727298745,
7,"Also, I want my polaroid camera and Beatles poster back!”",4,4,None,None,None,None,None,,0,7,7,7,,,,,0,37,37,37,,,,,,,,,,,,,,,,,,,,,,,,,,,,,,,,,,,1,3.6364043100002164,,,,,,,,,,,,,,,,,,,,,,,,,,,,062019_p2,001,2019_Jun_20_1433,body_behavioural,3.0.4,59.99197727298745,
7,"She stormed off, and the bell above the door jingled cheerfully as the door closed behind her.",4,4,None,None,None,None,None,,0,7,7,7,,,,,0,38,38,38,,,,,,,,,,,,,,,,,,,,,,,,,,,,,,,,,,,1,2.9032313549978426,,,,,,,,,,,,,,,,,,,,,,,,,,,,062019_p2,001,2019_Jun_20_1433,body_behavioural,3.0.4,59.99197727298745,
7,Thomas sat there for awhile surprised at how quickly everything had transpired. ,4,4,None,None,None,None,None,,0,7,7,7,,,,,0,39,39,39,,,,,,,,,,,,,,,,,,,,,,,,,,,,,,,,,,,9,10.019957870001235,,,,,,,,,,,,,,,,,,,,,,,,,,,,062019_p2,001,2019_Jun_20_1433,body_behavioural,3.0.4,59.99197727298745,
7,"He grabbed his burger and took a bite of it, creating a dry and fishy taste in his mouth.",4,4,None,None,None,None,None,,0,7,7,7,,,,,0,40,40,40,,,,,,,,,,,,,,,,,,,,,,,,,,,,,,,,,,,1,3.4704807849993813,,,,,,,,,,,,,,,,,,,,,,,,,,,,062019_p2,001,2019_Jun_20_1433,body_behavioural,3.0.4,59.99197727298745,
7,He dropped it back on his plate and wondered if the restaurant was responsible for the foul taste. ,4,4,None,13.0,5.0,None,None,,0,7,7,7,,,,,0,41,41,41,,,,,,,,,,,,,,,,,,,,,,,,,,,,,,,,,,,1,3.6865630030006287,,,,,,,,,,,,,,,,,,,,,,,,,,,,062019_p2,001,2019_Jun_20_1433,body_behavioural,3.0.4,59.99197727298745,
7,,,,,,,,,,0,7,7,7,,,,,,,,,,,,,,,,,,,,,,,,,,,,,,,,,,,,,,,,,,,,,,,,,,,,,,,,,,,,,,,,,,,,,,,,062019_p2,001,2019_Jun_20_1433,body_behavioural,3.0.4,59.99197727298745,
,,,,,,,,,,,,,,,,,,,,,,,,,,,,,,,,,,,,,,,,,,,,,,,,,,,,,,,,,,1709.0381553039988,space,1.1030729830017663,,,,,,,,,,,,,,,,,,,,,,,,,062019_p2,001,2019_Jun_20_1433,body_behavioural,3.0.4,59.99197727298745,
,,,,,,,,,"In this next part of the experiment, please recall each story to the best of your ability.",,,,,,,,,,,,,0,0,0,0,,,,,,,,,,,,,,,,,,,,,,,,,,,,,,,,,,,,space,4.986766525002167,,,,,,,,,,,,,,,,,,,,,,,062019_p2,001,2019_Jun_20_1433,body_behavioural,3.0.4,59.99197727298745,
,,,,,,,,,"You will be presented with the story title, names, the images, and a blank text box for each story.",,,,,,,,,,,,,0,1,1,1,,,,,,,,,,,,,,,,,,,,,,,,,,,,,,,,,,,,space,6.5366344950016355,,,,,,,,,,,,,,,,,,,,,,,062019_p2,001,2019_Jun_20_1433,body_behavioural,3.0.4,59.99197727298745,
,,,,,,,,,Describe the story indicated with as many details as you can remember in the space provided. ,,,,,,,,,,,,,0,2,2,2,,,,,,,,,,,,,,,,,,,,,,,,,,,,,,,,,,,,space,3.2697542879977846,,,,,,,,,,,,,,,,,,,,,,,062019_p2,001,2019_Jun_20_1433,body_behavioural,3.0.4,59.99197727298745,
,,,,,,,,,"When you are finished recalling one story, to move onto the next one, press the ‘return’ key. ",,,,,,,,,,,,,0,3,3,3,,,,,,,,,,,,,,,,,,,,,,,,,,,,,,,,,,,,space,3.5366478280011506,,,,,,,,,,,,,,,,,,,,,,,062019_p2,001,2019_Jun_20_1433,body_behavioural,3.0.4,59.99197727298745,
,,,,,,,,,There is a 5 minute time limit to make your response. ,,,,,,,,,,,,,0,4,4,4,,,,,,,,,,,,,,,,,,,,,,,,,,,,,,,,,,,,space,1.4198414750026132,,,,,,,,,,,,,,,,,,,,,,,062019_p2,001,2019_Jun_20_1433,body_behavioural,3.0.4,59.99197727298745,
,,,,,,,,,Please note that you will not be able to capitalize any letters except for the first letter of your answer. This will not effect the scoring of your recall answer.,,,,,,,,,,,,,0,5,5,5,,,,,,,,,,,,,,,,,,,,,,,,,,,,,,,,,,,,space,5.503279435000877,,,,,,,,,,,,,,,,,,,,,,,062019_p2,001,2019_Jun_20_1433,body_behavioural,3.0.4,59.99197727298745,
0,,,,,,,,,,,,,,,,,,,,,,,,,,0,0,0,0,,,,,,,,,,,,,,,,,,,,,,,,,,,,,,,,,,space,1.4193794429993432,,,,,,,,,,,,,,,,,,,,,062019_p2,001,2019_Jun_20_1433,body_behavioural,3.0.4,59.99197727298745,
1,,,,,,,,,,,,,,,,,,,,,,,,,,0,1,1,1,,,,,,,,,,,,,,,,,,,,,,,,,,,,,,,,,,space,1.0864623620000202,"Sven has a wedding ring in his pocket, it has 2 pink diamonds. he wants to propose to isabel after dating for 11 months. she is doing something and he pulls it out of his pocket to look at before returning it while they walk to security. there is a hold up in the line because someone has a bunch of metal on their person. this is good because isable has to dig out her laptop. she passes security but sven is stopped. isabel makes a face at him as he realizes the he has the ring in his pocket. he is forced to pull it out. he appologizes that he has to propose this way, but proposes in front of everyone. she is embarresses, but she says yes. sven hi fives the shoe shine boy.",,,,,,,,,,,,,,,,,,,,062019_p2,001,2019_Jun_20_1433,body_behavioural,3.0.4,59.99197727298745,
2,,,,,,,,,,,,,,,,,,,,,,,,,,0,2,2,2,,,,,,,,,,,,,,,,,,,,,,,,,,,,,,,,,,space,0.8366785600010189,"Maria wants to break up with henry. she tells him this during a lecture on aristotle. henry is very sad but maria is adamant because she is going away to study abroad and doesnt want to do long distance. henry is all like, i would visit you though, but maria says nah. henry says he cant change the situation so he may as well agree with her. then she realizes that she forgot her alpaca sweater in his dorm and asks him to get it and meet her in front of the student union.",,,,,,,,,,,,,,,,,,,,062019_p2,001,2019_Jun_20_1433,body_behavioural,3.0.4,59.99197727298745,
3,,,,,,,,,,,,,,,,,,,,,,,,,,0,3,3,3,,,,,,,,,,,,,,,,,,,,,,,,,,,,,,,,,,space,1.1507454330021574,"2 cfo dudes from competeing companies, one smaller yet technologically advenced, and the other from a large company, meet for a business lunch. both companies manufacture airline parts. the restuarant is decorated with animal skins and has heavy felt menus. shelton gets the veal, gordon gets a steak or something. shelton gets a manhattan, gordon gets a martini. the food is dry and bad. anyway mr gordon offers mr shelton a deal to buy his smaller company for 600 million. shelton says nah because his company wouldnt funtion as well under the umbrella of a large corporation, even though his employees would all stay and shelton would stay in charge of that wing. but gordon explains how larger competetors would soon overtake sheltons company, and that it would all work out. they cheers their drinks after shelton finally agrees to the buyout",,,,,,,,,,,,,,,,,,,,062019_p2,001,2019_Jun_20_1433,body_behavioural,3.0.4,59.99197727298745,
4,,,,,,,,,,,,,,,,,,,,,,,,,,0,4,4,4,,,,,,,,,,,,,,,,,,,,,,,,,,,,,,,,,,space,1.4836469149995537,"Ok this one is a meet cute at an airport. david saves anna from being hit buy a luggage wagon, and makes some dumb joke about her being an acrobat. they chit-chat all through the security line together and realize that they both went to the same high school. theres something wrong with the metal detector so they have more time to talk. after the security line, david runs with anna most of the way to her flight, which departs in 5 minutes. he asks her on a date for the following tuesday when she returns. she says yep and gives him a crumpled business card with her number. ",,,,,,,,,,,,,,,,,,,,062019_p2,001,2019_Jun_20_1433,body_behavioural,3.0.4,59.99197727298745,
5,,,,,,,,,,,,,,,,,,,,,,,,,,0,5,5,5,,,,,,,,,,,,,,,,,,,,,,,,,,,,,,,,,,space,0.9196422550012358,"Charlie and alma are in a medium sized lecture hall with projectors and something to do with usb ports. the lecture is on julius cesaer or something like that. charlie is from a student group that wants to invest in almas tech start up, but wants to only offer her half of the initial stake to see how the company grows before giving her the rest. shes like, bitch no, and says if he doesnt giver her all the money, shed just go to his competetor. after all, her company was projected to grow with the full funding, not half. the lecture is over but the 2 of them stay. he gives her the full amount of money which will be wired to her. they hug it out. also the professor mentioned that their midterm papers are due thursday and to email them to the ta",,,,,,,,,,,,,,,,,,,,062019_p2,001,2019_Jun_20_1433,body_behavioural,3.0.4,59.99197727298745,
6,,,,,,,,,,,,,,,,,,,,,,,,,,0,6,6,6,,,,,,,,,,,,,,,,,,,,,,,,,,,,,,,,,,space,0.7027317299980496,"My dude alex is gonna propose to chloe in the groecery store. the place is decked out with deals for thanksgiving. alex is super duper distracted because all he can think about is the very shiney single diamond ring in his pocket that he will propose with. chloe keeps asking him questions about what they should buy but hes totally not paying attention. at checkout, their 14 dollar purchase is interupted because chloe sees some friends and walks toward them. oh no, thought alex. so he proposes right there. shes like, sure lets do it. and then she shows her shiney ring to everyone, and the people are applauding and taking pictures, and the friends who were there were actually recording the whole thing. also she bought vinegar.",,,,,,,,,,,,,,,,,,,,062019_p2,001,2019_Jun_20_1433,body_behavioural,3.0.4,59.99197727298745,
7,,,,,,,,,,,,,,,,,,,,,,,,,,0,7,7,7,,,,,,,,,,,,,,,,,,,,,,,,,,,,,,,,,,space,0.6695812899997691,"Thomas is absolute garbage, just gonna say that. he invites sadie to a 70s diner to break up with her, a finer diner if you will. he gets there first, then sadie arrives. anyway they get a booth in the back and sadie is like, how was your day. and thomas is like, i want to focus on my career, lets break up. and the waiter is like, whatcha having. surprised because they forgot to look at the tackey menues with dumb names for the food and lots of pictures, thomas gets a burger with no tomatos and sadie gets a rueben based on the servers recomendation. sadie is like, we can make it work, we can hang out less. thomas, who is picking at his finger till it bleeds, says nah. she cries and everyone looks at them. the waiter brings them their food and asks if they want dessert, to which they say no. saide is like, never talk to me again, and give me back my polaroid camera and poster. then leaves. thomas eats his burger which tastes like fish and he blames that on the restuarant.",,,,,,,,,,,,,,,,,,,,062019_p2,001,2019_Jun_20_1433,body_behavioural,3.0.4,59.99197727298745,
,,,,,,,,,,,,,,,,,,,,,,,,,,,,,,,,,,,,,,,,,,,,,,,,,,,,,,,,,,,,,,,,,,3148.6852891060007,space,1.467414180006017,,,,,,,,,,,,,,,,,062019_p2,001,2019_Jun_20_1433,body_behavioural,3.0.4,59.99197727298745,
,,,,,,,,,"In this last part of the experiment, please answer 8 questions about each story.",,,,,,,,,,,,,,,,,,,,,0,0,0,0,,,,,,,,,,,,,,,,,,,,,,,,,,,,,,,,,,,,space,3.6530904979954357,,,,,,,,,,,,,,,062019_p2,001,2019_Jun_20_1433,body_behavioural,3.0.4,59.99197727298745,
,,,,,,,,,Some of the questions are not related to the perspective you were asked to assume.,,,,,,,,,,,,,,,,,,,,,0,1,1,1,,,,,,,,,,,,,,,,,,,,,,,,,,,,,,,,,,,,space,1.8025414049989195,,,,,,,,,,,,,,,062019_p2,001,2019_Jun_20_1433,body_behavioural,3.0.4,59.99197727298745,
,,,,,,,,,"We realize that we did not tell you to think of these questions during the story, but please do your best to answer them.",,,,,,,,,,,,,,,,,,,,,0,2,2,2,,,,,,,,,,,,,,,,,,,,,,,,,,,,,,,,,,,,space,3.570309759998054,,,,,,,,,,,,,,,062019_p2,001,2019_Jun_20_1433,body_behavioural,3.0.4,59.99197727298745,
,,,,,,,,,"When you have finished typing your answer, hit ‘return’ to submit your answer and move onto the next question. ",,,,,,,,,,,,,,,,,,,,,0,3,3,3,,,,,,,,,,,,,,,,,,,,,,,,,,,,,,,,,,,,space,4.136507398005051,,,,,,,,,,,,,,,062019_p2,001,2019_Jun_20_1433,body_behavioural,3.0.4,59.99197727298745,
0,,,,,,,,,,,,,,,,,,,,,,,,,,,,,,,,,,0,0,0,0,,,,,,,,,,,,,,,,,,,,,,,,,,,,Simon pays for all the groceries on his card,,,,,,space,0.7693819829946733,Meat,primed first,Simon does a pickup line about the meat hes holding,They will grab dinner the next week after their bbqs,Three fiftyfive,,Meat,,Simon pays for all the groceries on his card,,,,062019_p2,001,2019_Jun_20_1433,body_behavioural,3.0.4,59.99197727298745,
