count,storyText,locationEvent,socialEvent,locationEventSize,socialEventSize,story,socialAnswer,locationAnswer,instructText,trials.thisRepN,trials.thisTrialN,trials.thisN,trials.thisIndex,trials_7.thisRepN,trials_7.thisTrialN,trials_7.thisN,trials_7.thisIndex,trials_2.thisRepN,trials_2.thisTrialN,trials_2.thisN,trials_2.thisIndex,trials_3.thisRepN,trials_3.thisTrialN,trials_3.thisN,trials_3.thisIndex,trials_4.thisRepN,trials_4.thisTrialN,trials_4.thisN,trials_4.thisIndex,trials_5.thisRepN,trials_5.thisTrialN,trials_5.thisN,trials_5.thisIndex,trials_6.thisRepN,trials_6.thisTrialN,trials_6.thisN,trials_6.thisIndex,trials_8.thisRepN,trials_8.thisTrialN,trials_8.thisN,trials_8.thisIndex,order of stories,order of perspectives,participant 2 order - stories,participant 2 order  - schemas types,key_resp_8.keys,key_resp_8.rt,key_resp_5.keys,key_resp_5.rt,key_resp_7.keys,key_resp_7.rt,key_resp_15.keys,key_resp_15.rt,key_resp_14.keys,key_resp_14.rt,story_presses.keys,story_presses.rt,story time,key_resp_6.keys,key_resp_6.rt,key_resp_2.keys,key_resp_2.rt,key_resp_10.keys,key_resp_10.rt,recall,recall time,key_resp_12.keys,key_resp_12.rt,key_resp_3.keys,key_resp_3.rt,key_resp_11.keys,key_resp_11.rt,question1_answer,order of question,question2_answer,question3_answer,question4_answer,question5_answer,question6_answer,question7_answer,question8_answer,questions time,key_resp_13.keys,key_resp_13.rt,participant,session,date,expName,psychopyVersion,frameRate,
0,,,,,,,,,,0,0,0,0,0,0,0,0,,,,,,,,,,,,,,,,,,,,,,,,,[11 44 34 43 33 21 22 12 42 24 32 31 14 13 41 23],"['Social' 'Location' 'Social' 'Social' 'Location' 'Location' 'Social'
 'Location' 'Location' 'Social' 'Social' 'Location' 'Location' 'Social'
 'Social' 'Location']",[42 24 32 31 14 13 41 23],"['Location' 'Social' 'Social' 'Location' 'Location' 'Social' 'Social'
 'Location']",space,7.722727528998803,space,5.319568394999806,space,1.6690232239998295,,,,,,,,,,,,,,,,,,,,,,,,,,,,,,,,,,062019_p1,001,2019_Jun_20_1023,body_behavioural,3.0.4,59.48261144236234,
0,"Thomas, dreading the approaching breakup conversation he was about to start, got to Annika’s Finer Diner late but Sadie, his girlfriend, was not there yet.",1,1,None,None,11.0,None,None,,0,0,0,0,,,,,0,0,0,0,,,,,,,,,,,,,,,,,,,,,,,,,,,,,,,space,4.052744245000213,space,3.736597579998488,1,18.35071975200117,,,,,,,,,,,,,,,,,,,,,,,,,,,,062019_p1,001,2019_Jun_20_1023,body_behavioural,3.0.4,59.48261144236234,
0,Thomas had been thinking about breaking up with her for 2 months now.,1,1,None,None,None,1.0,None,,0,0,0,0,,,,,0,1,1,1,,,,,,,,,,,,,,,,,,,,,,,,,,,,,,,,,,,9,8.169819391998317,,,,,,,,,,,,,,,,,,,,,,,,,,,,062019_p1,001,2019_Jun_20_1023,body_behavioural,3.0.4,59.48261144236234,
0,"The restaurant he had chosen to meet at was reminiscent of a diner from the 70’s; there was black and white checkerboard tiling on the floor, a long bar in the front, and booths and stools with red, leather upholstery. ",1,1,None,None,None,None,1.0,,0,0,0,0,,,,,0,2,2,2,,,,,,,,,,,,,,,,,,,,,,,,,,,,,,,,,,,1,12.104310362003162,,,,,,,,,,,,,,,,,,,,,,,,,,,,062019_p1,001,2019_Jun_20_1023,body_behavioural,3.0.4,59.48261144236234,
0,"A bell chimed as the door swung open, and Sadie entered to find Thomas ruminating at the bar.",1,1,None,None,None,None,None,,0,0,0,0,,,,,0,3,3,3,,,,,,,,,,,,,,,,,,,,,,,,,,,,,,,,,,,9,6.219662527000764,,,,,,,,,,,,,,,,,,,,,,,,,,,,062019_p1,001,2019_Jun_20_1023,body_behavioural,3.0.4,59.48261144236234,
0,"He stood up and gave her a side hug, asking quickly, “How was your day?”",1,1,None,None,None,None,None,,0,0,0,0,,,,,0,4,4,4,,,,,,,,,,,,,,,,,,,,,,,,,,,,,,,,,,,1,5.153468194999732,,,,,,,,,,,,,,,,,,,,,,,,,,,,062019_p1,001,2019_Jun_20_1023,body_behavioural,3.0.4,59.48261144236234,
0,"She clung onto him, “It was okay- I missed you today.”",1,1,None,None,None,None,None,,0,0,0,0,,,,,0,5,5,5,,,,,,,,,,,,,,,,,,,,,,,,,,,,,,,,,,,1,3.7690544569995836,,,,,,,,,,,,,,,,,,,,,,,,,,,,062019_p1,001,2019_Jun_20_1023,body_behavioural,3.0.4,59.48261144236234,
0,"He looked away and addressed the hostess coming towards them, “Can we have a booth in the back?”",1,1,None,None,None,None,None,,0,0,0,0,,,,,0,6,6,6,,,,,,,,,,,,,,,,,,,,,,,,,,,,,,,,,,,1,4.436712334998447,,,,,,,,,,,,,,,,,,,,,,,,,,,,062019_p1,001,2019_Jun_20_1023,body_behavioural,3.0.4,59.48261144236234,
0,"She shrugged and after loudly popping her bubblegum replied, “Sure, honey.”",1,1,9.0,None,None,None,None,,0,0,0,0,,,,,0,7,7,7,,,,,,,,,,,,,,,,,,,,,,,,,,,,,,,,,,,1,5.552994612997281,,,,,,,,,,,,,,,,,,,,,,,,,,,,062019_p1,001,2019_Jun_20_1023,body_behavioural,3.0.4,59.48261144236234,
0,She seated them at a booth in the back corner of the diner.  ,2,1,None,None,None,None,None,,0,0,0,0,,,,,0,8,8,8,,,,,,,,,,,,,,,,,,,,,,,,,,,,,,,,,,,1,3.0030140449998726,,,,,,,,,,,,,,,,,,,,,,,,,,,,062019_p1,001,2019_Jun_20_1023,body_behavioural,3.0.4,59.48261144236234,
0,Sadie slipped into the cushioned seat and grabbed Thomas’ hand.,2,1,None,None,None,None,None,,0,0,0,0,,,,,0,9,9,9,,,,,,,,,,,,,,,,,,,,,,,,,,,,,,,,,,,1,3.650118109999312,,,,,,,,,,,,,,,,,,,,,,,,,,,,062019_p1,001,2019_Jun_20_1023,body_behavioural,3.0.4,59.48261144236234,
0,“Tell me about your day!” she sang.,2,1,None,None,None,None,None,,0,0,0,0,,,,,0,10,10,10,,,,,,,,,,,,,,,,,,,,,,,,,,,,,,,,,,,1,3.202787404999981,,,,,,,,,,,,,,,,,,,,,,,,,,,,062019_p1,001,2019_Jun_20_1023,body_behavioural,3.0.4,59.48261144236234,
0,He looked at her silently and pulled his hand slowly from hers as a puzzled look grew on Sadie’s face. ,2,1,None,None,None,None,None,,0,0,0,0,,,,,0,11,11,11,,,,,,,,,,,,,,,,,,,,,,,,,,,,,,,,,,,9,5.402949711999099,,,,,,,,,,,,,,,,,,,,,,,,,,,,062019_p1,001,2019_Jun_20_1023,body_behavioural,3.0.4,59.48261144236234,
0,Thomas looked away and took a deep breath. ,2,1,None,None,None,None,None,,0,0,0,0,,,,,0,12,12,12,,,,,,,,,,,,,,,,,,,,,,,,,,,,,,,,,,,1,1.7024875549977878,,,,,,,,,,,,,,,,,,,,,,,,,,,,062019_p1,001,2019_Jun_20_1023,body_behavioural,3.0.4,59.48261144236234,
0,"Sadie asked, “What’s wrong?” ",2,1,None,None,None,None,None,,0,0,0,0,,,,,0,13,13,13,,,,,,,,,,,,,,,,,,,,,,,,,,,,,,,,,,,1,2.3026151820013183,,,,,,,,,,,,,,,,,,,,,,,,,,,,062019_p1,001,2019_Jun_20_1023,body_behavioural,3.0.4,59.48261144236234,
0,Thomas picked at his fingernails.,2,1,None,22.0,None,None,None,,0,0,0,0,,,,,0,14,14,14,,,,,,,,,,,,,,,,,,,,,,,,,,,,,,,,,,,1,2.036484222000581,,,,,,,,,,,,,,,,,,,,,,,,,,,,062019_p1,001,2019_Jun_20_1023,body_behavioural,3.0.4,59.48261144236234,
0,"After a few moments, Thomas let out a deep breath and said, “Sadie, I’ve been thinking, and I need a break from this relationship because I need to figure out my career path on my own.”",2,2,None,None,None,None,None,,0,0,0,0,,,,,0,15,15,15,,,,,,,,,,,,,,,,,,,,,,,,,,,,,,,,,,,1,7.6684849220000615,,,,,,,,,,,,,,,,,,,,,,,,,,,,062019_p1,001,2019_Jun_20_1023,body_behavioural,3.0.4,59.48261144236234,
0,Sadie sat back in her seat.,2,2,None,None,None,None,None,,0,0,0,0,,,,,0,16,16,16,,,,,,,,,,,,,,,,,,,,,,,,,,,,,,,,,,,1,2.5201976519965683,,,,,,,,,,,,,,,,,,,,,,,,,,,,062019_p1,001,2019_Jun_20_1023,body_behavioural,3.0.4,59.48261144236234,
0,"Thomas continued, “Things have been really picking up at work, and I’m not sure that this is the job I want to do anymore.",2,2,None,None,None,None,None,,0,0,0,0,,,,,0,17,17,17,,,,,,,,,,,,,,,,,,,,,,,,,,,,,,,,,,,1,6.370059107000998,,,,,,,,,,,,,,,,,,,,,,,,,,,,062019_p1,001,2019_Jun_20_1023,body_behavioural,3.0.4,59.48261144236234,
0,"Plus, it’s been really overwhelming between working and figuring out if I should change careers, and I really feel like I need more time to figure it out.” ",2,2,17.0,None,None,None,None,,0,0,0,0,,,,,0,18,18,18,,,,,,,,,,,,,,,,,,,,,,,,,,,,,,,,,,,1,5.236860634999175,,,,,,,,,,,,,,,,,,,,,,,,,,,,062019_p1,001,2019_Jun_20_1023,body_behavioural,3.0.4,59.48261144236234,
0,"The waiter appeared and cheerily asked, “Have you decided what you would like?”",3,2,None,None,None,None,None,,0,0,0,0,,,,,0,19,19,19,,,,,,,,,,,,,,,,,,,,,,,,,,,,,,,,,,,9,6.087486749998789,,,,,,,,,,,,,,,,,,,,,,,,,,,,062019_p1,001,2019_Jun_20_1023,body_behavioural,3.0.4,59.48261144236234,
0,"Thomas and Sadie realized there were menus on the table, and they glanced at them quickly.",3,2,None,None,None,None,None,,0,0,0,0,,,,,0,20,20,20,,,,,,,,,,,,,,,,,,,,,,,,,,,,,,,,,,,1,3.9528554680000525,,,,,,,,,,,,,,,,,,,,,,,,,,,,062019_p1,001,2019_Jun_20_1023,body_behavioural,3.0.4,59.48261144236234,
0,"The menus were laminated posters with silly names for all the foods, and since they didn’t want to read through each item description, they settled on familiar orders.",3,2,None,None,None,None,None,,0,0,0,0,,,,,0,21,21,21,,,,,,,,,,,,,,,,,,,,,,,,,,,,,,,,,,,1,5.335082839999814,,,,,,,,,,,,,,,,,,,,,,,,,,,,062019_p1,001,2019_Jun_20_1023,body_behavioural,3.0.4,59.48261144236234,
0,"“I’ll have a burger, no tomatoes,” Thomas said.",3,2,None,None,None,None,None,,0,0,0,0,,,,,0,22,22,22,,,,,,,,,,,,,,,,,,,,,,,,,,,,,,,,,,,1,4.885546711000643,,,,,,,,,,,,,,,,,,,,,,,,,,,,062019_p1,001,2019_Jun_20_1023,body_behavioural,3.0.4,59.48261144236234,
0,"Sadie asked about the reuben, and the waiter told her it was excellent.",3,2,None,None,None,None,None,,0,0,0,0,,,,,0,23,23,23,,,,,,,,,,,,,,,,,,,,,,,,,,,,,,,,,,,1,2.403214983998623,,,,,,,,,,,,,,,,,,,,,,,,,,,,062019_p1,001,2019_Jun_20_1023,body_behavioural,3.0.4,59.48261144236234,
0,"Confirming that that was all they’d like, the waiter walked away. ",3,2,None,None,None,None,None,,0,0,0,0,,,,,0,24,24,24,,,,,,,,,,,,,,,,,,,,,,,,,,,,,,,,,,,1,2.519202880001103,,,,,,,,,,,,,,,,,,,,,,,,,,,,062019_p1,001,2019_Jun_20_1023,body_behavioural,3.0.4,59.48261144236234,
0,Sadie- not so quietly- burst into tears. ,3,3,None,None,None,None,None,,0,0,0,0,,,,,0,25,25,25,,,,,,,,,,,,,,,,,,,,,,,,,,,,,,,,,,,9,2.8026411499995447,,,,,,,,,,,,,,,,,,,,,,,,,,,,062019_p1,001,2019_Jun_20_1023,body_behavioural,3.0.4,59.48261144236234,
0,People sitting at the bar looked over and quickly averted their gaze when they figured what was happening. ,3,3,None,None,None,None,None,,0,0,0,0,,,,,0,26,26,26,,,,,,,,,,,,,,,,,,,,,,,,,,,,,,,,,,,1,3.920821944997442,,,,,,,,,,,,,,,,,,,,,,,,,,,,062019_p1,001,2019_Jun_20_1023,body_behavioural,3.0.4,59.48261144236234,
0,"She whispered, “Is this really what you want?",3,3,None,None,None,None,None,,0,0,0,0,,,,,0,27,27,27,,,,,,,,,,,,,,,,,,,,,,,,,,,,,,,,,,,1,3.1525355100020533,,,,,,,,,,,,,,,,,,,,,,,,,,,,062019_p1,001,2019_Jun_20_1023,body_behavioural,3.0.4,59.48261144236234,
0,"I don’t understand- things were fine, I thought. ",3,3,None,None,None,None,None,,0,0,0,0,,,,,0,28,28,28,,,,,,,,,,,,,,,,,,,,,,,,,,,,,,,,,,,1,1.3374033879990748,,,,,,,,,,,,,,,,,,,,,,,,,,,,062019_p1,001,2019_Jun_20_1023,body_behavioural,3.0.4,59.48261144236234,
0,I think we should stay together because we can change how much we hang out. ,3,3,None,None,None,None,None,,0,0,0,0,,,,,0,29,29,29,,,,,,,,,,,,,,,,,,,,,,,,,,,,,,,,,,,1,2.901408588000777,,,,,,,,,,,,,,,,,,,,,,,,,,,,062019_p1,001,2019_Jun_20_1023,body_behavioural,3.0.4,59.48261144236234,
0,"We don’t have to hang out all the time, or as much as we do now.”",3,3,None,None,None,None,None,,0,0,0,0,,,,,0,30,30,30,,,,,,,,,,,,,,,,,,,,,,,,,,,,,,,,,,,1,2.0026210169999104,,,,,,,,,,,,,,,,,,,,,,,,,,,,062019_p1,001,2019_Jun_20_1023,body_behavioural,3.0.4,59.48261144236234,
0,Thomas chewed on his bottom lip and picked at his now bleeding hangnail. ,3,3,20.0,None,None,None,None,,0,0,0,0,,,,,0,31,31,31,,,,,,,,,,,,,,,,,,,,,,,,,,,,,,,,,,,1,9.518177432000812,,,,,,,,,,,,,,,,,,,,,,,,,,,,062019_p1,001,2019_Jun_20_1023,body_behavioural,3.0.4,59.48261144236234,
0,The waiter appeared with the burger and reuben and set them in front of them.,4,3,None,None,None,None,None,,0,0,0,0,,,,,0,32,32,32,,,,,,,,,,,,,,,,,,,,,,,,,,,,,,,,,,,1,6.636902532001841,,,,,,,,,,,,,,,,,,,,,,,,,,,,062019_p1,001,2019_Jun_20_1023,body_behavioural,3.0.4,59.48261144236234,
0,“Is there anything else I can get for you two?,4,3,None,None,None,None,None,,0,0,0,0,,,,,0,33,33,33,,,,,,,,,,,,,,,,,,,,,,,,,,,,,,,,,,,1,5.019950546997279,,,,,,,,,,,,,,,,,,,,,,,,,,,,062019_p1,001,2019_Jun_20_1023,body_behavioural,3.0.4,59.48261144236234,
0,Will you be getting dessert tonight?” he asked.,4,3,None,None,None,None,None,,0,0,0,0,,,,,0,34,34,34,,,,,,,,,,,,,,,,,,,,,,,,,,,,,,,,,,,1,5.51952258700112,,,,,,,,,,,,,,,,,,,,,,,,,,,,062019_p1,001,2019_Jun_20_1023,body_behavioural,3.0.4,59.48261144236234,
0,"“Oh no, we’re good, thanks,” Thomas said blankly.",4,3,None,None,None,None,None,,0,0,0,0,,,,,0,35,35,35,,,,,,,,,,,,,,,,,,,,,,,,,,,,,,,,,,,1,2.5848449599980086,,,,,,,,,,,,,,,,,,,,,,,,,,,,062019_p1,001,2019_Jun_20_1023,body_behavioural,3.0.4,59.48261144236234,
0," With the waiter gone, Sadie suddenly stood up, grabbed half of the reuben, and shook it at him as she growled, “Don’t follow me, and don’t talk to me anymore!",4,4,None,None,None,None,None,,0,0,0,0,,,,,0,36,36,36,,,,,,,,,,,,,,,,,,,,,,,,,,,,,,,,,,,9,11.402783482000814,,,,,,,,,,,,,,,,,,,,,,,,,,,,062019_p1,001,2019_Jun_20_1023,body_behavioural,3.0.4,59.48261144236234,
0,"Also, I want my polaroid camera and Beatles poster back!”",4,4,None,None,None,None,None,,0,0,0,0,,,,,0,37,37,37,,,,,,,,,,,,,,,,,,,,,,,,,,,,,,,,,,,1,2.0517924839987245,,,,,,,,,,,,,,,,,,,,,,,,,,,,062019_p1,001,2019_Jun_20_1023,body_behavioural,3.0.4,59.48261144236234,
0,"She stormed off, and the bell above the door jingled cheerfully as the door closed behind her.",4,4,None,None,None,None,None,,0,0,0,0,,,,,0,38,38,38,,,,,,,,,,,,,,,,,,,,,,,,,,,,,,,,,,,1,3.0363783100001456,,,,,,,,,,,,,,,,,,,,,,,,,,,,062019_p1,001,2019_Jun_20_1023,body_behavioural,3.0.4,59.48261144236234,
0,Thomas sat there for awhile surprised at how quickly everything had transpired. ,4,4,None,None,None,None,None,,0,0,0,0,,,,,0,39,39,39,,,,,,,,,,,,,,,,,,,,,,,,,,,,,,,,,,,1,5.15291967200028,,,,,,,,,,,,,,,,,,,,,,,,,,,,062019_p1,001,2019_Jun_20_1023,body_behavioural,3.0.4,59.48261144236234,
0,"He grabbed his burger and took a bite of it, creating a dry and fishy taste in his mouth.",4,4,None,None,None,None,None,,0,0,0,0,,,,,0,40,40,40,,,,,,,,,,,,,,,,,,,,,,,,,,,,,,,,,,,1,4.833709598002315,,,,,,,,,,,,,,,,,,,,,,,,,,,,062019_p1,001,2019_Jun_20_1023,body_behavioural,3.0.4,59.48261144236234,
0,He dropped it back on his plate and wondered if the restaurant was responsible for the foul taste. ,4,4,13.0,5.0,None,None,None,,0,0,0,0,,,,,0,41,41,41,,,,,,,,,,,,,,,,,,,,,,,,,,,,,,,,,,,9,6.2195338050005375,,,,,,,,,,,,,,,,,,,,,,,,,,,,062019_p1,001,2019_Jun_20_1023,body_behavioural,3.0.4,59.48261144236234,
0,,,,,,,,,,0,0,0,0,,,,,,,,,,,,,,,,,,,,,,,,,,,,,,,,,,,,,,,,,,,,,,,,,,,,,,,,,,,,,,,,,,,,,,,,062019_p1,001,2019_Jun_20_1023,body_behavioural,3.0.4,59.48261144236234,
1,,,,,,,,,,0,1,1,1,0,0,0,0,,,,,,,,,,,,,,,,,,,,,,,,,,,,,space,3.3196892170017236,space,1.0700916950008832,space,1.8697023080021609,,,,,,,,,,,,,,,,,,,,,,,,,,,,,,,,,,062019_p1,001,2019_Jun_20_1023,body_behavioural,3.0.4,59.48261144236234,
1,"Ariana hurried into the classroom, and Leon did a double-take when he saw her, almost dropping the eraser he had in his hand. ",1.0,1.0,,,44.0,,,,0,1,1,1,,,,,0,0,0,0,,,,,,,,,,,,,,,,,,,,,,,,,,,,,,,space,0.9028359900003124,space,2.153092615000787,1,17.03840449999916,,,,,,,,,,,,,,,,,,,,,,,,,,,,062019_p1,001,2019_Jun_20_1023,body_behavioural,3.0.4,59.48261144236234,
1,"This was his first day in college, and he had assumed that he wouldn’t know anyone on campus, but he had a strong feeling that he had seen her somewhere before. ",1.0,1.0,,,None,,,,0,1,1,1,,,,,0,1,1,1,,,,,,,,,,,,,,,,,,,,,,,,,,,,,,,,,,,9,20.470791071998974,,,,,,,,,,,,,,,,,,,,,,,,,,,,062019_p1,001,2019_Jun_20_1023,body_behavioural,3.0.4,59.48261144236234,
1,They were in a small classroom with rows of chairs with foldable desks.,1.0,1.0,,,None,,,,0,1,1,1,,,,,0,2,2,2,,,,,,,,,,,,,,,,,,,,,,,,,,,,,,,,,,,1,2.7694365049974294,,,,,,,,,,,,,,,,,,,,,,,,,,,,062019_p1,001,2019_Jun_20_1023,body_behavioural,3.0.4,59.48261144236234,
1,These faced the speaker’s podium and a blackboard on wheels. ,None,None,,,None,,,,0,1,1,1,,,,,0,3,3,3,,,,,,,,,,,,,,,,,,,,,,,,,,,,,,,,,,,1,3.601785100003326,,,,,,,,,,,,,,,,,,,,,,,,,,,,062019_p1,001,2019_Jun_20_1023,body_behavioural,3.0.4,59.48261144236234,
1,"There were no windows in the room, since they were down in the basement of the History Department.",1.0,1.0,,,None,,,,0,1,1,1,,,,,0,4,4,4,,,,,,,,,,,,,,,,,,,,,,,,,,,,,,,,,,,1,4.553255514998455,,,,,,,,,,,,,,,,,,,,,,,,,,,,062019_p1,001,2019_Jun_20_1023,body_behavioural,3.0.4,59.48261144236234,
1,"Leon, trying to figure out where he had seen her before, could not stop looking over at Ariana.",1.0,1.0,,,None,,,,0,1,1,1,,,,,0,5,5,5,,,,,,,,,,,,,,,,,,,,,,,,,,,,,,,,,,,9,3.2358404010010418,,,,,,,,,,,,,,,,,,,,,,,,,,,,062019_p1,001,2019_Jun_20_1023,body_behavioural,3.0.4,59.48261144236234,
1,Ariana was oblivious to Leon’s gaze and was only focused on getting ready for class. ,1.0,1.0,,,None,,,,0,1,1,1,,,,,0,6,6,6,,,,,,,,,,,,,,,,,,,,,,,,,,,,,,,,,,,1,1.9033520730008604,,,,,,,,,,,,,,,,,,,,,,,,,,,,062019_p1,001,2019_Jun_20_1023,body_behavioural,3.0.4,59.48261144236234,
1,"“Good morning, everyone,” the professor began.",2.0,1.0,,,None,,,,0,1,1,1,,,,,0,7,7,7,,,,,,,,,,,,,,,,,,,,,,,,,,,,,,,,,,,1,4.9376220449994435,,,,,,,,,,,,,,,,,,,,,,,,,,,,062019_p1,001,2019_Jun_20_1023,body_behavioural,3.0.4,59.48261144236234,
1,“Welcome to History of Egypt. ,2.0,1.0,,,None,,,,0,1,1,1,,,,,0,8,8,8,,,,,,,,,,,,,,,,,,,,,,,,,,,,,,,,,,,1,1.4528637399998843,,,,,,,,,,,,,,,,,,,,,,,,,,,,062019_p1,001,2019_Jun_20_1023,body_behavioural,3.0.4,59.48261144236234,
1,"Today we will be talking about mummification, one of the most famous and often misunderstood customs in ancient Egyptian society.”",2.0,1.0,,,None,,,,0,1,1,1,,,,,0,9,9,9,,,,,,,,,,,,,,,,,,,,,,,,,,,,,,,,,,,1,1.800404747002176,,,,,,,,,,,,,,,,,,,,,,,,,,,,062019_p1,001,2019_Jun_20_1023,body_behavioural,3.0.4,59.48261144236234,
1,Leon and Ariana began taking notes. ,2.0,1.0,,,None,,,,0,1,1,1,,,,,0,10,10,10,,,,,,,,,,,,,,,,,,,,,,,,,,,,,,,,,,,1,3.569298290000006,,,,,,,,,,,,,,,,,,,,,,,,,,,,062019_p1,001,2019_Jun_20_1023,body_behavioural,3.0.4,59.48261144236234,
1,"Within a few minutes, Leon found his attention wandering from the lecture and back to Ariana, and he decided to do something about it by putting a note on her desk.",2.0,2.0,,,None,,,,0,1,1,1,,,,,0,11,11,11,,,,,,,,,,,,,,,,,,,,,,,,,,,,,,,,,,,9,6.75178270700053,,,,,,,,,,,,,,,,,,,,,,,,,,,,062019_p1,001,2019_Jun_20_1023,body_behavioural,3.0.4,59.48261144236234,
1,"“Are you from LA?” it read, “Sorry to distract you from mummies, but you look really familiar.”",2.0,2.0,,,None,,,,0,1,1,1,,,,,0,12,12,12,,,,,,,,,,,,,,,,,,,,,,,,,,,,,,,,,,,1,2.5834431940020295,,,,,,,,,,,,,,,,,,,,,,,,,,,,062019_p1,001,2019_Jun_20_1023,body_behavioural,3.0.4,59.48261144236234,
1,"She looked at the note with surprise, and then turned to notice Leon for the first time. ",2.0,2.0,,,None,,,,0,1,1,1,,,,,0,13,13,13,,,,,,,,,,,,,,,,,,,,,,,,,,,,,,,,,,,1,3.4541882909979904,,,,,,,,,,,,,,,,,,,,,,,,,,,,062019_p1,001,2019_Jun_20_1023,body_behavioural,3.0.4,59.48261144236234,
1,She instantly liked him when she saw him.,2.0,2.0,,,None,,,,0,1,1,1,,,,,0,14,14,14,,,,,,,,,,,,,,,,,,,,,,,,,,,,,,,,,,,1,1.2364698149976903,,,,,,,,,,,,,,,,,,,,,,,,,,,,062019_p1,001,2019_Jun_20_1023,body_behavioural,3.0.4,59.48261144236234,
1,She thought he looked trustworthy and genuine.,2.0,2.0,,,None,,,,0,1,1,1,,,,,0,15,15,15,,,,,,,,,,,,,,,,,,,,,,,,,,,,,,,,,,,1,1.5529157850032789,,,,,,,,,,,,,,,,,,,,,,,,,,,,062019_p1,001,2019_Jun_20_1023,body_behavioural,3.0.4,59.48261144236234,
1,"Ariana passed the note back to Leon, and she had replied, “No, but maybe my twin and I were separated at birth.”",2.0,2.0,,,None,,,,0,1,1,1,,,,,0,16,16,16,,,,,,,,,,,,,,,,,,,,,,,,,,,,,,,,,,,1,6.836139492999791,,,,,,,,,,,,,,,,,,,,,,,,,,,,062019_p1,001,2019_Jun_20_1023,body_behavioural,3.0.4,59.48261144236234,
1,"The professor continued, “One may well question why the ancient Egyptians spent so much time and effort on their funerary practices.",3.0,2.0,,,None,,,,0,1,1,1,,,,,0,17,17,17,,,,,,,,,,,,,,,,,,,,,,,,,,,,,,,,,,,9,4.0874263730001985,,,,,,,,,,,,,,,,,,,,,,,,,,,,062019_p1,001,2019_Jun_20_1023,body_behavioural,3.0.4,59.48261144236234,
1,"Not only was the mummification process itself a complicated affair, but there were also elaborate rituals before, during, and after death.",3.0,2.0,,,None,,,,0,1,1,1,,,,,0,18,18,18,,,,,,,,,,,,,,,,,,,,,,,,,,,,,,,,,,,1,2.9164502969979367,,,,,,,,,,,,,,,,,,,,,,,,,,,,062019_p1,001,2019_Jun_20_1023,body_behavioural,3.0.4,59.48261144236234,
1,The practice required teams of experts with years of training and took a total of 70 days to complete.” ,3.0,2.0,,,None,,,,0,1,1,1,,,,,0,19,19,19,,,,,,,,,,,,,,,,,,,,,,,,,,,,,,,,,,,1,2.3194218999997247,,,,,,,,,,,,,,,,,,,,,,,,,,,,062019_p1,001,2019_Jun_20_1023,body_behavioural,3.0.4,59.48261144236234,
1,"They passed notes back and forth the whole class like they were in high school, and Leon wrote in one, “Would you like to go on a walk this evening?”",3.0,3.0,,,None,,,,0,1,1,1,,,,,0,20,20,20,,,,,,,,,,,,,,,,,,,,,,,,,,,,,,,,,,,9,6.468641053001193,,,,,,,,,,,,,,,,,,,,,,,,,,,,062019_p1,001,2019_Jun_20_1023,body_behavioural,3.0.4,59.48261144236234,
1,"When Ariana read this, she looked at him and nodded her head",3.0,3.0,,,None,,,,0,1,1,1,,,,,0,21,21,21,,,,,,,,,,,,,,,,,,,,,,,,,,,,,,,,,,,1,2.5692219119991933,,,,,,,,,,,,,,,,,,,,,,,,,,,,062019_p1,001,2019_Jun_20_1023,body_behavioural,3.0.4,59.48261144236234,
1,"She wrote back on the slip of paper, “Let’s meet at 8 in front of my dorm, Patton Hall.”",3.0,3.0,,,None,,,,0,1,1,1,,,,,0,22,22,22,,,,,,,,,,,,,,,,,,,,,,,,,,,,,,,,,,,1,2.1856994070003566,,,,,,,,,,,,,,,,,,,,,,,,,,,,062019_p1,001,2019_Jun_20_1023,body_behavioural,3.0.4,59.48261144236234,
1,The professor ended the lecture and announced to the class that they would have their first quiz next class on Friday on mummification. ,4.0,3.0,,,None,,,,0,1,1,1,,,,,0,23,23,23,,,,,,,,,,,,,,,,,,,,,,,,,,,,,,,,,,,9,4.00096053499874,,,,,,,,,,,,,,,,,,,,,,,,,,,,062019_p1,001,2019_Jun_20_1023,body_behavioural,3.0.4,59.48261144236234,
1,Everyone packed up and filed out of the classroom except for Ariana and Leon. ,4.0,3.0,,,None,,,,0,1,1,1,,,,,0,24,24,24,,,,,,,,,,,,,,,,,,,,,,,,,,,,,,,,,,,1,2.769779138001468,,,,,,,,,,,,,,,,,,,,,,,,,,,,062019_p1,001,2019_Jun_20_1023,body_behavioural,3.0.4,59.48261144236234,
1,"Ariana spoke first, “I have to go to my next class.”",4.0,4.0,,,None,,,,0,1,1,1,,,,,0,25,25,25,,,,,,,,,,,,,,,,,,,,,,,,,,,,,,,,,,,1,2.5693540220017894,,,,,,,,,,,,,,,,,,,,,,,,,,,,062019_p1,001,2019_Jun_20_1023,body_behavioural,3.0.4,59.48261144236234,
1,"She looked at the clock which read noon and headed for the door saying, “I should run, but I’ll see you later tonight!” ",4.0,4.0,,,None,,,,0,1,1,1,,,,,0,26,26,26,,,,,,,,,,,,,,,,,,,,,,,,,,,,,,,,,,,1,6.9002312699994945,,,,,,,,,,,,,,,,,,,,,,,,,,,,062019_p1,001,2019_Jun_20_1023,body_behavioural,3.0.4,59.48261144236234,
1,"She waved as she ran out the door, and Leon was still pondering where he had known her before, even more convinced that they had met before having heard her voice.",4.0,4.0,,,None,,,,0,1,1,1,,,,,0,27,27,27,,,,,,,,,,,,,,,,,,,,,,,,,,,,,,,,,,,9,4.537352171999373,,,,,,,,,,,,,,,,,,,,,,,,,,,,062019_p1,001,2019_Jun_20_1023,body_behavioural,3.0.4,59.48261144236234,
1,,,,,,,,,,0,1,1,1,,,,,,,,,,,,,,,,,,,,,,,,,,,,,,,,,,,,,,,,,,,,,,,,,,,,,,,,,,,,,,,,,,,,,,,,062019_p1,001,2019_Jun_20_1023,body_behavioural,3.0.4,59.48261144236234,
2,,,,,,,,,,0,2,2,2,0,0,0,0,,,,,,,,,,,,,,,,,,,,,,,,,,,,,space,2.4023311880009715,space,1.585227756997483,space,1.603278702001262,,,,,,,,,,,,,,,,,,,,,,,,,,,,,,,,,,062019_p1,001,2019_Jun_20_1023,body_behavioural,3.0.4,59.48261144236234,
2,"Charlie saw Alma as they walked into class, and he motioned for her to come sit in the back next to him because they had a deal to discuss.",1,1,,,34.0,,,,0,2,2,2,,,,,0,0,0,0,,,,,,,,,,,,,,,,,,,,,,,,,,,,,,,space,6.069212228001561,space,2.070698701998481,9,21.870662162997178,,,,,,,,,,,,,,,,,,,,,,,,,,,,062019_p1,001,2019_Jun_20_1023,body_behavioural,3.0.4,59.48261144236234,
2,Charlie and Alma were both history majors with entrepreneurial bents.,1,1,,,None,,,,0,2,2,2,,,,,0,1,1,1,,,,,,,,,,,,,,,,,,,,,,,,,,,,,,,,,,,9,7.05221529100163,,,,,,,,,,,,,,,,,,,,,,,,,,,,062019_p1,001,2019_Jun_20_1023,body_behavioural,3.0.4,59.48261144236234,
2,They were also both very busy and happened to be in the same class.,1,1,,,None,,,,0,2,2,2,,,,,0,2,2,2,,,,,,,,,,,,,,,,,,,,,,,,,,,,,,,,,,,1,2.5204611560002377,,,,,,,,,,,,,,,,,,,,,,,,,,,,062019_p1,001,2019_Jun_20_1023,body_behavioural,3.0.4,59.48261144236234,
2,"After talking at a party, Charlie had discovered that Alma was looking for financing for her web development company of which she was the founder and CEO.",1,1,,,None,,,,0,2,2,2,,,,,0,3,3,3,,,,,,,,,,,,,,,,,,,,,,,,,,,,,,,,,,,9,6.337355446998117,,,,,,,,,,,,,,,,,,,,,,,,,,,,062019_p1,001,2019_Jun_20_1023,body_behavioural,3.0.4,59.48261144236234,
2,It was serendipitous because he was an investment analyst for a student finance group on campus and he had been talking with other members of the group about making a new investment. ,1,1,,,None,,,,0,2,2,2,,,,,0,4,4,4,,,,,,,,,,,,,,,,,,,,,,,,,,,,,,,,,,,1,6.102971030002664,,,,,,,,,,,,,,,,,,,,,,,,,,,,062019_p1,001,2019_Jun_20_1023,body_behavioural,3.0.4,59.48261144236234,
2,"His financial group had come to a decision that morning about Alma’s startup, and he didn't want to wait until after class to discuss the proposal with her. ",1,1,,,None,,,,0,2,2,2,,,,,0,5,5,5,,,,,,,,,,,,,,,,,,,,,,,,,,,,,,,,,,,1,4.0856925699990825,,,,,,,,,,,,,,,,,,,,,,,,,,,,062019_p1,001,2019_Jun_20_1023,body_behavioural,3.0.4,59.48261144236234,
2,The class was in a medium-sized auditorium which was brightly lit and very modern-looking. ,1,1,,,None,,,,0,2,2,2,,,,,0,6,6,6,,,,,,,,,,,,,,,,,,,,,,,,,,,,,,,,,,,9,3.0194099600012123,,,,,,,,,,,,,,,,,,,,,,,,,,,,062019_p1,001,2019_Jun_20_1023,body_behavioural,3.0.4,59.48261144236234,
2,There were three projector screens in the front and each row of the audience had a table with power outlets and USB ports. ,1,1,,,None,,,,0,2,2,2,,,,,0,7,7,7,,,,,,,,,,,,,,,,,,,,,,,,,,,,,,,,,,,1,13.284759795002174,,,,,,,,,,,,,,,,,,,,,,,,,,,,062019_p1,001,2019_Jun_20_1023,body_behavioural,3.0.4,59.48261144236234,
2,“Here we are at Lecture Seven of Archaeology of Rome” said the professor. ,2,1,,,None,,,,0,2,2,2,,,,,0,8,8,8,,,,,,,,,,,,,,,,,,,,,,,,,,,,,,,,,,,1,2.5698117230022035,,,,,,,,,,,,,,,,,,,,,,,,,,,,062019_p1,001,2019_Jun_20_1023,body_behavioural,3.0.4,59.48261144236234,
2,"“The topic for today is Augustus, an incredibly important influence in Roman architecture.” ",2,1,,,None,,,,0,2,2,2,,,,,0,9,9,9,,,,,,,,,,,,,,,,,,,,,,,,,,,,,,,,,,,1,5.533426522997615,,,,,,,,,,,,,,,,,,,,,,,,,,,,062019_p1,001,2019_Jun_20_1023,body_behavioural,3.0.4,59.48261144236234,
2,She went into some recap of the last lecture.,2,1,,,None,,,,0,2,2,2,,,,,0,10,10,10,,,,,,,,,,,,,,,,,,,,,,,,,,,,,,,,,,,1,5.003344247001223,,,,,,,,,,,,,,,,,,,,,,,,,,,,062019_p1,001,2019_Jun_20_1023,body_behavioural,3.0.4,59.48261144236234,
2,"Charlie turned to Alma and said, “Okay, so I’ve been thinking about your startup, and I have talked about it with my fellow investors.",2,2,,,None,,,,0,2,2,2,,,,,0,11,11,11,,,,,,,,,,,,,,,,,,,,,,,,,,,,,,,,,,,9,3.185269685000094,,,,,,,,,,,,,,,,,,,,,,,,,,,,062019_p1,001,2019_Jun_20_1023,body_behavioural,3.0.4,59.48261144236234,
2,We’d like to invest half of what you originally suggested.,2,2,,,None,,,,0,2,2,2,,,,,0,12,12,12,,,,,,,,,,,,,,,,,,,,,,,,,,,,,,,,,,,1,2.5699695499970403,,,,,,,,,,,,,,,,,,,,,,,,,,,,062019_p1,001,2019_Jun_20_1023,body_behavioural,3.0.4,59.48261144236234,
2,"So we propose we start with wiring you $28,000.",2,2,,,None,,,,0,2,2,2,,,,,0,13,13,13,,,,,,,,,,,,,,,,,,,,,,,,,,,,,,,,,,,1,5.118987300000299,,,,,,,,,,,,,,,,,,,,,,,,,,,,062019_p1,001,2019_Jun_20_1023,body_behavioural,3.0.4,59.48261144236234,
2,We would see how the company does and then invest the other half later.” ,2,2,,,None,,,,0,2,2,2,,,,,0,14,14,14,,,,,,,,,,,,,,,,,,,,,,,,,,,,,,,,,,,1,2.8673588069977995,,,,,,,,,,,,,,,,,,,,,,,,,,,,062019_p1,001,2019_Jun_20_1023,body_behavioural,3.0.4,59.48261144236234,
2,"The professor said, “The senate had conferred upon him the title of Augustus the sacred and revered one, the restorer of traditional values, the city’s new religious leader, the restorer of temples. ",3,2,,,None,,,,0,2,2,2,,,,,0,15,15,15,,,,,,,,,,,,,,,,,,,,,,,,,,,,,,,,,,,9,4.1868496620008955,,,,,,,,,,,,,,,,,,,,,,,,,,,,062019_p1,001,2019_Jun_20_1023,body_behavioural,3.0.4,59.48261144236234,
2,"Augustus also sought to beautify Rome, make it into a new Athens, and dispel the criticisms of Rome as disorganized and ugly.”",3,2,,,None,,,,0,2,2,2,,,,,0,16,16,16,,,,,,,,,,,,,,,,,,,,,,,,,,,,,,,,,,,1,1.6858171050007513,,,,,,,,,,,,,,,,,,,,,,,,,,,,062019_p1,001,2019_Jun_20_1023,body_behavioural,3.0.4,59.48261144236234,
2,"Alma turned to Charlie and offered her rebuttal, “I don’t know about that.",3,3,,,None,,,,0,2,2,2,,,,,0,17,17,17,,,,,,,,,,,,,,,,,,,,,,,,,,,,,,,,,,,9,2.702037304999976,,,,,,,,,,,,,,,,,,,,,,,,,,,,062019_p1,001,2019_Jun_20_1023,body_behavioural,3.0.4,59.48261144236234,
2,It’s not going to be possible to implement our ideas effectively unless the project is fully funded. ,3,3,,,None,,,,0,2,2,2,,,,,0,18,18,18,,,,,,,,,,,,,,,,,,,,,,,,,,,,,,,,,,,1,2.535464532000333,,,,,,,,,,,,,,,,,,,,,,,,,,,,062019_p1,001,2019_Jun_20_1023,body_behavioural,3.0.4,59.48261144236234,
2,"We would have to find other investors like your competitor on campus, Churchill Capital Group, and that would set us back in our timeline. ",3,3,,,None,,,,0,2,2,2,,,,,0,19,19,19,,,,,,,,,,,,,,,,,,,,,,,,,,,,,,,,,,,9,17.60329938799987,,,,,,,,,,,,,,,,,,,,,,,,,,,,062019_p1,001,2019_Jun_20_1023,body_behavioural,3.0.4,59.48261144236234,
2,"Our profit projections assumed we'd be starting relatively soon, not months down the line.” ",3,3,,,None,,,,0,2,2,2,,,,,0,20,20,20,,,,,,,,,,,,,,,,,,,,,,,,,,,,,,,,,,,1,3.5843592470009753,,,,,,,,,,,,,,,,,,,,,,,,,,,,062019_p1,001,2019_Jun_20_1023,body_behavioural,3.0.4,59.48261144236234,
2,They whispered back and forth during the entire class working out a compromise. ,3,3,,,None,,,,0,2,2,2,,,,,0,21,21,21,,,,,,,,,,,,,,,,,,,,,,,,,,,,,,,,,,,9,8.06745809000131,,,,,,,,,,,,,,,,,,,,,,,,,,,,062019_p1,001,2019_Jun_20_1023,body_behavioural,3.0.4,59.48261144236234,
2,The professor dismissed the students with a reminder that the midterm paper was due on Thursday and that they should email their papers to the TA.,4,3,,,None,,,,0,2,2,2,,,,,0,22,22,22,,,,,,,,,,,,,,,,,,,,,,,,,,,,,,,,,,,9,1.4667359150007542,,,,,,,,,,,,,,,,,,,,,,,,,,,,062019_p1,001,2019_Jun_20_1023,body_behavioural,3.0.4,59.48261144236234,
2,"Everyone, except Charlie and Alma, packed up their things and headed out of the lecture hall. ",4,3,,,None,,,,0,2,2,2,,,,,0,23,23,23,,,,,,,,,,,,,,,,,,,,,,,,,,,,,,,,,,,9,4.836649925000529,,,,,,,,,,,,,,,,,,,,,,,,,,,,062019_p1,001,2019_Jun_20_1023,body_behavioural,3.0.4,59.48261144236234,
2,"“Alright, so we’ll have the $30,000 wired to you by tomorrow,” Charlie said. ",4,4,,,None,,,,0,2,2,2,,,,,0,24,24,24,,,,,,,,,,,,,,,,,,,,,,,,,,,,,,,,,,,9,8.919869130000734,,,,,,,,,,,,,,,,,,,,,,,,,,,,062019_p1,001,2019_Jun_20_1023,body_behavioural,3.0.4,59.48261144236234,
2,"This wasn't ideal for Charlie, but Alma had refused to budge, and his investment group had told him they were willing to pay the full amount if necessary. ",4,4,,,None,,,,0,2,2,2,,,,,0,25,25,25,,,,,,,,,,,,,,,,,,,,,,,,,,,,,,,,,,,1,6.269279124997411,,,,,,,,,,,,,,,,,,,,,,,,,,,,062019_p1,001,2019_Jun_20_1023,body_behavioural,3.0.4,59.48261144236234,
2,They hugged in confirmation of the deal and made plans to sign the official paperwork the next day. ,4,4,,,None,,,,0,2,2,2,,,,,0,26,26,26,,,,,,,,,,,,,,,,,,,,,,,,,,,,,,,,,,,9,5.052650693000032,,,,,,,,,,,,,,,,,,,,,,,,,,,,062019_p1,001,2019_Jun_20_1023,body_behavioural,3.0.4,59.48261144236234,
2,,,,,,,,,,0,2,2,2,,,,,,,,,,,,,,,,,,,,,,,,,,,,,,,,,,,,,,,,,,,,,,,,,,,,,,,,,,,,,,,,,,,,,,,,062019_p1,001,2019_Jun_20_1023,body_behavioural,3.0.4,59.48261144236234,
3,,,,,,,,,,0,3,3,3,0,0,0,0,,,,,,,,,,,,,,,,,,,,,,,,,,,,,space,1.6855045600023004,space,0.6521781829978863,space,1.119663181998476,,,,,,,,,,,,,,,,,,,,,,,,,,,,,,,,,,062019_p1,001,2019_Jun_20_1023,body_behavioural,3.0.4,59.48261144236234,
3,"Carina and Simon, both distracted in thought, nearly ran into each other as they walked into the grocery store. ",1,1,,,43.0,,,,0,3,3,3,,,,,0,0,0,0,,,,,,,,,,,,,,,,,,,,,,,,,,,,,,,space,1.4194018199996208,space,1.1869351870009268,9,4.335327025000879,,,,,,,,,,,,,,,,,,,,,,,,,,,,062019_p1,001,2019_Jun_20_1023,body_behavioural,3.0.4,59.48261144236234,
3,She nearly dropped the keys she was holding. ,1,1,,,None,,,,0,3,3,3,,,,,0,1,1,1,,,,,,,,,,,,,,,,,,,,,,,,,,,,,,,,,,,1,2.7209671389973664,,,,,,,,,,,,,,,,,,,,,,,,,,,,062019_p1,001,2019_Jun_20_1023,body_behavioural,3.0.4,59.48261144236234,
3,"The store they had entered looked like a warehouse, with high, black ceilings, industrial lights, and large packages of food. ",1,1,,,None,,,,0,3,3,3,,,,,0,2,2,2,,,,,,,,,,,,,,,,,,,,,,,,,,,,,,,,,,,1,8.203369081998972,,,,,,,,,,,,,,,,,,,,,,,,,,,,062019_p1,001,2019_Jun_20_1023,body_behavioural,3.0.4,59.48261144236234,
3,"In the meat section, Carina and Simon were looking over the same cuts of meat, because they were both preparing for barbecues.",2,1,,,None,,,,0,3,3,3,,,,,0,3,3,3,,,,,,,,,,,,,,,,,,,,,,,,,,,,,,,,,,,1,4.535907311998017,,,,,,,,,,,,,,,,,,,,,,,,,,,,062019_p1,001,2019_Jun_20_1023,body_behavioural,3.0.4,59.48261144236234,
3,"Simon had wanted to talk to Carina, and Carina had wanted to say something to Simon, but they felt embarrassed striking up a conversation with a stranger.",2,1,,,None,,,,0,3,3,3,,,,,0,4,4,4,,,,,,,,,,,,,,,,,,,,,,,,,,,,,,,,,,,9,6.536043519998202,,,,,,,,,,,,,,,,,,,,,,,,,,,,062019_p1,001,2019_Jun_20_1023,body_behavioural,3.0.4,59.48261144236234,
3,"Carina mustered the courage, turned to Simon and, pointing at a Cornish hen, asked, “Isn’t this meat cute?”",2,2,,,None,,,,0,3,3,3,,,,,0,5,5,5,,,,,,,,,,,,,,,,,,,,,,,,,,,,,,,,,,,1,2.352462547001778,,,,,,,,,,,,,,,,,,,,,,,,,,,,062019_p1,001,2019_Jun_20_1023,body_behavioural,3.0.4,59.48261144236234,
3,"He laughed, and said, “It is very cute.",2,2,,,None,,,,0,3,3,3,,,,,0,6,6,6,,,,,,,,,,,,,,,,,,,,,,,,,,,,,,,,,,,1,1.7858771399987745,,,,,,,,,,,,,,,,,,,,,,,,,,,,062019_p1,001,2019_Jun_20_1023,body_behavioural,3.0.4,59.48261144236234,
3,"Probably the younger brother of this guy,” and he picked up a regular-sized chicken.",2,2,,,None,,,,0,3,3,3,,,,,0,7,7,7,,,,,,,,,,,,,,,,,,,,,,,,,,,,,,,,,,,1,2.514751097998669,,,,,,,,,,,,,,,,,,,,,,,,,,,,062019_p1,001,2019_Jun_20_1023,body_behavioural,3.0.4,59.48261144236234,
3,"“Unlucky family,” she responded as she shook her head. ",2,2,,,None,,,,0,3,3,3,,,,,0,8,8,8,,,,,,,,,,,,,,,,,,,,,,,,,,,,,,,,,,,1,1.7354950529988855,,,,,,,,,,,,,,,,,,,,,,,,,,,,062019_p1,001,2019_Jun_20_1023,body_behavioural,3.0.4,59.48261144236234,
3,They chatted as they picked out a few last-minute groceries.,2,2,,,None,,,,0,3,3,3,,,,,0,9,9,9,,,,,,,,,,,,,,,,,,,,,,,,,,,,,,,,,,,1,3.5184397920020274,,,,,,,,,,,,,,,,,,,,,,,,,,,,062019_p1,001,2019_Jun_20_1023,body_behavioural,3.0.4,59.48261144236234,
3,"Simon helped Carina select the best ribs and his personal favorite barbecue sauce, and she helped him choose red peppers and spices for a vegetable kabob she recommended.",2,2,,,None,,,,0,3,3,3,,,,,0,10,10,10,,,,,,,,,,,,,,,,,,,,,,,,,,,,,,,,,,,9,4.23469508999915,,,,,,,,,,,,,,,,,,,,,,,,,,,,062019_p1,001,2019_Jun_20_1023,body_behavioural,3.0.4,59.48261144236234,
3,"In the checkout area, there were three lines open, and they went to the one labeled “8.”",3,2,,,None,,,,0,3,3,3,,,,,0,11,11,11,,,,,,,,,,,,,,,,,,,,,,,,,,,,,,,,,,,1,6.436161894998804,,,,,,,,,,,,,,,,,,,,,,,,,,,,062019_p1,001,2019_Jun_20_1023,body_behavioural,3.0.4,59.48261144236234,
3,"Carina and Simon made jokes about the magazine covers while waiting in line, and they were laughing so hard their stomachs hurt. ",3,2,,,None,,,,0,3,3,3,,,,,0,12,12,12,,,,,,,,,,,,,,,,,,,,,,,,,,,,,,,,,,,1,7.820599423001113,,,,,,,,,,,,,,,,,,,,,,,,,,,,062019_p1,001,2019_Jun_20_1023,body_behavioural,3.0.4,59.48261144236234,
3,"Simon turned to face Carina and, while looking at her straight in the eyes, asked, “Would you like to go out to dinner with me?",3,3,,,None,,,,0,3,3,3,,,,,0,13,13,13,,,,,,,,,,,,,,,,,,,,,,,,,,,,,,,,,,,9,5.72031662000154,,,,,,,,,,,,,,,,,,,,,,,,,,,,062019_p1,001,2019_Jun_20_1023,body_behavioural,3.0.4,59.48261144236234,
3,Next Saturday we could tour around Harvard Square and get something to eat.,3,3,,,None,,,,0,3,3,3,,,,,0,14,14,14,,,,,,,,,,,,,,,,,,,,,,,,,,,,,,,,,,,1,1.9337950579974859,,,,,,,,,,,,,,,,,,,,,,,,,,,,062019_p1,001,2019_Jun_20_1023,body_behavioural,3.0.4,59.48261144236234,
3,"There are a lot of great places around there, and it’s really nice during the summer.”",3,3,,,None,,,,0,3,3,3,,,,,0,15,15,15,,,,,,,,,,,,,,,,,,,,,,,,,,,,,,,,,,,1,1.1686069969982782,,,,,,,,,,,,,,,,,,,,,,,,,,,,062019_p1,001,2019_Jun_20_1023,body_behavioural,3.0.4,59.48261144236234,
3,"Carina smiled, “I’d love to- that sounds great!”",3,3,,,None,,,,0,3,3,3,,,,,0,16,16,16,,,,,,,,,,,,,,,,,,,,,,,,,,,,,,,,,,,1,1.4843707779982651,,,,,,,,,,,,,,,,,,,,,,,,,,,,062019_p1,001,2019_Jun_20_1023,body_behavioural,3.0.4,59.48261144236234,
3,The cashier scanned Carina’s groceries.,4,3,,,None,,,,0,3,3,3,,,,,0,17,17,17,,,,,,,,,,,,,,,,,,,,,,,,,,,,,,,,,,,1,2.5688158350021695,,,,,,,,,,,,,,,,,,,,,,,,,,,,062019_p1,001,2019_Jun_20_1023,body_behavioural,3.0.4,59.48261144236234,
3,"Simon lifted up the divider on the conveyor belt and said to the cashier, “Actually, these are together.",4,3,,,None,,,,0,3,3,3,,,,,0,18,18,18,,,,,,,,,,,,,,,,,,,,,,,,,,,,,,,,,,,9,5.520568290001393,,,,,,,,,,,,,,,,,,,,,,,,,,,,062019_p1,001,2019_Jun_20_1023,body_behavioural,3.0.4,59.48261144236234,
3,"Carina, I’ve got it.",4,3,,,None,,,,0,3,3,3,,,,,0,19,19,19,,,,,,,,,,,,,,,,,,,,,,,,,,,,,,,,,,,1,3.4023338799997873,,,,,,,,,,,,,,,,,,,,,,,,,,,,062019_p1,001,2019_Jun_20_1023,body_behavioural,3.0.4,59.48261144236234,
3,This was kind-of a date today.”,4,3,,,None,,,,0,3,3,3,,,,,0,20,20,20,,,,,,,,,,,,,,,,,,,,,,,,,,,,,,,,,,,1,2.0168484329988132,,,,,,,,,,,,,,,,,,,,,,,,,,,,062019_p1,001,2019_Jun_20_1023,body_behavioural,3.0.4,59.48261144236234,
3,Carina blushed and laughed; she thought this was ridiculous but also very sweet. ,4,3,,,None,,,,0,3,3,3,,,,,0,21,21,21,,,,,,,,,,,,,,,,,,,,,,,,,,,,,,,,,,,1,3.335127480000665,,,,,,,,,,,,,,,,,,,,,,,,,,,,062019_p1,001,2019_Jun_20_1023,body_behavioural,3.0.4,59.48261144236234,
3,"The cashier rolled her eyes when they weren’t looking, and she scanned the rest of his items. ",4,3,,,None,,,,0,3,3,3,,,,,0,22,22,22,,,,,,,,,,,,,,,,,,,,,,,,,,,,,,,,,,,1,3.4012765900006343,,,,,,,,,,,,,,,,,,,,,,,,,,,,062019_p1,001,2019_Jun_20_1023,body_behavioural,3.0.4,59.48261144236234,
3,"The total came to $52, and he paid with his credit card.",4,3,,,None,,,,0,3,3,3,,,,,0,23,23,23,,,,,,,,,,,,,,,,,,,,,,,,,,,,,,,,,,,1,1.7536471420025919,,,,,,,,,,,,,,,,,,,,,,,,,,,,062019_p1,001,2019_Jun_20_1023,body_behavioural,3.0.4,59.48261144236234,
3,"Seeing that it was 4:30 PM on her phone, Carina gasped because she realized she was late for her own barbecue. ",4,4,,,None,,,,0,3,3,3,,,,,0,24,24,24,,,,,,,,,,,,,,,,,,,,,,,,,,,,,,,,,,,9,6.819325944998127,,,,,,,,,,,,,,,,,,,,,,,,,,,,062019_p1,001,2019_Jun_20_1023,body_behavioural,3.0.4,59.48261144236234,
3,Carina thanked Simon and took her groceries and ran. ,4,4,,,None,,,,0,3,3,3,,,,,0,25,25,25,,,,,,,,,,,,,,,,,,,,,,,,,,,,,,,,,,,1,1.4193502650014125,,,,,,,,,,,,,,,,,,,,,,,,,,,,062019_p1,001,2019_Jun_20_1023,body_behavioural,3.0.4,59.48261144236234,
3,"“I hope her guests aren’t hungry,” the cashier remarked.",4,4,,,None,,,,0,3,3,3,,,,,0,26,26,26,,,,,,,,,,,,,,,,,,,,,,,,,,,,,,,,,,,1,2.28598142300325,,,,,,,,,,,,,,,,,,,,,,,,,,,,062019_p1,001,2019_Jun_20_1023,body_behavioural,3.0.4,59.48261144236234,
3,Simon was thoroughly charmed and barely heard the comment as he watched her go. ,4,4,,,None,,,,0,3,3,3,,,,,0,27,27,27,,,,,,,,,,,,,,,,,,,,,,,,,,,,,,,,,,,1,12.25070670200148,,,,,,,,,,,,,,,,,,,,,,,,,,,,062019_p1,001,2019_Jun_20_1023,body_behavioural,3.0.4,59.48261144236234,
3,,,,,,,,,,0,3,3,3,,,,,,,,,,,,,,,,,,,,,,,,,,,,,,,,,,,,,,,,,,,,,,,,,,,,,,,,,,,,,,,,,,,,,,,,062019_p1,001,2019_Jun_20_1023,body_behavioural,3.0.4,59.48261144236234,
4,,,,,,,,,,0,4,4,4,0,0,0,0,,,,,,,,,,,,,,,,,,,,,,,,,,,,,space,2.1360546379983134,space,0.8691427640005713,space,0.6031174469972029,,,,,,,,,,,,,,,,,,,,,,,,,,,,,,,,,,062019_p1,001,2019_Jun_20_1023,body_behavioural,3.0.4,59.48261144236234,
4,"Ms. Bianchi and Ms. Morrison walked into the grocery store at the same time, and, after a moment of mutual recognition, greeted each other with a handshake.",1.0,1.0,,,33.0,,,,0,4,4,4,,,,,0,0,0,0,,,,,,,,,,,,,,,,,,,,,,,,,,,,,,,space,1.9689270350027073,space,0.8538835649997054,9,5.619718857000407,,,,,,,,,,,,,,,,,,,,,,,,,,,,062019_p1,001,2019_Jun_20_1023,body_behavioural,3.0.4,59.48261144236234,
4,"They were standing in the entrance of the grocery store, which had displays of pumpkins, candy, and halloween decorations set up in different stations around the door. ",1.0,1.0,,,None,,,,0,4,4,4,,,,,0,1,1,1,,,,,,,,,,,,,,,,,,,,,,,,,,,,,,,,,,,1,9.936549359998025,,,,,,,,,,,,,,,,,,,,,,,,,,,,062019_p1,001,2019_Jun_20_1023,body_behavioural,3.0.4,59.48261144236234,
4,"“Thank you again for inviting me here to discuss my business proposal,” said Ms. Bianchi.",1.0,1.0,,,None,,,,0,4,4,4,,,,,0,2,2,2,,,,,,,,,,,,,,,,,,,,,,,,,,,,,,,,,,,1,5.552931751997676,,,,,,,,,,,,,,,,,,,,,,,,,,,,062019_p1,001,2019_Jun_20_1023,body_behavioural,3.0.4,59.48261144236234,
4,“It’s a pleasure to be out of the office.” ,1.0,1.0,,,None,,,,0,4,4,4,,,,,0,3,3,3,,,,,,,,,,,,,,,,,,,,,,,,,,,,,,,,,,,1,2.3180822450012784,,,,,,,,,,,,,,,,,,,,,,,,,,,,062019_p1,001,2019_Jun_20_1023,body_behavioural,3.0.4,59.48261144236234,
4,"As an account representative for an Italian cheese company that was trying to expand its outreach to American grocery stores, this meeting was pivotal for Ms. Bianchi.",1.0,1.0,,,None,,,,0,4,4,4,,,,,0,4,4,4,,,,,,,,,,,,,,,,,,,,,,,,,,,,,,,,,,,9,6.453803393000271,,,,,,,,,,,,,,,,,,,,,,,,,,,,062019_p1,001,2019_Jun_20_1023,body_behavioural,3.0.4,59.48261144236234,
4,"Her sales target, Ms. Morrison, was the senior product manager for a corporate grocer and she had a say in the products distributed in stores across the West Coast.",1.0,1.0,,,None,,,,0,4,4,4,,,,,0,5,5,5,,,,,,,,,,,,,,,,,,,,,,,,,,,,,,,,,,,1,2.5533870630024467,,,,,,,,,,,,,,,,,,,,,,,,,,,,062019_p1,001,2019_Jun_20_1023,body_behavioural,3.0.4,59.48261144236234,
4,"Ms. Morrison was also known for doing things unconventionally: for example, she said that she liked to make deals with suppliers in the place where the products were sold- “to keep their minds focused on what’s important.” ",1.0,1.0,,,None,,,,0,4,4,4,,,,,0,6,6,6,,,,,,,,,,,,,,,,,,,,,,,,,,,,,,,,,,,1,7.169941672000277,,,,,,,,,,,,,,,,,,,,,,,,,,,,062019_p1,001,2019_Jun_20_1023,body_behavioural,3.0.4,59.48261144236234,
4,"In the cheese section of the grocery store, Ms. Morrison motioned to the parmesan.",2.0,1.0,,,None,,,,0,4,4,4,,,,,0,7,7,7,,,,,,,,,,,,,,,,,,,,,,,,,,,,,,,,,,,9,2.919630756998231,,,,,,,,,,,,,,,,,,,,,,,,,,,,062019_p1,001,2019_Jun_20_1023,body_behavioural,3.0.4,59.48261144236234,
4,“We have quite a selection here.,2.0,1.0,,,None,,,,0,4,4,4,,,,,0,8,8,8,,,,,,,,,,,,,,,,,,,,,,,,,,,,,,,,,,,1,1.6187233900018327,,,,,,,,,,,,,,,,,,,,,,,,,,,,062019_p1,001,2019_Jun_20_1023,body_behavioural,3.0.4,59.48261144236234,
4,I don’t know that we need an additional section for gourmet cheeses.” ,2.0,1.0,,,None,,,,0,4,4,4,,,,,0,9,9,9,,,,,,,,,,,,,,,,,,,,,,,,,,,,,,,,,,,1,1.2501049150014296,,,,,,,,,,,,,,,,,,,,,,,,,,,,062019_p1,001,2019_Jun_20_1023,body_behavioural,3.0.4,59.48261144236234,
4," Ms. Bianchi did not hesitate but launched into her pitch: “Ms. Morrison, I think you would agree that selling food is more than just providing variety, but also about providing the highest quality.",2.0,2.0,,,None,,,,0,4,4,4,,,,,0,10,10,10,,,,,,,,,,,,,,,,,,,,,,,,,,,,,,,,,,,1,4.652825829998619,,,,,,,,,,,,,,,,,,,,,,,,,,,,062019_p1,001,2019_Jun_20_1023,body_behavioural,3.0.4,59.48261144236234,
4,You don’t have cheeses made in America that are like ours- it is true.,2.0,2.0,,,None,,,,0,4,4,4,,,,,0,11,11,11,,,,,,,,,,,,,,,,,,,,,,,,,,,,,,,,,,,1,1.9523628399983863,,,,,,,,,,,,,,,,,,,,,,,,,,,,062019_p1,001,2019_Jun_20_1023,body_behavioural,3.0.4,59.48261144236234,
4,The availability of a product of excellent quality leads to the appreciation of the product.,2.0,2.0,,,None,,,,0,4,4,4,,,,,0,12,12,12,,,,,,,,,,,,,,,,,,,,,,,,,,,,,,,,,,,1,3.384907547999319,,,,,,,,,,,,,,,,,,,,,,,,,,,,062019_p1,001,2019_Jun_20_1023,body_behavioural,3.0.4,59.48261144236234,
4,"Your consumers will want to buy other, finer products to compliment that first ingredient, and suddenly your customer will be consuming in a new, more profitable way.",2.0,2.0,,,None,,,,0,4,4,4,,,,,0,13,13,13,,,,,,,,,,,,,,,,,,,,,,,,,,,,,,,,,,,1,3.986121944999468,,,,,,,,,,,,,,,,,,,,,,,,,,,,062019_p1,001,2019_Jun_20_1023,body_behavioural,3.0.4,59.48261144236234,
4,"I propose that you give it a shot: buy $1500 worth of cheese products for a few stores, and see how the sales increase not only in our cheeses but also in products related to cheeses: crackers, jams, olives.”",2.0,2.0,,,None,,,,0,4,4,4,,,,,0,14,14,14,,,,,,,,,,,,,,,,,,,,,,,,,,,,,,,,,,,1,1.3018786530010402,,,,,,,,,,,,,,,,,,,,,,,,,,,,062019_p1,001,2019_Jun_20_1023,body_behavioural,3.0.4,59.48261144236234,
4,"Ms. Bianchi picked up a box of crackers by the cheese section, and said, “Here, I will buy these, and we can try some of our cheeses that I've brought with me.”",2.0,2.0,,,None,,,,0,4,4,4,,,,,0,15,15,15,,,,,,,,,,,,,,,,,,,,,,,,,,,,,,,,,,,1,9.919463154001278,,,,,,,,,,,,,,,,,,,,,,,,,,,,062019_p1,001,2019_Jun_20_1023,body_behavioural,3.0.4,59.48261144236234,
4,"Ms. Morrison, who was thinking about the proposed offer, nodded in agreement and said, “That sounds like a great idea, but those crackers are on me.”",2.0,2.0,,,None,,,,0,4,4,4,,,,,0,16,16,16,,,,,,,,,,,,,,,,,,,,,,,,,,,,,,,,,,,1,5.999507950000407,,,,,,,,,,,,,,,,,,,,,,,,,,,,062019_p1,001,2019_Jun_20_1023,body_behavioural,3.0.4,59.48261144236234,
4,She took the crackers from Ms. Bianchi and also picked up a bottle of ketchup and a case of sparkling water “for later.”,2.0,2.0,,,None,,,,0,4,4,4,,,,,0,17,17,17,,,,,,,,,,,,,,,,,,,,,,,,,,,,,,,,,,,1,2.800815952003177,,,,,,,,,,,,,,,,,,,,,,,,,,,,062019_p1,001,2019_Jun_20_1023,body_behavioural,3.0.4,59.48261144236234,
4,It was very busy in the checkout area.,3.0,2.0,,,None,,,,0,4,4,4,,,,,0,18,18,18,,,,,,,,,,,,,,,,,,,,,,,,,,,,,,,,,,,9,1.820560028001637,,,,,,,,,,,,,,,,,,,,,,,,,,,,062019_p1,001,2019_Jun_20_1023,body_behavioural,3.0.4,59.48261144236234,
4,"People were stocking up for Halloween parties and trick-or-treating, and there were 10 aisles open. ",3.0,2.0,,,None,,,,0,4,4,4,,,,,0,19,19,19,,,,,,,,,,,,,,,,,,,,,,,,,,,,,,,,,,,1,2.0853939350017754,,,,,,,,,,,,,,,,,,,,,,,,,,,,062019_p1,001,2019_Jun_20_1023,body_behavioural,3.0.4,59.48261144236234,
4,They stepped into lane 6 and waited.,3.0,2.0,,,None,,,,0,4,4,4,,,,,0,20,20,20,,,,,,,,,,,,,,,,,,,,,,,,,,,,,,,,,,,1,4.83516558699921,,,,,,,,,,,,,,,,,,,,,,,,,,,,062019_p1,001,2019_Jun_20_1023,body_behavioural,3.0.4,59.48261144236234,
4,Ms. Bianchi handed to Ms. Morrison a packet with printed graphs of the increase in profits that several other stores in Italy had seen after starting to carry their products.,3.0,2.0,,,None,,,,0,4,4,4,,,,,0,21,21,21,,,,,,,,,,,,,,,,,,,,,,,,,,,,,,,,,,,9,6.817621719997987,,,,,,,,,,,,,,,,,,,,,,,,,,,,062019_p1,001,2019_Jun_20_1023,body_behavioural,3.0.4,59.48261144236234,
4,"After a couple minutes of thinking, Ms. Morrison widened her eyes and said confidently, “You know what, I think you've convinced me that this could work. ",3.0,3.0,,,None,,,,0,4,4,4,,,,,0,22,22,22,,,,,,,,,,,,,,,,,,,,,,,,,,,,,,,,,,,1,2.7689638580013707,,,,,,,,,,,,,,,,,,,,,,,,,,,,062019_p1,001,2019_Jun_20_1023,body_behavioural,3.0.4,59.48261144236234,
4,We've been trying to find a way to add a little European cachet to our stores.,3.0,3.0,,,None,,,,0,4,4,4,,,,,0,23,23,23,,,,,,,,,,,,,,,,,,,,,,,,,,,,,,,,,,,1,1.8367020270015928,,,,,,,,,,,,,,,,,,,,,,,,,,,,062019_p1,001,2019_Jun_20_1023,body_behavioural,3.0.4,59.48261144236234,
4,"Our competitor, Orange Grocers, hasn’t expanded in this direction yet, and I’d like to beat them to it. ",3.0,3.0,,,None,,,,0,4,4,4,,,,,0,24,24,24,,,,,,,,,,,,,,,,,,,,,,,,,,,,,,,,,,,1,1.8527798770010122,,,,,,,,,,,,,,,,,,,,,,,,,,,,062019_p1,001,2019_Jun_20_1023,body_behavioural,3.0.4,59.48261144236234,
4,There's still a problem though- I'm worried we'll be paying out the nose for the import taxes.,3.0,3.0,,,None,,,,0,4,4,4,,,,,0,25,25,25,,,,,,,,,,,,,,,,,,,,,,,,,,,,,,,,,,,1,2.553243428003043,,,,,,,,,,,,,,,,,,,,,,,,,,,,062019_p1,001,2019_Jun_20_1023,body_behavioural,3.0.4,59.48261144236234,
4,Is that the case?",3.0,3.0,,,None,,,,0,4,4,4,,,,,0,26,26,26,,,,,,,,,,,,,,,,,,,,,,,,,,,,,,,,,,,1,1.085594914999092,,,,,,,,,,,,,,,,,,,,,,,,,,,,062019_p1,001,2019_Jun_20_1023,body_behavioural,3.0.4,59.48261144236234,
4,"It was Ms. Morrison’s turn to check out, and the cashier chatted with Ms. Morrison as she scanned the items.",4.0,3.0,,,None,,,,0,4,4,4,,,,,0,27,27,27,,,,,,,,,,,,,,,,,,,,,,,,,,,,,,,,,,,9,4.253300929998659,,,,,,,,,,,,,,,,,,,,,,,,,,,,062019_p1,001,2019_Jun_20_1023,body_behavioural,3.0.4,59.48261144236234,
4,Ms. Morrison was also distinguished for knowing most of the employees personally. ,None,None,,,None,,,,0,4,4,4,,,,,0,28,28,28,,,,,,,,,,,,,,,,,,,,,,,,,,,,,,,,,,,1,2.5193872199997713,,,,,,,,,,,,,,,,,,,,,,,,,,,,062019_p1,001,2019_Jun_20_1023,body_behavioural,3.0.4,59.48261144236234,
4,Ms. Bianchi watched in amusement as Ms. Morrison paid the $23 price by writing a check. ,4.0,3.0,,,None,,,,0,4,4,4,,,,,0,29,29,29,,,,,,,,,,,,,,,,,,,,,,,,,,,,,,,,,,,9,13.753298564999568,,,,,,,,,,,,,,,,,,,,,,,,,,,,062019_p1,001,2019_Jun_20_1023,body_behavioural,3.0.4,59.48261144236234,
4,"After Ms. Bianci addressed Ms. Morrison’s concerns, they came to an agreement and would have enough cheese shipments, $20,000 worth, to different stores to qualify for a subsidized import tax. ",4.0,4.0,,,None,,,,0,4,4,4,,,,,0,30,30,30,,,,,,,,,,,,,,,,,,,,,,,,,,,,,,,,,,,9,3.852105906997167,,,,,,,,,,,,,,,,,,,,,,,,,,,,062019_p1,001,2019_Jun_20_1023,body_behavioural,3.0.4,59.48261144236234,
4,"Ms. Morrison had had a small bottle of champagne in her purse, and she pulled it out and popped it in celebration of their deal. ",4.0,4.0,,,None,,,,0,4,4,4,,,,,0,31,31,31,,,,,,,,,,,,,,,,,,,,,,,,,,,,,,,,,,,1,3.9528988900019613,,,,,,,,,,,,,,,,,,,,,,,,,,,,062019_p1,001,2019_Jun_20_1023,body_behavioural,3.0.4,59.48261144236234,
4,Ms. Bianchi decided that she loved doing business with Americans. ,4.0,4.0,,,None,,,,0,4,4,4,,,,,0,32,32,32,,,,,,,,,,,,,,,,,,,,,,,,,,,,,,,,,,,1,1.952020483000524,,,,,,,,,,,,,,,,,,,,,,,,,,,,062019_p1,001,2019_Jun_20_1023,body_behavioural,3.0.4,59.48261144236234,
4,,,,,,,,,,0,4,4,4,,,,,,,,,,,,,,,,,,,,,,,,,,,,,,,,,,,,,,,,,,,,,,,,,,,,,,,,,,,,,,,,,,,,,,,,062019_p1,001,2019_Jun_20_1023,body_behavioural,3.0.4,59.48261144236234,
5,,,,,,,,,,0,5,5,5,0,0,0,0,,,,,,,,,,,,,,,,,,,,,,,,,,,,,space,2.320083512000565,space,1.1528657379967626,space,0.6194379600019602,,,,,,,,,,,,,,,,,,,,,,,,,,,,,,,,,,062019_p1,001,2019_Jun_20_1023,body_behavioural,3.0.4,59.48261144236234,
5,"Alvira and Senna walked into the restaurant hand in sweaty hand with quite different expectations for the night because Senna, after 5 years of dating, was going to propose, and Alvira had no idea.",1.0,1.0,None,None,21.0,,,,0,5,5,5,,,,,0,0,0,0,,,,,,,,,,,,,,,,,,,,,,,,,,,,,,,space,7.570790278001368,space,1.1520614279979782,9,13.371215850002045,,,,,,,,,,,,,,,,,,,,,,,,,,,,062019_p1,001,2019_Jun_20_1023,body_behavioural,3.0.4,59.48261144236234,
5,"He took a deep breath, trying to calm his nerves as worst case scenarios ran through his mind. ",1.0,1.0,None,None,None,,,,0,5,5,5,,,,,0,1,1,1,,,,,,,,,,,,,,,,,,,,,,,,,,,,,,,,,,,1,3.085775840001588,,,,,,,,,,,,,,,,,,,,,,,,,,,,062019_p1,001,2019_Jun_20_1023,body_behavioural,3.0.4,59.48261144236234,
5,The restaurant was on the beach and had floor-to-ceiling arched windows that framed an incredible view of the Pacific Ocean.,1.0,1.0,None,None,None,,,,0,5,5,5,,,,,0,2,2,2,,,,,,,,,,,,,,,,,,,,,,,,,,,,,,,,,,,9,4.035717430000659,,,,,,,,,,,,,,,,,,,,,,,,,,,,062019_p1,001,2019_Jun_20_1023,body_behavioural,3.0.4,59.48261144236234,
5,"Besides the view, the restaurant itself was beautiful- crystal chandeliers hung from the high ceiling above small tables covered with white table clothes.
",1.0,1.0,None,None,None,,,,0,5,5,5,,,,,0,3,3,3,,,,,,,,,,,,,,,,,,,,,,,,,,,,,,,,,,,1,3.3863971720020345,,,,,,,,,,,,,,,,,,,,,,,,,,,,062019_p1,001,2019_Jun_20_1023,body_behavioural,3.0.4,59.48261144236234,
5,This was surely one of the best restaurants on the West Coast.,1.0,1.0,None,None,None,,,,0,5,5,5,,,,,0,4,4,4,,,,,,,,,,,,,,,,,,,,,,,,,,,,,,,,,,,1,1.7523630549985683,,,,,,,,,,,,,,,,,,,,,,,,,,,,062019_p1,001,2019_Jun_20_1023,body_behavioural,3.0.4,59.48261144236234,
5,"After Senna gave his name to the host, who discretely winked at Senna, they were seated at a table right by the window. ",2.0,1.0,7.0,None,None,,,,0,5,5,5,,,,,0,5,5,5,,,,,,,,,,,,,,,,,,,,,,,,,,,,,,,,,,,9,9.503126816998702,,,,,,,,,,,,,,,,,,,,,,,,,,,,062019_p1,001,2019_Jun_20_1023,body_behavioural,3.0.4,59.48261144236234,
5,The waiter brought out some very small menus.,2.0,1.0,None,9.0,None,,,,0,5,5,5,,,,,0,6,6,6,,,,,,,,,,,,,,,,,,,,,,,,,,,,,,,,,,,9,4.502883695000492,,,,,,,,,,,,,,,,,,,,,,,,,,,,062019_p1,001,2019_Jun_20_1023,body_behavioural,3.0.4,59.48261144236234,
5,"They consisted of a short list of the head chef's carefully selected daily dishes written in a loopy, cursive font unadorned by any mention of prices.",None,None,None,None,None,,,,0,5,5,5,,,,,0,7,7,7,,,,,,,,,,,,,,,,,,,,,,,,,,,,,,,,,,,1,3.0021839769979124,,,,,,,,,,,,,,,,,,,,,,,,,,,,062019_p1,001,2019_Jun_20_1023,body_behavioural,3.0.4,59.48261144236234,
5,"Senna got nervous about the ring, and he slipped off to the bathroom to check to make sure it looked alright.",2.0,2.0,None,None,None,,,,0,5,5,5,,,,,0,8,8,8,,,,,,,,,,,,,,,,,,,,,,,,,,,,,,,,,,,9,3.0693542849985533,,,,,,,,,,,,,,,,,,,,,,,,,,,,062019_p1,001,2019_Jun_20_1023,body_behavioural,3.0.4,59.48261144236234,
5,The ring contained three canary yellow diamonds that had been in his grandmother’s wedding ring. ,2.0,2.0,None,None,None,,,,0,5,5,5,,,,,0,9,9,9,,,,,,,,,,,,,,,,,,,,,,,,,,,,,,,,,,,1,2.7687099819995638,,,,,,,,,,,,,,,,,,,,,,,,,,,,062019_p1,001,2019_Jun_20_1023,body_behavioural,3.0.4,59.48261144236234,
5,"After Senna had gotten back to the table, the waiter appeared at their table to take their order.",3.0,2.0,None,None,None,,,,0,5,5,5,,,,,0,10,10,10,,,,,,,,,,,,,,,,,,,,,,,,,,,,,,,,,,,1,7.769278551997559,,,,,,,,,,,,,,,,,,,,,,,,,,,,062019_p1,001,2019_Jun_20_1023,body_behavioural,3.0.4,59.48261144236234,
5,"Senna ordered the oysters with garlic-parmesan sauce, and Alvira ordered the sauteed sea scallops with caramelized apples. ",3.0,2.0,None,None,None,,,,0,5,5,5,,,,,0,11,11,11,,,,,,,,,,,,,,,,,,,,,,,,,,,,,,,,,,,9,4.102237012000842,,,,,,,,,,,,,,,,,,,,,,,,,,,,062019_p1,001,2019_Jun_20_1023,body_behavioural,3.0.4,59.48261144236234,
5,"“Excellent choices,” the waiter said, and he left.",3.0,2.0,None,None,None,,,,0,5,5,5,,,,,0,12,12,12,,,,,,,,,,,,,,,,,,,,,,,,,,,,,,,,,,,1,1.3867497030005325,,,,,,,,,,,,,,,,,,,,,,,,,,,,062019_p1,001,2019_Jun_20_1023,body_behavioural,3.0.4,59.48261144236234,
5,"“What a beautiful place, Senna. ",3.0,2.0,None,None,None,,,,0,5,5,5,,,,,0,13,13,13,,,,,,,,,,,,,,,,,,,,,,,,,,,,,,,,,,,9,14.637701060000836,,,,,,,,,,,,,,,,,,,,,,,,,,,,062019_p1,001,2019_Jun_20_1023,body_behavioural,3.0.4,59.48261144236234,
5,"This is too much just to celebrate the first tomatoes I grew in the garden- really, this is absurd,” Alvira said.",3.0,2.0,None,None,None,,,,0,5,5,5,,,,,0,14,14,14,,,,,,,,,,,,,,,,,,,,,,,,,,,,,,,,,,,1,4.436278036999283,,,,,,,,,,,,,,,,,,,,,,,,,,,,062019_p1,001,2019_Jun_20_1023,body_behavioural,3.0.4,59.48261144236234,
5,"Senna laughed and said, “No, those were really the best tomatoes I’ve ever had. ",3.0,2.0,None,None,None,,,,0,5,5,5,,,,,0,15,15,15,,,,,,,,,,,,,,,,,,,,,,,,,,,,,,,,,,,1,1.670114813001419,,,,,,,,,,,,,,,,,,,,,,,,,,,,062019_p1,001,2019_Jun_20_1023,body_behavioural,3.0.4,59.48261144236234,
5,We had to celebrate.” ,3.0,2.0,None,None,None,,,,0,5,5,5,,,,,0,16,16,16,,,,,,,,,,,,,,,,,,,,,,,,,,,,,,,,,,,1,0.6852015599979495,,,,,,,,,,,,,,,,,,,,,,,,,,,,062019_p1,001,2019_Jun_20_1023,body_behavioural,3.0.4,59.48261144236234,
5,"They talked and laughed as the sun sank below the horizon, lighting up the sky and water, and slowly the glow from the windows was replaced by the chandeliers.",3.0,2.0,8.0,None,None,,,,0,5,5,5,,,,,0,17,17,17,,,,,,,,,,,,,,,,,,,,,,,,,,,,,,,,,,,1,1.7021696349984268,,,,,,,,,,,,,,,,,,,,,,,,,,,,062019_p1,001,2019_Jun_20_1023,body_behavioural,3.0.4,59.48261144236234,
5,The waiter returned with their dishes.,4.0,2.0,None,None,None,,,,0,5,5,5,,,,,0,18,18,18,,,,,,,,,,,,,,,,,,,,,,,,,,,,,,,,,,,1,2.1687699599970074,,,,,,,,,,,,,,,,,,,,,,,,,,,,062019_p1,001,2019_Jun_20_1023,body_behavioural,3.0.4,59.48261144236234,
5,"Everything was even more delicious than they had expected, especially the oysters, which Senna said tasted like the ocean. ",4.0,2.0,None,None,None,,,,0,5,5,5,,,,,0,19,19,19,,,,,,,,,,,,,,,,,,,,,,,,,,,,,,,,,,,9,1.8330564399984723,,,,,,,,,,,,,,,,,,,,,,,,,,,,062019_p1,001,2019_Jun_20_1023,body_behavioural,3.0.4,59.48261144236234,
5," As they were eating, Senna recounted to Alvira how they had met, and he told her in many words how much he loved her and what he loved about her, almost tearing up at moments. ",4.0,2.0,None,None,None,,,,0,5,5,5,,,,,0,20,20,20,,,,,,,,,,,,,,,,,,,,,,,,,,,,,,,,,,,9,3.9513514100035536,,,,,,,,,,,,,,,,,,,,,,,,,,,,062019_p1,001,2019_Jun_20_1023,body_behavioural,3.0.4,59.48261144236234,
5,"When they had finished eating, Senna nodded at the waiter who had been watching attentively, and he quickly strode over to place a small, elegant cake topped with the ring in front of Alvira. ",4.0,3.0,None,None,None,,,,0,5,5,5,,,,,0,21,21,21,,,,,,,,,,,,,,,,,,,,,,,,,,,,,,,,,,,1,5.152407100002165,,,,,,,,,,,,,,,,,,,,,,,,,,,,062019_p1,001,2019_Jun_20_1023,body_behavioural,3.0.4,59.48261144236234,
5,Her eyes widened in shock when she realized what she was looking at.,4.0,3.0,None,None,None,,,,0,5,5,5,,,,,0,22,22,22,,,,,,,,,,,,,,,,,,,,,,,,,,,,,,,,,,,1,1.4003341930001625,,,,,,,,,,,,,,,,,,,,,,,,,,,,062019_p1,001,2019_Jun_20_1023,body_behavioural,3.0.4,59.48261144236234,
5,"Senna got down on one knee and said,“Alvira, will you marry me? ",4.0,3.0,None,None,None,,,,0,5,5,5,,,,,0,23,23,23,,,,,,,,,,,,,,,,,,,,,,,,,,,,,,,,,,,1,1.2856256869999925,,,,,,,,,,,,,,,,,,,,,,,,,,,,062019_p1,001,2019_Jun_20_1023,body_behavioural,3.0.4,59.48261144236234,
5,"I love you, and I will never stop loving you.” ",4.0,3.0,None,None,None,,,,0,5,5,5,,,,,0,24,24,24,,,,,,,,,,,,,,,,,,,,,,,,,,,,,,,,,,,1,2.3506387319976056,,,,,,,,,,,,,,,,,,,,,,,,,,,,062019_p1,001,2019_Jun_20_1023,body_behavioural,3.0.4,59.48261144236234,
5,"After a few moments with everyone turned and looking at Elvira in expectation, she exclaimed, “Yes, of course, yes!”",4.0,4.0,None,None,None,,,,0,5,5,5,,,,,0,25,25,25,,,,,,,,,,,,,,,,,,,,,,,,,,,,,,,,,,,1,2.8355148549999285,,,,,,,,,,,,,,,,,,,,,,,,,,,,062019_p1,001,2019_Jun_20_1023,body_behavioural,3.0.4,59.48261144236234,
5,She hugged Senna with tears flowing down her cheeks. ,4.0,4.0,None,None,None,,,,0,5,5,5,,,,,0,26,26,26,,,,,,,,,,,,,,,,,,,,,,,,,,,,,,,,,,,1,1.3516497450000315,,,,,,,,,,,,,,,,,,,,,,,,,,,,062019_p1,001,2019_Jun_20_1023,body_behavioural,3.0.4,59.48261144236234,
5,"The other guests exploded in applause, and the waiter returned with a bottle of champagne and popped it.",4.0,4.0,None,None,None,,,,0,5,5,5,,,,,0,27,27,27,,,,,,,,,,,,,,,,,,,,,,,,,,,,,,,,,,,1,1.5852038869998069,,,,,,,,,,,,,,,,,,,,,,,,,,,,062019_p1,001,2019_Jun_20_1023,body_behavioural,3.0.4,59.48261144236234,
5,Senna slipped the ring onto Alvira’s finger and she held up her hand to admire it.,4.0,4.0,None,None,None,,,,0,5,5,5,,,,,0,28,28,28,,,,,,,,,,,,,,,,,,,,,,,,,,,,,,,,,,,1,4.6679956180014415,,,,,,,,,,,,,,,,,,,,,,,,,,,,062019_p1,001,2019_Jun_20_1023,body_behavioural,3.0.4,59.48261144236234,
5,“I need to text my dad and tell him!” she sang. ,4.0,4.0,None,None,None,,,,0,5,5,5,,,,,0,29,29,29,,,,,,,,,,,,,,,,,,,,,,,,,,,,,,,,,,,1,1.950202932999673,,,,,,,,,,,,,,,,,,,,,,,,,,,,062019_p1,001,2019_Jun_20_1023,body_behavioural,3.0.4,59.48261144236234,
5,The whole restaurant proceeded in cheers with them to celebrate the joyous occasion.  ,4.0,4.0,None,None,None,,,,0,5,5,5,,,,,0,30,30,30,,,,,,,,,,,,,,,,,,,,,,,,,,,,,,,,,,,1,1.652784148001956,,,,,,,,,,,,,,,,,,,,,,,,,,,,062019_p1,001,2019_Jun_20_1023,body_behavioural,3.0.4,59.48261144236234,
5,,,,,,,,,,0,5,5,5,,,,,,,,,,,,,,,,,,,,,,,,,,,,,,,,,,,,,,,,,,,,,,,,,,,,,,,,,,,,,,,,,,,,,,,,062019_p1,001,2019_Jun_20_1023,body_behavioural,3.0.4,59.48261144236234,
6,,,,,,,,,,0,6,6,6,0,0,0,0,,,,,,,,,,,,,,,,,,,,,,,,,,,,,space,0.919312488000287,space,0.5693623519982793,space,0.851922616999218,,,,,,,,,,,,,,,,,,,,,,,,,,,,,,,,,,062019_p1,001,2019_Jun_20_1023,body_behavioural,3.0.4,59.48261144236234,
6,"Sven and Isabel walked hurriedly from the cab into the Barcelona Airport after an incredible week with Isabel’s family, and this had wiped away any doubts Sven had had about his decision to propose. ",1,1,,,22.0,,,,0,6,6,6,,,,,0,0,0,0,,,,,,,,,,,,,,,,,,,,,,,,,,,,,,,space,1.6187603699981992,space,1.8861692399987078,9,7.0525953129981644,,,,,,,,,,,,,,,,,,,,,,,,,,,,062019_p1,001,2019_Jun_20_1023,body_behavioural,3.0.4,59.48261144236234,
6,They had only been dating for 11 months so this was the first time he had met her family. ,1,1,,,None,,,,0,6,6,6,,,,,0,1,1,1,,,,,,,,,,,,,,,,,,,,,,,,,,,,,,,,,,,1,4.1676128930012055,,,,,,,,,,,,,,,,,,,,,,,,,,,,062019_p1,001,2019_Jun_20_1023,body_behavioural,3.0.4,59.48261144236234,
6,"They were pressed for time at the airport, with an hour and 15 minutes until their flight would take off to go back to the US, but they already had their online boarding passes and no checked luggage. ",1,1,,,None,,,,0,6,6,6,,,,,0,2,2,2,,,,,,,,,,,,,,,,,,,,,,,,,,,,,,,,,,,9,6.818672587000037,,,,,,,,,,,,,,,,,,,,,,,,,,,,062019_p1,001,2019_Jun_20_1023,body_behavioural,3.0.4,59.48261144236234,
6,"Isabel stopped to rummage through her purse to look for her phone, and meanwhile Sven turned his back to her and took the velvet box out of his backpack, opening it to look at the ring he had bought her.",1,2,,,None,,,,0,6,6,6,,,,,0,3,3,3,,,,,,,,,,,,,,,,,,,,,,,,,,,,,,,,,,,1,3.936824495001929,,,,,,,,,,,,,,,,,,,,,,,,,,,,062019_p1,001,2019_Jun_20_1023,body_behavioural,3.0.4,59.48261144236234,
6,"He had received her parents’ blessing during the trip, and he was almost giddy with excitement. ",1,2,,,None,,,,0,6,6,6,,,,,0,4,4,4,,,,,,,,,,,,,,,,,,,,,,,,,,,,,,,,,,,1,4.486890471998777,,,,,,,,,,,,,,,,,,,,,,,,,,,,062019_p1,001,2019_Jun_20_1023,body_behavioural,3.0.4,59.48261144236234,
6,"He tilted the ring backward and forward, despite having already studied it daily since purchasing it a few weeks ago. ",1,2,,,None,,,,0,6,6,6,,,,,0,5,5,5,,,,,,,,,,,,,,,,,,,,,,,,,,,,,,,,,,,9,4.284618448000401,,,,,,,,,,,,,,,,,,,,,,,,,,,,062019_p1,001,2019_Jun_20_1023,body_behavioural,3.0.4,59.48261144236234,
6,"It was a simple design, with two pink diamonds on a silver band.",1,2,,,None,,,,0,6,6,6,,,,,0,6,6,6,,,,,,,,,,,,,,,,,,,,,,,,,,,,,,,,,,,1,3.7025341580010718,,,,,,,,,,,,,,,,,,,,,,,,,,,,062019_p1,001,2019_Jun_20_1023,body_behavioural,3.0.4,59.48261144236234,
6,"“Sven, I’m good,” Isabel said. ",1,2,,,None,,,,0,6,6,6,,,,,0,7,7,7,,,,,,,,,,,,,,,,,,,,,,,,,,,,,,,,,,,9,21.585225913000613,,,,,,,,,,,,,,,,,,,,,,,,,,,,062019_p1,001,2019_Jun_20_1023,body_behavioural,3.0.4,59.48261144236234,
6,Sven closed the box and discretely put it in his pocket.,1,2,,,None,,,,0,6,6,6,,,,,0,8,8,8,,,,,,,,,,,,,,,,,,,,,,,,,,,,,,,,,,,1,3.41995678999956,,,,,,,,,,,,,,,,,,,,,,,,,,,,062019_p1,001,2019_Jun_20_1023,body_behavioural,3.0.4,59.48261144236234,
6,"They entered the security line, weaving through the roped walkways to the front. ",2,2,,,None,,,,0,6,6,6,,,,,0,9,9,9,,,,,,,,,,,,,,,,,,,,,,,,,,,,,,,,,,,1,2.5512792150002497,,,,,,,,,,,,,,,,,,,,,,,,,,,,062019_p1,001,2019_Jun_20_1023,body_behavioural,3.0.4,59.48261144236234,
6,"When they were up, Isabel realized her laptop was buried somewhere in her duffle bag. ",2,2,,,None,,,,0,6,6,6,,,,,0,10,10,10,,,,,,,,,,,,,,,,,,,,,,,,,,,,,,,,,,,1,3.018584940000437,,,,,,,,,,,,,,,,,,,,,,,,,,,,062019_p1,001,2019_Jun_20_1023,body_behavioural,3.0.4,59.48261144236234,
6,"Luckily, at the same time, there was a stall in the line because someone ahead of them had a suspicious amount of metal pieces on his person. ",2,2,,,None,,,,0,6,6,6,,,,,0,11,11,11,,,,,,,,,,,,,,,,,,,,,,,,,,,,,,,,,,,1,2.368684552002378,,,,,,,,,,,,,,,,,,,,,,,,,,,,062019_p1,001,2019_Jun_20_1023,body_behavioural,3.0.4,59.48261144236234,
6,Sven had to hold the growing mound of objects Isabel pulled from her bag until she unearthed the laptop and set it in a bin.,2,2,,,None,,,,0,6,6,6,,,,,0,12,12,12,,,,,,,,,,,,,,,,,,,,,,,,,,,,,,,,,,,1,2.5664803049985494,,,,,,,,,,,,,,,,,,,,,,,,,,,,062019_p1,001,2019_Jun_20_1023,body_behavioural,3.0.4,59.48261144236234,
6,"She then gave her bag to Sven, unstrapped her heels, and took the bag back from Sven.",2,2,,,None,,,,0,6,6,6,,,,,0,13,13,13,,,,,,,,,,,,,,,,,,,,,,,,,,,,,,,,,,,1,2.352766665000672,,,,,,,,,,,,,,,,,,,,,,,,,,,,062019_p1,001,2019_Jun_20_1023,body_behavioural,3.0.4,59.48261144236234,
6,"Sven, relieved of his holding duties, hurriedly deposited his own backpack on the belt, and took off his shoes. ",2,2,,,None,,,,0,6,6,6,,,,,0,14,14,14,,,,,,,,,,,,,,,,,,,,,,,,,,,,,,,,,,,1,1.6517636930002482,,,,,,,,,,,,,,,,,,,,,,,,,,,,062019_p1,001,2019_Jun_20_1023,body_behavioural,3.0.4,59.48261144236234,
6,"Sven went into the millimeter wave scanner after Isabel, put his hands up, and the metal bars whirled around him.",2,2,,,None,,,,0,6,6,6,,,,,0,15,15,15,,,,,,,,,,,,,,,,,,,,,,,,,,,,,,,,,,,1,2.1190945300004387,,,,,,,,,,,,,,,,,,,,,,,,,,,,062019_p1,001,2019_Jun_20_1023,body_behavioural,3.0.4,59.48261144236234,
6,The security guard asked Sven to wait. ,2,2,,,None,,,,0,6,6,6,,,,,0,16,16,16,,,,,,,,,,,,,,,,,,,,,,,,,,,,,,,,,,,1,1.6857588150014635,,,,,,,,,,,,,,,,,,,,,,,,,,,,062019_p1,001,2019_Jun_20_1023,body_behavioural,3.0.4,59.48261144236234,
6,"After looking at the monitor, the security guard said, “Sir, please empty your pockets,”.",2,2,,,None,,,,0,6,6,6,,,,,0,17,17,17,,,,,,,,,,,,,,,,,,,,,,,,,,,,,,,,,,,1,2.5856073899994954,,,,,,,,,,,,,,,,,,,,,,,,,,,,062019_p1,001,2019_Jun_20_1023,body_behavioural,3.0.4,59.48261144236234,
6,"Isabel, shoeless and wrinkling her eyebrows at Sven, looked at him expectantly.",2,2,,,None,,,,0,6,6,6,,,,,0,18,18,18,,,,,,,,,,,,,,,,,,,,,,,,,,,,,,,,,,,1,3.4016875519992027,,,,,,,,,,,,,,,,,,,,,,,,,,,,062019_p1,001,2019_Jun_20_1023,body_behavioural,3.0.4,59.48261144236234,
6,"Realizing that he had forgotten the ring in his pocket, he grabbed Isabel’s, got down on one knee, and opening the velvet box, said, “Isabel, this isn't quite how I'd planned this, but - will you marry me?”",2,3,,,None,,,,0,6,6,6,,,,,0,19,19,19,,,,,,,,,,,,,,,,,,,,,,,,,,,,,,,,,,,9,4.785857617000147,,,,,,,,,,,,,,,,,,,,,,,,,,,,062019_p1,001,2019_Jun_20_1023,body_behavioural,3.0.4,59.48261144236234,
6,He held the ring up to her. ,2,3,,,None,,,,0,6,6,6,,,,,0,20,20,20,,,,,,,,,,,,,,,,,,,,,,,,,,,,,,,,,,,1,2.285530799999833,,,,,,,,,,,,,,,,,,,,,,,,,,,,062019_p1,001,2019_Jun_20_1023,body_behavioural,3.0.4,59.48261144236234,
6,The security guard stood shocked.,2,3,,,None,,,,0,6,6,6,,,,,0,21,21,21,,,,,,,,,,,,,,,,,,,,,,,,,,,,,,,,,,,1,1.9177994880010374,,,,,,,,,,,,,,,,,,,,,,,,,,,,062019_p1,001,2019_Jun_20_1023,body_behavioural,3.0.4,59.48261144236234,
6,All the people who were putting their shoes back on and gathering their belongings stopped and walked closer to the couple.,2,3,,,None,,,,0,6,6,6,,,,,0,22,22,22,,,,,,,,,,,,,,,,,,,,,,,,,,,,,,,,,,,1,5.369097664999572,,,,,,,,,,,,,,,,,,,,,,,,,,,,062019_p1,001,2019_Jun_20_1023,body_behavioural,3.0.4,59.48261144236234,
6,Isabel didn’t know what to do since she was far too shy to respond in front of all the people around.,2,3,,,None,,,,0,6,6,6,,,,,0,23,23,23,,,,,,,,,,,,,,,,,,,,,,,,,,,,,,,,,,,1,2.402524982000614,,,,,,,,,,,,,,,,,,,,,,,,,,,,062019_p1,001,2019_Jun_20_1023,body_behavioural,3.0.4,59.48261144236234,
6,"Without responding to Sven, she frantically grabbed her and Sven’s shoes, leaving Sven to retrieve the rest, and she quickly walked onto the concourse.",3,3,,,None,,,,0,6,6,6,,,,,0,24,24,24,,,,,,,,,,,,,,,,,,,,,,,,,,,,,,,,,,,1,5.153141960003268,,,,,,,,,,,,,,,,,,,,,,,,,,,,062019_p1,001,2019_Jun_20_1023,body_behavioural,3.0.4,59.48261144236234,
6,"Sven, terrified, grabbed everything and hurried after Isabel onto the concourse shoeless.",3,3,,,None,,,,0,6,6,6,,,,,0,25,25,25,,,,,,,,,,,,,,,,,,,,,,,,,,,,,,,,,,,1,2.3031775930030562,,,,,,,,,,,,,,,,,,,,,,,,,,,,062019_p1,001,2019_Jun_20_1023,body_behavioural,3.0.4,59.48261144236234,
6,Sven eventually caught up to her with their bags and the open ring box.,3,3,,,None,,,,0,6,6,6,,,,,0,26,26,26,,,,,,,,,,,,,,,,,,,,,,,,,,,,,,,,,,,1,5.637084719997802,,,,,,,,,,,,,,,,,,,,,,,,,,,,062019_p1,001,2019_Jun_20_1023,body_behavioural,3.0.4,59.48261144236234,
6,"She stopped and with wide, excited eyes, shouted, “Of course yes, Sven!” ",3,4,,,None,,,,0,6,6,6,,,,,0,27,27,27,,,,,,,,,,,,,,,,,,,,,,,,,,,,,,,,,,,1,1.9025115829972492,,,,,,,,,,,,,,,,,,,,,,,,,,,,062019_p1,001,2019_Jun_20_1023,body_behavioural,3.0.4,59.48261144236234,
6,"They dropped their belongings and hugged, and Sven put the ring onto Isabel’s finger. ",3,4,,,None,,,,0,6,6,6,,,,,0,28,28,28,,,,,,,,,,,,,,,,,,,,,,,,,,,,,,,,,,,1,3.1355013600004895,,,,,,,,,,,,,,,,,,,,,,,,,,,,062019_p1,001,2019_Jun_20_1023,body_behavioural,3.0.4,59.48261144236234,
6,"“Isabel, you scared me!” he said. ",3,4,,,None,,,,0,6,6,6,,,,,0,29,29,29,,,,,,,,,,,,,,,,,,,,,,,,,,,,,,,,,,,1,1.936189916999865,,,,,,,,,,,,,,,,,,,,,,,,,,,,062019_p1,001,2019_Jun_20_1023,body_behavioural,3.0.4,59.48261144236234,
6,"After getting their shoes back on, they practically floated to gate C40.",3,4,,,None,,,,0,6,6,6,,,,,0,30,30,30,,,,,,,,,,,,,,,,,,,,,,,,,,,,,,,,,,,1,2.8189229050003632,,,,,,,,,,,,,,,,,,,,,,,,,,,,062019_p1,001,2019_Jun_20_1023,body_behavioural,3.0.4,59.48261144236234,
6,Sven was so happy he even high-fived a confused shoe-shine attendant as they passed.,3,4,,,None,,,,0,6,6,6,,,,,0,31,31,31,,,,,,,,,,,,,,,,,,,,,,,,,,,,,,,,,,,9,4.301774536997982,,,,,,,,,,,,,,,,,,,,,,,,,,,,062019_p1,001,2019_Jun_20_1023,body_behavioural,3.0.4,59.48261144236234,
6,Isabel texted her best friend telling her the news as they walked. ,3,4,,,None,,,,0,6,6,6,,,,,0,32,32,32,,,,,,,,,,,,,,,,,,,,,,,,,,,,,,,,,,,1,2.885448050001287,,,,,,,,,,,,,,,,,,,,,,,,,,,,062019_p1,001,2019_Jun_20_1023,body_behavioural,3.0.4,59.48261144236234,
6,"Having arrived at their gate, they waited, until the attendant called for passengers, and they scanned their tickets to board the plane.",4,4,,,None,,,,0,6,6,6,,,,,0,33,33,33,,,,,,,,,,,,,,,,,,,,,,,,,,,,,,,,,,,1,10.453365879999183,,,,,,,,,,,,,,,,,,,,,,,,,,,,062019_p1,001,2019_Jun_20_1023,body_behavioural,3.0.4,59.48261144236234,
6,"They walked through the connecting tunnel to the plane and sat together in first class, in seats 2A and 2B.",4,4,,,None,,,,0,6,6,6,,,,,0,34,34,34,,,,,,,,,,,,,,,,,,,,,,,,,,,,,,,,,,,1,2.5361121999994793,,,,,,,,,,,,,,,,,,,,,,,,,,,,062019_p1,001,2019_Jun_20_1023,body_behavioural,3.0.4,59.48261144236234,
6,"Some of their neighboring passengers who had witnessed the proposal at security congratulated them, and a woman next to them showed them that she had been live-tweeting the whole event and that it was already going viral online.",4,4,,,None,,,,0,6,6,6,,,,,0,35,35,35,,,,,,,,,,,,,,,,,,,,,,,,,,,,,,,,,,,1,2.8160577499984356,,,,,,,,,,,,,,,,,,,,,,,,,,,,062019_p1,001,2019_Jun_20_1023,body_behavioural,3.0.4,59.48261144236234,
6,"Isabel slid down in her seat with her hands over her face, embarrassed and overjoyed at the same time.
",4,4,,,None,,,,0,6,6,6,,,,,0,36,36,36,,,,,,,,,,,,,,,,,,,,,,,,,,,,,,,,,,,1,2.933864758000709,,,,,,,,,,,,,,,,,,,,,,,,,,,,062019_p1,001,2019_Jun_20_1023,body_behavioural,3.0.4,59.48261144236234,
6,,,,,,,,,,0,6,6,6,,,,,,,,,,,,,,,,,,,,,,,,,,,,,,,,,,,,,,,,,,,,,,,,,,,,,,,,,,,,,,,,,,,,,,,,062019_p1,001,2019_Jun_20_1023,body_behavioural,3.0.4,59.48261144236234,
7,,,,,,,,,,0,7,7,7,0,0,0,0,,,,,,,,,,,,,,,,,,,,,,,,,,,,,space,1.5693386539969651,space,0.5032563360000495,space,2.136058439999033,,,,,,,,,,,,,,,,,,,,,,,,,,,,,,,,,,062019_p1,001,2019_Jun_20_1023,body_behavioural,3.0.4,59.48261144236234,
7,"It didn’t help the situation that Calvin and Jessie were running late to the airport, since Jessie had already been fuming at Calvin and preparing to end the relationship with him.",1,1,,,12.0,,,,0,7,7,7,,,,,0,0,0,0,,,,,,,,,,,,,,,,,,,,,,,,,,,,,,,space,1.3687627549988974,space,0.61968436999814,9,6.436684964999586,,,,,,,,,,,,,,,,,,,,,,,,,,,,062019_p1,001,2019_Jun_20_1023,body_behavioural,3.0.4,59.48261144236234,
7,"Upon arriving at their terminal, they had only 45 minutes until their international flight would depart from Jamaica for the US.",1,1,,,None,,,,0,7,7,7,,,,,0,1,1,1,,,,,,,,,,,,,,,,,,,,,,,,,,,,,,,,,,,1,3.452584137998201,,,,,,,,,,,,,,,,,,,,,,,,,,,,062019_p1,001,2019_Jun_20_1023,body_behavioural,3.0.4,59.48261144236234,
7,"It had been a tough vacation, which was planned well before Jessie began to think of breaking up 6 weeks ago.  ",1,1,,,None,,,,0,7,7,7,,,,,0,2,2,2,,,,,,,,,,,,,,,,,,,,,,,,,,,,,,,,,,,1,10.519163032000506,,,,,,,,,,,,,,,,,,,,,,,,,,,,062019_p1,001,2019_Jun_20_1023,body_behavioural,3.0.4,59.48261144236234,
7,"Calvin knew that Jessie was upset, but wasn't sure what to do besides attempt to carry on as normal.",1,1,,,None,,,,0,7,7,7,,,,,0,3,3,3,,,,,,,,,,,,,,,,,,,,,,,,,,,,,,,,,,,1,2.3022469030001957,,,,,,,,,,,,,,,,,,,,,,,,,,,,062019_p1,001,2019_Jun_20_1023,body_behavioural,3.0.4,59.48261144236234,
7,"The security line was very short, and once the online boarding passes were scanned, Calvin took off his belt and watch, and they put their bags on the conveyor belt.",2,1,,,None,,,,0,7,7,7,,,,,0,4,4,4,,,,,,,,,,,,,,,,,,,,,,,,,,,,,,,,,,,9,1.8693175049993442,,,,,,,,,,,,,,,,,,,,,,,,,,,,062019_p1,001,2019_Jun_20_1023,body_behavioural,3.0.4,59.48261144236234,
7,"There was a short halt in security proceedings so that the security guards could change shifts, but, once everything was back in order, they were ushered quickly through the metal detector. ",2,1,,,None,,,,0,7,7,7,,,,,0,5,5,5,,,,,,,,,,,,,,,,,,,,,,,,,,,,,,,,,,,1,2.3000418950032326,,,,,,,,,,,,,,,,,,,,,,,,,,,,062019_p1,001,2019_Jun_20_1023,body_behavioural,3.0.4,59.48261144236234,
7,"“The infrastructure of this airport is really quite poor," said Calvin as they waited for their bags to emerge from the x-ray machine.",2,1,,,None,,,,0,7,7,7,,,,,0,6,6,6,,,,,,,,,,,,,,,,,,,,,,,,,,,,,,,,,,,1,2.686051672000758,,,,,,,,,,,,,,,,,,,,,,,,,,,,062019_p1,001,2019_Jun_20_1023,body_behavioural,3.0.4,59.48261144236234,
7,“I could've hidden something in my shoes quite easily.” ,2,1,,,None,,,,0,7,7,7,,,,,0,7,7,7,,,,,,,,,,,,,,,,,,,,,,,,,,,,,,,,,,,1,1.7995469250017777,,,,,,,,,,,,,,,,,,,,,,,,,,,,062019_p1,001,2019_Jun_20_1023,body_behavioural,3.0.4,59.48261144236234,
7,"Jessie, exasperated, scowled at the conveyor belt.",2,1,,,None,,,,0,7,7,7,,,,,0,8,8,8,,,,,,,,,,,,,,,,,,,,,,,,,,,,,,,,,,,1,1.3003302569995867,,,,,,,,,,,,,,,,,,,,,,,,,,,,062019_p1,001,2019_Jun_20_1023,body_behavioural,3.0.4,59.48261144236234,
7,“What?” he asked.,2,1,,,None,,,,0,7,7,7,,,,,0,9,9,9,,,,,,,,,,,,,,,,,,,,,,,,,,,,,,,,,,,1,1.1170578519995615,,,,,,,,,,,,,,,,,,,,,,,,,,,,062019_p1,001,2019_Jun_20_1023,body_behavioural,3.0.4,59.48261144236234,
7,"Balling up her fists and turning to him angrily, she said, “Calvin, I really don’t think I can do this anymore because I don’t think our personalities are compatible. ",2,2,,,None,,,,0,7,7,7,,,,,0,10,10,10,,,,,,,,,,,,,,,,,,,,,,,,,,,,,,,,,,,1,3.451207346999581,,,,,,,,,,,,,,,,,,,,,,,,,,,,062019_p1,001,2019_Jun_20_1023,body_behavioural,3.0.4,59.48261144236234,
7,I think it’s best that once we get to the States we part ways for good.” ,2,2,,,None,,,,0,7,7,7,,,,,0,11,11,11,,,,,,,,,,,,,,,,,,,,,,,,,,,,,,,,,,,1,1.4187501199994585,,,,,,,,,,,,,,,,,,,,,,,,,,,,062019_p1,001,2019_Jun_20_1023,body_behavioural,3.0.4,59.48261144236234,
7,Calvin said nothing as he grabbed his bag.,3,2,,,None,,,,0,7,7,7,,,,,0,12,12,12,,,,,,,,,,,,,,,,,,,,,,,,,,,,,,,,,,,1,1.0358470299979672,,,,,,,,,,,,,,,,,,,,,,,,,,,,062019_p1,001,2019_Jun_20_1023,body_behavioural,3.0.4,59.48261144236234,
7,Jessie trailed behind him as they hurried their way quickly toward gate A28.,3,2,,,None,,,,0,7,7,7,,,,,0,13,13,13,,,,,,,,,,,,,,,,,,,,,,,,,,,,,,,,,,,1,1.351685218000057,,,,,,,,,,,,,,,,,,,,,,,,,,,,062019_p1,001,2019_Jun_20_1023,body_behavioural,3.0.4,59.48261144236234,
7,“So now you have nothing to say?” Jessie said. ,3,2,,,None,,,,0,7,7,7,,,,,0,14,14,14,,,,,,,,,,,,,,,,,,,,,,,,,,,,,,,,,,,9,5.319634397001209,,,,,,,,,,,,,,,,,,,,,,,,,,,,062019_p1,001,2019_Jun_20_1023,body_behavioural,3.0.4,59.48261144236234,
7,"Calvin didn't answer, gritting his teeth and staring straight ahead. ",3,2,,,None,,,,0,7,7,7,,,,,0,15,15,15,,,,,,,,,,,,,,,,,,,,,,,,,,,,,,,,,,,1,2.3186502950011345,,,,,,,,,,,,,,,,,,,,,,,,,,,,062019_p1,001,2019_Jun_20_1023,body_behavioural,3.0.4,59.48261144236234,
7,"He was very frustrated that he felt he had been trying to appease Jessie for the entirety of the vacation, and it seemed to be completed unappreciated. ",3,2,,,None,,,,0,7,7,7,,,,,0,16,16,16,,,,,,,,,,,,,,,,,,,,,,,,,,,,,,,,,,,1,5.353549096998904,,,,,,,,,,,,,,,,,,,,,,,,,,,,062019_p1,001,2019_Jun_20_1023,body_behavioural,3.0.4,59.48261144236234,
7,"Their silence was punctuated only by the rapid, rhythmic clacking of their suitcase wheels over the tile floor as they continued power-walking through the terminal. ",3,2,,,None,,,,0,7,7,7,,,,,0,17,17,17,,,,,,,,,,,,,,,,,,,,,,,,,,,,,,,,,,,1,7.18641734600169,,,,,,,,,,,,,,,,,,,,,,,,,,,,062019_p1,001,2019_Jun_20_1023,body_behavioural,3.0.4,59.48261144236234,
7,"Calvin finally turned to address her as they continued walking: “Jessie, this makes perfect sense. ",3,3,,,None,,,,0,7,7,7,,,,,0,18,18,18,,,,,,,,,,,,,,,,,,,,,,,,,,,,,,,,,,,1,3.1031981199994334,,,,,,,,,,,,,,,,,,,,,,,,,,,,062019_p1,001,2019_Jun_20_1023,body_behavioural,3.0.4,59.48261144236234,
7,"If you feel this way, then I think we should break up because I don’t want to keep boring you.",3,3,,,None,,,,0,7,7,7,,,,,0,19,19,19,,,,,,,,,,,,,,,,,,,,,,,,,,,,,,,,,,,1,4.432037910002691,,,,,,,,,,,,,,,,,,,,,,,,,,,,062019_p1,001,2019_Jun_20_1023,body_behavioural,3.0.4,59.48261144236234,
7,"I agree, let’s part ways once we make it back.",3,3,,,None,,,,0,7,7,7,,,,,0,20,20,20,,,,,,,,,,,,,,,,,,,,,,,,,,,,,,,,,,,1,4.034896946999652,,,,,,,,,,,,,,,,,,,,,,,,,,,,062019_p1,001,2019_Jun_20_1023,body_behavioural,3.0.4,59.48261144236234,
7,You should’ve spoken up about my apparent intolerability before you decided to plan this vacation.”,3,3,,,None,,,,0,7,7,7,,,,,0,21,21,21,,,,,,,,,,,,,,,,,,,,,,,,,,,,,,,,,,,1,2.519189534999896,,,,,,,,,,,,,,,,,,,,,,,,,,,,062019_p1,001,2019_Jun_20_1023,body_behavioural,3.0.4,59.48261144236234,
7,"He was very hurt, even though he didn’t want to show it. ",3,3,,,None,,,,0,7,7,7,,,,,0,22,22,22,,,,,,,,,,,,,,,,,,,,,,,,,,,,,,,,,,,1,7.485835310002585,,,,,,,,,,,,,,,,,,,,,,,,,,,,062019_p1,001,2019_Jun_20_1023,body_behavioural,3.0.4,59.48261144236234,
7,"Having made it to their gate, they scanned their tickets, and the annoyed flight attendant shooed them onto the jet bridge and then closed the plane door behind them.",4,3,,,None,,,,0,7,7,7,,,,,0,23,23,23,,,,,,,,,,,,,,,,,,,,,,,,,,,,,,,,,,,9,6.7523245320007845,,,,,,,,,,,,,,,,,,,,,,,,,,,,062019_p1,001,2019_Jun_20_1023,body_behavioural,3.0.4,59.48261144236234,
7,"Luckily, they had forgotten to arrange seats next to each other on the flight back.",4,3,,,None,,,,0,7,7,7,,,,,0,24,24,24,,,,,,,,,,,,,,,,,,,,,,,,,,,,,,,,,,,1,4.4529848900019715,,,,,,,,,,,,,,,,,,,,,,,,,,,,062019_p1,001,2019_Jun_20_1023,body_behavioural,3.0.4,59.48261144236234,
7,"They were both in economy, but Jessie was headed for seat 33A while Calvin's seat was 33F. ",4,3,,,None,,,,0,7,7,7,,,,,0,25,25,25,,,,,,,,,,,,,,,,,,,,,,,,,,,,,,,,,,,1,4.600745424999332,,,,,,,,,,,,,,,,,,,,,,,,,,,,062019_p1,001,2019_Jun_20_1023,body_behavioural,3.0.4,59.48261144236234,
7,"Before Jessie sat down, she took a deep breath, calmed her emotions, and then awkwardly shook Calvin’s hand, mumbling, “Have a nice flight. ",4,4,,,None,,,,0,7,7,7,,,,,0,26,26,26,,,,,,,,,,,,,,,,,,,,,,,,,,,,,,,,,,,1,10.819640042998799,,,,,,,,,,,,,,,,,,,,,,,,,,,,062019_p1,001,2019_Jun_20_1023,body_behavioural,3.0.4,59.48261144236234,
7,"Oh, and when you get a chance, could you send me back all the philosophy books I lent you?”",4,4,,,None,,,,0,7,7,7,,,,,0,27,27,27,,,,,,,,,,,,,,,,,,,,,,,,,,,,,,,,,,,1,5.836343984999985,,,,,,,,,,,,,,,,,,,,,,,,,,,,062019_p1,001,2019_Jun_20_1023,body_behavioural,3.0.4,59.48261144236234,
7,He laughed in disbelief and walked to his window seat three rows back to get ready for takeoff.,4,4,,,None,,,,0,7,7,7,,,,,0,28,28,28,,,,,,,,,,,,,,,,,,,,,,,,,,,,,,,,,,,1,5.369952805001958,,,,,,,,,,,,,,,,,,,,,,,,,,,,062019_p1,001,2019_Jun_20_1023,body_behavioural,3.0.4,59.48261144236234,
7,Both were upset but glad that they would have this flight in solitude.,4,4,,,None,,,,0,7,7,7,,,,,0,29,29,29,,,,,,,,,,,,,,,,,,,,,,,,,,,,,,,,,,,1,6.26869938499658,,,,,,,,,,,,,,,,,,,,,,,,,,,,062019_p1,001,2019_Jun_20_1023,body_behavioural,3.0.4,59.48261144236234,
7,,,,,,,,,,0,7,7,7,,,,,,,,,,,,,,,,,,,,,,,,,,,,,,,,,,,,,,,,,,,,,,,,,,,,,,,,,,,,,,,,,,,,,,,,062019_p1,001,2019_Jun_20_1023,body_behavioural,3.0.4,59.48261144236234,
,,,,,,,,,,,,,,,,,,,,,,,,,,,,,,,,,,,,,,,,,,,,,,,,,,,,,,,,,,1391.782418537001,space,2.385734728999523,,,,,,,,,,,,,,,,,,,,,,,,,062019_p1,001,2019_Jun_20_1023,body_behavioural,3.0.4,59.48261144236234,
,,,,,,,,,"In this next part of the experiment, please recall each story to the best of your ability.",,,,,,,,,,,,,0,0,0,0,,,,,,,,,,,,,,,,,,,,,,,,,,,,,,,,,,,,space,37.97157843500099,,,,,,,,,,,,,,,,,,,,,,,062019_p1,001,2019_Jun_20_1023,body_behavioural,3.0.4,59.48261144236234,
,,,,,,,,,"You will be presented with the story title, names, the images, and a blank text box for each story.",,,,,,,,,,,,,0,1,1,1,,,,,,,,,,,,,,,,,,,,,,,,,,,,,,,,,,,,space,7.916939820002881,,,,,,,,,,,,,,,,,,,,,,,062019_p1,001,2019_Jun_20_1023,body_behavioural,3.0.4,59.48261144236234,
,,,,,,,,,Describe the story indicated with as many details as you can remember in the space provided. ,,,,,,,,,,,,,0,2,2,2,,,,,,,,,,,,,,,,,,,,,,,,,,,,,,,,,,,,space,3.8025801650001085,,,,,,,,,,,,,,,,,,,,,,,062019_p1,001,2019_Jun_20_1023,body_behavioural,3.0.4,59.48261144236234,
,,,,,,,,,"When you are finished recalling one story, to move onto the next one, press the ‘return’ key. ",,,,,,,,,,,,,0,3,3,3,,,,,,,,,,,,,,,,,,,,,,,,,,,,,,,,,,,,space,6.419786848000513,,,,,,,,,,,,,,,,,,,,,,,062019_p1,001,2019_Jun_20_1023,body_behavioural,3.0.4,59.48261144236234,
,,,,,,,,,There is a 5 minute time limit to make your response. ,,,,,,,,,,,,,0,4,4,4,,,,,,,,,,,,,,,,,,,,,,,,,,,,,,,,,,,,space,1.4854090720000386,,,,,,,,,,,,,,,,,,,,,,,062019_p1,001,2019_Jun_20_1023,body_behavioural,3.0.4,59.48261144236234,
,,,,,,,,,Please note that you will not be able to capitalize any letters except for the first letter of your answer. This will not effect the scoring of your recall answer.,,,,,,,,,,,,,0,5,5,5,,,,,,,,,,,,,,,,,,,,,,,,,,,,,,,,,,,,space,5.8864261630005785,,,,,,,,,,,,,,,,,,,,,,,062019_p1,001,2019_Jun_20_1023,body_behavioural,3.0.4,59.48261144236234,
0,,,,,,,,,,,,,,,,,,,,,,,,,,0,0,0,0,,,,,,,,,,,,,,,,,,,,,,,,,,,,,,,,,,space,1.2537883249970037,"Thomas booked a table in a restaurant because he had been planning to break up with sadie , he arrived late but sadie was not there yet, he waited. when she arrived he asked for a booth at the back, once settled he started the conversation, he was nervous about initiating it.first sadie asked how his day had been and they got interrupted by the waitress, they realized then that there were menus in the table, they ordered hamburgers, one rubens. he then said his job was not going well and he did not think he wanted it any more and that he did not want to continue dating, sadie said maybe they could see each other less. there was silence, then sadie stood, threw the sandwich at him and said never to contact her again, and to give back 2 items. she had started crying when he said he wanted to break up, some people stared.",,,,,,,,,,,,,,,,,,,,062019_p1,001,2019_Jun_20_1023,body_behavioural,3.0.4,59.48261144236234,
1,,,,,,,,,,,,,,,,,,,,,,,,,,0,1,1,1,,,,,,,,,,,,,,,,,,,,,,,,,,,,,,,,,,space,1.9521744849989773,"Summer students, he sees her before entering the class and she looks familiar, their class is history on egypcian period, he decides to talk to her through a note saying something like he was not so interested in mummies and that if she had been in rome, she looks at him and writes back that maybe her long lost twin, they continue talking during the class and agree to hang out, when the class is done everyone exists but them, they agree to see each other again and when she leaves, leon has an even stronger feeling that he has met her before.",,,,,,,,,,,,,,,,,,,,062019_p1,001,2019_Jun_20_1023,body_behavioural,3.0.4,59.48261144236234,
2,,,,,,,,,,,,,,,,,,,,,,,,,,0,2,2,2,,,,,,,,,,,,,,,,,,,,,,,,,,,,,,,,,,space,1.2862689449975733,"They are both students, about to enter a class. alma is ceo of a startup that has attracted the attention of charlies student organization, his organization invests in businesses like alma s . he does not want to wait until the end of the class and starts talking to her as soon as the class starts , offering her 28k from the initial investment she is looking for, she says is not a good deal for her because her company needs to secure the full amount to be on track with their plans and developments, she says that if they do not give the full amount she will have to ask charlie s competitors , charlie then agrees to the full amount because his organization told him previously that they were willing to pay the full amount to secure the deal",,,,,,,,,,,,,,,,,,,,062019_p1,001,2019_Jun_20_1023,body_behavioural,3.0.4,59.48261144236234,
3,,,,,,,,,,,,,,,,,,,,,,,,,,0,3,3,3,,,,,,,,,,,,,,,,,,,,,,,,,,,,,,,,,,space,1.2861721129993384,,,,,,,,,,,,,,,,,,,,,062019_p1,001,2019_Jun_20_1023,body_behavioural,3.0.4,59.48261144236234,
4,,,,,,,,,,,,,,,,,,,,,,,,,,0,4,4,4,,,,,,,,,,,,,,,,,,,,,,,,,,,,,,,,,,space,1.468773892000172,"They are looking to negociate a deal, they meet at a supermaket , one is italian looking to position cheese and the other is american, they are negotiating the terms and products that they could offer. while discussing the deal they are strolling in the supermaket, picking out some products, at the end they line up to pay, line 6 and then while paying they close the deal, the american woman had a champagne bottle in her purse and pops it when the deal was made, to celebrate. the italian lady previously said that the parmesano reggiano was good and that italian cheeses were better quality in general than american cheeses.the supermaket they were at had an spacious entrance.",,,,,,,,,,,,,,,,,,,,062019_p1,001,2019_Jun_20_1023,body_behavioural,3.0.4,59.48261144236234,
5,,,,,,,,,,,,,,,,,,,,,,,,,,0,5,5,5,,,,,,,,,,,,,,,,,,,,,,,,,,,,,,,,,,space,1.934308047999366,"The scene happens at a restaurant, senna is proposing, she took alvira to a very nice restaurant with the excuse that she harvested her first tomatoes, he was nervous, goes to the bathroom to double check the ring, comes back and they order, menus were short and filled with chef specialties, i think even recommendations, food arrives they love it, when they are done the waiter is signaled, i dont remember what is his part but then senna proposes to alvira, she says yes and restaurant claps. the table cloths at the restaurant were long and classy",,,,,,,,,,,,,,,,,,,,062019_p1,001,2019_Jun_20_1023,body_behavioural,3.0.4,59.48261144236234,
6,,,,,,,,,,,,,,,,,,,,,,,,,,0,6,6,6,,,,,,,,,,,,,,,,,,,,,,,,,,,,,,,,,,space,1.1863950970000587,"They are traveling, sven wanted to propose to isabel so he is carrying the ring he bought with him, they had been dating for a while and they came from a trip to know her family, he had requested permission to marry her to them and they agreed, he was excited. during security screening they are stopped and he is asked to empty his pockets, he had the ring in one of them, knowing he would be exposed he immediately takes the ring out, kneels and proposes to isabel, she is embarrased and does not want the attention so she grabs the bags and both of their shoes and goes inside the terminal where she accepts, sven is happy he high fives the shoe polisher, but for a second he was afraid she would say no, once in the plane someone knew what happened and they become viral sensation, she texted her friend once she said yes",,,,,,,,,,,,,,,,,,,,062019_p1,001,2019_Jun_20_1023,body_behavioural,3.0.4,59.48261144236234,
7,,,,,,,,,,,,,,,,,,,,,,,,,,0,7,7,7,,,,,,,,,,,,,,,,,,,,,,,,,,,,,,,,,,space,4.336356072999479,"They were coming back from bahamas, dreadful vacation, they have not gotten along that well, they had been dating for a while and calvin felt something was not right, when they are going trhough security jessie says she cannot do it any more, once inside the terminal, after some silence calvin says is for the best and that she should have said it sooner to not ruin the vacation, he is hurt, the security did not take long, not many people were there, they walk to their gate 41 and are the last to board, the flight controller receiving their tickets was not very happy , door closes behind them. luckily for both they are in different seats, they had forgotten to request adjecent seats, calvin is 3 rows behind, jessie asks for the philosophy books she gave calvin  back, calvin seemed offended by this.",,,,,,,,,,,,,,,,,,,,062019_p1,001,2019_Jun_20_1023,body_behavioural,3.0.4,59.48261144236234,
,,,,,,,,,,,,,,,,,,,,,,,,,,,,,,,,,,,,,,,,,,,,,,,,,,,,,,,,,,,,,,,,,,3713.4062862169994,space,1.83573330299987,,,,,,,,,,,,,,,,,062019_p1,001,2019_Jun_20_1023,body_behavioural,3.0.4,59.48261144236234,
,,,,,,,,,"In this last part of the experiment, please answer 8 questions about each story.",,,,,,,,,,,,,,,,,,,,,0,0,0,0,,,,,,,,,,,,,,,,,,,,,,,,,,,,,,,,,,,,space,4.252645357999427,,,,,,,,,,,,,,,062019_p1,001,2019_Jun_20_1023,body_behavioural,3.0.4,59.48261144236234,
,,,,,,,,,Some of the questions are not related to the perspective you were asked to assume.,,,,,,,,,,,,,,,,,,,,,0,1,1,1,,,,,,,,,,,,,,,,,,,,,,,,,,,,,,,,,,,,space,4.067329093002627,,,,,,,,,,,,,,,062019_p1,001,2019_Jun_20_1023,body_behavioural,3.0.4,59.48261144236234,
,,,,,,,,,"We realize that we did not tell you to think of these questions during the story, but please do your best to answer them.",,,,,,,,,,,,,,,,,,,,,0,2,2,2,,,,,,,,,,,,,,,,,,,,,,,,,,,,,,,,,,,,space,3.8700385469965113,,,,,,,,,,,,,,,062019_p1,001,2019_Jun_20_1023,body_behavioural,3.0.4,59.48261144236234,
,,,,,,,,,"When you have finished typing your answer, hit ‘return’ to submit your answer and move onto the next question. ",,,,,,,,,,,,,,,,,,,,,0,3,3,3,,,,,,,,,,,,,,,,,,,,,,,,,,,,,,,,,,,,space,4.068902261999028,,,,,,,,,,,,,,,062019_p1,001,2019_Jun_20_1023,body_behavioural,3.0.4,59.48261144236234,
0,,,,,,,,,,,,,,,,,,,,,,,,,,,,,,,,,,0,0,0,0,,,,,,,,,,,,,,,,,,,,,,,,,,,,"She wants 2 items back , thomas does not say",,,,,,space,1.1695041130005848,"Dark, long tablecloths, soft light, chandeliers",non-primed first,"Did not mention, i am guessing standard letter sized , they have sandwiches and hamburguers",Ruben and hamburguer,"Thomas disliked his, says is dreadful, sadie does not comment on it",Weeks,His job is not what he wants and he wants to do things that make him happy,"Sadie does not want to break up, she says the relationship seemed to be going well and that they could see each other less often that what they do now","She wants 2 items back , thomas does not say",,,,062019_p1,001,2019_Jun_20_1023,body_behavioural,3.0.4,59.48261144236234,
1,,,,,,,,,,,,,,,,,,,,,,,,,,,,,,,,,,0,1,1,1,,,,,,,,,,,,,,,,,,,,,,,,,,,,Dont recall,,,,,,space,1.6021480849994987,A note that leon passed ariana,non-primed first,Leon wrote a question saying if she was at a particular place at a particular time,"They will meet, no occasion yet",After class,Ample,"History, lecture is about egypt ",Egyptian mummies,Dont recall,,,,062019_p1,001,2019_Jun_20_1023,body_behavioural,3.0.4,59.48261144236234,
2,,,,,,,,,,,,,,,,,,,,,,,,,,,,,,,,,,0,2,2,2,,,,,,,,,,,,,,,,,,,,,,,,,,,,Hug,,,,,,space,2.7191642569996475,Crowded,non-primed first,"Business, ",Dont recall,Doesnt say,Ceo and representative of investors,28k,Roosevelt fund,Hug,,,,062019_p1,001,2019_Jun_20_1023,body_behavioural,3.0.4,59.48261144236234,
3,,,,,,,,,,,,,,,,,,,,,,,,,,,,,,,,,,0,3,3,3,,,,,,,,,,,,,,,,,,,,,,,,,,,,4 30 pm,,,,,,space,0.8520302770011767,"Fresh produce, big hall",non-primed first,"Chicken, meat, sauces","Step into 6, does not say how many open",Does not say how much or method,Meat,A joke about the bad luck of the animal,"They will have a date , dont recall if they say when",4 30 pm,,,,062019_p1,001,2019_Jun_20_1023,body_behavioural,3.0.4,59.48261144236234,
4,,,,,,,,,,,,,,,,,,,,,,,,,,,,,,,,,,0,4,4,4,,,,,,,,,,,,,,,,,,,,,,,,,,,,Pop bottle of champagne,,,,,,space,1.518555753002147,"Spacious, ample",primed first,"Cheese, olives",Dont remember,"I dont think they say how much were the groceries, they do not specify method of payment","Brand representative, store manager",20k,American cheese,Pop bottle of champagne,,,,062019_p1,001,2019_Jun_20_1023,body_behavioural,3.0.4,59.48261144236234,
5,,,,,,,,,,,,,,,,,,,,,,,,,,,,,,,,,,0,5,5,5,,,,,,,,,,,,,,,,,,,,,,,,,,,,Dont say,,,,,,space,1.1186387100024149,"Luxurious, lights, long tablecloths",primed first,Short with chefs suggestions,Chefs recommendation,They love it,6,"Yellow, 1 dimond",Box,Dont say,,,,062019_p1,001,2019_Jun_20_1023,body_behavioural,3.0.4,59.48261144236234,
6,,,,,,,,,,,,,,,,,,,,,,,,,,,,,,,,,,0,6,6,6,,,,,,,,,,,,,,,,,,,,,,,,,,,,Front,,,,,,space,0.9356713069973921,2 or less,primed first,"Do not say color, quantity maybe 3",Box,A friend,Do not say,"Their bags were pulled aside and the security guard asked sven to remove all items from the pockets, then he proposes",Dont say,Front,,,,062019_p1,001,2019_Jun_20_1023,body_behavioural,3.0.4,59.48261144236234,
7,,,,,,,,,,,,,,,,,,,,,,,,,,,,,,,,,,0,7,7,7,,,,,,,,,,,,,,,,,,,,,,,,,,,,"Do not say section but one were you do not pick your seat, calvin is 3 rows behind jessie",,,,,,space,0.8187062500001048,For months,non-primed first,"Cannot do it anymore, she is bored","Calving is hurt but accepts the breakup, he agrees that is best if she does not want to be bored by him anymore","She wants philosophy books back, calvin does not say","Little, they are last to board",They were not held up at security,41,"Do not say section but one were you do not pick your seat, calvin is 3 rows behind jessie",,,,062019_p1,001,2019_Jun_20_1023,body_behavioural,3.0.4,59.48261144236234,
,,,,,,,,,,,,,,,,,,,,,,,,,,,,,,,,,,,,,,,,,,,,,,,,,,,,,,,,,,,,,,,,,,,,,,,,,,,,,,,,,,4902.839296422,space,1.4886074280002504,062019_p1,001,2019_Jun_20_1023,body_behavioural,3.0.4,59.48261144236234,
,,,,,,,,,,,,,,,,,,,,,,,,,,,,,,,,,,,,,,0,0,0,0,,,,,,,,,,,,,,,,,,,,,,,,,,,,,,,,,,,,,,,,,,,,062019_p1,001,2019_Jun_20_1023,body_behavioural,3.0.4,59.48261144236234,
,,,,,,,,,,,,,,,,,,,,,,,,,,,,,,,,,,,,,,1,0,1,0,,,,,,,,,,,,,,,,,,,,,,,,,,,,,,,,,,,,,,,,,,,,062019_p1,001,2019_Jun_20_1023,body_behavioural,3.0.4,59.48261144236234,
,,,,,,,,,,,,,,,,,,,,,,,,,,,,,,,,,,,,,,2,0,2,0,,,,,,,,,,,,,,,,,,,,,,,,,,,,,,,,,,,,,,,,,,,,062019_p1,001,2019_Jun_20_1023,body_behavioural,3.0.4,59.48261144236234,
,,,,,,,,,,,,,,,,,,,,,,,,,,,,,,,,,,,,,,3,0,3,0,,,,,,,,,,,,,,,,,,,,,,,,,,,,,,,,,,,,,,,,,,,,062019_p1,001,2019_Jun_20_1023,body_behavioural,3.0.4,59.48261144236234,
,,,,,,,,,,,,,,,,,,,,,,,,,,,,,,,,,,,,,,4,0,4,0,,,,,,,,,,,,,,,,,,,,,,,,,,,,,,,,,,,,,,,,,,,,062019_p1,001,2019_Jun_20_1023,body_behavioural,3.0.4,59.48261144236234,
