count,storyText,locationEvent,socialEvent,story,locationEventSize,socialEventSize,instructText,trials.thisRepN,trials.thisTrialN,trials.thisN,trials.thisIndex,trials_7.thisRepN,trials_7.thisTrialN,trials_7.thisN,trials_7.thisIndex,trials_2.thisRepN,trials_2.thisTrialN,trials_2.thisN,trials_2.thisIndex,trials_3.thisRepN,trials_3.thisTrialN,trials_3.thisN,trials_3.thisIndex,trials_4.thisRepN,trials_4.thisTrialN,trials_4.thisN,trials_4.thisIndex,trials_5.thisRepN,trials_5.thisTrialN,trials_5.thisN,trials_5.thisIndex,trials_6.thisRepN,trials_6.thisTrialN,trials_6.thisN,trials_6.thisIndex,order of stories,order of perspectives,participant 2 order - stories,participant 2 order  - schemas types,key_resp_8.keys,key_resp_8.rt,key_resp_5.keys,key_resp_5.rt,key_resp_7.keys,key_resp_7.rt,key_resp_15.keys,key_resp_15.rt,key_resp_14.keys,key_resp_14.rt,story_presses.keys,story_presses.rt,story time,key_resp_6.keys,key_resp_6.rt,key_resp_2.keys,key_resp_2.rt,key_resp_10.keys,key_resp_10.rt,recall,recall time,key_resp_12.keys,key_resp_12.rt,key_resp_3.keys,key_resp_3.rt,key_resp_11.keys,key_resp_11.rt,question1_answer,order of question,question2_answer,question3_answer,question4_answer,question5_answer,question6_answer,question7_answer,question8_answer,participant,session,date,expName,psychopyVersion,frameRate,
0,,,,,,,,0,0,0,0,0,0,0,0,,,,,,,,,,,,,,,,,,,,,[13 34 31 43 12 42 24 21 32 23 44 41 22 11 33 14],"['Social' 'Location' 'Social' 'Location' 'Location' 'Social' 'Social'
 'Location' 'Location' 'Location' 'Social' 'Location' 'Social' 'Social'
 'Social' 'Location']",[32 23 44 41 22 11 33 14],"['Location' 'Location' 'Social' 'Location' 'Social' 'Social' 'Social'
 'Location']",space,18.739870999997947,space,1.686771435000992,space,4.85217691300204,,,,,,,,,,,,,,,,,,,,,,,,,,,,,,,062119_p1,001,2019_Jun_21_1520,body_behavioural,3.0.4,60.00427158398957,
0,The grocery store was not the place Emmanuella and Liam wanted to be at the moment considering that they had been fighting to the point where Emmanuella was thinking of breaking up with Liam.,1.0,1.0,13.0,,,,0,0,0,0,,,,,0,0,0,0,,,,,,,,,,,,,,,,,,,,,,,,,,,space,3.6861845449966495,space,8.383804696997686,1,80.20681215800141,,,,,,,,,,,,,,,,,,,,,,,,,062119_p1,001,2019_Jun_21_1520,body_behavioural,3.0.4,60.00427158398957,
0,Emmanuella had been thinking of breaking up with Liam for the past 5 months.,None,None,None,,,,0,0,0,0,,,,,0,1,1,1,,,,,,,,,,,,,,,,,,,,,,,,,,,,,,,1,16.686272382001334,,,,,,,,,,,,,,,,,,,,,,,,,062119_p1,001,2019_Jun_21_1520,body_behavioural,3.0.4,60.00427158398957,
0,"Despite the current tension, they had to go grocery shopping because they were hosting a dinner party for friends that evening and had little at home with which to cook. ",1.0,1.0,None,,,,0,0,0,0,,,,,0,2,2,2,,,,,,,,,,,,,,,,,,,,,,,,,,,,,,,9,8.80443431900494,,,,,,,,,,,,,,,,,,,,,,,,,062119_p1,001,2019_Jun_21_1520,body_behavioural,3.0.4,60.00427158398957,
0,"The grocery store smelled like lavender upon entering and was dimly lit with pine shelves in the entrance and obscure, organic products displayed on them.",1.0,1.0,None,,,,0,0,0,0,,,,,0,3,3,3,,,,,,,,,,,,,,,,,,,,,,,,,,,,,,,9,10.036379812998348,,,,,,,,,,,,,,,,,,,,,,,,,062119_p1,001,2019_Jun_21_1520,body_behavioural,3.0.4,60.00427158398957,
0,"In the pasta section, Emmanuella grabbed a few boxes of bow-tie pasta.",2.0,1.0,None,,,,0,0,0,0,,,,,0,4,4,4,,,,,,,,,,,,,,,,,,,,,,,,,,,,,,,9,9.38707079699816,,,,,,,,,,,,,,,,,,,,,,,,,062119_p1,001,2019_Jun_21_1520,body_behavioural,3.0.4,60.00427158398957,
0,"“I guess we are having a pasta dish tonight,” Liam said.",2.0,1.0,None,,,,0,0,0,0,,,,,0,5,5,5,,,,,,,,,,,,,,,,,,,,,,,,,,,,,,,1,5.569965964998119,,,,,,,,,,,,,,,,,,,,,,,,,062119_p1,001,2019_Jun_21_1520,body_behavioural,3.0.4,60.00427158398957,
0,"Emmanuella looked back at him and said, “Well if you were going to actually help cook, I would be fine with something else.”",2.0,1.0,None,,,,0,0,0,0,,,,,0,6,6,6,,,,,,,,,,,,,,,,,,,,,,,,,,,,,,,9,6.053525917006482,,,,,,,,,,,,,,,,,,,,,,,,,062119_p1,001,2019_Jun_21_1520,body_behavioural,3.0.4,60.00427158398957,
0,"Liam sighed, and finally said, “You know- you don’t want me to help.",2.0,1.0,None,,,,0,0,0,0,,,,,0,7,7,7,,,,,,,,,,,,,,,,,,,,,,,,,,,,,,,1,7.968110112997238,,,,,,,,,,,,,,,,,,,,,,,,,062119_p1,001,2019_Jun_21_1520,body_behavioural,3.0.4,60.00427158398957,
0,"I try to, but it seems like I always get in the way!” ",2.0,1.0,None,,,,0,0,0,0,,,,,0,8,8,8,,,,,,,,,,,,,,,,,,,,,,,,,,,,,,,1,3.3531923100017593,,,,,,,,,,,,,,,,,,,,,,,,,062119_p1,001,2019_Jun_21_1520,body_behavioural,3.0.4,60.00427158398957,
0,Emmanuella shook her head and dropped the pasta boxes in the basket she was holding.,2.0,1.0,None,,,,0,0,0,0,,,,,0,9,9,9,,,,,,,,,,,,,,,,,,,,,,,,,,,,,,,1,9.203570919999038,,,,,,,,,,,,,,,,,,,,,,,,,062119_p1,001,2019_Jun_21_1520,body_behavioural,3.0.4,60.00427158398957,
0," “Like you even try,” she mumbled to herself. ",2.0,1.0,None,,,,0,0,0,0,,,,,0,10,10,10,,,,,,,,,,,,,,,,,,,,,,,,,,,,,,,1,10.717967395001324,,,,,,,,,,,,,,,,,,,,,,,,,062119_p1,001,2019_Jun_21_1520,body_behavioural,3.0.4,60.00427158398957,
0,She continued down the aisle and studied a jar of vodka sauce and a can of olives before putting them in the basket as well. ,2.0,1.0,None,,,,0,0,0,0,,,,,0,11,11,11,,,,,,,,,,,,,,,,,,,,,,,,,,,,,,,9,5.984382814996934,,,,,,,,,,,,,,,,,,,,,,,,,062119_p1,001,2019_Jun_21_1520,body_behavioural,3.0.4,60.00427158398957,
0,"Emmanuella suddenly wrinkled her eyebrows, turned to Liam, and said, “I want to break up since I’m tired of the constant fighting. ",2.0,2.0,None,,,,0,0,0,0,,,,,0,12,12,12,,,,,,,,,,,,,,,,,,,,,,,,,,,,,,,9,8.036983906997193,,,,,,,,,,,,,,,,,,,,,,,,,062119_p1,001,2019_Jun_21_1520,body_behavioural,3.0.4,60.00427158398957,
0,"I was going to wait until after this horribly-timed dinner party tonight to talk about this, but I might as well say it now.",2.0,2.0,None,,,,0,0,0,0,,,,,0,13,13,13,,,,,,,,,,,,,,,,,,,,,,,,,,,,,,,1,9.853747279004892,,,,,,,,,,,,,,,,,,,,,,,,,062119_p1,001,2019_Jun_21_1520,body_behavioural,3.0.4,60.00427158398957,
0,"I feel like when we try to do anything anymore it ends up unpleasant for the stupidest reasons, and I am just past trying to work things out.”",2.0,2.0,None,,,,0,0,0,0,,,,,0,14,14,14,,,,,,,,,,,,,,,,,,,,,,,,,,,,,,,1,16.838490108995757,,,,,,,,,,,,,,,,,,,,,,,,,062119_p1,001,2019_Jun_21_1520,body_behavioural,3.0.4,60.00427158398957,
0,Liam was nodding automatically.,2.0,2.0,None,,,,0,0,0,0,,,,,0,15,15,15,,,,,,,,,,,,,,,,,,,,,,,,,,,,,,,1,13.369697611000447,,,,,,,,,,,,,,,,,,,,,,,,,062119_p1,001,2019_Jun_21_1520,body_behavioural,3.0.4,60.00427158398957,
0,"In the checkout area, there was only one station open, Station 2, but it was not very crowded.",3.0,2.0,None,,,,0,0,0,0,,,,,0,16,16,16,,,,,,,,,,,,,,,,,,,,,,,,,,,,,,,9,5.470051705000515,,,,,,,,,,,,,,,,,,,,,,,,,062119_p1,001,2019_Jun_21_1520,body_behavioural,3.0.4,60.00427158398957,
0,They got in line.,3.0,2.0,None,,,,0,0,0,0,,,,,0,17,17,17,,,,,,,,,,,,,,,,,,,,,,,,,,,,,,,1,4.9039277199990465,,,,,,,,,,,,,,,,,,,,,,,,,062119_p1,001,2019_Jun_21_1520,body_behavioural,3.0.4,60.00427158398957,
0,"Liam gazed in the direction of the magazines, but his eyes were glazed over as he was working things out in his head while Emmanuella scrutinized the pasta sauce again. ",3.0,2.0,None,,,,0,0,0,0,,,,,0,18,18,18,,,,,,,,,,,,,,,,,,,,,,,,,,,,,,,9,10.903712207000353,,,,,,,,,,,,,,,,,,,,,,,,,062119_p1,001,2019_Jun_21_1520,body_behavioural,3.0.4,60.00427158398957,
0,"After a few minutes of thinking, Liam recollected himself, turned to her, and sighed, “Yes, I think the same thing.",3.0,3.0,None,,,,0,0,0,0,,,,,0,19,19,19,,,,,,,,,,,,,,,,,,,,,,,,,,,,,,,1,5.170546076995379,,,,,,,,,,,,,,,,,,,,,,,,,062119_p1,001,2019_Jun_21_1520,body_behavioural,3.0.4,60.00427158398957,
0,I think we should break up because we could definitely be happier with other people.” ,3.0,3.0,None,,,,0,0,0,0,,,,,0,20,20,20,,,,,,,,,,,,,,,,,,,,,,,,,,,,,,,1,3.753023006996955,,,,,,,,,,,,,,,,,,,,,,,,,062119_p1,001,2019_Jun_21_1520,body_behavioural,3.0.4,60.00427158398957,
0,Emmanuella nodded as she listened. ,3.0,3.0,None,,,,0,0,0,0,,,,,0,21,21,21,,,,,,,,,,,,,,,,,,,,,,,,,,,,,,,1,4.036715574999107,,,,,,,,,,,,,,,,,,,,,,,,,062119_p1,001,2019_Jun_21_1520,body_behavioural,3.0.4,60.00427158398957,
0,The cashier scanned their groceries.,4.0,3.0,None,,,,0,0,0,0,,,,,0,22,22,22,,,,,,,,,,,,,,,,,,,,,,,,,,,,,,,9,2.3697869129973697,,,,,,,,,,,,,,,,,,,,,,,,,062119_p1,001,2019_Jun_21_1520,body_behavioural,3.0.4,60.00427158398957,
0,"The cost came to $30, and Emmanuella paid with her credit card.",4.0,3.0,None,,,,0,0,0,0,,,,,0,23,23,23,,,,,,,,,,,,,,,,,,,,,,,,,,,,,,,1,4.234225224994589,,,,,,,,,,,,,,,,,,,,,,,,,062119_p1,001,2019_Jun_21_1520,body_behavioural,3.0.4,60.00427158398957,
0,"She asked Liam politely to take the bags, and he obliged, following her to the exit. ",4.0,3.0,None,,,,0,0,0,0,,,,,0,24,24,24,,,,,,,,,,,,,,,,,,,,,,,,,,,,,,,9,15.104595231998246,,,,,,,,,,,,,,,,,,,,,,,,,062119_p1,001,2019_Jun_21_1520,body_behavioural,3.0.4,60.00427158398957,
0,"Filled with a sudden wave of sadness, Emmanuella said, “Liam, I think we are making the right decision- this is good.”",4.0,4.0,None,,,,0,0,0,0,,,,,0,25,25,25,,,,,,,,,,,,,,,,,,,,,,,,,,,,,,,1,10.68471291699825,,,,,,,,,,,,,,,,,,,,,,,,,062119_p1,001,2019_Jun_21_1520,body_behavioural,3.0.4,60.00427158398957,
0,"“I agree,” he said, relieved at the hope he was entertaining that they had just gotten through their last fight. ",4.0,4.0,None,,,,0,0,0,0,,,,,0,26,26,26,,,,,,,,,,,,,,,,,,,,,,,,,,,,,,,1,6.23706278699683,,,,,,,,,,,,,,,,,,,,,,,,,062119_p1,001,2019_Jun_21_1520,body_behavioural,3.0.4,60.00427158398957,
0,"“I think we can still host this dinner tonight, as long as you're still on board,” Emmanuella said.",4.0,4.0,None,,,,0,0,0,0,,,,,0,27,27,27,,,,,,,,,,,,,,,,,,,,,,,,,,,,,,,1,5.237138585005596,,,,,,,,,,,,,,,,,,,,,,,,,062119_p1,001,2019_Jun_21_1520,body_behavioural,3.0.4,60.00427158398957,
0,"Liam nodded, “Yes, let’s just not tell anyone we’ve broken up tonight.” ",4.0,4.0,None,,,,0,0,0,0,,,,,0,28,28,28,,,,,,,,,,,,,,,,,,,,,,,,,,,,,,,1,3.653183918002469,,,,,,,,,,,,,,,,,,,,,,,,,062119_p1,001,2019_Jun_21_1520,body_behavioural,3.0.4,60.00427158398957,
0,"Emmanuella laughed, “Whoever leaks it loses their right to the cat.”",4.0,4.0,None,,,,0,0,0,0,,,,,0,29,29,29,,,,,,,,,,,,,,,,,,,,,,,,,,,,,,,1,13.734842691999802,,,,,,,,,,,,,,,,,,,,,,,,,062119_p1,001,2019_Jun_21_1520,body_behavioural,3.0.4,60.00427158398957,
0,"Liam chuckled and responded, “Hey!",4.0,4.0,None,,,,0,0,0,0,,,,,0,30,30,30,,,,,,,,,,,,,,,,,,,,,,,,,,,,,,,1,3.003437407001911,,,,,,,,,,,,,,,,,,,,,,,,,062119_p1,001,2019_Jun_21_1520,body_behavioural,3.0.4,60.00427158398957,
0,Luna is mine and I want her back.”,4.0,4.0,None,,,,0,0,0,0,,,,,0,31,31,31,,,,,,,,,,,,,,,,,,,,,,,,,,,,,,,9,2.8698432719975244,,,,,,,,,,,,,,,,,,,,,,,,,062119_p1,001,2019_Jun_21_1520,body_behavioural,3.0.4,60.00427158398957,
0,"Emmanuella rolled her eyes, knowing the cat would be a whole other issue to sort out later.
",4.0,4.0,None,,,,0,0,0,0,,,,,0,32,32,32,,,,,,,,,,,,,,,,,,,,,,,,,,,,,,,1,4.886538005004695,,,,,,,,,,,,,,,,,,,,,,,,,062119_p1,001,2019_Jun_21_1520,body_behavioural,3.0.4,60.00427158398957,
0,,,,,,,,0,0,0,0,,,,,,,,,,,,,,,,,,,,,,,,,,,,,,,,,,,,,,,,,,,,,,,,,,,,,,,,,,,,,,,,,062119_p1,001,2019_Jun_21_1520,body_behavioural,3.0.4,60.00427158398957,
1,,,,,,,,0,1,1,1,0,0,0,0,,,,,,,,,,,,,,,,,,,,,,,,,space,7.520120017004956,space,25.8883436670003,space,2.6029979629965965,,,,,,,,,,,,,,,,,,,,,,,,,,,,,,,062119_p1,001,2019_Jun_21_1520,body_behavioural,3.0.4,60.00427158398957,
1,"Charlie saw Alma as they walked into class, and he motioned for her to come sit in the back next to him because they had a deal to discuss.",1,1,34.0,,,,0,1,1,1,,,,,0,0,0,0,,,,,,,,,,,,,,,,,,,,,,,,,,,space,3.453143282997189,space,2.0194790300010936,9,39.555337859994324,,,,,,,,,,,,,,,,,,,,,,,,,062119_p1,001,2019_Jun_21_1520,body_behavioural,3.0.4,60.00427158398957,
1,Charlie and Alma were both history majors with entrepreneurial bents.,1,1,None,,,,0,1,1,1,,,,,0,1,1,1,,,,,,,,,,,,,,,,,,,,,,,,,,,,,,,9,5.019534922997991,,,,,,,,,,,,,,,,,,,,,,,,,062119_p1,001,2019_Jun_21_1520,body_behavioural,3.0.4,60.00427158398957,
1,They were also both very busy and happened to be in the same class.,1,1,None,,,,0,1,1,1,,,,,0,2,2,2,,,,,,,,,,,,,,,,,,,,,,,,,,,,,,,1,13.27184267800476,,,,,,,,,,,,,,,,,,,,,,,,,062119_p1,001,2019_Jun_21_1520,body_behavioural,3.0.4,60.00427158398957,
1,"After talking at a party, Charlie had discovered that Alma was looking for financing for her web development company of which she was the founder and CEO.",1,1,None,,,,0,1,1,1,,,,,0,3,3,3,,,,,,,,,,,,,,,,,,,,,,,,,,,,,,,9,11.169818918999226,,,,,,,,,,,,,,,,,,,,,,,,,062119_p1,001,2019_Jun_21_1520,body_behavioural,3.0.4,60.00427158398957,
1,It was serendipitous because he was an investment analyst for a student finance group on campus and he had been talking with other members of the group about making a new investment. ,1,1,None,,,,0,1,1,1,,,,,0,4,4,4,,,,,,,,,,,,,,,,,,,,,,,,,,,,,,,1,9.170416984998155,,,,,,,,,,,,,,,,,,,,,,,,,062119_p1,001,2019_Jun_21_1520,body_behavioural,3.0.4,60.00427158398957,
1,"His financial group had come to a decision that morning about Alma’s startup, and he didn't want to wait until after class to discuss the proposal with her. ",1,1,None,,,,0,1,1,1,,,,,0,5,5,5,,,,,,,,,,,,,,,,,,,,,,,,,,,,,,,1,7.4005261569982395,,,,,,,,,,,,,,,,,,,,,,,,,062119_p1,001,2019_Jun_21_1520,body_behavioural,3.0.4,60.00427158398957,
1,The class was in a medium-sized auditorium which was brightly lit and very modern-looking. ,1,1,None,,,,0,1,1,1,,,,,0,6,6,6,,,,,,,,,,,,,,,,,,,,,,,,,,,,,,,9,5.0706336200018995,,,,,,,,,,,,,,,,,,,,,,,,,062119_p1,001,2019_Jun_21_1520,body_behavioural,3.0.4,60.00427158398957,
1,There were three projector screens in the front and each row of the audience had a table with power outlets and USB ports. ,1,1,None,,,,0,1,1,1,,,,,0,7,7,7,,,,,,,,,,,,,,,,,,,,,,,,,,,,,,,1,8.85353206700529,,,,,,,,,,,,,,,,,,,,,,,,,062119_p1,001,2019_Jun_21_1520,body_behavioural,3.0.4,60.00427158398957,
1,“Here we are at Lecture Seven of Archaeology of Rome” said the professor. ,2,1,None,,,,0,1,1,1,,,,,0,8,8,8,,,,,,,,,,,,,,,,,,,,,,,,,,,,,,,9,16.754013940000732,,,,,,,,,,,,,,,,,,,,,,,,,062119_p1,001,2019_Jun_21_1520,body_behavioural,3.0.4,60.00427158398957,
1,"“The topic for today is Augustus, an incredibly important influence in Roman architecture.” ",2,1,None,,,,0,1,1,1,,,,,0,9,9,9,,,,,,,,,,,,,,,,,,,,,,,,,,,,,,,1,4.120491632995254,,,,,,,,,,,,,,,,,,,,,,,,,062119_p1,001,2019_Jun_21_1520,body_behavioural,3.0.4,60.00427158398957,
1,She went into some recap of the last lecture.,2,1,None,,,,0,1,1,1,,,,,0,10,10,10,,,,,,,,,,,,,,,,,,,,,,,,,,,,,,,1,2.1852253649994964,,,,,,,,,,,,,,,,,,,,,,,,,062119_p1,001,2019_Jun_21_1520,body_behavioural,3.0.4,60.00427158398957,
1,"Charlie turned to Alma and said, “Okay, so I’ve been thinking about your startup, and I have talked about it with my fellow investors.",2,2,None,,,,0,1,1,1,,,,,0,11,11,11,,,,,,,,,,,,,,,,,,,,,,,,,,,,,,,9,5.336986466994858,,,,,,,,,,,,,,,,,,,,,,,,,062119_p1,001,2019_Jun_21_1520,body_behavioural,3.0.4,60.00427158398957,
1,We’d like to invest half of what you originally suggested.,2,2,None,,,,0,1,1,1,,,,,0,12,12,12,,,,,,,,,,,,,,,,,,,,,,,,,,,,,,,1,5.569671875004133,,,,,,,,,,,,,,,,,,,,,,,,,062119_p1,001,2019_Jun_21_1520,body_behavioural,3.0.4,60.00427158398957,
1,"So we propose we start with wiring you $28,000.",2,2,None,,,,0,1,1,1,,,,,0,13,13,13,,,,,,,,,,,,,,,,,,,,,,,,,,,,,,,1,2.4186250860002474,,,,,,,,,,,,,,,,,,,,,,,,,062119_p1,001,2019_Jun_21_1520,body_behavioural,3.0.4,60.00427158398957,
1,We would see how the company does and then invest the other half later.” ,2,2,None,,,,0,1,1,1,,,,,0,14,14,14,,,,,,,,,,,,,,,,,,,,,,,,,,,,,,,1,4.086909160003415,,,,,,,,,,,,,,,,,,,,,,,,,062119_p1,001,2019_Jun_21_1520,body_behavioural,3.0.4,60.00427158398957,
1,"The professor said, “The senate had conferred upon him the title of Augustus the sacred and revered one, the restorer of traditional values, the city’s new religious leader, the restorer of temples. ",3,2,None,,,,0,1,1,1,,,,,0,15,15,15,,,,,,,,,,,,,,,,,,,,,,,,,,,,,,,9,14.384989612000936,,,,,,,,,,,,,,,,,,,,,,,,,062119_p1,001,2019_Jun_21_1520,body_behavioural,3.0.4,60.00427158398957,
1,"Augustus also sought to beautify Rome, make it into a new Athens, and dispel the criticisms of Rome as disorganized and ugly.”",3,2,None,,,,0,1,1,1,,,,,0,16,16,16,,,,,,,,,,,,,,,,,,,,,,,,,,,,,,,1,4.902857312001288,,,,,,,,,,,,,,,,,,,,,,,,,062119_p1,001,2019_Jun_21_1520,body_behavioural,3.0.4,60.00427158398957,
1,"Alma turned to Charlie and offered her rebuttal, “I don’t know about that.",3,3,None,,,,0,1,1,1,,,,,0,17,17,17,,,,,,,,,,,,,,,,,,,,,,,,,,,,,,,9,5.216832625003008,,,,,,,,,,,,,,,,,,,,,,,,,062119_p1,001,2019_Jun_21_1520,body_behavioural,3.0.4,60.00427158398957,
1,It’s not going to be possible to implement our ideas effectively unless the project is fully funded. ,3,3,None,,,,0,1,1,1,,,,,0,18,18,18,,,,,,,,,,,,,,,,,,,,,,,,,,,,,,,1,5.137359547006781,,,,,,,,,,,,,,,,,,,,,,,,,062119_p1,001,2019_Jun_21_1520,body_behavioural,3.0.4,60.00427158398957,
1,"We would have to find other investors like your competitor on campus, Churchill Capital Group, and that would set us back in our timeline. ",3,3,None,,,,0,1,1,1,,,,,0,19,19,19,,,,,,,,,,,,,,,,,,,,,,,,,,,,,,,1,6.135374577002949,,,,,,,,,,,,,,,,,,,,,,,,,062119_p1,001,2019_Jun_21_1520,body_behavioural,3.0.4,60.00427158398957,
1,"Our profit projections assumed we'd be starting relatively soon, not months down the line.” ",3,3,None,,,,0,1,1,1,,,,,0,20,20,20,,,,,,,,,,,,,,,,,,,,,,,,,,,,,,,1,5.386686559999362,,,,,,,,,,,,,,,,,,,,,,,,,062119_p1,001,2019_Jun_21_1520,body_behavioural,3.0.4,60.00427158398957,
1,They whispered back and forth during the entire class working out a compromise. ,3,3,None,,,,0,1,1,1,,,,,0,21,21,21,,,,,,,,,,,,,,,,,,,,,,,,,,,,,,,1,4.486939325004641,,,,,,,,,,,,,,,,,,,,,,,,,062119_p1,001,2019_Jun_21_1520,body_behavioural,3.0.4,60.00427158398957,
1,The professor dismissed the students with a reminder that the midterm paper was due on Thursday and that they should email their papers to the TA.,4,3,None,,,,0,1,1,1,,,,,0,22,22,22,,,,,,,,,,,,,,,,,,,,,,,,,,,,,,,9,7.534949119995872,,,,,,,,,,,,,,,,,,,,,,,,,062119_p1,001,2019_Jun_21_1520,body_behavioural,3.0.4,60.00427158398957,
1,"Everyone, except Charlie and Alma, packed up their things and headed out of the lecture hall. ",4,3,None,,,,0,1,1,1,,,,,0,23,23,23,,,,,,,,,,,,,,,,,,,,,,,,,,,,,,,9,5.7837983400022495,,,,,,,,,,,,,,,,,,,,,,,,,062119_p1,001,2019_Jun_21_1520,body_behavioural,3.0.4,60.00427158398957,
1,"“Alright, so we’ll have the $30,000 wired to you by tomorrow,” Charlie said. ",4,4,None,,,,0,1,1,1,,,,,0,24,24,24,,,,,,,,,,,,,,,,,,,,,,,,,,,,,,,1,28.669314557002508,,,,,,,,,,,,,,,,,,,,,,,,,062119_p1,001,2019_Jun_21_1520,body_behavioural,3.0.4,60.00427158398957,
1,"This wasn't ideal for Charlie, but Alma had refused to budge, and his investment group had told him they were willing to pay the full amount if necessary. ",4,4,None,,,,0,1,1,1,,,,,0,25,25,25,,,,,,,,,,,,,,,,,,,,,,,,,,,,,,,9,8.167322442001023,,,,,,,,,,,,,,,,,,,,,,,,,062119_p1,001,2019_Jun_21_1520,body_behavioural,3.0.4,60.00427158398957,
1,They hugged in confirmation of the deal and made plans to sign the official paperwork the next day. ,4,4,None,,,,0,1,1,1,,,,,0,26,26,26,,,,,,,,,,,,,,,,,,,,,,,,,,,,,,,9,7.0539228999987245,,,,,,,,,,,,,,,,,,,,,,,,,062119_p1,001,2019_Jun_21_1520,body_behavioural,3.0.4,60.00427158398957,
1,,,,,,,,0,1,1,1,,,,,,,,,,,,,,,,,,,,,,,,,,,,,,,,,,,,,,,,,,,,,,,,,,,,,,,,,,,,,,,,,062119_p1,001,2019_Jun_21_1520,body_behavioural,3.0.4,60.00427158398957,
2,,,,,,,,0,2,2,2,0,0,0,0,,,,,,,,,,,,,,,,,,,,,,,,,space,1.8507768549970933,space,1.3696416720049456,space,0.8359601900010603,,,,,,,,,,,,,,,,,,,,,,,,,,,,,,,062119_p1,001,2019_Jun_21_1520,body_behavioural,3.0.4,60.00427158398957,
2,,,,,,,,0,2,2,2,1,0,1,0,,,,,,,,,,,,,,,,,,,,,,,,,,,,,space,3.7032369969965657,,,,,,,,,,,,,,,,,,,,,,,,,,,,,,,062119_p1,001,2019_Jun_21_1520,body_behavioural,3.0.4,60.00427158398957,
2,,,,,,,,0,2,2,2,2,0,2,0,,,,,,,,,,,,,,,,,,,,,,,,,,,,,space,0.8693610600021202,,,,,,,,,,,,,,,,,,,,,,,,,,,,,,,062119_p1,001,2019_Jun_21_1520,body_behavioural,3.0.4,60.00427158398957,
2,Mr. Shelton and Mr. Gordon shook hands inside the waiting area of the restaurant: lunch today was about big business. ,1,1,31.0,,,,0,2,2,2,,,,,0,0,0,0,,,,,,,,,,,,,,,,,,,,,,,,,,,space,1.5363474900004803,space,1.4529834279965144,9,19.021034674995462,,,,,,,,,,,,,,,,,,,,,,,,,062119_p1,001,2019_Jun_21_1520,body_behavioural,3.0.4,60.00427158398957,
2,They were both in the airplane manufacturing industry.,1,1,None,,,,0,2,2,2,,,,,0,1,1,1,,,,,,,,,,,,,,,,,,,,,,,,,,,,,,,1,5.969903305005573,,,,,,,,,,,,,,,,,,,,,,,,,062119_p1,001,2019_Jun_21_1520,body_behavioural,3.0.4,60.00427158398957,
2,"Mr. Shelton was the CFO of a larger, well-established company and had been in the aviation business for decades.",1,1,None,,,,0,2,2,2,,,,,0,2,2,2,,,,,,,,,,,,,,,,,,,,,,,,,,,,,,,1,8.020203952000884,,,,,,,,,,,,,,,,,,,,,,,,,062119_p1,001,2019_Jun_21_1520,body_behavioural,3.0.4,60.00427158398957,
2,Mr. Gordon was the CEO of a smaller but technologically-advanced company that was projected to disrupt the airplane manufacturing market. ,1,1,None,,,,0,2,2,2,,,,,0,3,3,3,,,,,,,,,,,,,,,,,,,,,,,,,,,,,,,1,9.186959031998413,,,,,,,,,,,,,,,,,,,,,,,,,062119_p1,001,2019_Jun_21_1520,body_behavioural,3.0.4,60.00427158398957,
2,"They chose to meet at an old steakhouse with dark wood paneling on the floor and ceilings, taxidermy animals on the walls, and a candelabra on every table.",1,1,None,,,,0,2,2,2,,,,,0,4,4,4,,,,,,,,,,,,,,,,,,,,,,,,,,,,,,,9,6.253675621999719,,,,,,,,,,,,,,,,,,,,,,,,,062119_p1,001,2019_Jun_21_1520,body_behavioural,3.0.4,60.00427158398957,
2,The waitress seated them at their table in the back. ,2,1,None,,,,0,2,2,2,,,,,0,5,5,5,,,,,,,,,,,,,,,,,,,,,,,,,,,,,,,1,7.370370404998539,,,,,,,,,,,,,,,,,,,,,,,,,062119_p1,001,2019_Jun_21_1520,body_behavioural,3.0.4,60.00427158398957,
2,"She brought out the menus, and they briefly chatted about personal happenings. ",2,1,None,,,,0,2,2,2,,,,,0,6,6,6,,,,,,,,,,,,,,,,,,,,,,,,,,,,,,,1,3.018237522999698,,,,,,,,,,,,,,,,,,,,,,,,,062119_p1,001,2019_Jun_21_1520,body_behavioural,3.0.4,60.00427158398957,
2,"Mr. Gordon took out a picture of his daughter and talked about her recent engagement, and Mr. Gordon mentioned his purchase of a Tesla. ",2,1,None,,,,0,2,2,2,,,,,0,7,7,7,,,,,,,,,,,,,,,,,,,,,,,,,,,,,,,1,6.870724914995662,,,,,,,,,,,,,,,,,,,,,,,,,062119_p1,001,2019_Jun_21_1520,body_behavioural,3.0.4,60.00427158398957,
2,They also looked over the menus which were heavy and covered in felt.,2,1,None,,,,0,2,2,2,,,,,0,8,8,8,,,,,,,,,,,,,,,,,,,,,,,,,,,,,,,1,4.70345697200537,,,,,,,,,,,,,,,,,,,,,,,,,062119_p1,001,2019_Jun_21_1520,body_behavioural,3.0.4,60.00427158398957,
2,Flipping to the back of the menu brought one to a lengthy drink selection.,2,1,None,,,,0,2,2,2,,,,,0,9,9,9,,,,,,,,,,,,,,,,,,,,,,,,,,,,,,,9,10.620468846995209,,,,,,,,,,,,,,,,,,,,,,,,,062119_p1,001,2019_Jun_21_1520,body_behavioural,3.0.4,60.00427158398957,
2,Mr. Shelton got serious and brought the conversation around to business.,2,2,None,,,,0,2,2,2,,,,,0,10,10,10,,,,,,,,,,,,,,,,,,,,,,,,,,,,,,,9,3.5355921880036476,,,,,,,,,,,,,,,,,,,,,,,,,062119_p1,001,2019_Jun_21_1520,body_behavioural,3.0.4,60.00427158398957,
2,"“Mr. Gordon, we really admire what you’re doing at your company.",2,2,None,,,,0,2,2,2,,,,,0,11,11,11,,,,,,,,,,,,,,,,,,,,,,,,,,,,,,,1,5.274310715998581,,,,,,,,,,,,,,,,,,,,,,,,,062119_p1,001,2019_Jun_21_1520,body_behavioural,3.0.4,60.00427158398957,
2,We think it’s genius; we want to support your vision and make this tiny company of yours internationally known.,2,2,None,,,,0,2,2,2,,,,,0,12,12,12,,,,,,,,,,,,,,,,,,,,,,,,,,,,,,,1,6.203644665001775,,,,,,,,,,,,,,,,,,,,,,,,,062119_p1,001,2019_Jun_21_1520,body_behavioural,3.0.4,60.00427158398957,
2,"But honestly, your company doesn’t have the resources to reach international markets right now.",2,2,None,,,,0,2,2,2,,,,,0,13,13,13,,,,,,,,,,,,,,,,,,,,,,,,,,,,,,,1,3.936588330005179,,,,,,,,,,,,,,,,,,,,,,,,,062119_p1,001,2019_Jun_21_1520,body_behavioural,3.0.4,60.00427158398957,
2,"Maybe in a few years you could, but by that time, other companies may have already filled your niche.",2,2,None,,,,0,2,2,2,,,,,0,14,14,14,,,,,,,,,,,,,,,,,,,,,,,,,,,,,,,1,5.936843215000408,,,,,,,,,,,,,,,,,,,,,,,,,062119_p1,001,2019_Jun_21_1520,body_behavioural,3.0.4,60.00427158398957,
2,I think we should join forces.”,2,2,None,,,,0,2,2,2,,,,,0,15,15,15,,,,,,,,,,,,,,,,,,,,,,,,,,,,,,,1,1.5365114320011344,,,,,,,,,,,,,,,,,,,,,,,,,062119_p1,001,2019_Jun_21_1520,body_behavioural,3.0.4,60.00427158398957,
2,The waitress arrived and asked if they were ready to order.,3,2,None,,,,0,2,2,2,,,,,0,16,16,16,,,,,,,,,,,,,,,,,,,,,,,,,,,,,,,9,3.8531632800004445,,,,,,,,,,,,,,,,,,,,,,,,,062119_p1,001,2019_Jun_21_1520,body_behavioural,3.0.4,60.00427158398957,
2,"Mr. Gordon chose the medium-rare steak and a martini, and Mr. Shelton ordered the veal and a manhattan. ",3,2,None,,,,0,2,2,2,,,,,0,17,17,17,,,,,,,,,,,,,,,,,,,,,,,,,,,,,,,1,4.836790697998367,,,,,,,,,,,,,,,,,,,,,,,,,062119_p1,001,2019_Jun_21_1520,body_behavioural,3.0.4,60.00427158398957,
2,"Then Mr. Shelton continued, “Look, I’ve talked to other members of the board, and we are prepared to offer $600 million to buy your company. ",3,2,None,,,,0,2,2,2,,,,,0,18,18,18,,,,,,,,,,,,,,,,,,,,,,,,,,,,,,,9,18.00428708200343,,,,,,,,,,,,,,,,,,,,,,,,,062119_p1,001,2019_Jun_21_1520,body_behavioural,3.0.4,60.00427158398957,
2,"We'd keep on all of your current employees, and you would join as the director of your company branch.” ",3,2,None,,,,0,2,2,2,,,,,0,19,19,19,,,,,,,,,,,,,,,,,,,,,,,,,,,,,,,1,7.069833542002016,,,,,,,,,,,,,,,,,,,,,,,,,062119_p1,001,2019_Jun_21_1520,body_behavioural,3.0.4,60.00427158398957,
2,"Mr. Gordon looked at Mr. Shelton skeptically for a few moments considering his response until he said, “Mr. Shelton, I think that you make a compelling offer, but there are definitely some disadvantages to attaching our small, streamlined productions to a large company like yours.",3,3,None,,,,0,2,2,2,,,,,0,20,20,20,,,,,,,,,,,,,,,,,,,,,,,,,,,,,,,1,31.155152992003423,,,,,,,,,,,,,,,,,,,,,,,,,062119_p1,001,2019_Jun_21_1520,body_behavioural,3.0.4,60.00427158398957,
2,"We operate in a very different way than a large company, and the kind of administrative complexity that makes the scale of your productions possible would suffocate our business.",3,3,None,,,,0,2,2,2,,,,,0,21,21,21,,,,,,,,,,,,,,,,,,,,,,,,,,,,,,,1,8.420341687000473,,,,,,,,,,,,,,,,,,,,,,,,,062119_p1,001,2019_Jun_21_1520,body_behavioural,3.0.4,60.00427158398957,
2,"With our product, scaling-up doesn’t necessarily make sense.” ",3,3,None,,,,0,2,2,2,,,,,0,22,22,22,,,,,,,,,,,,,,,,,,,,,,,,,,,,,,,1,7.503158154999255,,,,,,,,,,,,,,,,,,,,,,,,,062119_p1,001,2019_Jun_21_1520,body_behavioural,3.0.4,60.00427158398957,
2,Mr. Shelton had expected this response and had come prepared.,3,3,None,,,,0,2,2,2,,,,,0,23,23,23,,,,,,,,,,,,,,,,,,,,,,,,,,,,,,,9,6.536788104996958,,,,,,,,,,,,,,,,,,,,,,,,,062119_p1,001,2019_Jun_21_1520,body_behavioural,3.0.4,60.00427158398957,
2,He began laying out the details of how he had handled similar acquisitions successfully in the past.,3,3,None,,,,0,2,2,2,,,,,0,24,24,24,,,,,,,,,,,,,,,,,,,,,,,,,,,,,,,1,5.0032767899974715,,,,,,,,,,,,,,,,,,,,,,,,,062119_p1,001,2019_Jun_21_1520,body_behavioural,3.0.4,60.00427158398957,
2,"He also played out projections of how Mr. Gordon’s company could out-compete their own main competitor in the industry, TechJet, by using the resources of a larger corporation. ",3,3,None,,,,0,2,2,2,,,,,0,25,25,25,,,,,,,,,,,,,,,,,,,,,,,,,,,,,,,1,8.38687959699746,,,,,,,,,,,,,,,,,,,,,,,,,062119_p1,001,2019_Jun_21_1520,body_behavioural,3.0.4,60.00427158398957,
2,"Mr. Gordon was impressed, and they went back and forth hashing out what the company configuration would look like post-merger. ",3,3,None,,,,0,2,2,2,,,,,0,26,26,26,,,,,,,,,,,,,,,,,,,,,,,,,,,,,,,1,6.068221852998249,,,,,,,,,,,,,,,,,,,,,,,,,062119_p1,001,2019_Jun_21_1520,body_behavioural,3.0.4,60.00427158398957,
2,The waitress brought out their food on a large tray.,4,3,None,,,,0,2,2,2,,,,,0,27,27,27,,,,,,,,,,,,,,,,,,,,,,,,,,,,,,,9,2.719829169996956,,,,,,,,,,,,,,,,,,,,,,,,,062119_p1,001,2019_Jun_21_1520,body_behavioural,3.0.4,60.00427158398957,
2,“Oh this looks so good!” Mr. Gordon said. ,4,3,None,,,,0,2,2,2,,,,,0,28,28,28,,,,,,,,,,,,,,,,,,,,,,,,,,,,,,,1,1.7028088720035157,,,,,,,,,,,,,,,,,,,,,,,,,062119_p1,001,2019_Jun_21_1520,body_behavioural,3.0.4,60.00427158398957,
2, “Can I get you anything else?” the waitress asked.,4,3,None,,,,0,2,2,2,,,,,0,29,29,29,,,,,,,,,,,,,,,,,,,,,,,,,,,,,,,1,2.003115629995591,,,,,,,,,,,,,,,,,,,,,,,,,062119_p1,001,2019_Jun_21_1520,body_behavioural,3.0.4,60.00427158398957,
2,They declined and began to eat. ,4,3,None,,,,0,2,2,2,,,,,0,30,30,30,,,,,,,,,,,,,,,,,,,,,,,,,,,,,,,1,1.2530578670048271,,,,,,,,,,,,,,,,,,,,,,,,,062119_p1,001,2019_Jun_21_1520,body_behavioural,3.0.4,60.00427158398957,
2,The meal was subpar- they both found the meat to be a bit overcooked and dry. ,4,3,None,,,,0,2,2,2,,,,,0,31,31,31,,,,,,,,,,,,,,,,,,,,,,,,,,,,,,,1,10.186680065002292,,,,,,,,,,,,,,,,,,,,,,,,,062119_p1,001,2019_Jun_21_1520,body_behavioural,3.0.4,60.00427158398957,
2,"Mr. Gordon, after taking a contemplative bite and swallowing, said, “Mr. Shelton, I think we have a deal. ",4,4,None,,,,0,2,2,2,,,,,0,32,32,32,,,,,,,,,,,,,,,,,,,,,,,,,,,,,,,9,5.4370083100002375,,,,,,,,,,,,,,,,,,,,,,,,,062119_p1,001,2019_Jun_21_1520,body_behavioural,3.0.4,60.00427158398957,
2,"If you can guarantee that I can still have the final say in the all the work done by my team, I think this could be beneficial for both of us.",4,4,None,,,,0,2,2,2,,,,,0,33,33,33,,,,,,,,,,,,,,,,,,,,,,,,,,,,,,,1,5.968916370002262,,,,,,,,,,,,,,,,,,,,,,,,,062119_p1,001,2019_Jun_21_1520,body_behavioural,3.0.4,60.00427158398957,
2,I propose a toast to the merging of our companies.”,4,4,None,,,,0,2,2,2,,,,,0,34,34,34,,,,,,,,,,,,,,,,,,,,,,,,,,,,,,,1,2.5189318970005843,,,,,,,,,,,,,,,,,,,,,,,,,062119_p1,001,2019_Jun_21_1520,body_behavioural,3.0.4,60.00427158398957,
2,Mr. Shelton grinned and lifted his martini to clink glasses.,4,4,None,,,,0,2,2,2,,,,,0,35,35,35,,,,,,,,,,,,,,,,,,,,,,,,,,,,,,,1,3.186490961998061,,,,,,,,,,,,,,,,,,,,,,,,,062119_p1,001,2019_Jun_21_1520,body_behavioural,3.0.4,60.00427158398957,
2,"He said, “Cheers to a lifelong partnership and to the growth of our company.” ",4,4,None,,,,0,2,2,2,,,,,0,36,36,36,,,,,,,,,,,,,,,,,,,,,,,,,,,,,,,1,3.0694845949983574,,,,,,,,,,,,,,,,,,,,,,,,,062119_p1,001,2019_Jun_21_1520,body_behavioural,3.0.4,60.00427158398957,
2,,,,,,,,0,2,2,2,,,,,,,,,,,,,,,,,,,,,,,,,,,,,,,,,,,,,,,,,,,,,,,,,,,,,,,,,,,,,,,,,062119_p1,001,2019_Jun_21_1520,body_behavioural,3.0.4,60.00427158398957,
3,,,,,,,,0,3,3,3,0,0,0,0,,,,,,,,,,,,,,,,,,,,,,,,,space,1.7342102600014186,space,1.169761994999135,space,0.8030574599979445,,,,,,,,,,,,,,,,,,,,,,,,,,,,,,,062119_p1,001,2019_Jun_21_1520,body_behavioural,3.0.4,60.00427158398957,
3,"Carina and Simon, both distracted in thought, nearly ran into each other as they walked into the grocery store. ",1,1,43.0,,,,0,3,3,3,,,,,0,0,0,0,,,,,,,,,,,,,,,,,,,,,,,,,,,space,0.8698975919978693,space,9.387347565003438,9,21.021575529004622,,,,,,,,,,,,,,,,,,,,,,,,,062119_p1,001,2019_Jun_21_1520,body_behavioural,3.0.4,60.00427158398957,
3,She nearly dropped the keys she was holding. ,1,1,None,,,,0,3,3,3,,,,,0,1,1,1,,,,,,,,,,,,,,,,,,,,,,,,,,,,,,,1,6.117501633001666,,,,,,,,,,,,,,,,,,,,,,,,,062119_p1,001,2019_Jun_21_1520,body_behavioural,3.0.4,60.00427158398957,
3,"The store they had entered looked like a warehouse, with high, black ceilings, industrial lights, and large packages of food. ",1,1,None,,,,0,3,3,3,,,,,0,2,2,2,,,,,,,,,,,,,,,,,,,,,,,,,,,,,,,9,5.687358201001189,,,,,,,,,,,,,,,,,,,,,,,,,062119_p1,001,2019_Jun_21_1520,body_behavioural,3.0.4,60.00427158398957,
3,"In the meat section, Carina and Simon were looking over the same cuts of meat, because they were both preparing for barbecues.",2,1,None,,,,0,3,3,3,,,,,0,3,3,3,,,,,,,,,,,,,,,,,,,,,,,,,,,,,,,9,10.61780386800092,,,,,,,,,,,,,,,,,,,,,,,,,062119_p1,001,2019_Jun_21_1520,body_behavioural,3.0.4,60.00427158398957,
3,"Simon had wanted to talk to Carina, and Carina had wanted to say something to Simon, but they felt embarrassed striking up a conversation with a stranger.",2,1,None,,,,0,3,3,3,,,,,0,4,4,4,,,,,,,,,,,,,,,,,,,,,,,,,,,,,,,1,5.486654694999743,,,,,,,,,,,,,,,,,,,,,,,,,062119_p1,001,2019_Jun_21_1520,body_behavioural,3.0.4,60.00427158398957,
3,"Carina mustered the courage, turned to Simon and, pointing at a Cornish hen, asked, “Isn’t this meat cute?”",2,2,None,,,,0,3,3,3,,,,,0,5,5,5,,,,,,,,,,,,,,,,,,,,,,,,,,,,,,,1,16.55384491300356,,,,,,,,,,,,,,,,,,,,,,,,,062119_p1,001,2019_Jun_21_1520,body_behavioural,3.0.4,60.00427158398957,
3,"He laughed, and said, “It is very cute.",2,2,None,,,,0,3,3,3,,,,,0,6,6,6,,,,,,,,,,,,,,,,,,,,,,,,,,,,,,,1,3.669012554004439,,,,,,,,,,,,,,,,,,,,,,,,,062119_p1,001,2019_Jun_21_1520,body_behavioural,3.0.4,60.00427158398957,
3,"Probably the younger brother of this guy,” and he picked up a regular-sized chicken.",2,2,None,,,,0,3,3,3,,,,,0,7,7,7,,,,,,,,,,,,,,,,,,,,,,,,,,,,,,,1,4.519798816996627,,,,,,,,,,,,,,,,,,,,,,,,,062119_p1,001,2019_Jun_21_1520,body_behavioural,3.0.4,60.00427158398957,
3,"“Unlucky family,” she responded as she shook her head. ",2,2,None,,,,0,3,3,3,,,,,0,8,8,8,,,,,,,,,,,,,,,,,,,,,,,,,,,,,,,1,2.5199096020005527,,,,,,,,,,,,,,,,,,,,,,,,,062119_p1,001,2019_Jun_21_1520,body_behavioural,3.0.4,60.00427158398957,
3,They chatted as they picked out a few last-minute groceries.,2,2,None,,,,0,3,3,3,,,,,0,9,9,9,,,,,,,,,,,,,,,,,,,,,,,,,,,,,,,1,4.236815595002554,,,,,,,,,,,,,,,,,,,,,,,,,062119_p1,001,2019_Jun_21_1520,body_behavioural,3.0.4,60.00427158398957,
3,"Simon helped Carina select the best ribs and his personal favorite barbecue sauce, and she helped him choose red peppers and spices for a vegetable kabob she recommended.",2,2,None,,,,0,3,3,3,,,,,0,10,10,10,,,,,,,,,,,,,,,,,,,,,,,,,,,,,,,1,8.270354209998914,,,,,,,,,,,,,,,,,,,,,,,,,062119_p1,001,2019_Jun_21_1520,body_behavioural,3.0.4,60.00427158398957,
3,"In the checkout area, there were three lines open, and they went to the one labeled “8.”",3,2,None,,,,0,3,3,3,,,,,0,11,11,11,,,,,,,,,,,,,,,,,,,,,,,,,,,,,,,9,5.753418746993702,,,,,,,,,,,,,,,,,,,,,,,,,062119_p1,001,2019_Jun_21_1520,body_behavioural,3.0.4,60.00427158398957,
3,"Carina and Simon made jokes about the magazine covers while waiting in line, and they were laughing so hard their stomachs hurt. ",3,2,None,,,,0,3,3,3,,,,,0,12,12,12,,,,,,,,,,,,,,,,,,,,,,,,,,,,,,,1,5.63660770199931,,,,,,,,,,,,,,,,,,,,,,,,,062119_p1,001,2019_Jun_21_1520,body_behavioural,3.0.4,60.00427158398957,
3,"Simon turned to face Carina and, while looking at her straight in the eyes, asked, “Would you like to go out to dinner with me?",3,3,None,,,,0,3,3,3,,,,,0,13,13,13,,,,,,,,,,,,,,,,,,,,,,,,,,,,,,,9,11.15366226000333,,,,,,,,,,,,,,,,,,,,,,,,,062119_p1,001,2019_Jun_21_1520,body_behavioural,3.0.4,60.00427158398957,
3,Next Saturday we could tour around Harvard Square and get something to eat.,3,3,None,,,,0,3,3,3,,,,,0,14,14,14,,,,,,,,,,,,,,,,,,,,,,,,,,,,,,,1,4.219985406998603,,,,,,,,,,,,,,,,,,,,,,,,,062119_p1,001,2019_Jun_21_1520,body_behavioural,3.0.4,60.00427158398957,
3,"There are a lot of great places around there, and it’s really nice during the summer.”",3,3,None,,,,0,3,3,3,,,,,0,15,15,15,,,,,,,,,,,,,,,,,,,,,,,,,,,,,,,1,3.4699693500006106,,,,,,,,,,,,,,,,,,,,,,,,,062119_p1,001,2019_Jun_21_1520,body_behavioural,3.0.4,60.00427158398957,
3,"Carina smiled, “I’d love to- that sounds great!”",3,3,None,,,,0,3,3,3,,,,,0,16,16,16,,,,,,,,,,,,,,,,,,,,,,,,,,,,,,,9,6.0199595500016585,,,,,,,,,,,,,,,,,,,,,,,,,062119_p1,001,2019_Jun_21_1520,body_behavioural,3.0.4,60.00427158398957,
3,The cashier scanned Carina’s groceries.,4,3,None,,,,0,3,3,3,,,,,0,17,17,17,,,,,,,,,,,,,,,,,,,,,,,,,,,,,,,9,3.6364761799995904,,,,,,,,,,,,,,,,,,,,,,,,,062119_p1,001,2019_Jun_21_1520,body_behavioural,3.0.4,60.00427158398957,
3,"Simon lifted up the divider on the conveyor belt and said to the cashier, “Actually, these are together.",4,3,None,,,,0,3,3,3,,,,,0,18,18,18,,,,,,,,,,,,,,,,,,,,,,,,,,,,,,,9,16.77043161199981,,,,,,,,,,,,,,,,,,,,,,,,,062119_p1,001,2019_Jun_21_1520,body_behavioural,3.0.4,60.00427158398957,
3,"Carina, I’ve got it.",4,3,None,,,,0,3,3,3,,,,,0,19,19,19,,,,,,,,,,,,,,,,,,,,,,,,,,,,,,,1,4.853467275002913,,,,,,,,,,,,,,,,,,,,,,,,,062119_p1,001,2019_Jun_21_1520,body_behavioural,3.0.4,60.00427158398957,
3,This was kind-of a date today.”,4,3,None,,,,0,3,3,3,,,,,0,20,20,20,,,,,,,,,,,,,,,,,,,,,,,,,,,,,,,1,5.2365535429999,,,,,,,,,,,,,,,,,,,,,,,,,062119_p1,001,2019_Jun_21_1520,body_behavioural,3.0.4,60.00427158398957,
3,Carina blushed and laughed; she thought this was ridiculous but also very sweet. ,4,3,None,,,,0,3,3,3,,,,,0,21,21,21,,,,,,,,,,,,,,,,,,,,,,,,,,,,,,,1,7.12000309999712,,,,,,,,,,,,,,,,,,,,,,,,,062119_p1,001,2019_Jun_21_1520,body_behavioural,3.0.4,60.00427158398957,
3,"The cashier rolled her eyes when they weren’t looking, and she scanned the rest of his items. ",4,3,None,,,,0,3,3,3,,,,,0,22,22,22,,,,,,,,,,,,,,,,,,,,,,,,,,,,,,,9,4.419478889998572,,,,,,,,,,,,,,,,,,,,,,,,,062119_p1,001,2019_Jun_21_1520,body_behavioural,3.0.4,60.00427158398957,
3,"The total came to $52, and he paid with his credit card.",4,3,None,,,,0,3,3,3,,,,,0,23,23,23,,,,,,,,,,,,,,,,,,,,,,,,,,,,,,,1,3.5362848450022284,,,,,,,,,,,,,,,,,,,,,,,,,062119_p1,001,2019_Jun_21_1520,body_behavioural,3.0.4,60.00427158398957,
3,"Seeing that it was 4:30 PM on her phone, Carina gasped because she realized she was late for her own barbecue. ",4,4,None,,,,0,3,3,3,,,,,0,24,24,24,,,,,,,,,,,,,,,,,,,,,,,,,,,,,,,1,9.4204929349944,,,,,,,,,,,,,,,,,,,,,,,,,062119_p1,001,2019_Jun_21_1520,body_behavioural,3.0.4,60.00427158398957,
3,Carina thanked Simon and took her groceries and ran. ,4,4,None,,,,0,3,3,3,,,,,0,25,25,25,,,,,,,,,,,,,,,,,,,,,,,,,,,,,,,1,9.320268082003167,,,,,,,,,,,,,,,,,,,,,,,,,062119_p1,001,2019_Jun_21_1520,body_behavioural,3.0.4,60.00427158398957,
3,"“I hope her guests aren’t hungry,” the cashier remarked.",4,4,None,,,,0,3,3,3,,,,,0,26,26,26,,,,,,,,,,,,,,,,,,,,,,,,,,,,,,,9,5.420035304996418,,,,,,,,,,,,,,,,,,,,,,,,,062119_p1,001,2019_Jun_21_1520,body_behavioural,3.0.4,60.00427158398957,
3,Simon was thoroughly charmed and barely heard the comment as he watched her go. ,4,4,None,,,,0,3,3,3,,,,,0,27,27,27,,,,,,,,,,,,,,,,,,,,,,,,,,,,,,,9,6.0343892899982166,,,,,,,,,,,,,,,,,,,,,,,,,062119_p1,001,2019_Jun_21_1520,body_behavioural,3.0.4,60.00427158398957,
3,,,,,,,,0,3,3,3,,,,,,,,,,,,,,,,,,,,,,,,,,,,,,,,,,,,,,,,,,,,,,,,,,,,,,,,,,,,,,,,,062119_p1,001,2019_Jun_21_1520,body_behavioural,3.0.4,60.00427158398957,
4,,,,,,,,0,4,4,4,0,0,0,0,,,,,,,,,,,,,,,,,,,,,,,,,space,8.903642001998378,space,1.0198105469971779,space,2.9032057599979453,,,,,,,,,,,,,,,,,,,,,,,,,,,,,,,062119_p1,001,2019_Jun_21_1520,body_behavioural,3.0.4,60.00427158398957,
4,"It didn’t help the situation that Calvin and Jessie were running late to the airport, since Jessie had already been fuming at Calvin and preparing to end the relationship with him.",1,1,12.0,,,,0,4,4,4,,,,,0,0,0,0,,,,,,,,,,,,,,,,,,,,,,,,,,,space,2.1030504719965393,space,5.319944945003954,9,23.40477719000046,,,,,,,,,,,,,,,,,,,,,,,,,062119_p1,001,2019_Jun_21_1520,body_behavioural,3.0.4,60.00427158398957,
4,"Upon arriving at their terminal, they had only 45 minutes until their international flight would depart from Jamaica for the US.",1,1,None,,,,0,4,4,4,,,,,0,1,1,1,,,,,,,,,,,,,,,,,,,,,,,,,,,,,,,9,20.387732909999613,,,,,,,,,,,,,,,,,,,,,,,,,062119_p1,001,2019_Jun_21_1520,body_behavioural,3.0.4,60.00427158398957,
4,"It had been a tough vacation, which was planned well before Jessie began to think of breaking up 6 weeks ago.  ",1,1,None,,,,0,4,4,4,,,,,0,2,2,2,,,,,,,,,,,,,,,,,,,,,,,,,,,,,,,9,16.31839532199956,,,,,,,,,,,,,,,,,,,,,,,,,062119_p1,001,2019_Jun_21_1520,body_behavioural,3.0.4,60.00427158398957,
4,"Calvin knew that Jessie was upset, but wasn't sure what to do besides attempt to carry on as normal.",1,1,None,,,,0,4,4,4,,,,,0,3,3,3,,,,,,,,,,,,,,,,,,,,,,,,,,,,,,,1,5.00329973299813,,,,,,,,,,,,,,,,,,,,,,,,,062119_p1,001,2019_Jun_21_1520,body_behavioural,3.0.4,60.00427158398957,
4,"The security line was very short, and once the online boarding passes were scanned, Calvin took off his belt and watch, and they put their bags on the conveyor belt.",2,1,None,,,,0,4,4,4,,,,,0,4,4,4,,,,,,,,,,,,,,,,,,,,,,,,,,,,,,,9,15.320751385006588,,,,,,,,,,,,,,,,,,,,,,,,,062119_p1,001,2019_Jun_21_1520,body_behavioural,3.0.4,60.00427158398957,
4,"There was a short halt in security proceedings so that the security guards could change shifts, but, once everything was back in order, they were ushered quickly through the metal detector. ",2,1,None,,,,0,4,4,4,,,,,0,5,5,5,,,,,,,,,,,,,,,,,,,,,,,,,,,,,,,1,11.453548369994678,,,,,,,,,,,,,,,,,,,,,,,,,062119_p1,001,2019_Jun_21_1520,body_behavioural,3.0.4,60.00427158398957,
4,"“The infrastructure of this airport is really quite poor," said Calvin as they waited for their bags to emerge from the x-ray machine.",2,1,None,,,,0,4,4,4,,,,,0,6,6,6,,,,,,,,,,,,,,,,,,,,,,,,,,,,,,,9,9.31793458500033,,,,,,,,,,,,,,,,,,,,,,,,,062119_p1,001,2019_Jun_21_1520,body_behavioural,3.0.4,60.00427158398957,
4,“I could've hidden something in my shoes quite easily.” ,2,1,None,,,,0,4,4,4,,,,,0,7,7,7,,,,,,,,,,,,,,,,,,,,,,,,,,,,,,,1,2.2030742849965463,,,,,,,,,,,,,,,,,,,,,,,,,062119_p1,001,2019_Jun_21_1520,body_behavioural,3.0.4,60.00427158398957,
4,"Jessie, exasperated, scowled at the conveyor belt.",2,1,None,,,,0,4,4,4,,,,,0,8,8,8,,,,,,,,,,,,,,,,,,,,,,,,,,,,,,,1,4.136530802003108,,,,,,,,,,,,,,,,,,,,,,,,,062119_p1,001,2019_Jun_21_1520,body_behavioural,3.0.4,60.00427158398957,
4,“What?” he asked.,2,1,None,,,,0,4,4,4,,,,,0,9,9,9,,,,,,,,,,,,,,,,,,,,,,,,,,,,,,,1,1.7008038819985813,,,,,,,,,,,,,,,,,,,,,,,,,062119_p1,001,2019_Jun_21_1520,body_behavioural,3.0.4,60.00427158398957,
4,"Balling up her fists and turning to him angrily, she said, “Calvin, I really don’t think I can do this anymore because I don’t think our personalities are compatible. ",2,2,None,,,,0,4,4,4,,,,,0,10,10,10,,,,,,,,,,,,,,,,,,,,,,,,,,,,,,,1,6.886704323005688,,,,,,,,,,,,,,,,,,,,,,,,,062119_p1,001,2019_Jun_21_1520,body_behavioural,3.0.4,60.00427158398957,
4,I think it’s best that once we get to the States we part ways for good.” ,2,2,None,,,,0,4,4,4,,,,,0,11,11,11,,,,,,,,,,,,,,,,,,,,,,,,,,,,,,,1,3.803205486998195,,,,,,,,,,,,,,,,,,,,,,,,,062119_p1,001,2019_Jun_21_1520,body_behavioural,3.0.4,60.00427158398957,
4,Calvin said nothing as he grabbed his bag.,3,2,None,,,,0,4,4,4,,,,,0,12,12,12,,,,,,,,,,,,,,,,,,,,,,,,,,,,,,,1,2.703195671994763,,,,,,,,,,,,,,,,,,,,,,,,,062119_p1,001,2019_Jun_21_1520,body_behavioural,3.0.4,60.00427158398957,
4,Jessie trailed behind him as they hurried their way quickly toward gate A28.,3,2,None,,,,0,4,4,4,,,,,0,13,13,13,,,,,,,,,,,,,,,,,,,,,,,,,,,,,,,1,5.284131180000259,,,,,,,,,,,,,,,,,,,,,,,,,062119_p1,001,2019_Jun_21_1520,body_behavioural,3.0.4,60.00427158398957,
4,“So now you have nothing to say?” Jessie said. ,3,2,None,,,,0,4,4,4,,,,,0,14,14,14,,,,,,,,,,,,,,,,,,,,,,,,,,,,,,,1,2.9865241549996426,,,,,,,,,,,,,,,,,,,,,,,,,062119_p1,001,2019_Jun_21_1520,body_behavioural,3.0.4,60.00427158398957,
4,"Calvin didn't answer, gritting his teeth and staring straight ahead. ",3,2,None,,,,0,4,4,4,,,,,0,15,15,15,,,,,,,,,,,,,,,,,,,,,,,,,,,,,,,1,3.38618882499577,,,,,,,,,,,,,,,,,,,,,,,,,062119_p1,001,2019_Jun_21_1520,body_behavioural,3.0.4,60.00427158398957,
4,"He was very frustrated that he felt he had been trying to appease Jessie for the entirety of the vacation, and it seemed to be completed unappreciated. ",3,2,None,,,,0,4,4,4,,,,,0,16,16,16,,,,,,,,,,,,,,,,,,,,,,,,,,,,,,,1,15.320510595003725,,,,,,,,,,,,,,,,,,,,,,,,,062119_p1,001,2019_Jun_21_1520,body_behavioural,3.0.4,60.00427158398957,
4,"Their silence was punctuated only by the rapid, rhythmic clacking of their suitcase wheels over the tile floor as they continued power-walking through the terminal. ",3,2,None,,,,0,4,4,4,,,,,0,17,17,17,,,,,,,,,,,,,,,,,,,,,,,,,,,,,,,1,7.1034868950009695,,,,,,,,,,,,,,,,,,,,,,,,,062119_p1,001,2019_Jun_21_1520,body_behavioural,3.0.4,60.00427158398957,
4,"Calvin finally turned to address her as they continued walking: “Jessie, this makes perfect sense. ",3,3,None,,,,0,4,4,4,,,,,0,18,18,18,,,,,,,,,,,,,,,,,,,,,,,,,,,,,,,1,6.053813336999156,,,,,,,,,,,,,,,,,,,,,,,,,062119_p1,001,2019_Jun_21_1520,body_behavioural,3.0.4,60.00427158398957,
4,"If you feel this way, then I think we should break up because I don’t want to keep boring you.",3,3,None,,,,0,4,4,4,,,,,0,19,19,19,,,,,,,,,,,,,,,,,,,,,,,,,,,,,,,1,4.737003813002957,,,,,,,,,,,,,,,,,,,,,,,,,062119_p1,001,2019_Jun_21_1520,body_behavioural,3.0.4,60.00427158398957,
4,"I agree, let’s part ways once we make it back.",3,3,None,,,,0,4,4,4,,,,,0,20,20,20,,,,,,,,,,,,,,,,,,,,,,,,,,,,,,,1,1.919718750003085,,,,,,,,,,,,,,,,,,,,,,,,,062119_p1,001,2019_Jun_21_1520,body_behavioural,3.0.4,60.00427158398957,
4,You should’ve spoken up about my apparent intolerability before you decided to plan this vacation.”,3,3,None,,,,0,4,4,4,,,,,0,21,21,21,,,,,,,,,,,,,,,,,,,,,,,,,,,,,,,1,3.8002588800009107,,,,,,,,,,,,,,,,,,,,,,,,,062119_p1,001,2019_Jun_21_1520,body_behavioural,3.0.4,60.00427158398957,
4,"He was very hurt, even though he didn’t want to show it. ",3,3,None,,,,0,4,4,4,,,,,0,22,22,22,,,,,,,,,,,,,,,,,,,,,,,,,,,,,,,1,6.736922317002609,,,,,,,,,,,,,,,,,,,,,,,,,062119_p1,001,2019_Jun_21_1520,body_behavioural,3.0.4,60.00427158398957,
4,"Having made it to their gate, they scanned their tickets, and the annoyed flight attendant shooed them onto the jet bridge and then closed the plane door behind them.",4,3,None,,,,0,4,4,4,,,,,0,23,23,23,,,,,,,,,,,,,,,,,,,,,,,,,,,,,,,9,7.953424081999401,,,,,,,,,,,,,,,,,,,,,,,,,062119_p1,001,2019_Jun_21_1520,body_behavioural,3.0.4,60.00427158398957,
4,"Luckily, they had forgotten to arrange seats next to each other on the flight back.",4,3,None,,,,0,4,4,4,,,,,0,24,24,24,,,,,,,,,,,,,,,,,,,,,,,,,,,,,,,1,8.75352908000059,,,,,,,,,,,,,,,,,,,,,,,,,062119_p1,001,2019_Jun_21_1520,body_behavioural,3.0.4,60.00427158398957,
4,"They were both in economy, but Jessie was headed for seat 33A while Calvin's seat was 33F. ",4,3,None,,,,0,4,4,4,,,,,0,25,25,25,,,,,,,,,,,,,,,,,,,,,,,,,,,,,,,1,9.75363889500295,,,,,,,,,,,,,,,,,,,,,,,,,062119_p1,001,2019_Jun_21_1520,body_behavioural,3.0.4,60.00427158398957,
4,"Before Jessie sat down, she took a deep breath, calmed her emotions, and then awkwardly shook Calvin’s hand, mumbling, “Have a nice flight. ",4,4,None,,,,0,4,4,4,,,,,0,26,26,26,,,,,,,,,,,,,,,,,,,,,,,,,,,,,,,9,7.217296391994751,,,,,,,,,,,,,,,,,,,,,,,,,062119_p1,001,2019_Jun_21_1520,body_behavioural,3.0.4,60.00427158398957,
4,"Oh, and when you get a chance, could you send me back all the philosophy books I lent you?”",4,4,None,,,,0,4,4,4,,,,,0,27,27,27,,,,,,,,,,,,,,,,,,,,,,,,,,,,,,,1,27.322518136003055,,,,,,,,,,,,,,,,,,,,,,,,,062119_p1,001,2019_Jun_21_1520,body_behavioural,3.0.4,60.00427158398957,
4,He laughed in disbelief and walked to his window seat three rows back to get ready for takeoff.,4,4,None,,,,0,4,4,4,,,,,0,28,28,28,,,,,,,,,,,,,,,,,,,,,,,,,,,,,,,9,5.136627140003839,,,,,,,,,,,,,,,,,,,,,,,,,062119_p1,001,2019_Jun_21_1520,body_behavioural,3.0.4,60.00427158398957,
4,Both were upset but glad that they would have this flight in solitude.,4,4,None,,,,0,4,4,4,,,,,0,29,29,29,,,,,,,,,,,,,,,,,,,,,,,,,,,,,,,1,3.0362266619995353,,,,,,,,,,,,,,,,,,,,,,,,,062119_p1,001,2019_Jun_21_1520,body_behavioural,3.0.4,60.00427158398957,
4,,,,,,,,0,4,4,4,,,,,,,,,,,,,,,,,,,,,,,,,,,,,,,,,,,,,,,,,,,,,,,,,,,,,,,,,,,,,,,,,062119_p1,001,2019_Jun_21_1520,body_behavioural,3.0.4,60.00427158398957,
5,,,,,,,,0,5,5,5,0,0,0,0,,,,,,,,,,,,,,,,,,,,,,,,,space,1.0701576249994105,space,1.08627431000059,space,6.153257539997867,,,,,,,,,,,,,,,,,,,,,,,,,,,,,,,062119_p1,001,2019_Jun_21_1520,body_behavioural,3.0.4,60.00427158398957,
5,David saw Anna for the first time when she burst into the airport frazzled with her half-zipped bag skidding behind her.,1,1,42.0,,,,0,5,5,5,,,,,0,0,0,0,,,,,,,,,,,,,,,,,,,,,,,,,,,space,0.7335586920016794,space,4.470453134999843,9,48.854055255003914,,,,,,,,,,,,,,,,,,,,,,,,,062119_p1,001,2019_Jun_21_1520,body_behavioural,3.0.4,60.00427158398957,
5,"He had three hours until his flight and was reading a book on the laptop he was holding in the entrance to the airport, but she had only 35 minutes and was hoping to spend as little time in the entrance as possible. ",1,1,None,,,,0,5,5,5,,,,,0,1,1,1,,,,,,,,,,,,,,,,,,,,,,,,,,,,,,,1,31.688786899998377,,,,,,,,,,,,,,,,,,,,,,,,,062119_p1,001,2019_Jun_21_1520,body_behavioural,3.0.4,60.00427158398957,
5,"Anna, a few strides into the airport, suddenly realized to her dismay that her shoes were untied, so she hunched over to tie them.",1,1,None,,,,0,5,5,5,,,,,0,2,2,2,,,,,,,,,,,,,,,,,,,,,,,,,,,,,,,9,10.037087996999617,,,,,,,,,,,,,,,,,,,,,,,,,062119_p1,001,2019_Jun_21_1520,body_behavioural,3.0.4,60.00427158398957,
5,"David, who had been intrigued by Anna, observed that someone with a tall cart of luggage was heading straight for where she was kneeling and that both her and the person driving the cart were oblivious to the impeding collision. ",1,1,None,,,,0,5,5,5,,,,,0,3,3,3,,,,,,,,,,,,,,,,,,,,,,,,,,,,,,,1,11.687380370000028,,,,,,,,,,,,,,,,,,,,,,,,,062119_p1,001,2019_Jun_21_1520,body_behavioural,3.0.4,60.00427158398957,
5,"After a few moment of deliberation, David decided to intervene, and he ran in front of the cart pushing her out of the way just in the nick of time, and they tumbled on the airport floor. ",1,2,None,,,,0,5,5,5,,,,,0,4,4,4,,,,,,,,,,,,,,,,,,,,,,,,,,,,,,,1,11.170551780000096,,,,,,,,,,,,,,,,,,,,,,,,,062119_p1,001,2019_Jun_21_1520,body_behavioural,3.0.4,60.00427158398957,
5,"Anna, bewildered, looked up and saw the cart pass by and then looked at David. ",1,2,None,,,,0,5,5,5,,,,,0,5,5,5,,,,,,,,,,,,,,,,,,,,,,,,,,,,,,,9,4.270011385000544,,,,,,,,,,,,,,,,,,,,,,,,,062119_p1,001,2019_Jun_21_1520,body_behavioural,3.0.4,60.00427158398957,
5,He flashed a smile.,1,2,None,,,,0,5,5,5,,,,,0,6,6,6,,,,,,,,,,,,,,,,,,,,,,,,,,,,,,,1,2.302838518000499,,,,,,,,,,,,,,,,,,,,,,,,,062119_p1,001,2019_Jun_21_1520,body_behavioural,3.0.4,60.00427158398957,
5,“Were you ever a gymnast?,1,2,None,,,,0,5,5,5,,,,,0,7,7,7,,,,,,,,,,,,,,,,,,,,,,,,,,,,,,,1,3.8513199139997596,,,,,,,,,,,,,,,,,,,,,,,,,062119_p1,001,2019_Jun_21_1520,body_behavioural,3.0.4,60.00427158398957,
5," That was a nice tumble,” he said.",1,2,None,,,,0,5,5,5,,,,,0,8,8,8,,,,,,,,,,,,,,,,,,,,,,,,,,,,,,,1,2.303132414999709,,,,,,,,,,,,,,,,,,,,,,,,,062119_p1,001,2019_Jun_21_1520,body_behavioural,3.0.4,60.00427158398957,
5,"She managed a chuckle and said, “Actually yes, but I’d say that deserved a score of zero.",1,2,None,,,,0,5,5,5,,,,,0,9,9,9,,,,,,,,,,,,,,,,,,,,,,,,,,,,,,,1,5.470050144002016,,,,,,,,,,,,,,,,,,,,,,,,,062119_p1,001,2019_Jun_21_1520,body_behavioural,3.0.4,60.00427158398957,
5,Wow- I almost got smooshed by that cart.”,1,2,None,,,,0,5,5,5,,,,,0,10,10,10,,,,,,,,,,,,,,,,,,,,,,,,,,,,,,,1,2.069950990000507,,,,,,,,,,,,,,,,,,,,,,,,,062119_p1,001,2019_Jun_21_1520,body_behavioural,3.0.4,60.00427158398957,
5,Her head was still spinning as she stared at the handsome stranger who had saved her. ,1,2,None,,,,0,5,5,5,,,,,0,11,11,11,,,,,,,,,,,,,,,,,,,,,,,,,,,,,,,1,3.869903842001804,,,,,,,,,,,,,,,,,,,,,,,,,062119_p1,001,2019_Jun_21_1520,body_behavioural,3.0.4,60.00427158398957,
5,David helped her up and had to keep holding on to her arms to steady her even once they were standing.,1,2,None,,,,0,5,5,5,,,,,0,12,12,12,,,,,,,,,,,,,,,,,,,,,,,,,,,,,,,9,9.270433952995518,,,,,,,,,,,,,,,,,,,,,,,,,062119_p1,001,2019_Jun_21_1520,body_behavioural,3.0.4,60.00427158398957,
5,"“I’m really late for my flight,” she said. ",1,2,None,,,,0,5,5,5,,,,,0,13,13,13,,,,,,,,,,,,,,,,,,,,,,,,,,,,,,,1,1.752883209999709,,,,,,,,,,,,,,,,,,,,,,,,,062119_p1,001,2019_Jun_21_1520,body_behavioural,3.0.4,60.00427158398957,
5,"“Don't worry,” said David, "let me help you get to your gate." ",1,2,None,,,,0,5,5,5,,,,,0,14,14,14,,,,,,,,,,,,,,,,,,,,,,,,,,,,,,,1,4.553355111995188,,,,,,,,,,,,,,,,,,,,,,,,,062119_p1,001,2019_Jun_21_1520,body_behavioural,3.0.4,60.00427158398957,
5,He waved off her half-hearted protests. ,1,2,None,,,,0,5,5,5,,,,,0,15,15,15,,,,,,,,,,,,,,,,,,,,,,,,,,,,,,,1,10.80338646999735,,,,,,,,,,,,,,,,,,,,,,,,,062119_p1,001,2019_Jun_21_1520,body_behavioural,3.0.4,60.00427158398957,
5,“Really- I have plenty of time and nothing better to do.” he said. ,1,2,None,,,,0,5,5,5,,,,,0,16,16,16,,,,,,,,,,,,,,,,,,,,,,,,,,,,,,,1,2.5361258699995233,,,,,,,,,,,,,,,,,,,,,,,,,062119_p1,001,2019_Jun_21_1520,body_behavioural,3.0.4,60.00427158398957,
5,"At security, the line was not long, but since Anna’s flight was so soon the security guard allowed them to go to the front of the line.",2,2,None,,,,0,5,5,5,,,,,0,17,17,17,,,,,,,,,,,,,,,,,,,,,,,,,,,,,,,9,10.653487734998635,,,,,,,,,,,,,,,,,,,,,,,,,062119_p1,001,2019_Jun_21_1520,body_behavioural,3.0.4,60.00427158398957,
5,"They had to wait however, because there was a strange malfunction of the metal detector. ",2,2,None,,,,0,5,5,5,,,,,0,18,18,18,,,,,,,,,,,,,,,,,,,,,,,,,,,,,,,1,4.867636060000223,,,,,,,,,,,,,,,,,,,,,,,,,062119_p1,001,2019_Jun_21_1520,body_behavioural,3.0.4,60.00427158398957,
5,"In this span of time, they managed to find out that they had gone to the same high school and that Anna had graduated 3 years before David. ",2,2,None,,,,0,5,5,5,,,,,0,19,19,19,,,,,,,,,,,,,,,,,,,,,,,,,,,,,,,9,12.270640882998123,,,,,,,,,,,,,,,,,,,,,,,,,062119_p1,001,2019_Jun_21_1520,body_behavioural,3.0.4,60.00427158398957,
5,They hurriedly took off their shoes and coats.,2,2,None,,,,0,5,5,5,,,,,0,20,20,20,,,,,,,,,,,,,,,,,,,,,,,,,,,,,,,9,6.820257232000586,,,,,,,,,,,,,,,,,,,,,,,,,062119_p1,001,2019_Jun_21_1520,body_behavioural,3.0.4,60.00427158398957,
5,"Anna placed her purse and suitcase on the conveyor belt, and David put his backpack on the conveyor belt as well, with his laptop in a separate bin. ",2,2,None,,,,0,5,5,5,,,,,0,21,21,21,,,,,,,,,,,,,,,,,,,,,,,,,,,,,,,1,6.636480950000987,,,,,,,,,,,,,,,,,,,,,,,,,062119_p1,001,2019_Jun_21_1520,body_behavioural,3.0.4,60.00427158398957,
5,Both of them went through the metal detector without any problems. ,2,2,None,,,,0,5,5,5,,,,,0,22,22,22,,,,,,,,,,,,,,,,,,,,,,,,,,,,,,,1,3.786336997996841,,,,,,,,,,,,,,,,,,,,,,,,,062119_p1,001,2019_Jun_21_1520,body_behavioural,3.0.4,60.00427158398957,
5,"As they were rushing to put their shoes and coats on, they shared when they were coming back. ",2,2,None,,,,0,5,5,5,,,,,0,23,23,23,,,,,,,,,,,,,,,,,,,,,,,,,,,,,,,1,6.467756972000643,,,,,,,,,,,,,,,,,,,,,,,,,062119_p1,001,2019_Jun_21_1520,body_behavioural,3.0.4,60.00427158398957,
5,"In a moment of boldness, David asked, “When we're back in town next Tuesday, is there any chance you'd want to get dinner?",2,3,None,,,,0,5,5,5,,,,,0,24,24,24,,,,,,,,,,,,,,,,,,,,,,,,,,,,,,,1,9.503643709998869,,,,,,,,,,,,,,,,,,,,,,,,,062119_p1,001,2019_Jun_21_1520,body_behavioural,3.0.4,60.00427158398957,
5,"I know we just met, but when life throws a luggage cart at you it seems like we should listen. “",2,3,None,,,,0,5,5,5,,,,,0,25,25,25,,,,,,,,,,,,,,,,,,,,,,,,,,,,,,,1,7.070450022998557,,,,,,,,,,,,,,,,,,,,,,,,,062119_p1,001,2019_Jun_21_1520,body_behavioural,3.0.4,60.00427158398957,
5,"She stopped packing, and said with a smile, “Yes I would love that.”",2,3,None,,,,0,5,5,5,,,,,0,26,26,26,,,,,,,,,,,,,,,,,,,,,,,,,,,,,,,1,3.6532486569994944,,,,,,,,,,,,,,,,,,,,,,,,,062119_p1,001,2019_Jun_21_1520,body_behavioural,3.0.4,60.00427158398957,
5,"On the concourse, they were running to get to Anna’s gate, J37, which was at the end of the terminal. ",3,3,None,,,,0,5,5,5,,,,,0,27,27,27,,,,,,,,,,,,,,,,,,,,,,,,,,,,,,,9,6.13687023500097,,,,,,,,,,,,,,,,,,,,,,,,,062119_p1,001,2019_Jun_21_1520,body_behavioural,3.0.4,60.00427158398957,
5,"David took her suitcase, grabbed her hand, and weaved crowd of people.",3,3,None,,,,0,5,5,5,,,,,0,28,28,28,,,,,,,,,,,,,,,,,,,,,,,,,,,,,,,1,6.920284890002222,,,,,,,,,,,,,,,,,,,,,,,,,062119_p1,001,2019_Jun_21_1520,body_behavioural,3.0.4,60.00427158398957,
5,People passing them were giving them funny looks because Anna looked so bewildered.,3,3,None,,,,0,5,5,5,,,,,0,29,29,29,,,,,,,,,,,,,,,,,,,,,,,,,,,,,,,1,4.669799260002037,,,,,,,,,,,,,,,,,,,,,,,,,062119_p1,001,2019_Jun_21_1520,body_behavioural,3.0.4,60.00427158398957,
5,"Before getting to the gate, explaining that she would sprint the rest of the way, Anna fished out a crumpled business card from her pocket and handed it to David, who handed her the suitcase.",3,4,None,,,,0,5,5,5,,,,,0,30,30,30,,,,,,,,,,,,,,,,,,,,,,,,,,,,,,,1,10.953450314998918,,,,,,,,,,,,,,,,,,,,,,,,,062119_p1,001,2019_Jun_21_1520,body_behavioural,3.0.4,60.00427158398957,
5,"She gave him one last embarrassed smile, thanked him, and hurried away.",3,4,None,,,,0,5,5,5,,,,,0,31,31,31,,,,,,,,,,,,,,,,,,,,,,,,,,,,,,,1,2.8027982200001134,,,,,,,,,,,,,,,,,,,,,,,,,062119_p1,001,2019_Jun_21_1520,body_behavioural,3.0.4,60.00427158398957,
5,"David looked at his watch which read 10:55 AM, 5 minutes before her flight was supposed to leave. ",3,4,None,,,,0,5,5,5,,,,,0,32,32,32,,,,,,,,,,,,,,,,,,,,,,,,,,,,,,,9,7.801169061996916,,,,,,,,,,,,,,,,,,,,,,,,,062119_p1,001,2019_Jun_21_1520,body_behavioural,3.0.4,60.00427158398957,
5,"At the gate, Anna waved to the flight attendant who motioned for her to hurry and she boarded the plane. ",4,4,None,,,,0,5,5,5,,,,,0,33,33,33,,,,,,,,,,,,,,,,,,,,,,,,,,,,,,,9,9.353423090004071,,,,,,,,,,,,,,,,,,,,,,,,,062119_p1,001,2019_Jun_21_1520,body_behavioural,3.0.4,60.00427158398957,
5,"She slid into her window seat 7D in business class, and barely containing her glee, she hugged the plastic-wrapped blanket. ",4,4,None,,,,0,5,5,5,,,,,0,34,34,34,,,,,,,,,,,,,,,,,,,,,,,,,,,,,,,1,6.7362218929993105,,,,,,,,,,,,,,,,,,,,,,,,,062119_p1,001,2019_Jun_21_1520,body_behavioural,3.0.4,60.00427158398957,
5,"She was thankful that she had not only made it onto the plane in time, but also that she had been clumsy enough to forget to tie her shoes.",4,4,None,,,,0,5,5,5,,,,,0,35,35,35,,,,,,,,,,,,,,,,,,,,,,,,,,,,,,,1,6.553495739994105,,,,,,,,,,,,,,,,,,,,,,,,,062119_p1,001,2019_Jun_21_1520,body_behavioural,3.0.4,60.00427158398957,
5,,,,,,,,0,5,5,5,,,,,,,,,,,,,,,,,,,,,,,,,,,,,,,,,,,,,,,,,,,,,,,,,,,,,,,,,,,,,,,,,062119_p1,001,2019_Jun_21_1520,body_behavioural,3.0.4,60.00427158398957,
6,,,,,,,,0,6,6,6,0,0,0,0,,,,,,,,,,,,,,,,,,,,,,,,,space,2.220349934999831,space,1.8030495819984935,space,1.0012647050025407,,,,,,,,,,,,,,,,,,,,,,,,,,,,,,,062119_p1,001,2019_Jun_21_1520,body_behavioural,3.0.4,60.00427158398957,
6,"Lana walked into lecture holding hands with her boyfriend, Aaron, who was trying to contain his excitement about proposing to Lana in this class.",1,1,24.0,,,,0,6,6,6,,,,,0,0,0,0,,,,,,,,,,,,,,,,,,,,,,,,,,,space,1.5686426559987012,space,4.002831275000062,9,24.752916097000707,,,,,,,,,,,,,,,,,,,,,,,,,062119_p1,001,2019_Jun_21_1520,body_behavioural,3.0.4,60.00427158398957,
6,"Lana was lost in thought, puzzling over an integral on her problem set for another class.",1,1,None,,,,0,6,6,6,,,,,0,1,1,1,,,,,,,,,,,,,,,,,,,,,,,,,,,,,,,9,10.367976437002653,,,,,,,,,,,,,,,,,,,,,,,,,062119_p1,001,2019_Jun_21_1520,body_behavioural,3.0.4,60.00427158398957,
6,"The lecture hall they had entered was the fanciest one at Princeton, with chandeliers, high ceilings, wood floors, and a large projector screen where chalkboards used to be. ",1,1,None,,,,0,6,6,6,,,,,0,2,2,2,,,,,,,,,,,,,,,,,,,,,,,,,,,,,,,9,10.670277489996806,,,,,,,,,,,,,,,,,,,,,,,,,062119_p1,001,2019_Jun_21_1520,body_behavioural,3.0.4,60.00427158398957,
6,Aaron and Lana had met when they first started dating three years ago in freshman year.,1,1,None,,,,0,6,6,6,,,,,0,3,3,3,,,,,,,,,,,,,,,,,,,,,,,,,,,,,,,9,4.953310935001355,,,,,,,,,,,,,,,,,,,,,,,,,062119_p1,001,2019_Jun_21_1520,body_behavioural,3.0.4,60.00427158398957,
6,They coincidentally had another class together in this same lecture hall. ,1,1,None,,,,0,6,6,6,,,,,0,4,4,4,,,,,,,,,,,,,,,,,,,,,,,,,,,,,,,1,2.68653102999815,,,,,,,,,,,,,,,,,,,,,,,,,062119_p1,001,2019_Jun_21_1520,body_behavioural,3.0.4,60.00427158398957,
6,The professor caught Aaron's eye as he walked up to the front of the classroom and gave him a wink before the lecture began. ,1,1,None,,,,0,6,6,6,,,,,0,5,5,5,,,,,,,,,,,,,,,,,,,,,,,,,,,,,,,1,9.370314294996206,,,,,,,,,,,,,,,,,,,,,,,,,062119_p1,001,2019_Jun_21_1520,body_behavioural,3.0.4,60.00427158398957,
6,Aaron flashed him a half-smile and nodded. ,1,1,None,,,,0,6,6,6,,,,,0,6,6,6,,,,,,,,,,,,,,,,,,,,,,,,,,,,,,,1,2.986609480001789,,,,,,,,,,,,,,,,,,,,,,,,,062119_p1,001,2019_Jun_21_1520,body_behavioural,3.0.4,60.00427158398957,
6,"The professor cleared his throat and said,“Alright, good afternoon, everyone!",2,1,None,,,,0,6,6,6,,,,,0,7,7,7,,,,,,,,,,,,,,,,,,,,,,,,,,,,,,,1,3.6866080300023896,,,,,,,,,,,,,,,,,,,,,,,,,062119_p1,001,2019_Jun_21_1520,body_behavioural,3.0.4,60.00427158398957,
6,Welcome to another week of Introduction to Chemistry,2,1,None,,,,0,6,6,6,,,,,0,8,8,8,,,,,,,,,,,,,,,,,,,,,,,,,,,,,,,1,3.753383092000149,,,,,,,,,,,,,,,,,,,,,,,,,062119_p1,001,2019_Jun_21_1520,body_behavioural,3.0.4,60.00427158398957,
6,This week the topic is ions.,2,1,None,,,,0,6,6,6,,,,,0,9,9,9,,,,,,,,,,,,,,,,,,,,,,,,,,,,,,,1,2.1030903630016837,,,,,,,,,,,,,,,,,,,,,,,,,062119_p1,001,2019_Jun_21_1520,body_behavioural,3.0.4,60.00427158398957,
6,"Now, let me get my computer set up, one moment, class.”",2,1,None,,,,0,6,6,6,,,,,0,10,10,10,,,,,,,,,,,,,,,,,,,,,,,,,,,,,,,1,5.6505350950028514,,,,,,,,,,,,,,,,,,,,,,,,,062119_p1,001,2019_Jun_21_1520,body_behavioural,3.0.4,60.00427158398957,
6,Lana pulled out the problem set she was thinking about as Aaron unzipped the small pocket in his backpack and pulled out the ring.,2,2,None,,,,0,6,6,6,,,,,0,11,11,11,,,,,,,,,,,,,,,,,,,,,,,,,,,,,,,9,16.27099584499956,,,,,,,,,,,,,,,,,,,,,,,,,062119_p1,001,2019_Jun_21_1520,body_behavioural,3.0.4,60.00427158398957,
6,"Turning away from her, he looked it over yet again. ",2,2,None,,,,0,6,6,6,,,,,0,12,12,12,,,,,,,,,,,,,,,,,,,,,,,,,,,,,,,1,3.3536659919991507,,,,,,,,,,,,,,,,,,,,,,,,,062119_p1,001,2019_Jun_21_1520,body_behavioural,3.0.4,60.00427158398957,
6,"Instead of one large diamond, there were 5 red diamonds embedded in a thick band. ",2,2,None,,,,0,6,6,6,,,,,0,13,13,13,,,,,,,,,,,,,,,,,,,,,,,,,,,,,,,1,10.753692584999953,,,,,,,,,,,,,,,,,,,,,,,,,062119_p1,001,2019_Jun_21_1520,body_behavioural,3.0.4,60.00427158398957,
6,He knew Lana would like this because her style was more avant-garde than traditional.,2,2,None,,,,0,6,6,6,,,,,0,14,14,14,,,,,,,,,,,,,,,,,,,,,,,,,,,,,,,1,5.536730747000547,,,,,,,,,,,,,,,,,,,,,,,,,062119_p1,001,2019_Jun_21_1520,body_behavioural,3.0.4,60.00427158398957,
6,"The professor said, “Remember, class, that the number of protons determines the identity of the element. ",3,2,None,,,,0,6,6,6,,,,,0,15,15,15,,,,,,,,,,,,,,,,,,,,,,,,,,,,,,,1,6.553534740000032,,,,,,,,,,,,,,,,,,,,,,,,,062119_p1,001,2019_Jun_21_1520,body_behavioural,3.0.4,60.00427158398957,
6,"So for example, all atoms of sodium have 11 protons in the nucleus. ",3,2,None,,,,0,6,6,6,,,,,0,16,16,16,,,,,,,,,,,,,,,,,,,,,,,,,,,,,,,1,3.8532723149983212,,,,,,,,,,,,,,,,,,,,,,,,,062119_p1,001,2019_Jun_21_1520,body_behavioural,3.0.4,60.00427158398957,
6,"And if you look on the periodic table, the atomic number for sodium, the symbol is Na, is eleven.",3,2,None,,,,0,6,6,6,,,,,0,17,17,17,,,,,,,,,,,,,,,,,,,,,,,,,,,,,,,1,6.986783099993772,,,,,,,,,,,,,,,,,,,,,,,,,062119_p1,001,2019_Jun_21_1520,body_behavioural,3.0.4,60.00427158398957,
6,"An ion retains the same number of protons despite losing electrons, and therefore keeps the same identity in the periodic table. ",3,2,None,,,,0,6,6,6,,,,,0,18,18,18,,,,,,,,,,,,,,,,,,,,,,,,,,,,,,,1,6.337005187000614,,,,,,,,,,,,,,,,,,,,,,,,,062119_p1,001,2019_Jun_21_1520,body_behavioural,3.0.4,60.00427158398957,
6,Lana and Aaron tried to take notes during the lecture.,3,2,None,,,,0,6,6,6,,,,,0,19,19,19,,,,,,,,,,,,,,,,,,,,,,,,,,,,,,,9,2.3179597279959125,,,,,,,,,,,,,,,,,,,,,,,,,062119_p1,001,2019_Jun_21_1520,body_behavioural,3.0.4,60.00427158398957,
6,"Right after talking about how two ions bond into one stable molecule by covalent bonds, the professor stopped the lecture, gave another wink to Aaron, and asked Lana to come to the front of the class to do a demonstration. ",3,3,None,,,,0,6,6,6,,,,,0,20,20,20,,,,,,,,,,,,,,,,,,,,,,,,,,,,,,,1,17.404164307001338,,,,,,,,,,,,,,,,,,,,,,,,,062119_p1,001,2019_Jun_21_1520,body_behavioural,3.0.4,60.00427158398957,
6,"She walked to the front of the class confused, and the professor asked her to stand in the middle of the stage.",3,3,None,,,,0,6,6,6,,,,,0,21,21,21,,,,,,,,,,,,,,,,,,,,,,,,,,,,,,,1,8.420191595003416,,,,,,,,,,,,,,,,,,,,,,,,,062119_p1,001,2019_Jun_21_1520,body_behavioural,3.0.4,60.00427158398957,
6,"Then Aaron walked up and, taking Lana’s hand, got down on one knee. ",3,3,None,,,,0,6,6,6,,,,,0,22,22,22,,,,,,,,,,,,,,,,,,,,,,,,,,,,,,,1,5.003276867995737,,,,,,,,,,,,,,,,,,,,,,,,,062119_p1,001,2019_Jun_21_1520,body_behavioural,3.0.4,60.00427158398957,
6,The professor quickly switched to the last slide on the powerpoint which was a photo collage Aaron had sent him of pictures of Aaron and Lana. ,3,3,None,,,,0,6,6,6,,,,,0,23,23,23,,,,,,,,,,,,,,,,,,,,,,,,,,,,,,,1,8.270077086999663,,,,,,,,,,,,,,,,,,,,,,,,,062119_p1,001,2019_Jun_21_1520,body_behavioural,3.0.4,60.00427158398957,
6,"“It's time for us to make a bond of our own, Lana.”",3,3,None,,,,0,6,6,6,,,,,0,24,24,24,,,,,,,,,,,,,,,,,,,,,,,,,,,,,,,1,7.137017749999359,,,,,,,,,,,,,,,,,,,,,,,,,062119_p1,001,2019_Jun_21_1520,body_behavioural,3.0.4,60.00427158398957,
6,He opened the small notebook he had in his hand and the ring was sitting on the page. ,3,3,None,,,,0,6,6,6,,,,,0,25,25,25,,,,,,,,,,,,,,,,,,,,,,,,,,,,,,,1,8.686847791999753,,,,,,,,,,,,,,,,,,,,,,,,,062119_p1,001,2019_Jun_21_1520,body_behavioural,3.0.4,60.00427158398957,
6,“Will you marry me?” ,3,3,None,,,,0,6,6,6,,,,,0,26,26,26,,,,,,,,,,,,,,,,,,,,,,,,,,,,,,,1,1.670033901995339,,,,,,,,,,,,,,,,,,,,,,,,,062119_p1,001,2019_Jun_21_1520,body_behavioural,3.0.4,60.00427158398957,
6,"Lana had put her hand over her mouth and tears were streaming down her face, but finally, she said, “Yes!”",3,4,None,,,,0,6,6,6,,,,,0,27,27,27,,,,,,,,,,,,,,,,,,,,,,,,,,,,,,,1,4.553485380005441,,,,,,,,,,,,,,,,,,,,,,,,,062119_p1,001,2019_Jun_21_1520,body_behavioural,3.0.4,60.00427158398957,
6,"Aaron put the ring on her finger, and they hugged while the whole class applauded and cheered. ",3,4,None,,,,0,6,6,6,,,,,0,28,28,28,,,,,,,,,,,,,,,,,,,,,,,,,,,,,,,1,6.120107039998402,,,,,,,,,,,,,,,,,,,,,,,,,062119_p1,001,2019_Jun_21_1520,body_behavioural,3.0.4,60.00427158398957,
6,Their friends who had been secretly waiting outside came into the class and hugged both of them.,3,4,None,,,,0,6,6,6,,,,,0,29,29,29,,,,,,,,,,,,,,,,,,,,,,,,,,,,,,,1,4.0367846799999825,,,,,,,,,,,,,,,,,,,,,,,,,062119_p1,001,2019_Jun_21_1520,body_behavioural,3.0.4,60.00427158398957,
6,The professor gave Aaron a celebratory handshake.,3,4,None,,,,0,6,6,6,,,,,0,30,30,30,,,,,,,,,,,,,,,,,,,,,,,,,,,,,,,1,3.3535361670001294,,,,,,,,,,,,,,,,,,,,,,,,,062119_p1,001,2019_Jun_21_1520,body_behavioural,3.0.4,60.00427158398957,
6,"They made their way back to their seats, and Lana pulled out her phone to text her sister",3,4,None,,,,0,6,6,6,,,,,0,31,31,31,,,,,,,,,,,,,,,,,,,,,,,,,,,,,,,9,2.786293455006671,,,,,,,,,,,,,,,,,,,,,,,,,062119_p1,001,2019_Jun_21_1520,body_behavioural,3.0.4,60.00427158398957,
6,"The professor dismissed the class, saying, “That was enough excitement for today!",4,4,None,,,,0,6,6,6,,,,,0,32,32,32,,,,,,,,,,,,,,,,,,,,,,,,,,,,,,,9,7.370216570001503,,,,,,,,,,,,,,,,,,,,,,,,,062119_p1,001,2019_Jun_21_1520,body_behavioural,3.0.4,60.00427158398957,
6,Don’t forget there’s a midterm exam next week on Monday on the material covered in the first 4 weeks of the semester.,4,4,None,,,,0,6,6,6,,,,,0,33,33,33,,,,,,,,,,,,,,,,,,,,,,,,,,,,,,,1,4.70328155199968,,,,,,,,,,,,,,,,,,,,,,,,,062119_p1,001,2019_Jun_21_1520,body_behavioural,3.0.4,60.00427158398957,
6,"As everyone was packing up their notebooks and leaving, Lana and Aaron were surrounded by their friends eager to get a glimpse of the ring and congratulate them. ",4,4,None,,,,0,6,6,6,,,,,0,34,34,34,,,,,,,,,,,,,,,,,,,,,,,,,,,,,,,9,6.103411424999649,,,,,,,,,,,,,,,,,,,,,,,,,062119_p1,001,2019_Jun_21_1520,body_behavioural,3.0.4,60.00427158398957,
6,,,,,,,,0,6,6,6,,,,,,,,,,,,,,,,,,,,,,,,,,,,,,,,,,,,,,,,,,,,,,,,,,,,,,,,,,,,,,,,,062119_p1,001,2019_Jun_21_1520,body_behavioural,3.0.4,60.00427158398957,
7,,,,,,,,0,7,7,7,0,0,0,0,,,,,,,,,,,,,,,,,,,,,,,,,space,1.8030020849982975,space,1.0697093799972208,space,1.1674148720048834,,,,,,,,,,,,,,,,,,,,,,,,,,,,,,,062119_p1,001,2019_Jun_21_1520,body_behavioural,3.0.4,60.00427158398957,
7,"Alvira and Senna walked into the restaurant hand in sweaty hand with quite different expectations for the night because Senna, after 5 years of dating, was going to propose, and Alvira had no idea.",1.0,1.0,21.0,None,None,,0,7,7,7,,,,,0,0,0,0,,,,,,,,,,,,,,,,,,,,,,,,,,,space,1.2362732850015163,space,4.503275909999502,9,22.770822529993893,,,,,,,,,,,,,,,,,,,,,,,,,062119_p1,001,2019_Jun_21_1520,body_behavioural,3.0.4,60.00427158398957,
7,"He took a deep breath, trying to calm his nerves as worst case scenarios ran through his mind. ",1.0,1.0,None,None,None,,0,7,7,7,,,,,0,1,1,1,,,,,,,,,,,,,,,,,,,,,,,,,,,,,,,1,5.12060781299806,,,,,,,,,,,,,,,,,,,,,,,,,062119_p1,001,2019_Jun_21_1520,body_behavioural,3.0.4,60.00427158398957,
7,The restaurant was on the beach and had floor-to-ceiling arched windows that framed an incredible view of the Pacific Ocean.,1.0,1.0,None,None,None,,0,7,7,7,,,,,0,2,2,2,,,,,,,,,,,,,,,,,,,,,,,,,,,,,,,9,4.070098725002026,,,,,,,,,,,,,,,,,,,,,,,,,062119_p1,001,2019_Jun_21_1520,body_behavioural,3.0.4,60.00427158398957,
7,"Besides the view, the restaurant itself was beautiful- crystal chandeliers hung from the high ceiling above small tables covered with white table clothes.
",1.0,1.0,None,None,None,,0,7,7,7,,,,,0,3,3,3,,,,,,,,,,,,,,,,,,,,,,,,,,,,,,,1,5.902708112000255,,,,,,,,,,,,,,,,,,,,,,,,,062119_p1,001,2019_Jun_21_1520,body_behavioural,3.0.4,60.00427158398957,
7,This was surely one of the best restaurants on the West Coast.,1.0,1.0,None,None,None,,0,7,7,7,,,,,0,4,4,4,,,,,,,,,,,,,,,,,,,,,,,,,,,,,,,1,3.036497410001175,,,,,,,,,,,,,,,,,,,,,,,,,062119_p1,001,2019_Jun_21_1520,body_behavioural,3.0.4,60.00427158398957,
7,"After Senna gave his name to the host, who discretely winked at Senna, they were seated at a table right by the window. ",2.0,1.0,None,7.0,None,,0,7,7,7,,,,,0,5,5,5,,,,,,,,,,,,,,,,,,,,,,,,,,,,,,,9,5.336704155000916,,,,,,,,,,,,,,,,,,,,,,,,,062119_p1,001,2019_Jun_21_1520,body_behavioural,3.0.4,60.00427158398957,
7,The waiter brought out some very small menus.,2.0,1.0,None,None,9.0,,0,7,7,7,,,,,0,6,6,6,,,,,,,,,,,,,,,,,,,,,,,,,,,,,,,1,5.7020616660011,,,,,,,,,,,,,,,,,,,,,,,,,062119_p1,001,2019_Jun_21_1520,body_behavioural,3.0.4,60.00427158398957,
7,"They consisted of a short list of the head chef's carefully selected daily dishes written in a loopy, cursive font unadorned by any mention of prices.",None,None,None,None,None,,0,7,7,7,,,,,0,7,7,7,,,,,,,,,,,,,,,,,,,,,,,,,,,,,,,1,3.752442960998451,,,,,,,,,,,,,,,,,,,,,,,,,062119_p1,001,2019_Jun_21_1520,body_behavioural,3.0.4,60.00427158398957,
7,"Senna got nervous about the ring, and he slipped off to the bathroom to check to make sure it looked alright.",2.0,2.0,None,None,None,,0,7,7,7,,,,,0,8,8,8,,,,,,,,,,,,,,,,,,,,,,,,,,,,,,,9,6.168629047002469,,,,,,,,,,,,,,,,,,,,,,,,,062119_p1,001,2019_Jun_21_1520,body_behavioural,3.0.4,60.00427158398957,
7,The ring contained three canary yellow diamonds that had been in his grandmother’s wedding ring. ,2.0,2.0,None,None,None,,0,7,7,7,,,,,0,9,9,9,,,,,,,,,,,,,,,,,,,,,,,,,,,,,,,1,14.03773399200145,,,,,,,,,,,,,,,,,,,,,,,,,062119_p1,001,2019_Jun_21_1520,body_behavioural,3.0.4,60.00427158398957,
7,"After Senna had gotten back to the table, the waiter appeared at their table to take their order.",3.0,2.0,None,None,None,,0,7,7,7,,,,,0,10,10,10,,,,,,,,,,,,,,,,,,,,,,,,,,,,,,,9,3.6704934049994336,,,,,,,,,,,,,,,,,,,,,,,,,062119_p1,001,2019_Jun_21_1520,body_behavioural,3.0.4,60.00427158398957,
7,"Senna ordered the oysters with garlic-parmesan sauce, and Alvira ordered the sauteed sea scallops with caramelized apples. ",3.0,2.0,None,None,None,,0,7,7,7,,,,,0,11,11,11,,,,,,,,,,,,,,,,,,,,,,,,,,,,,,,1,6.703440889999911,,,,,,,,,,,,,,,,,,,,,,,,,062119_p1,001,2019_Jun_21_1520,body_behavioural,3.0.4,60.00427158398957,
7,"“Excellent choices,” the waiter said, and he left.",3.0,2.0,None,None,None,,0,7,7,7,,,,,0,12,12,12,,,,,,,,,,,,,,,,,,,,,,,,,,,,,,,1,3.219807794994267,,,,,,,,,,,,,,,,,,,,,,,,,062119_p1,001,2019_Jun_21_1520,body_behavioural,3.0.4,60.00427158398957,
7,"“What a beautiful place, Senna. ",3.0,2.0,None,None,None,,0,7,7,7,,,,,0,13,13,13,,,,,,,,,,,,,,,,,,,,,,,,,,,,,,,9,1.852865977001784,,,,,,,,,,,,,,,,,,,,,,,,,062119_p1,001,2019_Jun_21_1520,body_behavioural,3.0.4,60.00427158398957,
7,"This is too much just to celebrate the first tomatoes I grew in the garden- really, this is absurd,” Alvira said.",3.0,2.0,None,None,None,,0,7,7,7,,,,,0,14,14,14,,,,,,,,,,,,,,,,,,,,,,,,,,,,,,,1,9.003879930001858,,,,,,,,,,,,,,,,,,,,,,,,,062119_p1,001,2019_Jun_21_1520,body_behavioural,3.0.4,60.00427158398957,
7,"Senna laughed and said, “No, those were really the best tomatoes I’ve ever had. ",3.0,2.0,None,None,None,,0,7,7,7,,,,,0,15,15,15,,,,,,,,,,,,,,,,,,,,,,,,,,,,,,,1,3.7032552500022575,,,,,,,,,,,,,,,,,,,,,,,,,062119_p1,001,2019_Jun_21_1520,body_behavioural,3.0.4,60.00427158398957,
7,We had to celebrate.” ,3.0,2.0,None,None,None,,0,7,7,7,,,,,0,16,16,16,,,,,,,,,,,,,,,,,,,,,,,,,,,,,,,1,1.1696102470014011,,,,,,,,,,,,,,,,,,,,,,,,,062119_p1,001,2019_Jun_21_1520,body_behavioural,3.0.4,60.00427158398957,
7,"They talked and laughed as the sun sank below the horizon, lighting up the sky and water, and slowly the glow from the windows was replaced by the chandeliers.",3.0,2.0,None,8.0,None,,0,7,7,7,,,,,0,17,17,17,,,,,,,,,,,,,,,,,,,,,,,,,,,,,,,9,10.37003369499871,,,,,,,,,,,,,,,,,,,,,,,,,062119_p1,001,2019_Jun_21_1520,body_behavioural,3.0.4,60.00427158398957,
7,The waiter returned with their dishes.,4.0,2.0,None,None,None,,0,7,7,7,,,,,0,18,18,18,,,,,,,,,,,,,,,,,,,,,,,,,,,,,,,1,2.403157354994619,,,,,,,,,,,,,,,,,,,,,,,,,062119_p1,001,2019_Jun_21_1520,body_behavioural,3.0.4,60.00427158398957,
7,"Everything was even more delicious than they had expected, especially the oysters, which Senna said tasted like the ocean. ",4.0,2.0,None,None,None,,0,7,7,7,,,,,0,19,19,19,,,,,,,,,,,,,,,,,,,,,,,,,,,,,,,1,5.603302210001857,,,,,,,,,,,,,,,,,,,,,,,,,062119_p1,001,2019_Jun_21_1520,body_behavioural,3.0.4,60.00427158398957,
7," As they were eating, Senna recounted to Alvira how they had met, and he told her in many words how much he loved her and what he loved about her, almost tearing up at moments. ",4.0,2.0,None,None,None,,0,7,7,7,,,,,0,20,20,20,,,,,,,,,,,,,,,,,,,,,,,,,,,,,,,9,11.184239205002086,,,,,,,,,,,,,,,,,,,,,,,,,062119_p1,001,2019_Jun_21_1520,body_behavioural,3.0.4,60.00427158398957,
7,"When they had finished eating, Senna nodded at the waiter who had been watching attentively, and he quickly strode over to place a small, elegant cake topped with the ring in front of Alvira. ",4.0,3.0,None,None,None,,0,7,7,7,,,,,0,21,21,21,,,,,,,,,,,,,,,,,,,,,,,,,,,,,,,9,23.75539617200411,,,,,,,,,,,,,,,,,,,,,,,,,062119_p1,001,2019_Jun_21_1520,body_behavioural,3.0.4,60.00427158398957,
7,Her eyes widened in shock when she realized what she was looking at.,4.0,3.0,None,None,None,,0,7,7,7,,,,,0,22,22,22,,,,,,,,,,,,,,,,,,,,,,,,,,,,,,,1,3.1033168499998283,,,,,,,,,,,,,,,,,,,,,,,,,062119_p1,001,2019_Jun_21_1520,body_behavioural,3.0.4,60.00427158398957,
7,"Senna got down on one knee and said,“Alvira, will you marry me? ",4.0,3.0,None,None,None,,0,7,7,7,,,,,0,23,23,23,,,,,,,,,,,,,,,,,,,,,,,,,,,,,,,1,5.436628704999748,,,,,,,,,,,,,,,,,,,,,,,,,062119_p1,001,2019_Jun_21_1520,body_behavioural,3.0.4,60.00427158398957,
7,"I love you, and I will never stop loving you.” ",4.0,3.0,None,None,None,,0,7,7,7,,,,,0,24,24,24,,,,,,,,,,,,,,,,,,,,,,,,,,,,,,,1,1.953145946994482,,,,,,,,,,,,,,,,,,,,,,,,,062119_p1,001,2019_Jun_21_1520,body_behavioural,3.0.4,60.00427158398957,
7,"After a few moments with everyone turned and looking at Elvira in expectation, she exclaimed, “Yes, of course, yes!”",4.0,4.0,None,None,None,,0,7,7,7,,,,,0,25,25,25,,,,,,,,,,,,,,,,,,,,,,,,,,,,,,,1,12.801002885003982,,,,,,,,,,,,,,,,,,,,,,,,,062119_p1,001,2019_Jun_21_1520,body_behavioural,3.0.4,60.00427158398957,
7,She hugged Senna with tears flowing down her cheeks. ,4.0,4.0,None,None,None,,0,7,7,7,,,,,0,26,26,26,,,,,,,,,,,,,,,,,,,,,,,,,,,,,,,1,2.2846260349979275,,,,,,,,,,,,,,,,,,,,,,,,,062119_p1,001,2019_Jun_21_1520,body_behavioural,3.0.4,60.00427158398957,
7,"The other guests exploded in applause, and the waiter returned with a bottle of champagne and popped it.",4.0,4.0,None,None,None,,0,7,7,7,,,,,0,27,27,27,,,,,,,,,,,,,,,,,,,,,,,,,,,,,,,1,8.836968307005009,,,,,,,,,,,,,,,,,,,,,,,,,062119_p1,001,2019_Jun_21_1520,body_behavioural,3.0.4,60.00427158398957,
7,Senna slipped the ring onto Alvira’s finger and she held up her hand to admire it.,4.0,4.0,None,None,None,,0,7,7,7,,,,,0,28,28,28,,,,,,,,,,,,,,,,,,,,,,,,,,,,,,,1,5.619671439999365,,,,,,,,,,,,,,,,,,,,,,,,,062119_p1,001,2019_Jun_21_1520,body_behavioural,3.0.4,60.00427158398957,
7,“I need to text my dad and tell him!” she sang. ,4.0,4.0,None,None,None,,0,7,7,7,,,,,0,29,29,29,,,,,,,,,,,,,,,,,,,,,,,,,,,,,,,9,4.653265411994653,,,,,,,,,,,,,,,,,,,,,,,,,062119_p1,001,2019_Jun_21_1520,body_behavioural,3.0.4,60.00427158398957,
7,The whole restaurant proceeded in cheers with them to celebrate the joyous occasion.  ,4.0,4.0,None,None,None,,0,7,7,7,,,,,0,30,30,30,,,,,,,,,,,,,,,,,,,,,,,,,,,,,,,1,2.0201686500004143,,,,,,,,,,,,,,,,,,,,,,,,,062119_p1,001,2019_Jun_21_1520,body_behavioural,3.0.4,60.00427158398957,
7,,,,,,,,0,7,7,7,,,,,,,,,,,,,,,,,,,,,,,,,,,,,,,,,,,,,,,,,,,,,,,,,,,,,,,,,,,,,,,,,062119_p1,001,2019_Jun_21_1520,body_behavioural,3.0.4,60.00427158398957,
,,,,,,,,,,,,,,,,,,,,,,,,,,,,,,,,,,,,,,,,,,,,,,,,,,,,2449.7271255939995,space,21.486742146000324,,,,,,,,,,,,,,,,,,,,,,062119_p1,001,2019_Jun_21_1520,body_behavioural,3.0.4,60.00427158398957,
,,,,,,,"In this next part of the experiment, please recall each story to the best of your ability.",,,,,,,,,,,,,0,0,0,0,,,,,,,,,,,,,,,,,,,,,,,,,,,,,,,,space,11.535407815004874,,,,,,,,,,,,,,,,,,,,062119_p1,001,2019_Jun_21_1520,body_behavioural,3.0.4,60.00427158398957,
,,,,,,,"You will be presented with the story title, names, the images, and a blank text box for each story.",,,,,,,,,,,,,0,1,1,1,,,,,,,,,,,,,,,,,,,,,,,,,,,,,,,,space,8.387009649995889,,,,,,,,,,,,,,,,,,,,062119_p1,001,2019_Jun_21_1520,body_behavioural,3.0.4,60.00427158398957,
,,,,,,,Describe the story indicated with as many details as you can remember in the space provided. ,,,,,,,,,,,,,0,2,2,2,,,,,,,,,,,,,,,,,,,,,,,,,,,,,,,,space,4.317613087005157,,,,,,,,,,,,,,,,,,,,062119_p1,001,2019_Jun_21_1520,body_behavioural,3.0.4,60.00427158398957,
,,,,,,,"When you are finished recalling one story, to move onto the next one, press the ‘return’ key. ",,,,,,,,,,,,,0,3,3,3,,,,,,,,,,,,,,,,,,,,,,,,,,,,,,,,space,8.120063894995837,,,,,,,,,,,,,,,,,,,,062119_p1,001,2019_Jun_21_1520,body_behavioural,3.0.4,60.00427158398957,
,,,,,,,There is a 5 minute time limit to make your response. ,,,,,,,,,,,,,0,4,4,4,,,,,,,,,,,,,,,,,,,,,,,,,,,,,,,,space,2.569526979998045,,,,,,,,,,,,,,,,,,,,062119_p1,001,2019_Jun_21_1520,body_behavioural,3.0.4,60.00427158398957,
,,,,,,,Please note that you will not be able to capitalize any letters except for the first letter of your answer. This will not effect the scoring of your recall answer.,,,,,,,,,,,,,0,5,5,5,,,,,,,,,,,,,,,,,,,,,,,,,,,,,,,,space,17.137442359999113,,,,,,,,,,,,,,,,,,,,062119_p1,001,2019_Jun_21_1520,body_behavioural,3.0.4,60.00427158398957,
0,,,,,,,,,,,,,,,,,,,,,,,,0,0,0,0,,,,,,,,,,,,,,,,,,,,,,,,,,,,,,space,1.8365417270033504,Emmanuella and liam went grocery shopping to prepare for the dinner they were hosting that night. emmanuella was trying to not break up with him at the store  because she didn't want to break up with him until after the dinner. she gets angry and bursts. she tells liam she wants to break up and that she's been thinking about it for a little while. liam agrees to the break up because he knows it would be best for the both of them. they agree to still host the dinner but not tell their friends that they've broken up. they end on good terms and even joke about who is going to keep the cat.,,,,,,,,,,,,,,,,,062119_p1,001,2019_Jun_21_1520,body_behavioural,3.0.4,60.00427158398957,
1,,,,,,,,,,,,,,,,,,,,,,,,0,1,1,1,,,,,,,,,,,,,,,,,,,,,,,,,,,,,,space,1.5675328599973,"Charlie and alma are in the same history class. alma is the ceo of her own company and charlie is an investor. charlie was excited to tell alma about how his company has agreed to invest in hers but they will only invest $27,000 first in order to test the waters. alma refuses this and says that in order for the project to go as planned they need the full investment. charlie gives in and decides they will invest the full amount and will wire her the money by the next day. all of this is happening as their teacher is giving a lecture on rome and athens.",,,,,,,,,,,,,,,,,062119_p1,001,2019_Jun_21_1520,body_behavioural,3.0.4,60.00427158398957,
2,,,,,,,,,,,,,,,,,,,,,,,,0,2,2,2,,,,,,,,,,,,,,,,,,,,,,,,,,,,,,space,2.0698796800061245,Mr. shelton and mr. gordon are both business owners. they've gone out to dinner to discuss the possibility of merging their businesses. they make some small talk as the waitress brings them their menus. they then begin to talk business and mr. shelton says he would like to buy mr. gordon's company. mr. gordon would become director of that company branch and they would leave the company as is. mr. gordon doesn't agree and says he doesn't think the company would function well by making it bigger. mr. shelton proceeds to explain to mr. gordon that he has done this in the past with small companies and tells him how much more the company would grow. he convinces mr. gordon to accept merging the companies.,,,,,,,,,,,,,,,,,062119_p1,001,2019_Jun_21_1520,body_behavioural,3.0.4,60.00427158398957,
3,,,,,,,,,,,,,,,,,,,,,,,,0,3,3,3,,,,,,,,,,,,,,,,,,,,,,,,,,,,,,space,1.7692968400006066,"Simon and carina meet at a grocery store. they're both at the meat department by all the chicken. they notice each other but both are too shy to talk to one another. carina works up the courage to talk to him and makes a joke about the chicken. they both begin to make jokes about the chicken. they reccommend recipes to one another and keep shopping together. they get in line to pay for their groceries when simon asks carina to dinner and she accepts. they agree to go on a date the next week. as their paying for their stuff, simon takes it upon himself to pay for carina's groceries and jokes about how they pretty much just went on their first date. the cashier is annoyed and rolls her eyes. carina realizes she's late to her own barbecue and simon watches her running out of the grocery store mesmerized.",,,,,,,,,,,,,,,,,062119_p1,001,2019_Jun_21_1520,body_behavioural,3.0.4,60.00427158398957,
4,,,,,,,,,,,,,,,,,,,,,,,,0,4,4,4,,,,,,,,,,,,,,,,,,,,,,,,,,,,,,space,4.80375549299788,"Calvin and jessie were on vacation in jamaica. jessie is annoyed with calvin. calvin has noticed this the entire trip but he didn't know why she was upset and he decides to do nothing about it because he doesn't know what to do. calvin makes small talk and says how the airport facilities are sub par. jessie then explodes and says she thinks they should break up for good once they get back to the states. calvin says nothing at first but then he agrees. he says she should've broken up with him before they planned the trip that way he didn't bore her anymore. he's hurt but trying not to show it. luckily, they never got their seats next to one another on the plane so they get to fly back by themselves. jessie wishes him a safe flight and tells him she wants her books back",,,,,,,,,,,,,,,,,062119_p1,001,2019_Jun_21_1520,body_behavioural,3.0.4,60.00427158398957,
5,,,,,,,,,,,,,,,,,,,,,,,,0,5,5,5,,,,,,,,,,,,,,,,,,,,,,,,,,,,,,space,2.1032025219974457,"David is at the airport waiting for his flight that doesn't take off for another 3 hours. anna runs into the airport with only 35 minutes to make her flight. david is intrigued by anna. anna notices her shoe is untied so she stops to tie it without noticing that there is someone with a cart headed her way. david decides to save anna from the cart crashing into her. she's mesmerized by the handsome stranger that has just saved her. he helps her up and offers to help her get to her gate. as their on the way, they talk about how they went to the same high school and she graduated 3 years before him. david asks her if she would like to go to dinner with him when they both get back from their trips. she accepts, gives him her business card, and runs off to her gate. anna barely makes it. she boards, finds her seat, and hugs the blanket in glee.",,,,,,,,,,,,,,,,,062119_p1,001,2019_Jun_21_1520,body_behavioural,3.0.4,60.00427158398957,
6,,,,,,,,,,,,,,,,,,,,,,,,0,6,6,6,,,,,,,,,,,,,,,,,,,,,,,,,,,,,,space,1.403500496999186,"Aaron and lana are boyfriend and girlfriend and both have the same intro to chem class. aaron has planned to propose to lana during class. he's acquired the help of his professor to propose to her. the class their in is where they had their first class together. lana doesn't suspect a thing while aaron is trying to keep his cool as the class goes on. the professor keeps lecturing about bonds and ions. at some poinst he calls lana to the front of the class. she's confused. the professor then flips to a slide that asks, will you marry me. aaron gets down on one knee and proposes. she starts crying and accepts. the whole class cheers. lana and aaron's friends have been outside this whole time and they come in to congratulate the couple. ",,,,,,,,,,,,,,,,,062119_p1,001,2019_Jun_21_1520,body_behavioural,3.0.4,60.00427158398957,
7,,,,,,,,,,,,,,,,,,,,,,,,0,7,7,7,,,,,,,,,,,,,,,,,,,,,,,,,,,,,,space,1.3179151650037966,Senns and alvira are out to dinner. they're at a very upscale restaurant. senna is planning to propose to an unsuspecting alvira. he brought her to this restaurant with the excuse of celebrating her tomatoes because he claims they are the best he's ever had. they eat and they talk. during dinner senna is recalling when they met and all the beautiful moments he's shared with her and how much he loves alvira. he then signals to the waiter who brings out a cake with a ring on it. alvira is shocked and begins to cry. senna gets down one knee and asks her to marry him. everyone is looking at them as they wait for her answer. she says yes and everybody cheers. they hug and then alvira says she has to call her dad to tell him the news.,,,,,,,,,,,,,,,,,062119_p1,001,2019_Jun_21_1520,body_behavioural,3.0.4,60.00427158398957,
,,,,,,,,,,,,,,,,,,,,,,,,,,,,,,,,,,,,,,,,,,,,,,,,,,,,,,,,,,,,4746.433234839002,space,3.8014875640001264,,,,,,,,,,,,,,062119_p1,001,2019_Jun_21_1520,body_behavioural,3.0.4,60.00427158398957,
,,,,,,,"In this last part of the experiment, please answer 8 questions about each story.",,,,,,,,,,,,,,,,,,,,,0,0,0,0,,,,,,,,,,,,,,,,,,,,,,,,,,,,,,,,space,6.904153105999285,,,,,,,,,,,,062119_p1,001,2019_Jun_21_1520,body_behavioural,3.0.4,60.00427158398957,
,,,,,,,Some of the questions are not related to the perspective you were asked to assume.,,,,,,,,,,,,,,,,,,,,,0,1,1,1,,,,,,,,,,,,,,,,,,,,,,,,,,,,,,,,space,3.7363612850022037,,,,,,,,,,,,062119_p1,001,2019_Jun_21_1520,body_behavioural,3.0.4,60.00427158398957,
,,,,,,,"We realize that we did not tell you to think of these questions during the story, but please do your best to answer them.",,,,,,,,,,,,,,,,,,,,,0,2,2,2,,,,,,,,,,,,,,,,,,,,,,,,,,,,,,,,space,5.26980433800054,,,,,,,,,,,,062119_p1,001,2019_Jun_21_1520,body_behavioural,3.0.4,60.00427158398957,
,,,,,,,"When you have finished typing your answer, hit ‘return’ to submit your answer and move onto the next question. ",,,,,,,,,,,,,,,,,,,,,0,3,3,3,,,,,,,,,,,,,,,,,,,,,,,,,,,,,,,,space,4.652900241999305,,,,,,,,,,,,062119_p1,001,2019_Jun_21_1520,body_behavioural,3.0.4,60.00427158398957,
0,,,,,,,,,,,,,,,,,,,,,,,,,,,,,,,,0,0,0,0,,,,,,,,,,,,,,,,,,,,,,,,Liam wants to keep the cat.,,,,,,space,2.069745911998325,Everything is neatly organized.,non-primed first,Pasta and olives.,There are 2 and they go to the one on the right.,They're $37 and emmanuella uses her card to pay for them.,The entire day,All they do is argue and they're not happy with each other anymore so its time they went their separate ways.,Liam does want to break up. he's almost relieved that emmanuella has brought it up. he agrees they would be happier with other people.,Liam wants to keep the cat.,062119_p1,001,2019_Jun_21_1520,body_behavioural,3.0.4,60.00427158398957,
1,,,,,,,,,,,,,,,,,,,,,,,,,,,,,,,,0,1,1,1,,,,,,,,,,,,,,,,,,,,,,,,There is a paper due the next thursday. ,,,,,,space,1.7197241149988258,Alma is a ceo and charlie is an investment developer,non-primed first,"$27,000",Capital union,A hug,There are desks in rows. ,They're in a history class. they are learning about the history of rome and athens. i think they're learning about greek history.,How old the city of rome is.,There is a paper due the next thursday. ,062119_p1,001,2019_Jun_21_1520,body_behavioural,3.0.4,60.00427158398957,
2,,,,,,,,,,,,,,,,,,,,,,,,,,,,,,,,0,2,2,2,,,,,,,,,,,,,,,,,,,,,,,,Handshake,,,,,,space,1.686734817994875,There are wooden tables and chairs. dimly lit.,non-primed first,They are big menus and they have a very extensive drink menu.,They order steak.,They don't like it. it was sub par.,They're both owners of companies.,There was  no money mentioned specifically.,There was no other industry competitor.,Handshake,062119_p1,001,2019_Jun_21_1520,body_behavioural,3.0.4,60.00427158398957,
3,,,,,,,,,,,,,,,,,,,,,,,,,,,,,,,,0,3,3,3,,,,,,,,,,,,,,,,,,,,,,,,Simon puts it all on his card.,,,,,,space,1.7198119199965731,A chicken,non-primed first,That one's cute isn't it,The following saturday and they're going to tour hamilton square and get food around there.,Four thirty,Brightly lit,"Chicken, peppers",There's one lane that is open.,Simon puts it all on his card.,062119_p1,001,2019_Jun_21_1520,body_behavioural,3.0.4,60.00427158398957,
4,,,,,,,,,,,,,,,,,,,,,,,,,,,,,,,,0,4,4,4,,,,,,,,,,,,,,,,,,,,,,,,Jessie wants three books back,,,,,,space,1.2366970919974847,40 minutes,primed first,The security are switching shifts,The gate at the back,Calvin sits in 33f and jessie sits in 33a,Jessie's been wanting to break up for 6 months,They don't have compatible personalities,Calvin doesn't want to break up. he reluctantly agrees and  says he doesn't want to bore jessie anymore,Jessie wants three books back,062119_p1,001,2019_Jun_21_1520,body_behavioural,3.0.4,60.00427158398957,
,,,,,,,,,,,,,,,,,,,,,,,,,,,,,,,,,,,,,,,,,,,,,,,,,,,,,,,,,,,Next tuesday ,,,,,,space,0.9198697050014744,David is holding a book when he notices anna.,primed first,Were you a gymnast,Next tuesday ,,,,,,,,,,,,
