count,storyText,locationEvent,socialEvent,story,locationEventSize,socialEventSize,instructText,trials.thisRepN,trials.thisTrialN,trials.thisN,trials.thisIndex,trials_7.thisRepN,trials_7.thisTrialN,trials_7.thisN,trials_7.thisIndex,trials_2.thisRepN,trials_2.thisTrialN,trials_2.thisN,trials_2.thisIndex,trials_3.thisRepN,trials_3.thisTrialN,trials_3.thisN,trials_3.thisIndex,trials_4.thisRepN,trials_4.thisTrialN,trials_4.thisN,trials_4.thisIndex,trials_5.thisRepN,trials_5.thisTrialN,trials_5.thisN,trials_5.thisIndex,trials_6.thisRepN,trials_6.thisTrialN,trials_6.thisN,trials_6.thisIndex,trials_8.thisRepN,trials_8.thisTrialN,trials_8.thisN,trials_8.thisIndex,order of stories,order of perspectives,key_resp_8.keys,key_resp_8.rt,key_resp_5.keys,key_resp_5.rt,key_resp_7.keys,key_resp_7.rt,key_resp_15.keys,key_resp_15.rt,key_resp_14.keys,key_resp_14.rt,story_presses.keys,story_presses.rt,story time,key_resp_6.keys,key_resp_6.rt,key_resp_2.keys,key_resp_2.rt,key_resp_10.keys,key_resp_10.rt,recall,recall time,key_resp_12.keys,key_resp_12.rt,key_resp_3.keys,key_resp_3.rt,key_resp_11.keys,key_resp_11.rt,question1_answer,order of question,question2_answer,question3_answer,question4_answer,question5_answer,question6_answer,question7_answer,question8_answer,questions time,key_resp_13.keys,key_resp_13.rt,participant,session,date,expName,psychopyVersion,frameRate,
0,,,,,,,,0,0,0,0,0,0,0,0,,,,,,,,,,,,,,,,,,,,,,,,,[41 44 21 33 13 12 24 32],"['Social' 'Location' 'Location' 'Location' 'Social' 'Location' 'Social'
 'Social']",space,5.489029699005187,space,2.520614604000002,space,7.636820718005765,,,,,,,,,,,,,,,,,,,,,,,,,,,,,,,,,,062419_p1,001,2019_Jun_24_1520,body_behavioural,3.0.4,60.091727138208064,
0,"James noticed Teresa immediately as she walked into the restaurant - or, more accurately, as she attempted to walk into the restaurant. ",1,1,41.0,,,,0,0,0,0,,,,,0,0,0,0,,,,,,,,,,,,,,,,,,,,,,,,,,,,,space,1.4864724640065106,space,2.087092688001576,9,28.055242382004508,,,,,,,,,,,,,,,,,,,,,,,,,,,,062419_p1,001,2019_Jun_24_1520,body_behavioural,3.0.4,60.091727138208064,
0,She was typing intently on her phone and ran straight into the restaurant’s glass door with a painful thud. ,1,1,None,,,,0,0,0,0,,,,,0,1,1,1,,,,,,,,,,,,,,,,,,,,,,,,,,,,,,,,,1,6.983828259995789,,,,,,,,,,,,,,,,,,,,,,,,,,,,062419_p1,001,2019_Jun_24_1520,body_behavioural,3.0.4,60.091727138208064,
0,Everyone waiting around the cash register turned.,1,1,None,,,,0,0,0,0,,,,,0,2,2,2,,,,,,,,,,,,,,,,,,,,,,,,,,,,,,,,,1,3.452988990000449,,,,,,,,,,,,,,,,,,,,,,,,,,,,062419_p1,001,2019_Jun_24_1520,body_behavioural,3.0.4,60.091727138208064,
0,Teresa rubbed her head and put her phone away. ,1,1,None,,,,0,0,0,0,,,,,0,3,3,3,,,,,,,,,,,,,,,,,,,,,,,,,,,,,,,,,1,2.202525450004032,,,,,,,,,,,,,,,,,,,,,,,,,,,,062419_p1,001,2019_Jun_24_1520,body_behavioural,3.0.4,60.091727138208064,
0,She looked somewhat confused but primarily indignant that the door had been in her way. ,1,1,None,,,,0,0,0,0,,,,,0,4,4,4,,,,,,,,,,,,,,,,,,,,,,,,,,,,,,,,,1,3.786222064998583,,,,,,,,,,,,,,,,,,,,,,,,,,,,062419_p1,001,2019_Jun_24_1520,body_behavioural,3.0.4,60.091727138208064,
0,"James found this quite charming and stole a couple glances at her, peeking up from the newspaper he was holding, until she noticed and wrinkled her eyebrows at him. ",1,1,None,,,,0,0,0,0,,,,,0,5,5,5,,,,,,,,,,,,,,,,,,,,,,,,,,,,,,,,,1,10.037052132000099,,,,,,,,,,,,,,,,,,,,,,,,,,,,062419_p1,001,2019_Jun_24_1520,body_behavioural,3.0.4,60.091727138208064,
0,James and Teresa had both chosen the least busy time to try out Atlanta’s newest sushi restaurant.  ,1,1,None,,,,0,0,0,0,,,,,0,6,6,6,,,,,,,,,,,,,,,,,,,,,,,,,,,,,,,,,1,6.404142184997909,,,,,,,,,,,,,,,,,,,,,,,,,,,,062419_p1,001,2019_Jun_24_1520,body_behavioural,3.0.4,60.091727138208064,
0,It was notable for both the food and the decor. ,1,1,None,,,,0,0,0,0,,,,,0,7,7,7,,,,,,,,,,,,,,,,,,,,,,,,,,,,,,,,,1,3.803180301998509,,,,,,,,,,,,,,,,,,,,,,,,,,,,062419_p1,001,2019_Jun_24_1520,body_behavioural,3.0.4,60.091727138208064,
0,"There were pine wood countertops and chairs, plants all along the sides of the walls, and branch-looking structures hanging from the ceiling. ",1,1,None,,,,0,0,0,0,,,,,0,8,8,8,,,,,,,,,,,,,,,,,,,,,,,,,,,,,,,,,9,10.970976105003501,,,,,,,,,,,,,,,,,,,,,,,,,,,,062419_p1,001,2019_Jun_24_1520,body_behavioural,3.0.4,60.091727138208064,
0,"The host sat James and Teresa, who were both dining alone, at the bar. ",2,1,None,,,,0,0,0,0,,,,,0,9,9,9,,,,,,,,,,,,,,,,,,,,,,,,,,,,,,,,,9,9.086636932988768,,,,,,,,,,,,,,,,,,,,,,,,,,,,062419_p1,001,2019_Jun_24_1520,body_behavioural,3.0.4,60.091727138208064,
0,They sat a seat apart from each other on the bench.,2,1,None,,,,0,0,0,0,,,,,0,10,10,10,,,,,,,,,,,,,,,,,,,,,,,,,,,,,,,,,1,25.78580327099189,,,,,,,,,,,,,,,,,,,,,,,,,,,,062419_p1,001,2019_Jun_24_1520,body_behavioural,3.0.4,60.091727138208064,
0,"The waitress behind the counter gave them bright neon menus that were filled with entrees in Japanese with small, English translations. ",2,1,None,,,,0,0,0,0,,,,,0,11,11,11,,,,,,,,,,,,,,,,,,,,,,,,,,,,,,,,,1,6.203263221002999,,,,,,,,,,,,,,,,,,,,,,,,,,,,062419_p1,001,2019_Jun_24_1520,body_behavioural,3.0.4,60.091727138208064,
0,James quickly glanced through it while Teresa took a longer time. ,2,1,None,,,,0,0,0,0,,,,,0,12,12,12,,,,,,,,,,,,,,,,,,,,,,,,,,,,,,,,,1,3.8525604140013456,,,,,,,,,,,,,,,,,,,,,,,,,,,,062419_p1,001,2019_Jun_24_1520,body_behavioural,3.0.4,60.091727138208064,
0,"A few minutes passed before, James turned to Teresa and asked, “Is your forehead alright?”",2,2,None,,,,0,0,0,0,,,,,0,13,13,13,,,,,,,,,,,,,,,,,,,,,,,,,,,,,,,,,1,6.219422964000842,,,,,,,,,,,,,,,,,,,,,,,,,,,,062419_p1,001,2019_Jun_24_1520,body_behavioural,3.0.4,60.091727138208064,
0,She turned to him and smirked.,2,2,None,,,,0,0,0,0,,,,,0,14,14,14,,,,,,,,,,,,,,,,,,,,,,,,,,,,,,,,,1,6.019412077992456,,,,,,,,,,,,,,,,,,,,,,,,,,,,062419_p1,001,2019_Jun_24_1520,body_behavioural,3.0.4,60.091727138208064,
0,“Have you ever been stung by a scorpion?” she asked him.,2,2,None,,,,0,0,0,0,,,,,0,15,15,15,,,,,,,,,,,,,,,,,,,,,,,,,,,,,,,,,9,2.9855653770064237,,,,,,,,,,,,,,,,,,,,,,,,,,,,062419_p1,001,2019_Jun_24_1520,body_behavioural,3.0.4,60.091727138208064,
0,“What?” he responded confusedly.,2,2,None,,,,0,0,0,0,,,,,0,16,16,16,,,,,,,,,,,,,,,,,,,,,,,,,,,,,,,,,9,1.2864345600100933,,,,,,,,,,,,,,,,,,,,,,,,,,,,062419_p1,001,2019_Jun_24_1520,body_behavioural,3.0.4,60.091727138208064,
0, “A scorpion.”,2,2,None,,,,0,0,0,0,,,,,0,17,17,17,,,,,,,,,,,,,,,,,,,,,,,,,,,,,,,,,1,5.736710056997254,,,,,,,,,,,,,,,,,,,,,,,,,,,,062419_p1,001,2019_Jun_24_1520,body_behavioural,3.0.4,60.091727138208064,
0,James began to worry that Teresa had possibly suffered a concussion in the door crash.,2,2,None,,,,0,0,0,0,,,,,0,18,18,18,,,,,,,,,,,,,,,,,,,,,,,,,,,,,,,,,1,5.236006143997656,,,,,,,,,,,,,,,,,,,,,,,,,,,,062419_p1,001,2019_Jun_24_1520,body_behavioural,3.0.4,60.091727138208064,
0,"“Uh no, why?” he asked.",2,2,None,,,,0,0,0,0,,,,,0,19,19,19,,,,,,,,,,,,,,,,,,,,,,,,,,,,,,,,,1,2.252614123004605,,,,,,,,,,,,,,,,,,,,,,,,,,,,062419_p1,001,2019_Jun_24_1520,body_behavioural,3.0.4,60.091727138208064,
0,"“Because I’ve been stung by one, and since then, things like bumping into doors seem like pretty small potatoes.” ",2,2,None,,,,0,0,0,0,,,,,0,20,20,20,,,,,,,,,,,,,,,,,,,,,,,,,,,,,,,,,1,6.937840935992426,,,,,,,,,,,,,,,,,,,,,,,,,,,,062419_p1,001,2019_Jun_24_1520,body_behavioural,3.0.4,60.091727138208064,
0,"They carried on talking, and Teresa told him all about her encounter with a Deathstalker scorpion while she was studying abroad in Egypt.",2,2,None,,,,0,0,0,0,,,,,0,21,21,21,,,,,,,,,,,,,,,,,,,,,,,,,,,,,,,,,1,5.202931149004144,,,,,,,,,,,,,,,,,,,,,,,,,,,,062419_p1,001,2019_Jun_24_1520,body_behavioural,3.0.4,60.091727138208064,
0,"The waitress behind the counter came up to them and asked, “Are you ready for your order?” ",3,2,None,,,,0,0,0,0,,,,,0,22,22,22,,,,,,,,,,,,,,,,,,,,,,,,,,,,,,,,,1,4.070458008005517,,,,,,,,,,,,,,,,,,,,,,,,,,,,062419_p1,001,2019_Jun_24_1520,body_behavioural,3.0.4,60.091727138208064,
0,"She first looked at Teresa who answered, “Yes, I’ll have a salmon roll and a Japanese beer.”",3,2,None,,,,0,0,0,0,,,,,0,23,23,23,,,,,,,,,,,,,,,,,,,,,,,,,,,,,,,,,1,5.419791680003982,,,,,,,,,,,,,,,,,,,,,,,,,,,,062419_p1,001,2019_Jun_24_1520,body_behavioural,3.0.4,60.091727138208064,
0,Then the waitress turned to James.,3,2,None,,,,0,0,0,0,,,,,0,24,24,24,,,,,,,,,,,,,,,,,,,,,,,,,,,,,,,,,1,1.5505801520048408,,,,,,,,,,,,,,,,,,,,,,,,,,,,062419_p1,001,2019_Jun_24_1520,body_behavioural,3.0.4,60.091727138208064,
0,"He said, “I’ll have a tuna roll and a vegetable roll.” ",3,2,None,,,,0,0,0,0,,,,,0,25,25,25,,,,,,,,,,,,,,,,,,,,,,,,,,,,,,,,,1,5.103867502999492,,,,,,,,,,,,,,,,,,,,,,,,,,,,062419_p1,001,2019_Jun_24_1520,body_behavioural,3.0.4,60.091727138208064,
0,"“Alright, thank you!” the waitress said.",3,2,None,,,,0,0,0,0,,,,,0,26,26,26,,,,,,,,,,,,,,,,,,,,,,,,,,,,,,,,,1,2.5702863600017736,,,,,,,,,,,,,,,,,,,,,,,,,,,,062419_p1,001,2019_Jun_24_1520,body_behavioural,3.0.4,60.091727138208064,
0,"James and Teresa talked about a concert James was going to that night, and he suddenly and nervously invited her to come along.",3,3,None,,,,0,0,0,0,,,,,0,27,27,27,,,,,,,,,,,,,,,,,,,,,,,,,,,,,,,,,9,10.970506048004609,,,,,,,,,,,,,,,,,,,,,,,,,,,,062419_p1,001,2019_Jun_24_1520,body_behavioural,3.0.4,60.091727138208064,
0,He promised her that the concert would be indoors and absolutely free of venomous insects.,3,3,None,,,,0,0,0,0,,,,,0,28,28,28,,,,,,,,,,,,,,,,,,,,,,,,,,,,,,,,,1,3.369248206989141,,,,,,,,,,,,,,,,,,,,,,,,,,,,062419_p1,001,2019_Jun_24_1520,body_behavioural,3.0.4,60.091727138208064,
0,"Teresa agreed, gave him her number, and they worked out that James would pick her up that evening before the concert and drive them there.",3,3,None,,,,0,0,0,0,,,,,0,29,29,29,,,,,,,,,,,,,,,,,,,,,,,,,,,,,,,,,1,6.318473551000352,,,,,,,,,,,,,,,,,,,,,,,,,,,,062419_p1,001,2019_Jun_24_1520,body_behavioural,3.0.4,60.091727138208064,
0,"This was not what they had expected from their solitary lunch plans and were both excited, even though Teresa was doing a much better job of hiding it than James. ",3,3,None,,,,0,0,0,0,,,,,0,30,30,30,,,,,,,,,,,,,,,,,,,,,,,,,,,,,,,,,1,6.167380754995975,,,,,,,,,,,,,,,,,,,,,,,,,,,,062419_p1,001,2019_Jun_24_1520,body_behavioural,3.0.4,60.091727138208064,
0,"The waitress brought out their food, placing the plates close to each other so James had to sit closer to Teresa on the bench. ",4,3,None,,,,0,0,0,0,,,,,0,31,31,31,,,,,,,,,,,,,,,,,,,,,,,,,,,,,,,,,9,8.720636647005449,,,,,,,,,,,,,,,,,,,,,,,,,,,,062419_p1,001,2019_Jun_24_1520,body_behavioural,3.0.4,60.091727138208064,
0,Teresa was happy to share the meal with James. ,4,3,None,,,,0,0,0,0,,,,,0,32,32,32,,,,,,,,,,,,,,,,,,,,,,,,,,,,,,,,,1,4.186616331993719,,,,,,,,,,,,,,,,,,,,,,,,,,,,062419_p1,001,2019_Jun_24_1520,body_behavioural,3.0.4,60.091727138208064,
0,They really enjoyed their rolls because the fish tasted very fresh. ,4,3,None,,,,0,0,0,0,,,,,0,33,33,33,,,,,,,,,,,,,,,,,,,,,,,,,,,,,,,,,1,2.0681567510036984,,,,,,,,,,,,,,,,,,,,,,,,,,,,062419_p1,001,2019_Jun_24_1520,body_behavioural,3.0.4,60.091727138208064,
0,"James looked at his watch and seeing that it was 3pm said, “I have to run- got to finish some errands before the show.”",4,4,None,,,,0,0,0,0,,,,,0,34,34,34,,,,,,,,,,,,,,,,,,,,,,,,,,,,,,,,,1,4.868232737004291,,,,,,,,,,,,,,,,,,,,,,,,,,,,062419_p1,001,2019_Jun_24_1520,body_behavioural,3.0.4,60.091727138208064,
0,See you tonight and watch out for that door!”,4,4,None,,,,0,0,0,0,,,,,0,35,35,35,,,,,,,,,,,,,,,,,,,,,,,,,,,,,,,,,1,2.6704567250126274,,,,,,,,,,,,,,,,,,,,,,,,,,,,062419_p1,001,2019_Jun_24_1520,body_behavioural,3.0.4,60.091727138208064,
0,,,,,,,,0,0,0,0,,,,,,,,,,,,,,,,,,,,,,,,,,,,,,,,,,,,,,,,,,,,,,,,,,,,,,,,,,,,,,,,,,,,,,062419_p1,001,2019_Jun_24_1520,body_behavioural,3.0.4,60.091727138208064,
1,,,,,,,,0,1,1,1,0,0,0,0,,,,,,,,,,,,,,,,,,,,,,,,,,,space,2.086333947008825,space,24.772038089999114,space,1.9868275970075047,,,,,,,,,,,,,,,,,,,,,,,,,,,,,,,,,,062419_p1,001,2019_Jun_24_1520,body_behavioural,3.0.4,60.091727138208064,
1,"Ariana hurried into the classroom, and Leon did a double-take when he saw her, almost dropping the eraser he had in his hand. ",1.0,1.0,44.0,,,,0,1,1,1,,,,,0,0,0,0,,,,,,,,,,,,,,,,,,,,,,,,,,,,,space,1.336614155996358,space,1.2032185999996727,9,13.373046222011908,,,,,,,,,,,,,,,,,,,,,,,,,,,,062419_p1,001,2019_Jun_24_1520,body_behavioural,3.0.4,60.091727138208064,
1,"This was his first day in college, and he had assumed that he wouldn’t know anyone on campus, but he had a strong feeling that he had seen her somewhere before. ",1.0,1.0,None,,,,0,1,1,1,,,,,0,1,1,1,,,,,,,,,,,,,,,,,,,,,,,,,,,,,,,,,1,5.453417401004117,,,,,,,,,,,,,,,,,,,,,,,,,,,,062419_p1,001,2019_Jun_24_1520,body_behavioural,3.0.4,60.091727138208064,
1,They were in a small classroom with rows of chairs with foldable desks.,1.0,1.0,None,,,,0,1,1,1,,,,,0,2,2,2,,,,,,,,,,,,,,,,,,,,,,,,,,,,,,,,,1,2.7838943420065334,,,,,,,,,,,,,,,,,,,,,,,,,,,,062419_p1,001,2019_Jun_24_1520,body_behavioural,3.0.4,60.091727138208064,
1,These faced the speaker’s podium and a blackboard on wheels. ,None,None,None,,,,0,1,1,1,,,,,0,3,3,3,,,,,,,,,,,,,,,,,,,,,,,,,,,,,,,,,1,2.037199671001872,,,,,,,,,,,,,,,,,,,,,,,,,,,,062419_p1,001,2019_Jun_24_1520,body_behavioural,3.0.4,60.091727138208064,
1,"There were no windows in the room, since they were down in the basement of the History Department.",1.0,1.0,None,,,,0,1,1,1,,,,,0,4,4,4,,,,,,,,,,,,,,,,,,,,,,,,,,,,,,,,,1,3.387625286995899,,,,,,,,,,,,,,,,,,,,,,,,,,,,062419_p1,001,2019_Jun_24_1520,body_behavioural,3.0.4,60.091727138208064,
1,"Leon, trying to figure out where he had seen her before, could not stop looking over at Ariana.",1.0,1.0,None,,,,0,1,1,1,,,,,0,5,5,5,,,,,,,,,,,,,,,,,,,,,,,,,,,,,,,,,1,2.500492357008625,,,,,,,,,,,,,,,,,,,,,,,,,,,,062419_p1,001,2019_Jun_24_1520,body_behavioural,3.0.4,60.091727138208064,
1,Ariana was oblivious to Leon’s gaze and was only focused on getting ready for class. ,1.0,1.0,None,,,,0,1,1,1,,,,,0,6,6,6,,,,,,,,,,,,,,,,,,,,,,,,,,,,,,,,,1,2.2861558300064644,,,,,,,,,,,,,,,,,,,,,,,,,,,,062419_p1,001,2019_Jun_24_1520,body_behavioural,3.0.4,60.091727138208064,
1,"“Good morning, everyone,” the professor began.",2.0,1.0,None,,,,0,1,1,1,,,,,0,7,7,7,,,,,,,,,,,,,,,,,,,,,,,,,,,,,,,,,9,4.536661516001914,,,,,,,,,,,,,,,,,,,,,,,,,,,,062419_p1,001,2019_Jun_24_1520,body_behavioural,3.0.4,60.091727138208064,
1,“Welcome to History of Egypt. ,2.0,1.0,None,,,,0,1,1,1,,,,,0,8,8,8,,,,,,,,,,,,,,,,,,,,,,,,,,,,,,,,,1,1.8867319150012918,,,,,,,,,,,,,,,,,,,,,,,,,,,,062419_p1,001,2019_Jun_24_1520,body_behavioural,3.0.4,60.091727138208064,
1,"Today we will be talking about mummification, one of the most famous and often misunderstood customs in ancient Egyptian society.”",2.0,1.0,None,,,,0,1,1,1,,,,,0,9,9,9,,,,,,,,,,,,,,,,,,,,,,,,,,,,,,,,,1,5.669845787007944,,,,,,,,,,,,,,,,,,,,,,,,,,,,062419_p1,001,2019_Jun_24_1520,body_behavioural,3.0.4,60.091727138208064,
1,Leon and Ariana began taking notes. ,2.0,1.0,None,,,,0,1,1,1,,,,,0,10,10,10,,,,,,,,,,,,,,,,,,,,,,,,,,,,,,,,,1,1.920080052994308,,,,,,,,,,,,,,,,,,,,,,,,,,,,062419_p1,001,2019_Jun_24_1520,body_behavioural,3.0.4,60.091727138208064,
1,"Within a few minutes, Leon found his attention wandering from the lecture and back to Ariana, and he decided to do something about it by putting a note on her desk.",2.0,2.0,None,,,,0,1,1,1,,,,,0,11,11,11,,,,,,,,,,,,,,,,,,,,,,,,,,,,,,,,,9,8.88756164201186,,,,,,,,,,,,,,,,,,,,,,,,,,,,062419_p1,001,2019_Jun_24_1520,body_behavioural,3.0.4,60.091727138208064,
1,"“Are you from LA?” it read, “Sorry to distract you from mummies, but you look really familiar.”",2.0,2.0,None,,,,0,1,1,1,,,,,0,12,12,12,,,,,,,,,,,,,,,,,,,,,,,,,,,,,,,,,1,3.6530981810064986,,,,,,,,,,,,,,,,,,,,,,,,,,,,062419_p1,001,2019_Jun_24_1520,body_behavioural,3.0.4,60.091727138208064,
1,"She looked at the note with surprise, and then turned to notice Leon for the first time. ",2.0,2.0,None,,,,0,1,1,1,,,,,0,13,13,13,,,,,,,,,,,,,,,,,,,,,,,,,,,,,,,,,1,3.220520975999534,,,,,,,,,,,,,,,,,,,,,,,,,,,,062419_p1,001,2019_Jun_24_1520,body_behavioural,3.0.4,60.091727138208064,
1,She instantly liked him when she saw him.,2.0,2.0,None,,,,0,1,1,1,,,,,0,14,14,14,,,,,,,,,,,,,,,,,,,,,,,,,,,,,,,,,1,2.8863622039934853,,,,,,,,,,,,,,,,,,,,,,,,,,,,062419_p1,001,2019_Jun_24_1520,body_behavioural,3.0.4,60.091727138208064,
1,She thought he looked trustworthy and genuine.,2.0,2.0,None,,,,0,1,1,1,,,,,0,15,15,15,,,,,,,,,,,,,,,,,,,,,,,,,,,,,,,,,1,1.9200015050009824,,,,,,,,,,,,,,,,,,,,,,,,,,,,062419_p1,001,2019_Jun_24_1520,body_behavioural,3.0.4,60.091727138208064,
1,"Ariana passed the note back to Leon, and she had replied, “No, but maybe my twin and I were separated at birth.”",2.0,2.0,None,,,,0,1,1,1,,,,,0,16,16,16,,,,,,,,,,,,,,,,,,,,,,,,,,,,,,,,,1,7.22054860201024,,,,,,,,,,,,,,,,,,,,,,,,,,,,062419_p1,001,2019_Jun_24_1520,body_behavioural,3.0.4,60.091727138208064,
1,"The professor continued, “One may well question why the ancient Egyptians spent so much time and effort on their funerary practices.",3.0,2.0,None,,,,0,1,1,1,,,,,0,17,17,17,,,,,,,,,,,,,,,,,,,,,,,,,,,,,,,,,1,5.400879082997562,,,,,,,,,,,,,,,,,,,,,,,,,,,,062419_p1,001,2019_Jun_24_1520,body_behavioural,3.0.4,60.091727138208064,
1,"Not only was the mummification process itself a complicated affair, but there were also elaborate rituals before, during, and after death.",3.0,2.0,None,,,,0,1,1,1,,,,,0,18,18,18,,,,,,,,,,,,,,,,,,,,,,,,,,,,,,,,,1,3.736735492988373,,,,,,,,,,,,,,,,,,,,,,,,,,,,062419_p1,001,2019_Jun_24_1520,body_behavioural,3.0.4,60.091727138208064,
1,The practice required teams of experts with years of training and took a total of 70 days to complete.” ,3.0,2.0,None,,,,0,1,1,1,,,,,0,19,19,19,,,,,,,,,,,,,,,,,,,,,,,,,,,,,,,,,1,3.5866516859969124,,,,,,,,,,,,,,,,,,,,,,,,,,,,062419_p1,001,2019_Jun_24_1520,body_behavioural,3.0.4,60.091727138208064,
1,"They passed notes back and forth the whole class like they were in high school, and Leon wrote in one, “Would you like to go on a walk this evening?”",3.0,3.0,None,,,,0,1,1,1,,,,,0,20,20,20,,,,,,,,,,,,,,,,,,,,,,,,,,,,,,,,,1,5.320418572999188,,,,,,,,,,,,,,,,,,,,,,,,,,,,062419_p1,001,2019_Jun_24_1520,body_behavioural,3.0.4,60.091727138208064,
1,"When Ariana read this, she looked at him and nodded her head",3.0,3.0,None,,,,0,1,1,1,,,,,0,21,21,21,,,,,,,,,,,,,,,,,,,,,,,,,,,,,,,,,1,1.9704020700010005,,,,,,,,,,,,,,,,,,,,,,,,,,,,062419_p1,001,2019_Jun_24_1520,body_behavioural,3.0.4,60.091727138208064,
1,"She wrote back on the slip of paper, “Let’s meet at 8 in front of my dorm, Patton Hall.”",3.0,3.0,None,,,,0,1,1,1,,,,,0,22,22,22,,,,,,,,,,,,,,,,,,,,,,,,,,,,,,,,,1,7.920355708003626,,,,,,,,,,,,,,,,,,,,,,,,,,,,062419_p1,001,2019_Jun_24_1520,body_behavioural,3.0.4,60.091727138208064,
1,The professor ended the lecture and announced to the class that they would have their first quiz next class on Friday on mummification. ,4.0,3.0,None,,,,0,1,1,1,,,,,0,23,23,23,,,,,,,,,,,,,,,,,,,,,,,,,,,,,,,,,1,3.687124300005962,,,,,,,,,,,,,,,,,,,,,,,,,,,,062419_p1,001,2019_Jun_24_1520,body_behavioural,3.0.4,60.091727138208064,
1,Everyone packed up and filed out of the classroom except for Ariana and Leon. ,4.0,3.0,None,,,,0,1,1,1,,,,,0,24,24,24,,,,,,,,,,,,,,,,,,,,,,,,,,,,,,,,,1,2.1338623780029593,,,,,,,,,,,,,,,,,,,,,,,,,,,,062419_p1,001,2019_Jun_24_1520,body_behavioural,3.0.4,60.091727138208064,
1,"Ariana spoke first, “I have to go to my next class.”",4.0,4.0,None,,,,0,1,1,1,,,,,0,25,25,25,,,,,,,,,,,,,,,,,,,,,,,,,,,,,,,,,9,2.970023514004424,,,,,,,,,,,,,,,,,,,,,,,,,,,,062419_p1,001,2019_Jun_24_1520,body_behavioural,3.0.4,60.091727138208064,
1,"She looked at the clock which read noon and headed for the door saying, “I should run, but I’ll see you later tonight!” ",4.0,4.0,None,,,,0,1,1,1,,,,,0,26,26,26,,,,,,,,,,,,,,,,,,,,,,,,,,,,,,,,,1,4.4538429450039985,,,,,,,,,,,,,,,,,,,,,,,,,,,,062419_p1,001,2019_Jun_24_1520,body_behavioural,3.0.4,60.091727138208064,
1,"She waved as she ran out the door, and Leon was still pondering where he had known her before, even more convinced that they had met before having heard her voice.",4.0,4.0,None,,,,0,1,1,1,,,,,0,27,27,27,,,,,,,,,,,,,,,,,,,,,,,,,,,,,,,,,1,8.736116817992297,,,,,,,,,,,,,,,,,,,,,,,,,,,,062419_p1,001,2019_Jun_24_1520,body_behavioural,3.0.4,60.091727138208064,
1,,,,,,,,0,1,1,1,,,,,,,,,,,,,,,,,,,,,,,,,,,,,,,,,,,,,,,,,,,,,,,,,,,,,,,,,,,,,,,,,,,,,,062419_p1,001,2019_Jun_24_1520,body_behavioural,3.0.4,60.091727138208064,
2,,,,,,,,0,2,2,2,0,0,0,0,,,,,,,,,,,,,,,,,,,,,,,,,,,space,3.3704346809972776,space,0.7697602770058438,space,1.6203061580017675,,,,,,,,,,,,,,,,,,,,,,,,,,,,,,,,,,062419_p1,001,2019_Jun_24_1520,body_behavioural,3.0.4,60.091727138208064,
2,"Alvira and Senna walked into the restaurant hand in sweaty hand with quite different expectations for the night because Senna, after 5 years of dating, was going to propose, and Alvira had no idea.",1.0,1.0,21.0,None,None,,0,2,2,2,,,,,0,0,0,0,,,,,,,,,,,,,,,,,,,,,,,,,,,,,space,3.885071746990434,space,0.7539316759939538,9,18.80413614300778,,,,,,,,,,,,,,,,,,,,,,,,,,,,062419_p1,001,2019_Jun_24_1520,body_behavioural,3.0.4,60.091727138208064,
2,"He took a deep breath, trying to calm his nerves as worst case scenarios ran through his mind. ",1.0,1.0,None,None,None,,0,2,2,2,,,,,0,1,1,1,,,,,,,,,,,,,,,,,,,,,,,,,,,,,,,,,1,3.05323259299621,,,,,,,,,,,,,,,,,,,,,,,,,,,,062419_p1,001,2019_Jun_24_1520,body_behavioural,3.0.4,60.091727138208064,
2,The restaurant was on the beach and had floor-to-ceiling arched windows that framed an incredible view of the Pacific Ocean.,1.0,1.0,None,None,None,,0,2,2,2,,,,,0,2,2,2,,,,,,,,,,,,,,,,,,,,,,,,,,,,,,,,,1,9.071062728005927,,,,,,,,,,,,,,,,,,,,,,,,,,,,062419_p1,001,2019_Jun_24_1520,body_behavioural,3.0.4,60.091727138208064,
2,"Besides the view, the restaurant itself was beautiful- crystal chandeliers hung from the high ceiling above small tables covered with white table clothes.
",1.0,1.0,None,None,None,,0,2,2,2,,,,,0,3,3,3,,,,,,,,,,,,,,,,,,,,,,,,,,,,,,,,,1,4.770290343993111,,,,,,,,,,,,,,,,,,,,,,,,,,,,062419_p1,001,2019_Jun_24_1520,body_behavioural,3.0.4,60.091727138208064,
2,This was surely one of the best restaurants on the West Coast.,1.0,1.0,None,None,None,,0,2,2,2,,,,,0,4,4,4,,,,,,,,,,,,,,,,,,,,,,,,,,,,,,,,,1,1.4373467139957938,,,,,,,,,,,,,,,,,,,,,,,,,,,,062419_p1,001,2019_Jun_24_1520,body_behavioural,3.0.4,60.091727138208064,
2,"After Senna gave his name to the host, who discretely winked at Senna, they were seated at a table right by the window. ",2.0,1.0,None,7.0,None,,0,2,2,2,,,,,0,5,5,5,,,,,,,,,,,,,,,,,,,,,,,,,,,,,,,,,9,7.002602893000585,,,,,,,,,,,,,,,,,,,,,,,,,,,,062419_p1,001,2019_Jun_24_1520,body_behavioural,3.0.4,60.091727138208064,
2,The waiter brought out some very small menus.,2.0,1.0,None,None,9.0,,0,2,2,2,,,,,0,6,6,6,,,,,,,,,,,,,,,,,,,,,,,,,,,,,,,,,1,1.986237784003606,,,,,,,,,,,,,,,,,,,,,,,,,,,,062419_p1,001,2019_Jun_24_1520,body_behavioural,3.0.4,60.091727138208064,
2,"They consisted of a short list of the head chef's carefully selected daily dishes written in a loopy, cursive font unadorned by any mention of prices.",None,None,None,None,None,,0,2,2,2,,,,,0,7,7,7,,,,,,,,,,,,,,,,,,,,,,,,,,,,,,,,,1,8.519974782000645,,,,,,,,,,,,,,,,,,,,,,,,,,,,062419_p1,001,2019_Jun_24_1520,body_behavioural,3.0.4,60.091727138208064,
2,"Senna got nervous about the ring, and he slipped off to the bathroom to check to make sure it looked alright.",2.0,2.0,None,None,None,,0,2,2,2,,,,,0,8,8,8,,,,,,,,,,,,,,,,,,,,,,,,,,,,,,,,,1,3.619744751995313,,,,,,,,,,,,,,,,,,,,,,,,,,,,062419_p1,001,2019_Jun_24_1520,body_behavioural,3.0.4,60.091727138208064,
2,The ring contained three canary yellow diamonds that had been in his grandmother’s wedding ring. ,2.0,2.0,None,None,None,,0,2,2,2,,,,,0,9,9,9,,,,,,,,,,,,,,,,,,,,,,,,,,,,,,,,,1,5.637767152002198,,,,,,,,,,,,,,,,,,,,,,,,,,,,062419_p1,001,2019_Jun_24_1520,body_behavioural,3.0.4,60.091727138208064,
2,"After Senna had gotten back to the table, the waiter appeared at their table to take their order.",3.0,2.0,None,None,None,,0,2,2,2,,,,,0,10,10,10,,,,,,,,,,,,,,,,,,,,,,,,,,,,,,,,,1,3.0513466900010826,,,,,,,,,,,,,,,,,,,,,,,,,,,,062419_p1,001,2019_Jun_24_1520,body_behavioural,3.0.4,60.091727138208064,
2,"Senna ordered the oysters with garlic-parmesan sauce, and Alvira ordered the sauteed sea scallops with caramelized apples. ",3.0,2.0,None,None,None,,0,2,2,2,,,,,0,11,11,11,,,,,,,,,,,,,,,,,,,,,,,,,,,,,,,,,1,4.2031937499996275,,,,,,,,,,,,,,,,,,,,,,,,,,,,062419_p1,001,2019_Jun_24_1520,body_behavioural,3.0.4,60.091727138208064,
2,"“Excellent choices,” the waiter said, and he left.",3.0,2.0,None,None,None,,0,2,2,2,,,,,0,12,12,12,,,,,,,,,,,,,,,,,,,,,,,,,,,,,,,,,1,1.45319134699821,,,,,,,,,,,,,,,,,,,,,,,,,,,,062419_p1,001,2019_Jun_24_1520,body_behavioural,3.0.4,60.091727138208064,
2,"“What a beautiful place, Senna. ",3.0,2.0,None,None,None,,0,2,2,2,,,,,0,13,13,13,,,,,,,,,,,,,,,,,,,,,,,,,,,,,,,,,1,0.9192943899979582,,,,,,,,,,,,,,,,,,,,,,,,,,,,062419_p1,001,2019_Jun_24_1520,body_behavioural,3.0.4,60.091727138208064,
2,"This is too much just to celebrate the first tomatoes I grew in the garden- really, this is absurd,” Alvira said.",3.0,2.0,None,None,None,,0,2,2,2,,,,,0,14,14,14,,,,,,,,,,,,,,,,,,,,,,,,,,,,,,,,,1,9.386082611992606,,,,,,,,,,,,,,,,,,,,,,,,,,,,062419_p1,001,2019_Jun_24_1520,body_behavioural,3.0.4,60.091727138208064,
2,"Senna laughed and said, “No, those were really the best tomatoes I’ve ever had. ",3.0,2.0,None,None,None,,0,2,2,2,,,,,0,15,15,15,,,,,,,,,,,,,,,,,,,,,,,,,,,,,,,,,1,1.5704912270011846,,,,,,,,,,,,,,,,,,,,,,,,,,,,062419_p1,001,2019_Jun_24_1520,body_behavioural,3.0.4,60.091727138208064,
2,We had to celebrate.” ,3.0,2.0,None,None,None,,0,2,2,2,,,,,0,16,16,16,,,,,,,,,,,,,,,,,,,,,,,,,,,,,,,,,1,0.9860113760078093,,,,,,,,,,,,,,,,,,,,,,,,,,,,062419_p1,001,2019_Jun_24_1520,body_behavioural,3.0.4,60.091727138208064,
2,"They talked and laughed as the sun sank below the horizon, lighting up the sky and water, and slowly the glow from the windows was replaced by the chandeliers.",3.0,2.0,None,8.0,None,,0,2,2,2,,,,,0,17,17,17,,,,,,,,,,,,,,,,,,,,,,,,,,,,,,,,,9,5.753229056004784,,,,,,,,,,,,,,,,,,,,,,,,,,,,062419_p1,001,2019_Jun_24_1520,body_behavioural,3.0.4,60.091727138208064,
2,The waiter returned with their dishes.,4.0,2.0,None,None,None,,0,2,2,2,,,,,0,18,18,18,,,,,,,,,,,,,,,,,,,,,,,,,,,,,,,,,1,1.8696013719891198,,,,,,,,,,,,,,,,,,,,,,,,,,,,062419_p1,001,2019_Jun_24_1520,body_behavioural,3.0.4,60.091727138208064,
2,"Everything was even more delicious than they had expected, especially the oysters, which Senna said tasted like the ocean. ",4.0,2.0,None,None,None,,0,2,2,2,,,,,0,19,19,19,,,,,,,,,,,,,,,,,,,,,,,,,,,,,,,,,1,3.5518126279930584,,,,,,,,,,,,,,,,,,,,,,,,,,,,062419_p1,001,2019_Jun_24_1520,body_behavioural,3.0.4,60.091727138208064,
2," As they were eating, Senna recounted to Alvira how they had met, and he told her in many words how much he loved her and what he loved about her, almost tearing up at moments. ",4.0,2.0,None,None,None,,0,2,2,2,,,,,0,20,20,20,,,,,,,,,,,,,,,,,,,,,,,,,,,,,,,,,1,7.4530900020035915,,,,,,,,,,,,,,,,,,,,,,,,,,,,062419_p1,001,2019_Jun_24_1520,body_behavioural,3.0.4,60.091727138208064,
2,"When they had finished eating, Senna nodded at the waiter who had been watching attentively, and he quickly strode over to place a small, elegant cake topped with the ring in front of Alvira. ",4.0,3.0,None,None,None,,0,2,2,2,,,,,0,21,21,21,,,,,,,,,,,,,,,,,,,,,,,,,,,,,,,,,9,11.718812537990743,,,,,,,,,,,,,,,,,,,,,,,,,,,,062419_p1,001,2019_Jun_24_1520,body_behavioural,3.0.4,60.091727138208064,
2,Her eyes widened in shock when she realized what she was looking at.,4.0,3.0,None,None,None,,0,2,2,2,,,,,0,22,22,22,,,,,,,,,,,,,,,,,,,,,,,,,,,,,,,,,1,4.137057300991728,,,,,,,,,,,,,,,,,,,,,,,,,,,,062419_p1,001,2019_Jun_24_1520,body_behavioural,3.0.4,60.091727138208064,
2,"Senna got down on one knee and said,“Alvira, will you marry me? ",4.0,3.0,None,None,None,,0,2,2,2,,,,,0,23,23,23,,,,,,,,,,,,,,,,,,,,,,,,,,,,,,,,,1,2.90368197200587,,,,,,,,,,,,,,,,,,,,,,,,,,,,062419_p1,001,2019_Jun_24_1520,body_behavioural,3.0.4,60.091727138208064,
2,"I love you, and I will never stop loving you.” ",4.0,3.0,None,None,None,,0,2,2,2,,,,,0,24,24,24,,,,,,,,,,,,,,,,,,,,,,,,,,,,,,,,,1,1.1201316000078805,,,,,,,,,,,,,,,,,,,,,,,,,,,,062419_p1,001,2019_Jun_24_1520,body_behavioural,3.0.4,60.091727138208064,
2,"After a few moments with everyone turned and looking at Elvira in expectation, she exclaimed, “Yes, of course, yes!”",4.0,4.0,None,None,None,,0,2,2,2,,,,,0,25,25,25,,,,,,,,,,,,,,,,,,,,,,,,,,,,,,,,,1,3.7697984949918464,,,,,,,,,,,,,,,,,,,,,,,,,,,,062419_p1,001,2019_Jun_24_1520,body_behavioural,3.0.4,60.091727138208064,
2,She hugged Senna with tears flowing down her cheeks. ,4.0,4.0,None,None,None,,0,2,2,2,,,,,0,26,26,26,,,,,,,,,,,,,,,,,,,,,,,,,,,,,,,,,1,1.1360694449977018,,,,,,,,,,,,,,,,,,,,,,,,,,,,062419_p1,001,2019_Jun_24_1520,body_behavioural,3.0.4,60.091727138208064,
2,"The other guests exploded in applause, and the waiter returned with a bottle of champagne and popped it.",4.0,4.0,None,None,None,,0,2,2,2,,,,,0,27,27,27,,,,,,,,,,,,,,,,,,,,,,,,,,,,,,,,,1,2.2541230430069845,,,,,,,,,,,,,,,,,,,,,,,,,,,,062419_p1,001,2019_Jun_24_1520,body_behavioural,3.0.4,60.091727138208064,
2,Senna slipped the ring onto Alvira’s finger and she held up her hand to admire it.,4.0,4.0,None,None,None,,0,2,2,2,,,,,0,28,28,28,,,,,,,,,,,,,,,,,,,,,,,,,,,,,,,,,1,3.036030004004715,,,,,,,,,,,,,,,,,,,,,,,,,,,,062419_p1,001,2019_Jun_24_1520,body_behavioural,3.0.4,60.091727138208064,
2,“I need to text my dad and tell him!” she sang. ,4.0,4.0,None,None,None,,0,2,2,2,,,,,0,29,29,29,,,,,,,,,,,,,,,,,,,,,,,,,,,,,,,,,1,4.9344134040002245,,,,,,,,,,,,,,,,,,,,,,,,,,,,062419_p1,001,2019_Jun_24_1520,body_behavioural,3.0.4,60.091727138208064,
2,The whole restaurant proceeded in cheers with them to celebrate the joyous occasion.  ,4.0,4.0,None,None,None,,0,2,2,2,,,,,0,30,30,30,,,,,,,,,,,,,,,,,,,,,,,,,,,,,,,,,1,4.387134308999521,,,,,,,,,,,,,,,,,,,,,,,,,,,,062419_p1,001,2019_Jun_24_1520,body_behavioural,3.0.4,60.091727138208064,
2,,,,,,,,0,2,2,2,,,,,,,,,,,,,,,,,,,,,,,,,,,,,,,,,,,,,,,,,,,,,,,,,,,,,,,,,,,,,,,,,,,,,,062419_p1,001,2019_Jun_24_1520,body_behavioural,3.0.4,60.091727138208064,
3,,,,,,,,0,3,3,3,0,0,0,0,,,,,,,,,,,,,,,,,,,,,,,,,,,space,0.9510559470072621,space,34.4226441589999,space,0.8677393530088011,,,,,,,,,,,,,,,,,,,,,,,,,,,,,,,,,,062419_p1,001,2019_Jun_24_1520,body_behavioural,3.0.4,60.091727138208064,
3,"Ms. Bianchi and Ms. Morrison walked into the grocery store at the same time, and, after a moment of mutual recognition, greeted each other with a handshake.",1.0,1.0,33.0,,,,0,3,3,3,,,,,0,0,0,0,,,,,,,,,,,,,,,,,,,,,,,,,,,,,space,1.2385671220108634,space,1.0031244559941115,9,7.720823672992992,,,,,,,,,,,,,,,,,,,,,,,,,,,,062419_p1,001,2019_Jun_24_1520,body_behavioural,3.0.4,60.091727138208064,
3,"They were standing in the entrance of the grocery store, which had displays of pumpkins, candy, and halloween decorations set up in different stations around the door. ",1.0,1.0,None,,,,0,3,3,3,,,,,0,1,1,1,,,,,,,,,,,,,,,,,,,,,,,,,,,,,,,,,1,3.7695600309962174,,,,,,,,,,,,,,,,,,,,,,,,,,,,062419_p1,001,2019_Jun_24_1520,body_behavioural,3.0.4,60.091727138208064,
3,"“Thank you again for inviting me here to discuss my business proposal,” said Ms. Bianchi.",1.0,1.0,None,,,,0,3,3,3,,,,,0,2,2,2,,,,,,,,,,,,,,,,,,,,,,,,,,,,,,,,,1,3.3524137059866916,,,,,,,,,,,,,,,,,,,,,,,,,,,,062419_p1,001,2019_Jun_24_1520,body_behavioural,3.0.4,60.091727138208064,
3,“It’s a pleasure to be out of the office.” ,1.0,1.0,None,,,,0,3,3,3,,,,,0,3,3,3,,,,,,,,,,,,,,,,,,,,,,,,,,,,,,,,,1,1.2367700550094014,,,,,,,,,,,,,,,,,,,,,,,,,,,,062419_p1,001,2019_Jun_24_1520,body_behavioural,3.0.4,60.091727138208064,
3,"As an account representative for an Italian cheese company that was trying to expand its outreach to American grocery stores, this meeting was pivotal for Ms. Bianchi.",1.0,1.0,None,,,,0,3,3,3,,,,,0,4,4,4,,,,,,,,,,,,,,,,,,,,,,,,,,,,,,,,,1,6.153977508991375,,,,,,,,,,,,,,,,,,,,,,,,,,,,062419_p1,001,2019_Jun_24_1520,body_behavioural,3.0.4,60.091727138208064,
3,"Her sales target, Ms. Morrison, was the senior product manager for a corporate grocer and she had a say in the products distributed in stores across the West Coast.",1.0,1.0,None,,,,0,3,3,3,,,,,0,5,5,5,,,,,,,,,,,,,,,,,,,,,,,,,,,,,,,,,1,7.904120546998456,,,,,,,,,,,,,,,,,,,,,,,,,,,,062419_p1,001,2019_Jun_24_1520,body_behavioural,3.0.4,60.091727138208064,
3,"Ms. Morrison was also known for doing things unconventionally: for example, she said that she liked to make deals with suppliers in the place where the products were sold- “to keep their minds focused on what’s important.” ",1.0,1.0,None,,,,0,3,3,3,,,,,0,6,6,6,,,,,,,,,,,,,,,,,,,,,,,,,,,,,,,,,1,11.871687606995692,,,,,,,,,,,,,,,,,,,,,,,,,,,,062419_p1,001,2019_Jun_24_1520,body_behavioural,3.0.4,60.091727138208064,
3,"In the cheese section of the grocery store, Ms. Morrison motioned to the parmesan.",2.0,1.0,None,,,,0,3,3,3,,,,,0,7,7,7,,,,,,,,,,,,,,,,,,,,,,,,,,,,,,,,,9,6.684654426993802,,,,,,,,,,,,,,,,,,,,,,,,,,,,062419_p1,001,2019_Jun_24_1520,body_behavioural,3.0.4,60.091727138208064,
3,“We have quite a selection here.,2.0,1.0,None,,,,0,3,3,3,,,,,0,8,8,8,,,,,,,,,,,,,,,,,,,,,,,,,,,,,,,,,1,1.0506256749940803,,,,,,,,,,,,,,,,,,,,,,,,,,,,062419_p1,001,2019_Jun_24_1520,body_behavioural,3.0.4,60.091727138208064,
3,I don’t know that we need an additional section for gourmet cheeses.” ,2.0,1.0,None,,,,0,3,3,3,,,,,0,9,9,9,,,,,,,,,,,,,,,,,,,,,,,,,,,,,,,,,1,6.18546516400238,,,,,,,,,,,,,,,,,,,,,,,,,,,,062419_p1,001,2019_Jun_24_1520,body_behavioural,3.0.4,60.091727138208064,
3," Ms. Bianchi did not hesitate but launched into her pitch: “Ms. Morrison, I think you would agree that selling food is more than just providing variety, but also about providing the highest quality.",2.0,2.0,None,,,,0,3,3,3,,,,,0,10,10,10,,,,,,,,,,,,,,,,,,,,,,,,,,,,,,,,,1,10.585038927005371,,,,,,,,,,,,,,,,,,,,,,,,,,,,062419_p1,001,2019_Jun_24_1520,body_behavioural,3.0.4,60.091727138208064,
3,You don’t have cheeses made in America that are like ours- it is true.,2.0,2.0,None,,,,0,3,3,3,,,,,0,11,11,11,,,,,,,,,,,,,,,,,,,,,,,,,,,,,,,,,1,3.9378769629984163,,,,,,,,,,,,,,,,,,,,,,,,,,,,062419_p1,001,2019_Jun_24_1520,body_behavioural,3.0.4,60.091727138208064,
3,The availability of a product of excellent quality leads to the appreciation of the product.,2.0,2.0,None,,,,0,3,3,3,,,,,0,12,12,12,,,,,,,,,,,,,,,,,,,,,,,,,,,,,,,,,1,2.3704656089976197,,,,,,,,,,,,,,,,,,,,,,,,,,,,062419_p1,001,2019_Jun_24_1520,body_behavioural,3.0.4,60.091727138208064,
3,"Your consumers will want to buy other, finer products to compliment that first ingredient, and suddenly your customer will be consuming in a new, more profitable way.",2.0,2.0,None,,,,0,3,3,3,,,,,0,13,13,13,,,,,,,,,,,,,,,,,,,,,,,,,,,,,,,,,1,5.453696775002754,,,,,,,,,,,,,,,,,,,,,,,,,,,,062419_p1,001,2019_Jun_24_1520,body_behavioural,3.0.4,60.091727138208064,
3,"I propose that you give it a shot: buy $1500 worth of cheese products for a few stores, and see how the sales increase not only in our cheeses but also in products related to cheeses: crackers, jams, olives.”",2.0,2.0,None,,,,0,3,3,3,,,,,0,14,14,14,,,,,,,,,,,,,,,,,,,,,,,,,,,,,,,,,1,14.185925044002943,,,,,,,,,,,,,,,,,,,,,,,,,,,,062419_p1,001,2019_Jun_24_1520,body_behavioural,3.0.4,60.091727138208064,
3,"Ms. Bianchi picked up a box of crackers by the cheese section, and said, “Here, I will buy these, and we can try some of our cheeses that I've brought with me.”",2.0,2.0,None,,,,0,3,3,3,,,,,0,15,15,15,,,,,,,,,,,,,,,,,,,,,,,,,,,,,,,,,1,0.5546565819968237,,,,,,,,,,,,,,,,,,,,,,,,,,,,062419_p1,001,2019_Jun_24_1520,body_behavioural,3.0.4,60.091727138208064,
3,"Ms. Morrison, who was thinking about the proposed offer, nodded in agreement and said, “That sounds like a great idea, but those crackers are on me.”",2.0,2.0,None,,,,0,3,3,3,,,,,0,16,16,16,,,,,,,,,,,,,,,,,,,,,,,,,,,,,,,,,1,5.470713560003787,,,,,,,,,,,,,,,,,,,,,,,,,,,,062419_p1,001,2019_Jun_24_1520,body_behavioural,3.0.4,60.091727138208064,
3,She took the crackers from Ms. Bianchi and also picked up a bottle of ketchup and a case of sparkling water “for later.”,2.0,2.0,None,,,,0,3,3,3,,,,,0,17,17,17,,,,,,,,,,,,,,,,,,,,,,,,,,,,,,,,,1,4.503262090001954,,,,,,,,,,,,,,,,,,,,,,,,,,,,062419_p1,001,2019_Jun_24_1520,body_behavioural,3.0.4,60.091727138208064,
3,It was very busy in the checkout area.,3.0,2.0,None,,,,0,3,3,3,,,,,0,18,18,18,,,,,,,,,,,,,,,,,,,,,,,,,,,,,,,,,9,2.5027373999910196,,,,,,,,,,,,,,,,,,,,,,,,,,,,062419_p1,001,2019_Jun_24_1520,body_behavioural,3.0.4,60.091727138208064,
3,"People were stocking up for Halloween parties and trick-or-treating, and there were 10 aisles open. ",3.0,2.0,None,,,,0,3,3,3,,,,,0,19,19,19,,,,,,,,,,,,,,,,,,,,,,,,,,,,,,,,,1,10.653822241001762,,,,,,,,,,,,,,,,,,,,,,,,,,,,062419_p1,001,2019_Jun_24_1520,body_behavioural,3.0.4,60.091727138208064,
3,They stepped into lane 6 and waited.,3.0,2.0,None,,,,0,3,3,3,,,,,0,20,20,20,,,,,,,,,,,,,,,,,,,,,,,,,,,,,,,,,1,2.4675124469940783,,,,,,,,,,,,,,,,,,,,,,,,,,,,062419_p1,001,2019_Jun_24_1520,body_behavioural,3.0.4,60.091727138208064,
3,Ms. Bianchi handed to Ms. Morrison a packet with printed graphs of the increase in profits that several other stores in Italy had seen after starting to carry their products.,3.0,2.0,None,,,,0,3,3,3,,,,,0,21,21,21,,,,,,,,,,,,,,,,,,,,,,,,,,,,,,,,,9,20.054759891005233,,,,,,,,,,,,,,,,,,,,,,,,,,,,062419_p1,001,2019_Jun_24_1520,body_behavioural,3.0.4,60.091727138208064,
3,"After a couple minutes of thinking, Ms. Morrison widened her eyes and said confidently, “You know what, I think you've convinced me that this could work. ",3.0,3.0,None,,,,0,3,3,3,,,,,0,22,22,22,,,,,,,,,,,,,,,,,,,,,,,,,,,,,,,,,1,4.302967481999076,,,,,,,,,,,,,,,,,,,,,,,,,,,,062419_p1,001,2019_Jun_24_1520,body_behavioural,3.0.4,60.091727138208064,
3,We've been trying to find a way to add a little European cachet to our stores.,3.0,3.0,None,,,,0,3,3,3,,,,,0,23,23,23,,,,,,,,,,,,,,,,,,,,,,,,,,,,,,,,,1,2.937514707999071,,,,,,,,,,,,,,,,,,,,,,,,,,,,062419_p1,001,2019_Jun_24_1520,body_behavioural,3.0.4,60.091727138208064,
3,"Our competitor, Orange Grocers, hasn’t expanded in this direction yet, and I’d like to beat them to it. ",3.0,3.0,None,,,,0,3,3,3,,,,,0,24,24,24,,,,,,,,,,,,,,,,,,,,,,,,,,,,,,,,,1,3.4201123449893203,,,,,,,,,,,,,,,,,,,,,,,,,,,,062419_p1,001,2019_Jun_24_1520,body_behavioural,3.0.4,60.091727138208064,
3,There's still a problem though- I'm worried we'll be paying out the nose for the import taxes.,3.0,3.0,None,,,,0,3,3,3,,,,,0,25,25,25,,,,,,,,,,,,,,,,,,,,,,,,,,,,,,,,,1,8.804372553000576,,,,,,,,,,,,,,,,,,,,,,,,,,,,062419_p1,001,2019_Jun_24_1520,body_behavioural,3.0.4,60.091727138208064,
3,Is that the case?",3.0,3.0,None,,,,0,3,3,3,,,,,0,26,26,26,,,,,,,,,,,,,,,,,,,,,,,,,,,,,,,,,1,1.0193421250005485,,,,,,,,,,,,,,,,,,,,,,,,,,,,062419_p1,001,2019_Jun_24_1520,body_behavioural,3.0.4,60.091727138208064,
3,"It was Ms. Morrison’s turn to check out, and the cashier chatted with Ms. Morrison as she scanned the items.",4.0,3.0,None,,,,0,3,3,3,,,,,0,27,27,27,,,,,,,,,,,,,,,,,,,,,,,,,,,,,,,,,1,4.200428619995364,,,,,,,,,,,,,,,,,,,,,,,,,,,,062419_p1,001,2019_Jun_24_1520,body_behavioural,3.0.4,60.091727138208064,
3,Ms. Morrison was also distinguished for knowing most of the employees personally. ,None,None,None,,,,0,3,3,3,,,,,0,28,28,28,,,,,,,,,,,,,,,,,,,,,,,,,,,,,,,,,1,2.6365453739999793,,,,,,,,,,,,,,,,,,,,,,,,,,,,062419_p1,001,2019_Jun_24_1520,body_behavioural,3.0.4,60.091727138208064,
3,Ms. Bianchi watched in amusement as Ms. Morrison paid the $23 price by writing a check. ,4.0,3.0,None,,,,0,3,3,3,,,,,0,29,29,29,,,,,,,,,,,,,,,,,,,,,,,,,,,,,,,,,1,4.819879809991107,,,,,,,,,,,,,,,,,,,,,,,,,,,,062419_p1,001,2019_Jun_24_1520,body_behavioural,3.0.4,60.091727138208064,
3,"After Ms. Bianci addressed Ms. Morrison’s concerns, they came to an agreement and would have enough cheese shipments, $20,000 worth, to different stores to qualify for a subsidized import tax. ",4.0,4.0,None,,,,0,3,3,3,,,,,0,30,30,30,,,,,,,,,,,,,,,,,,,,,,,,,,,,,,,,,1,13.803457243004232,,,,,,,,,,,,,,,,,,,,,,,,,,,,062419_p1,001,2019_Jun_24_1520,body_behavioural,3.0.4,60.091727138208064,
3,"Ms. Morrison had had a small bottle of champagne in her purse, and she pulled it out and popped it in celebration of their deal. ",4.0,4.0,None,,,,0,3,3,3,,,,,0,31,31,31,,,,,,,,,,,,,,,,,,,,,,,,,,,,,,,,,1,5.237408392989892,,,,,,,,,,,,,,,,,,,,,,,,,,,,062419_p1,001,2019_Jun_24_1520,body_behavioural,3.0.4,60.091727138208064,
3,Ms. Bianchi decided that she loved doing business with Americans. ,4.0,4.0,None,,,,0,3,3,3,,,,,0,32,32,32,,,,,,,,,,,,,,,,,,,,,,,,,,,,,,,,,1,3.3369684220087947,,,,,,,,,,,,,,,,,,,,,,,,,,,,062419_p1,001,2019_Jun_24_1520,body_behavioural,3.0.4,60.091727138208064,
3,,,,,,,,0,3,3,3,,,,,,,,,,,,,,,,,,,,,,,,,,,,,,,,,,,,,,,,,,,,,,,,,,,,,,,,,,,,,,,,,,,,,,062419_p1,001,2019_Jun_24_1520,body_behavioural,3.0.4,60.091727138208064,
4,,,,,,,,0,4,4,4,0,0,0,0,,,,,,,,,,,,,,,,,,,,,,,,,,,space,0.9546697099867743,space,0.536639660000219,space,1.5533906820055563,,,,,,,,,,,,,,,,,,,,,,,,,,,,,,,,,,062419_p1,001,2019_Jun_24_1520,body_behavioural,3.0.4,60.091727138208064,
4,The grocery store was not the place Emmanuella and Liam wanted to be at the moment considering that they had been fighting to the point where Emmanuella was thinking of breaking up with Liam.,1.0,1.0,13.0,,,,0,4,4,4,,,,,0,0,0,0,,,,,,,,,,,,,,,,,,,,,,,,,,,,,space,0.7842622480093269,space,1.019420008000452,9,14.154637210987858,,,,,,,,,,,,,,,,,,,,,,,,,,,,062419_p1,001,2019_Jun_24_1520,body_behavioural,3.0.4,60.091727138208064,
4,Emmanuella had been thinking of breaking up with Liam for the past 5 months.,None,None,None,,,,0,4,4,4,,,,,0,1,1,1,,,,,,,,,,,,,,,,,,,,,,,,,,,,,,,,,1,5.536673864000477,,,,,,,,,,,,,,,,,,,,,,,,,,,,062419_p1,001,2019_Jun_24_1520,body_behavioural,3.0.4,60.091727138208064,
4,"Despite the current tension, they had to go grocery shopping because they were hosting a dinner party for friends that evening and had little at home with which to cook. ",1.0,1.0,None,,,,0,4,4,4,,,,,0,2,2,2,,,,,,,,,,,,,,,,,,,,,,,,,,,,,,,,,9,21.819107227012864,,,,,,,,,,,,,,,,,,,,,,,,,,,,062419_p1,001,2019_Jun_24_1520,body_behavioural,3.0.4,60.091727138208064,
4,"The grocery store smelled like lavender upon entering and was dimly lit with pine shelves in the entrance and obscure, organic products displayed on them.",1.0,1.0,None,,,,0,4,4,4,,,,,0,3,3,3,,,,,,,,,,,,,,,,,,,,,,,,,,,,,,,,,1,5.537107568001375,,,,,,,,,,,,,,,,,,,,,,,,,,,,062419_p1,001,2019_Jun_24_1520,body_behavioural,3.0.4,60.091727138208064,
4,"In the pasta section, Emmanuella grabbed a few boxes of bow-tie pasta.",2.0,1.0,None,,,,0,4,4,4,,,,,0,4,4,4,,,,,,,,,,,,,,,,,,,,,,,,,,,,,,,,,1,4.120460722013377,,,,,,,,,,,,,,,,,,,,,,,,,,,,062419_p1,001,2019_Jun_24_1520,body_behavioural,3.0.4,60.091727138208064,
4,"“I guess we are having a pasta dish tonight,” Liam said.",2.0,1.0,None,,,,0,4,4,4,,,,,0,5,5,5,,,,,,,,,,,,,,,,,,,,,,,,,,,,,,,,,1,1.78425667299598,,,,,,,,,,,,,,,,,,,,,,,,,,,,062419_p1,001,2019_Jun_24_1520,body_behavioural,3.0.4,60.091727138208064,
4,"Emmanuella looked back at him and said, “Well if you were going to actually help cook, I would be fine with something else.”",2.0,1.0,None,,,,0,4,4,4,,,,,0,6,6,6,,,,,,,,,,,,,,,,,,,,,,,,,,,,,,,,,9,5.753648348007118,,,,,,,,,,,,,,,,,,,,,,,,,,,,062419_p1,001,2019_Jun_24_1520,body_behavioural,3.0.4,60.091727138208064,
4,"Liam sighed, and finally said, “You know- you don’t want me to help.",2.0,1.0,None,,,,0,4,4,4,,,,,0,7,7,7,,,,,,,,,,,,,,,,,,,,,,,,,,,,,,,,,1,3.253231713999412,,,,,,,,,,,,,,,,,,,,,,,,,,,,062419_p1,001,2019_Jun_24_1520,body_behavioural,3.0.4,60.091727138208064,
4,"I try to, but it seems like I always get in the way!” ",2.0,1.0,None,,,,0,4,4,4,,,,,0,8,8,8,,,,,,,,,,,,,,,,,,,,,,,,,,,,,,,,,1,2.253058278001845,,,,,,,,,,,,,,,,,,,,,,,,,,,,062419_p1,001,2019_Jun_24_1520,body_behavioural,3.0.4,60.091727138208064,
4,Emmanuella shook her head and dropped the pasta boxes in the basket she was holding.,2.0,1.0,None,,,,0,4,4,4,,,,,0,9,9,9,,,,,,,,,,,,,,,,,,,,,,,,,,,,,,,,,1,2.102655963986763,,,,,,,,,,,,,,,,,,,,,,,,,,,,062419_p1,001,2019_Jun_24_1520,body_behavioural,3.0.4,60.091727138208064,
4," “Like you even try,” she mumbled to herself. ",2.0,1.0,None,,,,0,4,4,4,,,,,0,10,10,10,,,,,,,,,,,,,,,,,,,,,,,,,,,,,,,,,1,1.903201736000483,,,,,,,,,,,,,,,,,,,,,,,,,,,,062419_p1,001,2019_Jun_24_1520,body_behavioural,3.0.4,60.091727138208064,
4,She continued down the aisle and studied a jar of vodka sauce and a can of olives before putting them in the basket as well. ,2.0,1.0,None,,,,0,4,4,4,,,,,0,11,11,11,,,,,,,,,,,,,,,,,,,,,,,,,,,,,,,,,1,6.187494012992829,,,,,,,,,,,,,,,,,,,,,,,,,,,,062419_p1,001,2019_Jun_24_1520,body_behavioural,3.0.4,60.091727138208064,
4,"Emmanuella suddenly wrinkled her eyebrows, turned to Liam, and said, “I want to break up since I’m tired of the constant fighting. ",2.0,2.0,None,,,,0,4,4,4,,,,,0,12,12,12,,,,,,,,,,,,,,,,,,,,,,,,,,,,,,,,,9,6.3540646719920915,,,,,,,,,,,,,,,,,,,,,,,,,,,,062419_p1,001,2019_Jun_24_1520,body_behavioural,3.0.4,60.091727138208064,
4,"I was going to wait until after this horribly-timed dinner party tonight to talk about this, but I might as well say it now.",2.0,2.0,None,,,,0,4,4,4,,,,,0,13,13,13,,,,,,,,,,,,,,,,,,,,,,,,,,,,,,,,,1,7.020204147003824,,,,,,,,,,,,,,,,,,,,,,,,,,,,062419_p1,001,2019_Jun_24_1520,body_behavioural,3.0.4,60.091727138208064,
4,"I feel like when we try to do anything anymore it ends up unpleasant for the stupidest reasons, and I am just past trying to work things out.”",2.0,2.0,None,,,,0,4,4,4,,,,,0,14,14,14,,,,,,,,,,,,,,,,,,,,,,,,,,,,,,,,,1,8.587048337998567,,,,,,,,,,,,,,,,,,,,,,,,,,,,062419_p1,001,2019_Jun_24_1520,body_behavioural,3.0.4,60.091727138208064,
4,Liam was nodding automatically.,2.0,2.0,None,,,,0,4,4,4,,,,,0,15,15,15,,,,,,,,,,,,,,,,,,,,,,,,,,,,,,,,,1,1.2374213139992207,,,,,,,,,,,,,,,,,,,,,,,,,,,,062419_p1,001,2019_Jun_24_1520,body_behavioural,3.0.4,60.091727138208064,
4,"In the checkout area, there was only one station open, Station 2, but it was not very crowded.",3.0,2.0,None,,,,0,4,4,4,,,,,0,16,16,16,,,,,,,,,,,,,,,,,,,,,,,,,,,,,,,,,9,7.736269899993204,,,,,,,,,,,,,,,,,,,,,,,,,,,,062419_p1,001,2019_Jun_24_1520,body_behavioural,3.0.4,60.091727138208064,
4,They got in line.,3.0,2.0,None,,,,0,4,4,4,,,,,0,17,17,17,,,,,,,,,,,,,,,,,,,,,,,,,,,,,,,,,1,0.8011964360048296,,,,,,,,,,,,,,,,,,,,,,,,,,,,062419_p1,001,2019_Jun_24_1520,body_behavioural,3.0.4,60.091727138208064,
4,"Liam gazed in the direction of the magazines, but his eyes were glazed over as he was working things out in his head while Emmanuella scrutinized the pasta sauce again. ",3.0,2.0,None,,,,0,4,4,4,,,,,0,18,18,18,,,,,,,,,,,,,,,,,,,,,,,,,,,,,,,,,1,7.519794945008471,,,,,,,,,,,,,,,,,,,,,,,,,,,,062419_p1,001,2019_Jun_24_1520,body_behavioural,3.0.4,60.091727138208064,
4,"After a few minutes of thinking, Liam recollected himself, turned to her, and sighed, “Yes, I think the same thing.",3.0,3.0,None,,,,0,4,4,4,,,,,0,19,19,19,,,,,,,,,,,,,,,,,,,,,,,,,,,,,,,,,1,3.388198852990172,,,,,,,,,,,,,,,,,,,,,,,,,,,,062419_p1,001,2019_Jun_24_1520,body_behavioural,3.0.4,60.091727138208064,
4,I think we should break up because we could definitely be happier with other people.” ,3.0,3.0,None,,,,0,4,4,4,,,,,0,20,20,20,,,,,,,,,,,,,,,,,,,,,,,,,,,,,,,,,1,3.120484965009382,,,,,,,,,,,,,,,,,,,,,,,,,,,,062419_p1,001,2019_Jun_24_1520,body_behavioural,3.0.4,60.091727138208064,
4,Emmanuella nodded as she listened. ,3.0,3.0,None,,,,0,4,4,4,,,,,0,21,21,21,,,,,,,,,,,,,,,,,,,,,,,,,,,,,,,,,1,0.9706460120069096,,,,,,,,,,,,,,,,,,,,,,,,,,,,062419_p1,001,2019_Jun_24_1520,body_behavioural,3.0.4,60.091727138208064,
4,The cashier scanned their groceries.,4.0,3.0,None,,,,0,4,4,4,,,,,0,22,22,22,,,,,,,,,,,,,,,,,,,,,,,,,,,,,,,,,1,1.5359621319948928,,,,,,,,,,,,,,,,,,,,,,,,,,,,062419_p1,001,2019_Jun_24_1520,body_behavioural,3.0.4,60.091727138208064,
4,"The cost came to $30, and Emmanuella paid with her credit card.",4.0,3.0,None,,,,0,4,4,4,,,,,0,23,23,23,,,,,,,,,,,,,,,,,,,,,,,,,,,,,,,,,1,2.9372510879911715,,,,,,,,,,,,,,,,,,,,,,,,,,,,062419_p1,001,2019_Jun_24_1520,body_behavioural,3.0.4,60.091727138208064,
4,"She asked Liam politely to take the bags, and he obliged, following her to the exit. ",4.0,3.0,None,,,,0,4,4,4,,,,,0,24,24,24,,,,,,,,,,,,,,,,,,,,,,,,,,,,,,,,,9,4.23728271300206,,,,,,,,,,,,,,,,,,,,,,,,,,,,062419_p1,001,2019_Jun_24_1520,body_behavioural,3.0.4,60.091727138208064,
4,"Filled with a sudden wave of sadness, Emmanuella said, “Liam, I think we are making the right decision- this is good.”",4.0,4.0,None,,,,0,4,4,4,,,,,0,25,25,25,,,,,,,,,,,,,,,,,,,,,,,,,,,,,,,,,1,5.200638377005816,,,,,,,,,,,,,,,,,,,,,,,,,,,,062419_p1,001,2019_Jun_24_1520,body_behavioural,3.0.4,60.091727138208064,
4,"“I agree,” he said, relieved at the hope he was entertaining that they had just gotten through their last fight. ",4.0,4.0,None,,,,0,4,4,4,,,,,0,26,26,26,,,,,,,,,,,,,,,,,,,,,,,,,,,,,,,,,1,11.45494456999586,,,,,,,,,,,,,,,,,,,,,,,,,,,,062419_p1,001,2019_Jun_24_1520,body_behavioural,3.0.4,60.091727138208064,
4,"“I think we can still host this dinner tonight, as long as you're still on board,” Emmanuella said.",4.0,4.0,None,,,,0,4,4,4,,,,,0,27,27,27,,,,,,,,,,,,,,,,,,,,,,,,,,,,,,,,,9,3.920698029003688,,,,,,,,,,,,,,,,,,,,,,,,,,,,062419_p1,001,2019_Jun_24_1520,body_behavioural,3.0.4,60.091727138208064,
4,"Liam nodded, “Yes, let’s just not tell anyone we’ve broken up tonight.” ",4.0,4.0,None,,,,0,4,4,4,,,,,0,28,28,28,,,,,,,,,,,,,,,,,,,,,,,,,,,,,,,,,1,1.8362193719949573,,,,,,,,,,,,,,,,,,,,,,,,,,,,062419_p1,001,2019_Jun_24_1520,body_behavioural,3.0.4,60.091727138208064,
4,"Emmanuella laughed, “Whoever leaks it loses their right to the cat.”",4.0,4.0,None,,,,0,4,4,4,,,,,0,29,29,29,,,,,,,,,,,,,,,,,,,,,,,,,,,,,,,,,1,5.120304190000752,,,,,,,,,,,,,,,,,,,,,,,,,,,,062419_p1,001,2019_Jun_24_1520,body_behavioural,3.0.4,60.091727138208064,
4,"Liam chuckled and responded, “Hey!",4.0,4.0,None,,,,0,4,4,4,,,,,0,30,30,30,,,,,,,,,,,,,,,,,,,,,,,,,,,,,,,,,1,1.137889418998384,,,,,,,,,,,,,,,,,,,,,,,,,,,,062419_p1,001,2019_Jun_24_1520,body_behavioural,3.0.4,60.091727138208064,
4,Luna is mine and I want her back.”,4.0,4.0,None,,,,0,4,4,4,,,,,0,31,31,31,,,,,,,,,,,,,,,,,,,,,,,,,,,,,,,,,1,2.170379260001937,,,,,,,,,,,,,,,,,,,,,,,,,,,,062419_p1,001,2019_Jun_24_1520,body_behavioural,3.0.4,60.091727138208064,
4,"Emmanuella rolled her eyes, knowing the cat would be a whole other issue to sort out later.
",4.0,4.0,None,,,,0,4,4,4,,,,,0,32,32,32,,,,,,,,,,,,,,,,,,,,,,,,,,,,,,,,,1,2.43633958499413,,,,,,,,,,,,,,,,,,,,,,,,,,,,062419_p1,001,2019_Jun_24_1520,body_behavioural,3.0.4,60.091727138208064,
4,,,,,,,,0,4,4,4,,,,,,,,,,,,,,,,,,,,,,,,,,,,,,,,,,,,,,,,,,,,,,,,,,,,,,,,,,,,,,,,,,,,,,062419_p1,001,2019_Jun_24_1520,body_behavioural,3.0.4,60.091727138208064,
5,,,,,,,,0,5,5,5,0,0,0,0,,,,,,,,,,,,,,,,,,,,,,,,,,,space,45.02327739499742,space,0.7858989020023728,space,1.253064586999244,,,,,,,,,,,,,,,,,,,,,,,,,,,,,,,,,,062419_p1,001,2019_Jun_24_1520,body_behavioural,3.0.4,60.091727138208064,
5,"It didn’t help the situation that Calvin and Jessie were running late to the airport, since Jessie had already been fuming at Calvin and preparing to end the relationship with him.",1,1,12.0,,,,0,5,5,5,,,,,0,0,0,0,,,,,,,,,,,,,,,,,,,,,,,,,,,,,space,0.7027463550039101,space,0.8692034099949524,9,10.517739610004355,,,,,,,,,,,,,,,,,,,,,,,,,,,,062419_p1,001,2019_Jun_24_1520,body_behavioural,3.0.4,60.091727138208064,
5,"Upon arriving at their terminal, they had only 45 minutes until their international flight would depart from Jamaica for the US.",1,1,None,,,,0,5,5,5,,,,,0,1,1,1,,,,,,,,,,,,,,,,,,,,,,,,,,,,,,,,,1,4.91758030600613,,,,,,,,,,,,,,,,,,,,,,,,,,,,062419_p1,001,2019_Jun_24_1520,body_behavioural,3.0.4,60.091727138208064,
5,"It had been a tough vacation, which was planned well before Jessie began to think of breaking up 6 weeks ago.  ",1,1,None,,,,0,5,5,5,,,,,0,2,2,2,,,,,,,,,,,,,,,,,,,,,,,,,,,,,,,,,1,7.836883739990299,,,,,,,,,,,,,,,,,,,,,,,,,,,,062419_p1,001,2019_Jun_24_1520,body_behavioural,3.0.4,60.091727138208064,
5,"Calvin knew that Jessie was upset, but wasn't sure what to do besides attempt to carry on as normal.",1,1,None,,,,0,5,5,5,,,,,0,3,3,3,,,,,,,,,,,,,,,,,,,,,,,,,,,,,,,,,1,3.6702138559921877,,,,,,,,,,,,,,,,,,,,,,,,,,,,062419_p1,001,2019_Jun_24_1520,body_behavioural,3.0.4,60.091727138208064,
5,"The security line was very short, and once the online boarding passes were scanned, Calvin took off his belt and watch, and they put their bags on the conveyor belt.",2,1,None,,,,0,5,5,5,,,,,0,4,4,4,,,,,,,,,,,,,,,,,,,,,,,,,,,,,,,,,9,5.720071753996308,,,,,,,,,,,,,,,,,,,,,,,,,,,,062419_p1,001,2019_Jun_24_1520,body_behavioural,3.0.4,60.091727138208064,
5,"There was a short halt in security proceedings so that the security guards could change shifts, but, once everything was back in order, they were ushered quickly through the metal detector. ",2,1,None,,,,0,5,5,5,,,,,0,5,5,5,,,,,,,,,,,,,,,,,,,,,,,,,,,,,,,,,1,5.369678818999091,,,,,,,,,,,,,,,,,,,,,,,,,,,,062419_p1,001,2019_Jun_24_1520,body_behavioural,3.0.4,60.091727138208064,
5,"“The infrastructure of this airport is really quite poor," said Calvin as they waited for their bags to emerge from the x-ray machine.",2,1,None,,,,0,5,5,5,,,,,0,6,6,6,,,,,,,,,,,,,,,,,,,,,,,,,,,,,,,,,1,3.720060924999416,,,,,,,,,,,,,,,,,,,,,,,,,,,,062419_p1,001,2019_Jun_24_1520,body_behavioural,3.0.4,60.091727138208064,
5,“I could've hidden something in my shoes quite easily.” ,2,1,None,,,,0,5,5,5,,,,,0,7,7,7,,,,,,,,,,,,,,,,,,,,,,,,,,,,,,,,,1,1.5369615349918604,,,,,,,,,,,,,,,,,,,,,,,,,,,,062419_p1,001,2019_Jun_24_1520,body_behavioural,3.0.4,60.091727138208064,
5,"Jessie, exasperated, scowled at the conveyor belt.",2,1,None,,,,0,5,5,5,,,,,0,8,8,8,,,,,,,,,,,,,,,,,,,,,,,,,,,,,,,,,1,2.636089156003436,,,,,,,,,,,,,,,,,,,,,,,,,,,,062419_p1,001,2019_Jun_24_1520,body_behavioural,3.0.4,60.091727138208064,
5,“What?” he asked.,2,1,None,,,,0,5,5,5,,,,,0,9,9,9,,,,,,,,,,,,,,,,,,,,,,,,,,,,,,,,,1,1.5507510399911553,,,,,,,,,,,,,,,,,,,,,,,,,,,,062419_p1,001,2019_Jun_24_1520,body_behavioural,3.0.4,60.091727138208064,
5,"Balling up her fists and turning to him angrily, she said, “Calvin, I really don’t think I can do this anymore because I don’t think our personalities are compatible. ",2,2,None,,,,0,5,5,5,,,,,0,10,10,10,,,,,,,,,,,,,,,,,,,,,,,,,,,,,,,,,9,5.654260850002174,,,,,,,,,,,,,,,,,,,,,,,,,,,,062419_p1,001,2019_Jun_24_1520,body_behavioural,3.0.4,60.091727138208064,
5,I think it’s best that once we get to the States we part ways for good.” ,2,2,None,,,,0,5,5,5,,,,,0,11,11,11,,,,,,,,,,,,,,,,,,,,,,,,,,,,,,,,,9,2.900814975000685,,,,,,,,,,,,,,,,,,,,,,,,,,,,062419_p1,001,2019_Jun_24_1520,body_behavioural,3.0.4,60.091727138208064,
5,Calvin said nothing as he grabbed his bag.,3,2,None,,,,0,5,5,5,,,,,0,12,12,12,,,,,,,,,,,,,,,,,,,,,,,,,,,,,,,,,1,1.8675082119880244,,,,,,,,,,,,,,,,,,,,,,,,,,,,062419_p1,001,2019_Jun_24_1520,body_behavioural,3.0.4,60.091727138208064,
5,Jessie trailed behind him as they hurried their way quickly toward gate A28.,3,2,None,,,,0,5,5,5,,,,,0,13,13,13,,,,,,,,,,,,,,,,,,,,,,,,,,,,,,,,,1,2.286476881999988,,,,,,,,,,,,,,,,,,,,,,,,,,,,062419_p1,001,2019_Jun_24_1520,body_behavioural,3.0.4,60.091727138208064,
5,“So now you have nothing to say?” Jessie said. ,3,2,None,,,,0,5,5,5,,,,,0,14,14,14,,,,,,,,,,,,,,,,,,,,,,,,,,,,,,,,,1,1.7865558579942444,,,,,,,,,,,,,,,,,,,,,,,,,,,,062419_p1,001,2019_Jun_24_1520,body_behavioural,3.0.4,60.091727138208064,
5,"Calvin didn't answer, gritting his teeth and staring straight ahead. ",3,2,None,,,,0,5,5,5,,,,,0,15,15,15,,,,,,,,,,,,,,,,,,,,,,,,,,,,,,,,,1,2.1869545270019444,,,,,,,,,,,,,,,,,,,,,,,,,,,,062419_p1,001,2019_Jun_24_1520,body_behavioural,3.0.4,60.091727138208064,
5,"He was very frustrated that he felt he had been trying to appease Jessie for the entirety of the vacation, and it seemed to be completed unappreciated. ",3,2,None,,,,0,5,5,5,,,,,0,16,16,16,,,,,,,,,,,,,,,,,,,,,,,,,,,,,,,,,1,3.636259765000432,,,,,,,,,,,,,,,,,,,,,,,,,,,,062419_p1,001,2019_Jun_24_1520,body_behavioural,3.0.4,60.091727138208064,
5,"Their silence was punctuated only by the rapid, rhythmic clacking of their suitcase wheels over the tile floor as they continued power-walking through the terminal. ",3,2,None,,,,0,5,5,5,,,,,0,17,17,17,,,,,,,,,,,,,,,,,,,,,,,,,,,,,,,,,1,4.41745502500271,,,,,,,,,,,,,,,,,,,,,,,,,,,,062419_p1,001,2019_Jun_24_1520,body_behavioural,3.0.4,60.091727138208064,
5,"Calvin finally turned to address her as they continued walking: “Jessie, this makes perfect sense. ",3,3,None,,,,0,5,5,5,,,,,0,18,18,18,,,,,,,,,,,,,,,,,,,,,,,,,,,,,,,,,9,3.68374712599325,,,,,,,,,,,,,,,,,,,,,,,,,,,,062419_p1,001,2019_Jun_24_1520,body_behavioural,3.0.4,60.091727138208064,
5,"If you feel this way, then I think we should break up because I don’t want to keep boring you.",3,3,None,,,,0,5,5,5,,,,,0,19,19,19,,,,,,,,,,,,,,,,,,,,,,,,,,,,,,,,,1,3.1281983730004868,,,,,,,,,,,,,,,,,,,,,,,,,,,,062419_p1,001,2019_Jun_24_1520,body_behavioural,3.0.4,60.091727138208064,
5,"I agree, let’s part ways once we make it back.",3,3,None,,,,0,5,5,5,,,,,0,20,20,20,,,,,,,,,,,,,,,,,,,,,,,,,,,,,,,,,1,1.5369949660089333,,,,,,,,,,,,,,,,,,,,,,,,,,,,062419_p1,001,2019_Jun_24_1520,body_behavioural,3.0.4,60.091727138208064,
5,You should’ve spoken up about my apparent intolerability before you decided to plan this vacation.”,3,3,None,,,,0,5,5,5,,,,,0,21,21,21,,,,,,,,,,,,,,,,,,,,,,,,,,,,,,,,,1,3.904215855000075,,,,,,,,,,,,,,,,,,,,,,,,,,,,062419_p1,001,2019_Jun_24_1520,body_behavioural,3.0.4,60.091727138208064,
5,"He was very hurt, even though he didn’t want to show it. ",3,3,None,,,,0,5,5,5,,,,,0,22,22,22,,,,,,,,,,,,,,,,,,,,,,,,,,,,,,,,,1,4.120545803001733,,,,,,,,,,,,,,,,,,,,,,,,,,,,062419_p1,001,2019_Jun_24_1520,body_behavioural,3.0.4,60.091727138208064,
5,"Having made it to their gate, they scanned their tickets, and the annoyed flight attendant shooed them onto the jet bridge and then closed the plane door behind them.",4,3,None,,,,0,5,5,5,,,,,0,23,23,23,,,,,,,,,,,,,,,,,,,,,,,,,,,,,,,,,9,11.020873261993984,,,,,,,,,,,,,,,,,,,,,,,,,,,,062419_p1,001,2019_Jun_24_1520,body_behavioural,3.0.4,60.091727138208064,
5,"Luckily, they had forgotten to arrange seats next to each other on the flight back.",4,3,None,,,,0,5,5,5,,,,,0,24,24,24,,,,,,,,,,,,,,,,,,,,,,,,,,,,,,,,,9,8.91912878799485,,,,,,,,,,,,,,,,,,,,,,,,,,,,062419_p1,001,2019_Jun_24_1520,body_behavioural,3.0.4,60.091727138208064,
5,"They were both in economy, but Jessie was headed for seat 33A while Calvin's seat was 33F. ",4,3,None,,,,0,5,5,5,,,,,0,25,25,25,,,,,,,,,,,,,,,,,,,,,,,,,,,,,,,,,1,5.434431028988911,,,,,,,,,,,,,,,,,,,,,,,,,,,,062419_p1,001,2019_Jun_24_1520,body_behavioural,3.0.4,60.091727138208064,
5,"Before Jessie sat down, she took a deep breath, calmed her emotions, and then awkwardly shook Calvin’s hand, mumbling, “Have a nice flight. ",4,4,None,,,,0,5,5,5,,,,,0,26,26,26,,,,,,,,,,,,,,,,,,,,,,,,,,,,,,,,,1,7.787336925001,,,,,,,,,,,,,,,,,,,,,,,,,,,,062419_p1,001,2019_Jun_24_1520,body_behavioural,3.0.4,60.091727138208064,
5,"Oh, and when you get a chance, could you send me back all the philosophy books I lent you?”",4,4,None,,,,0,5,5,5,,,,,0,27,27,27,,,,,,,,,,,,,,,,,,,,,,,,,,,,,,,,,1,3.4037189410009887,,,,,,,,,,,,,,,,,,,,,,,,,,,,062419_p1,001,2019_Jun_24_1520,body_behavioural,3.0.4,60.091727138208064,
5,He laughed in disbelief and walked to his window seat three rows back to get ready for takeoff.,4,4,None,,,,0,5,5,5,,,,,0,28,28,28,,,,,,,,,,,,,,,,,,,,,,,,,,,,,,,,,1,3.319718853002996,,,,,,,,,,,,,,,,,,,,,,,,,,,,062419_p1,001,2019_Jun_24_1520,body_behavioural,3.0.4,60.091727138208064,
5,Both were upset but glad that they would have this flight in solitude.,4,4,None,,,,0,5,5,5,,,,,0,29,29,29,,,,,,,,,,,,,,,,,,,,,,,,,,,,,,,,,1,2.553464267999516,,,,,,,,,,,,,,,,,,,,,,,,,,,,062419_p1,001,2019_Jun_24_1520,body_behavioural,3.0.4,60.091727138208064,
5,,,,,,,,0,5,5,5,,,,,,,,,,,,,,,,,,,,,,,,,,,,,,,,,,,,,,,,,,,,,,,,,,,,,,,,,,,,,,,,,,,,,,062419_p1,001,2019_Jun_24_1520,body_behavioural,3.0.4,60.091727138208064,
6,,,,,,,,0,6,6,6,0,0,0,0,,,,,,,,,,,,,,,,,,,,,,,,,,,space,2.3028800720057916,space,0.5360172570071882,space,0.4346654539986048,,,,,,,,,,,,,,,,,,,,,,,,,,,,,,,,,,062419_p1,001,2019_Jun_24_1520,body_behavioural,3.0.4,60.091727138208064,
6,"Lana walked into lecture holding hands with her boyfriend, Aaron, who was trying to contain his excitement about proposing to Lana in this class.",1,1,24.0,,,,0,6,6,6,,,,,0,0,0,0,,,,,,,,,,,,,,,,,,,,,,,,,,,,,space,1.7037786780128954,space,4.236735252008657,9,193.28218470299907,,,,,,,,,,,,,,,,,,,,,,,,,,,,062419_p1,001,2019_Jun_24_1520,body_behavioural,3.0.4,60.091727138208064,
6,"Lana was lost in thought, puzzling over an integral on her problem set for another class.",1,1,None,,,,0,6,6,6,,,,,0,1,1,1,,,,,,,,,,,,,,,,,,,,,,,,,,,,,,,,,1,17.254426090003108,,,,,,,,,,,,,,,,,,,,,,,,,,,,062419_p1,001,2019_Jun_24_1520,body_behavioural,3.0.4,60.091727138208064,
6,"The lecture hall they had entered was the fanciest one at Princeton, with chandeliers, high ceilings, wood floors, and a large projector screen where chalkboards used to be. ",1,1,None,,,,0,6,6,6,,,,,0,2,2,2,,,,,,,,,,,,,,,,,,,,,,,,,,,,,,,,,1,4.419567667006049,,,,,,,,,,,,,,,,,,,,,,,,,,,,062419_p1,001,2019_Jun_24_1520,body_behavioural,3.0.4,60.091727138208064,
6,Aaron and Lana had met when they first started dating three years ago in freshman year.,1,1,None,,,,0,6,6,6,,,,,0,3,3,3,,,,,,,,,,,,,,,,,,,,,,,,,,,,,,,,,9,3.053563793990179,,,,,,,,,,,,,,,,,,,,,,,,,,,,062419_p1,001,2019_Jun_24_1520,body_behavioural,3.0.4,60.091727138208064,
6,They coincidentally had another class together in this same lecture hall. ,1,1,None,,,,0,6,6,6,,,,,0,4,4,4,,,,,,,,,,,,,,,,,,,,,,,,,,,,,,,,,1,2.4668440770037705,,,,,,,,,,,,,,,,,,,,,,,,,,,,062419_p1,001,2019_Jun_24_1520,body_behavioural,3.0.4,60.091727138208064,
6,The professor caught Aaron's eye as he walked up to the front of the classroom and gave him a wink before the lecture began. ,1,1,None,,,,0,6,6,6,,,,,0,5,5,5,,,,,,,,,,,,,,,,,,,,,,,,,,,,,,,,,9,8.703350456999033,,,,,,,,,,,,,,,,,,,,,,,,,,,,062419_p1,001,2019_Jun_24_1520,body_behavioural,3.0.4,60.091727138208064,
6,Aaron flashed him a half-smile and nodded. ,1,1,None,,,,0,6,6,6,,,,,0,6,6,6,,,,,,,,,,,,,,,,,,,,,,,,,,,,,,,,,1,1.0698246669926448,,,,,,,,,,,,,,,,,,,,,,,,,,,,062419_p1,001,2019_Jun_24_1520,body_behavioural,3.0.4,60.091727138208064,
6,"The professor cleared his throat and said,“Alright, good afternoon, everyone!",2,1,None,,,,0,6,6,6,,,,,0,7,7,7,,,,,,,,,,,,,,,,,,,,,,,,,,,,,,,,,1,1.70071198498772,,,,,,,,,,,,,,,,,,,,,,,,,,,,062419_p1,001,2019_Jun_24_1520,body_behavioural,3.0.4,60.091727138208064,
6,Welcome to another week of Introduction to Chemistry,2,1,None,,,,0,6,6,6,,,,,0,8,8,8,,,,,,,,,,,,,,,,,,,,,,,,,,,,,,,,,1,1.4175064669980202,,,,,,,,,,,,,,,,,,,,,,,,,,,,062419_p1,001,2019_Jun_24_1520,body_behavioural,3.0.4,60.091727138208064,
6,This week the topic is ions.,2,1,None,,,,0,6,6,6,,,,,0,9,9,9,,,,,,,,,,,,,,,,,,,,,,,,,,,,,,,,,1,1.219584994003526,,,,,,,,,,,,,,,,,,,,,,,,,,,,062419_p1,001,2019_Jun_24_1520,body_behavioural,3.0.4,60.091727138208064,
6,"Now, let me get my computer set up, one moment, class.”",2,1,None,,,,0,6,6,6,,,,,0,10,10,10,,,,,,,,,,,,,,,,,,,,,,,,,,,,,,,,,1,1.838428451999789,,,,,,,,,,,,,,,,,,,,,,,,,,,,062419_p1,001,2019_Jun_24_1520,body_behavioural,3.0.4,60.091727138208064,
6,Lana pulled out the problem set she was thinking about as Aaron unzipped the small pocket in his backpack and pulled out the ring.,2,2,None,,,,0,6,6,6,,,,,0,11,11,11,,,,,,,,,,,,,,,,,,,,,,,,,,,,,,,,,9,6.568391708002309,,,,,,,,,,,,,,,,,,,,,,,,,,,,062419_p1,001,2019_Jun_24_1520,body_behavioural,3.0.4,60.091727138208064,
6,"Turning away from her, he looked it over yet again. ",2,2,None,,,,0,6,6,6,,,,,0,12,12,12,,,,,,,,,,,,,,,,,,,,,,,,,,,,,,,,,1,1.7343313099991065,,,,,,,,,,,,,,,,,,,,,,,,,,,,062419_p1,001,2019_Jun_24_1520,body_behavioural,3.0.4,60.091727138208064,
6,"Instead of one large diamond, there were 5 red diamonds embedded in a thick band. ",2,2,None,,,,0,6,6,6,,,,,0,13,13,13,,,,,,,,,,,,,,,,,,,,,,,,,,,,,,,,,1,8.454233388998546,,,,,,,,,,,,,,,,,,,,,,,,,,,,062419_p1,001,2019_Jun_24_1520,body_behavioural,3.0.4,60.091727138208064,
6,He knew Lana would like this because her style was more avant-garde than traditional.,2,2,None,,,,0,6,6,6,,,,,0,14,14,14,,,,,,,,,,,,,,,,,,,,,,,,,,,,,,,,,1,6.28758538699185,,,,,,,,,,,,,,,,,,,,,,,,,,,,062419_p1,001,2019_Jun_24_1520,body_behavioural,3.0.4,60.091727138208064,
6,"The professor said, “Remember, class, that the number of protons determines the identity of the element. ",3,2,None,,,,0,6,6,6,,,,,0,15,15,15,,,,,,,,,,,,,,,,,,,,,,,,,,,,,,,,,1,5.703201197000453,,,,,,,,,,,,,,,,,,,,,,,,,,,,062419_p1,001,2019_Jun_24_1520,body_behavioural,3.0.4,60.091727138208064,
6,"So for example, all atoms of sodium have 11 protons in the nucleus. ",3,2,None,,,,0,6,6,6,,,,,0,16,16,16,,,,,,,,,,,,,,,,,,,,,,,,,,,,,,,,,1,3.786595464000129,,,,,,,,,,,,,,,,,,,,,,,,,,,,062419_p1,001,2019_Jun_24_1520,body_behavioural,3.0.4,60.091727138208064,
6,"And if you look on the periodic table, the atomic number for sodium, the symbol is Na, is eleven.",3,2,None,,,,0,6,6,6,,,,,0,17,17,17,,,,,,,,,,,,,,,,,,,,,,,,,,,,,,,,,1,3.97118414498982,,,,,,,,,,,,,,,,,,,,,,,,,,,,062419_p1,001,2019_Jun_24_1520,body_behavioural,3.0.4,60.091727138208064,
6,"An ion retains the same number of protons despite losing electrons, and therefore keeps the same identity in the periodic table. ",3,2,None,,,,0,6,6,6,,,,,0,18,18,18,,,,,,,,,,,,,,,,,,,,,,,,,,,,,,,,,1,6.170708409001236,,,,,,,,,,,,,,,,,,,,,,,,,,,,062419_p1,001,2019_Jun_24_1520,body_behavioural,3.0.4,60.091727138208064,
6,Lana and Aaron tried to take notes during the lecture.,3,2,None,,,,0,6,6,6,,,,,0,19,19,19,,,,,,,,,,,,,,,,,,,,,,,,,,,,,,,,,1,3.1542411090049427,,,,,,,,,,,,,,,,,,,,,,,,,,,,062419_p1,001,2019_Jun_24_1520,body_behavioural,3.0.4,60.091727138208064,
6,"Right after talking about how two ions bond into one stable molecule by covalent bonds, the professor stopped the lecture, gave another wink to Aaron, and asked Lana to come to the front of the class to do a demonstration. ",3,3,None,,,,0,6,6,6,,,,,0,20,20,20,,,,,,,,,,,,,,,,,,,,,,,,,,,,,,,,,9,24.53604238499247,,,,,,,,,,,,,,,,,,,,,,,,,,,,062419_p1,001,2019_Jun_24_1520,body_behavioural,3.0.4,60.091727138208064,
6,"She walked to the front of the class confused, and the professor asked her to stand in the middle of the stage.",3,3,None,,,,0,6,6,6,,,,,0,21,21,21,,,,,,,,,,,,,,,,,,,,,,,,,,,,,,,,,1,10.920626795996213,,,,,,,,,,,,,,,,,,,,,,,,,,,,062419_p1,001,2019_Jun_24_1520,body_behavioural,3.0.4,60.091727138208064,
6,"Then Aaron walked up and, taking Lana’s hand, got down on one knee. ",3,3,None,,,,0,6,6,6,,,,,0,22,22,22,,,,,,,,,,,,,,,,,,,,,,,,,,,,,,,,,1,1.8178589080052916,,,,,,,,,,,,,,,,,,,,,,,,,,,,062419_p1,001,2019_Jun_24_1520,body_behavioural,3.0.4,60.091727138208064,
6,The professor quickly switched to the last slide on the powerpoint which was a photo collage Aaron had sent him of pictures of Aaron and Lana. ,3,3,None,,,,0,6,6,6,,,,,0,23,23,23,,,,,,,,,,,,,,,,,,,,,,,,,,,,,,,,,1,11.25404508599604,,,,,,,,,,,,,,,,,,,,,,,,,,,,062419_p1,001,2019_Jun_24_1520,body_behavioural,3.0.4,60.091727138208064,
6,"“It's time for us to make a bond of our own, Lana.”",3,3,None,,,,0,6,6,6,,,,,0,24,24,24,,,,,,,,,,,,,,,,,,,,,,,,,,,,,,,,,1,4.670040979995974,,,,,,,,,,,,,,,,,,,,,,,,,,,,062419_p1,001,2019_Jun_24_1520,body_behavioural,3.0.4,60.091727138208064,
6,He opened the small notebook he had in his hand and the ring was sitting on the page. ,3,3,None,,,,0,6,6,6,,,,,0,25,25,25,,,,,,,,,,,,,,,,,,,,,,,,,,,,,,,,,1,4.519959411001764,,,,,,,,,,,,,,,,,,,,,,,,,,,,062419_p1,001,2019_Jun_24_1520,body_behavioural,3.0.4,60.091727138208064,
6,“Will you marry me?” ,3,3,None,,,,0,6,6,6,,,,,0,26,26,26,,,,,,,,,,,,,,,,,,,,,,,,,,,,,,,,,1,2.9360844189941417,,,,,,,,,,,,,,,,,,,,,,,,,,,,062419_p1,001,2019_Jun_24_1520,body_behavioural,3.0.4,60.091727138208064,
6,"Lana had put her hand over her mouth and tears were streaming down her face, but finally, she said, “Yes!”",3,4,None,,,,0,6,6,6,,,,,0,27,27,27,,,,,,,,,,,,,,,,,,,,,,,,,,,,,,,,,1,3.4034254220023286,,,,,,,,,,,,,,,,,,,,,,,,,,,,062419_p1,001,2019_Jun_24_1520,body_behavioural,3.0.4,60.091727138208064,
6,"Aaron put the ring on her finger, and they hugged while the whole class applauded and cheered. ",3,4,None,,,,0,6,6,6,,,,,0,28,28,28,,,,,,,,,,,,,,,,,,,,,,,,,,,,,,,,,1,2.1360450649954146,,,,,,,,,,,,,,,,,,,,,,,,,,,,062419_p1,001,2019_Jun_24_1520,body_behavioural,3.0.4,60.091727138208064,
6,Their friends who had been secretly waiting outside came into the class and hugged both of them.,3,4,None,,,,0,6,6,6,,,,,0,29,29,29,,,,,,,,,,,,,,,,,,,,,,,,,,,,,,,,,1,2.7031117630103836,,,,,,,,,,,,,,,,,,,,,,,,,,,,062419_p1,001,2019_Jun_24_1520,body_behavioural,3.0.4,60.091727138208064,
6,The professor gave Aaron a celebratory handshake.,3,4,None,,,,0,6,6,6,,,,,0,30,30,30,,,,,,,,,,,,,,,,,,,,,,,,,,,,,,,,,1,2.6545997339999303,,,,,,,,,,,,,,,,,,,,,,,,,,,,062419_p1,001,2019_Jun_24_1520,body_behavioural,3.0.4,60.091727138208064,
6,"They made their way back to their seats, and Lana pulled out her phone to text her sister",3,4,None,,,,0,6,6,6,,,,,0,31,31,31,,,,,,,,,,,,,,,,,,,,,,,,,,,,,,,,,9,4.020336628003861,,,,,,,,,,,,,,,,,,,,,,,,,,,,062419_p1,001,2019_Jun_24_1520,body_behavioural,3.0.4,60.091727138208064,
6,"The professor dismissed the class, saying, “That was enough excitement for today!",4,4,None,,,,0,6,6,6,,,,,0,32,32,32,,,,,,,,,,,,,,,,,,,,,,,,,,,,,,,,,1,4.13471301800746,,,,,,,,,,,,,,,,,,,,,,,,,,,,062419_p1,001,2019_Jun_24_1520,body_behavioural,3.0.4,60.091727138208064,
6,Don’t forget there’s a midterm exam next week on Monday on the material covered in the first 4 weeks of the semester.,4,4,None,,,,0,6,6,6,,,,,0,33,33,33,,,,,,,,,,,,,,,,,,,,,,,,,,,,,,,,,1,7.368147789995419,,,,,,,,,,,,,,,,,,,,,,,,,,,,062419_p1,001,2019_Jun_24_1520,body_behavioural,3.0.4,60.091727138208064,
6,"As everyone was packing up their notebooks and leaving, Lana and Aaron were surrounded by their friends eager to get a glimpse of the ring and congratulate them. ",4,4,None,,,,0,6,6,6,,,,,0,34,34,34,,,,,,,,,,,,,,,,,,,,,,,,,,,,,,,,,9,9.436654136006837,,,,,,,,,,,,,,,,,,,,,,,,,,,,062419_p1,001,2019_Jun_24_1520,body_behavioural,3.0.4,60.091727138208064,
6,,,,,,,,0,6,6,6,,,,,,,,,,,,,,,,,,,,,,,,,,,,,,,,,,,,,,,,,,,,,,,,,,,,,,,,,,,,,,,,,,,,,,062419_p1,001,2019_Jun_24_1520,body_behavioural,3.0.4,60.091727138208064,
7,,,,,,,,0,7,7,7,0,0,0,0,,,,,,,,,,,,,,,,,,,,,,,,,,,space,215.03501197700098,space,0.9864490070031025,space,5.519898854996427,,,,,,,,,,,,,,,,,,,,,,,,,,,,,,,,,,062419_p1,001,2019_Jun_24_1520,body_behavioural,3.0.4,60.091727138208064,
7,"Jeff, hoping that today would be a pivotal day for his company, had only been waiting inside the entrance of the airport for a few minutes when he saw William and eagerly waved him over. ",1,1,32.0,,,,0,7,7,7,,,,,0,0,0,0,,,,,,,,,,,,,,,,,,,,,,,,,,,,,space,7.667751360000693,space,9.771056169993244,9,25.638880957005313,,,,,,,,,,,,,,,,,,,,,,,,,,,,062419_p1,001,2019_Jun_24_1520,body_behavioural,3.0.4,60.091727138208064,
7,William checked his watch and was pleased to see that the two of them had two hours to discuss business before their flights left Boston.,1,1,None,,,,0,7,7,7,,,,,0,1,1,1,,,,,,,,,,,,,,,,,,,,,,,,,,,,,,,,,1,5.604398038994987,,,,,,,,,,,,,,,,,,,,,,,,,,,,062419_p1,001,2019_Jun_24_1520,body_behavioural,3.0.4,60.091727138208064,
7,Jeff and William had met the night before in line for the bathroom at a local bar. ,1,1,None,,,,0,7,7,7,,,,,0,2,2,2,,,,,,,,,,,,,,,,,,,,,,,,,,,,,,,,,1,2.2843571080011316,,,,,,,,,,,,,,,,,,,,,,,,,,,,062419_p1,001,2019_Jun_24_1520,body_behavioural,3.0.4,60.091727138208064,
7,Jeff had delivered some surprisingly-detailed complaints to William about the wine selection.,1,1,None,,,,0,7,7,7,,,,,0,3,3,3,,,,,,,,,,,,,,,,,,,,,,,,,,,,,,,,,1,5.253237832002924,,,,,,,,,,,,,,,,,,,,,,,,,,,,062419_p1,001,2019_Jun_24_1520,body_behavioural,3.0.4,60.091727138208064,
7,They quickly learned that they were both in the wine industry: Jeff was a sales associate for wine vineyards in the Northeast and William was a wine buyer for corporate events.,1,1,None,,,,0,7,7,7,,,,,0,4,4,4,,,,,,,,,,,,,,,,,,,,,,,,,,,,,,,,,1,10.801881710009184,,,,,,,,,,,,,,,,,,,,,,,,,,,,062419_p1,001,2019_Jun_24_1520,body_behavioural,3.0.4,60.091727138208064,
7,"Since they both had flights out of Boston at the same time, they had agreed to meet at the airport and talk about doing business together. ",1,1,None,,,,0,7,7,7,,,,,0,5,5,5,,,,,,,,,,,,,,,,,,,,,,,,,,,,,,,,,1,3.1206514469959075,,,,,,,,,,,,,,,,,,,,,,,,,,,,062419_p1,001,2019_Jun_24_1520,body_behavioural,3.0.4,60.091727138208064,
7,They waited in line at security.,2,1,None,,,,0,7,7,7,,,,,0,6,6,6,,,,,,,,,,,,,,,,,,,,,,,,,,,,,,,,,9,3.371621446000063,,,,,,,,,,,,,,,,,,,,,,,,,,,,062419_p1,001,2019_Jun_24_1520,body_behavioural,3.0.4,60.091727138208064,
7,"“It’s crazy that we met last night,” William said.",2,1,None,,,,0,7,7,7,,,,,0,7,7,7,,,,,,,,,,,,,,,,,,,,,,,,,,,,,,,,,1,2.2707766330131562,,,,,,,,,,,,,,,,,,,,,,,,,,,,062419_p1,001,2019_Jun_24_1520,body_behavioural,3.0.4,60.091727138208064,
7,"“I am flying out right now to meet my boss, and was worried that I was going to show up empty handed without anything to show for the East Coast.” ",2,1,None,,,,0,7,7,7,,,,,0,8,8,8,,,,,,,,,,,,,,,,,,,,,,,,,,,,,,,,,1,4.653176372987218,,,,,,,,,,,,,,,,,,,,,,,,,,,,062419_p1,001,2019_Jun_24_1520,body_behavioural,3.0.4,60.091727138208064,
7,"“I know, what are the chances, right?” Jeff replied.",2,1,None,,,,0,7,7,7,,,,,0,9,9,9,,,,,,,,,,,,,,,,,,,,,,,,,,,,,,,,,1,1.502652601004229,,,,,,,,,,,,,,,,,,,,,,,,,,,,062419_p1,001,2019_Jun_24_1520,body_behavioural,3.0.4,60.091727138208064,
7,"William laughed and said, “I’m glad our complaining can come in handy.”",2,1,None,,,,0,7,7,7,,,,,0,10,10,10,,,,,,,,,,,,,,,,,,,,,,,,,,,,,,,,,1,2.252675158000784,,,,,,,,,,,,,,,,,,,,,,,,,,,,062419_p1,001,2019_Jun_24_1520,body_behavioural,3.0.4,60.091727138208064,
7,"William got focused and, shifting gears, said, “I know this is fast, but I'd like to get right down to business since time is a limiting factor.",2,2,None,,,,0,7,7,7,,,,,0,11,11,11,,,,,,,,,,,,,,,,,,,,,,,,,,,,,,,,,1,7.937975029009976,,,,,,,,,,,,,,,,,,,,,,,,,,,,062419_p1,001,2019_Jun_24_1520,body_behavioural,3.0.4,60.091727138208064,
7,I'd really like to order a couple of sample shipments from you and present them to our clients: I think they’d really love to have some East Coast variety. ,2,2,None,,,,0,7,7,7,,,,,0,12,12,12,,,,,,,,,,,,,,,,,,,,,,,,,,,,,,,,,1,7.0868181889964035,,,,,,,,,,,,,,,,,,,,,,,,,,,,062419_p1,001,2019_Jun_24_1520,body_behavioural,3.0.4,60.091727138208064,
7,"Now, typically we expect to get these kinds of samples at a steep discount, at least half-off the label price.",2,2,None,,,,0,7,7,7,,,,,0,13,13,13,,,,,,,,,,,,,,,,,,,,,,,,,,,,,,,,,1,8.003734283993253,,,,,,,,,,,,,,,,,,,,,,,,,,,,062419_p1,001,2019_Jun_24_1520,body_behavioural,3.0.4,60.091727138208064,
7,This small loss is well worth the profit you’d be making if even a single client makes a contract.,2,2,None,,,,0,7,7,7,,,,,0,14,14,14,,,,,,,,,,,,,,,,,,,,,,,,,,,,,,,,,1,5.854482918002759,,,,,,,,,,,,,,,,,,,,,,,,,,,,062419_p1,001,2019_Jun_24_1520,body_behavioural,3.0.4,60.091727138208064,
7,So I propose that you send us 5 barrels of your select wines for $800.”,2,2,None,,,,0,7,7,7,,,,,0,15,15,15,,,,,,,,,,,,,,,,,,,,,,,,,,,,,,,,,1,6.369705478995456,,,,,,,,,,,,,,,,,,,,,,,,,,,,062419_p1,001,2019_Jun_24_1520,body_behavioural,3.0.4,60.091727138208064,
7,"Before going through the metal detector, there was a pause in the security line to roll out the empty bin cart and roll in a filled one. ",2,2,None,,,,0,7,7,7,,,,,0,16,16,16,,,,,,,,,,,,,,,,,,,,,,,,,,,,,,,,,9,7.251159445004305,,,,,,,,,,,,,,,,,,,,,,,,,,,,062419_p1,001,2019_Jun_24_1520,body_behavioural,3.0.4,60.091727138208064,
7,They placed everything in their bins. ,2,2,None,,,,0,7,7,7,,,,,0,17,17,17,,,,,,,,,,,,,,,,,,,,,,,,,,,,,,,,,1,1.7031990340037737,,,,,,,,,,,,,,,,,,,,,,,,,,,,062419_p1,001,2019_Jun_24_1520,body_behavioural,3.0.4,60.091727138208064,
7,"Jeff mulled over the offer, nodding noncommittally to William's pitch as they proceeded through the metal detector.",2,2,None,,,,0,7,7,7,,,,,0,18,18,18,,,,,,,,,,,,,,,,,,,,,,,,,,,,,,,,,1,4.184714236995205,,,,,,,,,,,,,,,,,,,,,,,,,,,,062419_p1,001,2019_Jun_24_1520,body_behavioural,3.0.4,60.091727138208064,
7,"Having recovered from the security check, they began to walk through the concourse toward Jeff’s gate, B8, and William handed some printed spreadsheets to Jeff.",3,2,None,,,,0,7,7,7,,,,,0,19,19,19,,,,,,,,,,,,,,,,,,,,,,,,,,,,,,,,,1,10.217850279004779,,,,,,,,,,,,,,,,,,,,,,,,,,,,062419_p1,001,2019_Jun_24_1520,body_behavioural,3.0.4,60.091727138208064,
7,"Jeff, weaving through the crowd of travelers, squinted at William's rosy projections of the number of bottles he would purchase in the future.",3,2,None,,,,0,7,7,7,,,,,0,20,20,20,,,,,,,,,,,,,,,,,,,,,,,,,,,,,,,,,1,7.971486991998972,,,,,,,,,,,,,,,,,,,,,,,,,,,,062419_p1,001,2019_Jun_24_1520,body_behavioural,3.0.4,60.091727138208064,
7,"After thinking for a couple minutes and walking past a number of coffee shops that William was eyeing, Jeff said, “I am not sure about this since we’re not coming a corporate vineyard and gambling with sample shipments is the kind of risk we can’t necessarily make. ",3,3,None,,,,0,7,7,7,,,,,0,21,21,21,,,,,,,,,,,,,,,,,,,,,,,,,,,,,,,,,9,15.838686130999122,,,,,,,,,,,,,,,,,,,,,,,,,,,,062419_p1,001,2019_Jun_24_1520,body_behavioural,3.0.4,60.091727138208064,
7,"These corporate purchases would have to be huge and practically guaranteed, to offset the loss from selling sample shipments at a price like you suggest.”",3,3,None,,,,0,7,7,7,,,,,0,22,22,22,,,,,,,,,,,,,,,,,,,,,,,,,,,,,,,,,1,7.302954993996536,,,,,,,,,,,,,,,,,,,,,,,,,,,,062419_p1,001,2019_Jun_24_1520,body_behavioural,3.0.4,60.091727138208064,
7,"William decided to tell Jeff that they had made the same offer to their competitor, Yankee Vines, who had refused and that they would make a better offer to Jeff and his company.",3,3,None,,,,0,7,7,7,,,,,0,23,23,23,,,,,,,,,,,,,,,,,,,,,,,,,,,,,,,,,1,15.689141119990381,,,,,,,,,,,,,,,,,,,,,,,,,,,,062419_p1,001,2019_Jun_24_1520,body_behavioural,3.0.4,60.091727138208064,
7,"They walked to the gates very slowly, barely registering the hubbub of the airport.",3,3,None,,,,0,7,7,7,,,,,0,24,24,24,,,,,,,,,,,,,,,,,,,,,,,,,,,,,,,,,1,2.6840589179919334,,,,,,,,,,,,,,,,,,,,,,,,,,,,062419_p1,001,2019_Jun_24_1520,body_behavioural,3.0.4,60.091727138208064,
7,"William and Jeff came to an agreement on a compromise rate on the sample shipment, paying $400 for a $600 shipment of wine sample, and they finalized the deal with a handshake. ",3,4,None,,,,0,7,7,7,,,,,0,25,25,25,,,,,,,,,,,,,,,,,,,,,,,,,,,,,,,,,9,10.18863072199747,,,,,,,,,,,,,,,,,,,,,,,,,,,,062419_p1,001,2019_Jun_24_1520,body_behavioural,3.0.4,60.091727138208064,
7,"“Well, what a tremendous pleasure to do business with you and to have all this work out,” William said.",3,4,None,,,,0,7,7,7,,,,,0,26,26,26,,,,,,,,,,,,,,,,,,,,,,,,,,,,,,,,,1,2.3377648380119354,,,,,,,,,,,,,,,,,,,,,,,,,,,,062419_p1,001,2019_Jun_24_1520,body_behavioural,3.0.4,60.091727138208064,
7,"Jeff nodded enthusiastically, and responded, “Likewise- this has been great.  ",3,4,None,,,,0,7,7,7,,,,,0,27,27,27,,,,,,,,,,,,,,,,,,,,,,,,,,,,,,,,,1,2.186829982994823,,,,,,,,,,,,,,,,,,,,,,,,,,,,062419_p1,001,2019_Jun_24_1520,body_behavioural,3.0.4,60.091727138208064,
7,I'll let you get to your gate.,3,4,None,,,,0,7,7,7,,,,,0,28,28,28,,,,,,,,,,,,,,,,,,,,,,,,,,,,,,,,,1,1.800620905996766,,,,,,,,,,,,,,,,,,,,,,,,,,,,062419_p1,001,2019_Jun_24_1520,body_behavioural,3.0.4,60.091727138208064,
7,"Once we’re both back on the ground, we can work out all the official documentation and get this in the books.”",3,4,None,,,,0,7,7,7,,,,,0,29,29,29,,,,,,,,,,,,,,,,,,,,,,,,,,,,,,,,,1,9.070058254001196,,,,,,,,,,,,,,,,,,,,,,,,,,,,062419_p1,001,2019_Jun_24_1520,body_behavioural,3.0.4,60.091727138208064,
7,"Jeff jogged to his gate, scanned his boarding pass, and walked onto the plane.",4,4,None,,,,0,7,7,7,,,,,0,30,30,30,,,,,,,,,,,,,,,,,,,,,,,,,,,,,,,,,1,2.2535496719938237,,,,,,,,,,,,,,,,,,,,,,,,,,,,062419_p1,001,2019_Jun_24_1520,body_behavioural,3.0.4,60.091727138208064,
7,He sat down in seat 4A in the business class section and  typed out a quick email on his phone letting the rest of his team know the good news. ,4,4,None,,,,0,7,7,7,,,,,0,31,31,31,,,,,,,,,,,,,,,,,,,,,,,,,,,,,,,,,9,18.036905895991367,,,,,,,,,,,,,,,,,,,,,,,,,,,,062419_p1,001,2019_Jun_24_1520,body_behavioural,3.0.4,60.091727138208064,
7,"When the flight attendant came by, he ordered a glass of champagne to celebrate.",4,4,None,,,,0,7,7,7,,,,,0,32,32,32,,,,,,,,,,,,,,,,,,,,,,,,,,,,,,,,,1,1.8030596439930378,,,,,,,,,,,,,,,,,,,,,,,,,,,,062419_p1,001,2019_Jun_24_1520,body_behavioural,3.0.4,60.091727138208064,
7,,,,,,,,0,7,7,7,,,,,,,,,,,,,,,,,,,,,,,,,,,,,,,,,,,,,,,,,,,,,,,,,,,,,,,,,,,,,,,,,,,,,,062419_p1,001,2019_Jun_24_1520,body_behavioural,3.0.4,60.091727138208064,
,,,,,,,,,,,,,,,,,,,,,,,,,,,,,,,,,,,,,,,,,,,,,,,,,,,,,,2163.884232593002,space,6.101345518996823,,,,,,,,,,,,,,,,,,,,,,,,,062419_p1,001,2019_Jun_24_1520,body_behavioural,3.0.4,60.091727138208064,
,,,,,,,"In this next part of the experiment, please recall each story to the best of your ability.",,,,,,,,,,,,,0,0,0,0,,,,,,,,,,,,,,,,,,,,,,,,,,,,,,,,,,space,59.65697461699892,,,,,,,,,,,,,,,,,,,,,,,062419_p1,001,2019_Jun_24_1520,body_behavioural,3.0.4,60.091727138208064,
,,,,,,,"You will be presented with the story title, names, the images, and a blank text box for each story.",,,,,,,,,,,,,0,1,1,1,,,,,,,,,,,,,,,,,,,,,,,,,,,,,,,,,,space,3.5213056870125,,,,,,,,,,,,,,,,,,,,,,,062419_p1,001,2019_Jun_24_1520,body_behavioural,3.0.4,60.091727138208064,
,,,,,,,Describe the story indicated with as many details as you can remember in the space provided. ,,,,,,,,,,,,,0,2,2,2,,,,,,,,,,,,,,,,,,,,,,,,,,,,,,,,,,space,3.719977761997143,,,,,,,,,,,,,,,,,,,,,,,062419_p1,001,2019_Jun_24_1520,body_behavioural,3.0.4,60.091727138208064,
,,,,,,,"When you are finished recalling one story, to move onto the next one, press the ‘return’ key. ",,,,,,,,,,,,,0,3,3,3,,,,,,,,,,,,,,,,,,,,,,,,,,,,,,,,,,space,86.85993386199698,,,,,,,,,,,,,,,,,,,,,,,062419_p1,001,2019_Jun_24_1520,body_behavioural,3.0.4,60.091727138208064,
,,,,,,,There is a 5 minute time limit to make your response. ,,,,,,,,,,,,,0,4,4,4,,,,,,,,,,,,,,,,,,,,,,,,,,,,,,,,,,space,5.98753538398887,,,,,,,,,,,,,,,,,,,,,,,062419_p1,001,2019_Jun_24_1520,body_behavioural,3.0.4,60.091727138208064,
,,,,,,,Please note that you will not be able to capitalize any letters except for the first letter of your answer. This will not effect the scoring of your recall answer.,,,,,,,,,,,,,0,5,5,5,,,,,,,,,,,,,,,,,,,,,,,,,,,,,,,,,,space,14.537178037004196,,,,,,,,,,,,,,,,,,,,,,,062419_p1,001,2019_Jun_24_1520,body_behavioural,3.0.4,60.091727138208064,
0,,,,,,,,,,,,,,,,,,,,,,,,0,0,0,0,,,,,,,,,,,,,,,,,,,,,,,,,,,,,,,,space,2.3559484379948117,"Teresa was walking into a bar, when she ran into the door, and slammed her forehead. she was a bit dazed, but didn't seem to be too affected by the embarassing scene, even if those near the cash register saw it all unfold. another person at the bar, james,also noticed the incident  and found the incident endearing. the two ended up sitting near each other, and not too long after teresa was seated, did james joke about her grand entrance. the two hit it off, and had a conversation over dinner. james ordered a tuna roll, and another one i can't remember.after a wjile, james nervously invited teresa to a concert he was attending later on that night, which teresa agreed too. and then james left because he had to get some errands done before the date!",,,,,,,,,,,,,,,,,,,,062419_p1,001,2019_Jun_24_1520,body_behavioural,3.0.4,60.091727138208064,
1,,,,,,,,,,,,,,,,,,,,,,,,0,1,1,1,,,,,,,,,,,,,,,,,,,,,,,,,,,,,,,,space,1.0531427239911864,"Leon was at the board in a college classroom, he was cleaning the erasers when someone - ariana- walked through the doors. as soon as he saw her, leon was convinced he'd seen her before, he just could not remember where. throughout the lecture, leon could not take his eyes off of this girl, still trying to figure out where they had met before. when it became too much, he ended up passing a note to her- ariana- asking if she'd ever been in la. she replied funnily implying nope, but maybe her long lost twin was from la. leon, probably given the ego boost from her flirty response, asked her out to take a walk after classes were done. she agreed and the two went back to trying to pay attention to the teacher, taking notes. when class ended ariana was looking forward to the 2 meeting up, but said she had to run so she wouldn't be late for her next class",,,,,,,,,,,,,,,,,,,,062419_p1,001,2019_Jun_24_1520,body_behavioural,3.0.4,60.091727138208064,
2,,,,,,,,,,,,,,,,,,,,,,,,0,2,2,2,,,,,,,,,,,,,,,,,,,,,,,,,,,,,,,,space,74.47511469799792,"Seanna had just had her first tomatoes blossom in her home garden, and her boyfriend seanna had taken the perfect opprotunity to use this small victory to take alvira out to a really fancy and expensive restaurant, where he was really planning on proposing to her. they ordered food, and alvira kept mentioning how surprised she was and seanna going all out just for some fruitful tomatoes. seanna kept the ruse up and said something to the affect of- of course we must celebrate. throughout dinner he had been sharing hidden, nervous, smiles and winks with the restaurant staff, who were all in on the surprise proposal. after the 2 had throughly enjoyed their entrees, a waitor brought out a cake that had alviras name and a pretty ring sitting on top of it. alvira soon caught on and wore a shocked expression. after seanna asked the question, alvira gleefully said yes and went to text her dad or sister right away",,,,,,,,,,,,,,,,,,,,062419_p1,001,2019_Jun_24_1520,body_behavioural,3.0.4,60.091727138208064,
3,,,,,,,,,,,,,,,,,,,,,,,,0,3,3,3,,,,,,,,,,,,,,,,,,,,,,,,,,,,,,,,space,2.0192925870069303,"Ms bianchi is a cheesemaker/seller from italy, and was meeting with a potential buyer here in america, named ms. morrison, the 2 were meeting in the grocery store ms morrison overlooked, which may be odd to some, but ms morrison likes holding meeting where the products she's making agreements on, are being sold. she tries to remind everyone where all their work ends up. after the two exchange small conversation, ms bianchi goes straight onto her sales pitch and says how much better quality and value her italian cheese has compared to the american cheeses ms morrisons' grocery store sells. ms morrision is convinved after a bit of passion and genuine confidence from ms bianchi, noting that she'd like to get ahead of their competitor orange grocer/orange grocery when it came to the speciality cheeses. they make the deal, and ms bianchi says how she is growing more fond of working with americans ",,,,,,,,,,,,,,,,,,,,062419_p1,001,2019_Jun_24_1520,body_behavioural,3.0.4,60.091727138208064,
4,,,,,,,,,,,,,,,,,,,,,,,,0,4,4,4,,,,,,,,,,,,,,,,,,,,,,,,,,,,,,,,space,0.76717830299458,"Emanuella and liam are heading to the airport, just ending a jamacian couples trip, going back home to the us. though, all is not perfect in paradise, the 2 are tense and unhappy with the other for different reasons. this is apparent with snappy remarks between the two and the outright annoyance emanuella conveys. liam is mad because he feels as though he has been trying to enjoy the trip and engage with emanuella, but is getting no effort in return. emanuella wants to break up with liam because she believes their personalities are no longer compatiable, and that it would be best to split when they make it back to the states. awakardly, liams comments on the lack of thorough security at the airport, noting how he could have easily hidden somethin in his shoes while walking through security. when the 2 get to their plane and sit down, emanuella shakes liams hand ",,,,,,,,,,,,,,,,,,,,062419_p1,001,2019_Jun_24_1520,body_behavioural,3.0.4,60.091727138208064,
5,,,,,,,,,,,,,,,,,,,,,,,,0,5,5,5,,,,,,,,,,,,,,,,,,,,,,,,,,,,,,,,space,204.7815569529921,"The only thing i can remember is the two were out buying pasta for a dinner party, and calvin made a snide comment about the menu choices, which jessie replied with anoyance. and they both eventually agreed to break up after the party after some public arguments. they also both said that they would keep it from their friends for the night",,,,,,,,,,,,,,,,,,,,062419_p1,001,2019_Jun_24_1520,body_behavioural,3.0.4,60.091727138208064,
6,,,,,,,,,,,,,,,,,,,,,,,,0,6,6,6,,,,,,,,,,,,,,,,,,,,,,,,,,,,,,,,space,1.902579411995248,"Aaron and lana have been together for a while, and they both are in a lecture class. at the start of class aaron and the professor share some reassuring looks because aaron is proposing to lana, and is nervous, i'm asuming it's because he is doing it in front of everyone. anyway, the ring is more avant garde then normal, because that is lanas taste, it a band with 5 elaborate diamonds encrusted in it rather than one big shiny one. the professor, in on the whole situation, sets up the proposal by talking about covalent bonds and how one needs the other and all that jazz, eventually ending the portion of the lecture by commanding lana to get to the front of the class, center stage, and do a demonstration. lana agrees, but is confused, and then shocked when aaron followers her to the front and gets down on one knee. he proposes using the ever so cheesy line-it's time to make our own bond. lana is crying but says yes, and the class erupts in cheer and celbration while their mutual friends come through the doors, excited and ready to see the ring",,,,,,,,,,,,,,,,,,,,062419_p1,001,2019_Jun_24_1520,body_behavioural,3.0.4,60.091727138208064,
7,,,,,,,,,,,,,,,,,,,,,,,,0,7,7,7,,,,,,,,,,,,,,,,,,,,,,,,,,,,,,,,space,1.0530987419915618,"Jeff and william both meet in a wine shop or somewhere that sells wine, and jeff begins to go into a detailed complaint of the wine to william, which leads the two to realize they both work in the wine buisness, jeff as somone who chooses/buys wine for corporate events and william as a wine seller for some big company. after this chance meeting the two agree to meet the following day at the airport, because they have similar departing flights back to boston. when they meet up the following day, the recollect how coincidental it is that they meant, and jeff starts on his sales pitch as soon as possible, because he was getting dissapointed that he was going back to his boss without any promising wines from the east coast. william is a little weary at the deal jeff offers, since it would require him to sell jeff large amounts of wine at a heavily discounted price, but eventually the two compromise and shake on it, promising to get all the official paperwork done when they land",,,,,,,,,,,,,,,,,,,,062419_p1,001,2019_Jun_24_1520,body_behavioural,3.0.4,60.091727138208064,
,,,,,,,,,,,,,,,,,,,,,,,,,,,,,,,,,,,,,,,,,,,,,,,,,,,,,,,,,,,,,,4693.740432523002,space,1.5012697959900834,,,,,,,,,,,,,,,,,062419_p1,001,2019_Jun_24_1520,body_behavioural,3.0.4,60.091727138208064,
,,,,,,,"In this last part of the experiment, please answer 8 questions about each story.",,,,,,,,,,,,,,,,,,,,,0,0,0,0,,,,,,,,,,,,,,,,,,,,,,,,,,,,,,,,,,space,71.14205145899905,,,,,,,,,,,,,,,062419_p1,001,2019_Jun_24_1520,body_behavioural,3.0.4,60.091727138208064,
,,,,,,,Some of the questions are not related to the perspective you were asked to assume.,,,,,,,,,,,,,,,,,,,,,0,1,1,1,,,,,,,,,,,,,,,,,,,,,,,,,,,,,,,,,,space,2.1702635050023673,,,,,,,,,,,,,,,062419_p1,001,2019_Jun_24_1520,body_behavioural,3.0.4,60.091727138208064,
,,,,,,,"We realize that we did not tell you to think of these questions during the story, but please do your best to answer them.",,,,,,,,,,,,,,,,,,,,,0,2,2,2,,,,,,,,,,,,,,,,,,,,,,,,,,,,,,,,,,space,3.4201793800020823,,,,,,,,,,,,,,,062419_p1,001,2019_Jun_24_1520,body_behavioural,3.0.4,60.091727138208064,
,,,,,,,"When you have finished typing your answer, hit ‘return’ to submit your answer and move onto the next question. ",,,,,,,,,,,,,,,,,,,,,0,3,3,3,,,,,,,,,,,,,,,,,,,,,,,,,,,,,,,,,,space,5.367851367991534,,,,,,,,,,,,,,,062419_p1,001,2019_Jun_24_1520,body_behavioural,3.0.4,60.091727138208064,
0,,,,,,,,,,,,,,,,,,,,,,,,,,,,,,,,0,0,0,0,,,,,,,,,,,,,,,,,,,,,,,,,,No idea,,,,,,space,1.5201276239968138,"No idea, i know that the cash register is near the front door. oh and there is a bar somewhere in the restaurant ",non-primed first,No idea ,"James orders 2 rolls, one is tuna, and i cannot remember the other one. i do not remember what teresa orders",They both like the food,James is holding a newspaper when he notices teresa run into the front door,Is your forehead okay,Later on that night to go to a concert together,No idea,,,,062419_p1,001,2019_Jun_24_1520,body_behavioural,3.0.4,60.091727138208064,
1,,,,,,,,,,,,,,,,,,,,,,,,,,,,,,,,0,1,1,1,,,,,,,,,,,,,,,,,,,,,,,,,,No idea,,,,,,space,2.4027608649921604,Leon is holding erasers for a chalk or dry erase board,non-primed first,Have you ever been to la,"Later on, after ariana's classes to go on a walk together",No idea,No idea,"No idea, hmm maybe science, or history ",No idea,No idea,,,,062419_p1,001,2019_Jun_24_1520,body_behavioural,3.0.4,60.091727138208064,
2,,,,,,,,,,,,,,,,,,,,,,,,,,,,,,,,0,2,2,2,,,,,,,,,,,,,,,,,,,,,,,,,,They really like the oysters,,,,,,space,0.9869795620033983,Maybe 6,non-primed first,1,The ring is on a cake,Her sister,No idea,"They are small and written ina  fancy cursive font, without the prices",Someone orders oysters,They really like the oysters,,,,062419_p1,001,2019_Jun_24_1520,body_behavioural,3.0.4,60.091727138208064,
3,,,,,,,,,,,,,,,,,,,,,,,,,,,,,,,,0,3,3,3,,,,,,,,,,,,,,,,,,,,,,,,,,They are $25 and ms morrison pays with a check ,,,,,,space,1.0720245279953815,Ms bianchi is cheese maker/seller from italy and ms morrison is the production manager or floor overseer of a grocery store,non-primed first,No idea,Orange grocer,Shake hands,There are pumpkins and halloween decorations all over since its the appropiate season,No idea,"There is only one but it is not long, i think it's aisle 2",They are $25 and ms morrison pays with a check ,,,,062419_p1,001,2019_Jun_24_1520,body_behavioural,3.0.4,60.091727138208064,
4,,,,,,,,,,,,,,,,,,,,,,,,,,,,,,,,0,4,4,4,,,,,,,,,,,,,,,,,,,,,,,,,,No idea how much but emanuella outs it on her card,,,,,,space,0.8532154900021851,6 weeks ,primed first,That they have personalities that are not compatible ,"Liam does not want to break up, but agrees to it as to not bore emanuella ",Emanuella wants her philosophy books back,No idea,Emanuella picks out pasta and vodka sauce and parmesean cheese,"I think only one, could be lane 2",No idea how much but emanuella outs it on her card,,,,062419_p1,001,2019_Jun_24_1520,body_behavioural,3.0.4,60.091727138208064,
5,,,,,,,,,,,,,,,,,,,,,,,,,,,,,,,,0,5,5,5,,,,,,,,,,,,,,,,,,,,,,,,,,No idea,,,,,,space,0.7359994629950961,No idea,non-primed first,No idea,No idea,No idea,45 minutes,To switch guard shifts,No idea,No idea,,,,062419_p1,001,2019_Jun_24_1520,body_behavioural,3.0.4,60.091727138208064,
6,,,,,,,,,,,,,,,,,,,,,,,,,,,,,,,,0,6,6,6,,,,,,,,,,,,,,,,,,,,,,,,,,Her dad,,,,,,space,0.9694026150100399,No idea,non-primed first,This is a science class and todays lecture is about covalent bonds and ions ,Things bond to specific other things not willy nilly ,There is a midterm next week covering the first 4 weeks of material ,No idea maybe 6,There are 5 diamonds and they are all res,Its in a school notebook,Her dad,,,,062419_p1,001,2019_Jun_24_1520,body_behavioural,3.0.4,60.091727138208064,
7,,,,,,,,,,,,,,,,,,,,,,,,,,,,,,,,0,7,7,7,,,,,,,,,,,,,,,,,,,,,,,,,,No idea,,,,,,space,0.8197149850020651,Jeff sells wine and wiliam buys it for corporate events,primed first,6 barrels for $800 ,Yankee vines,They shake hands,2 hours,To switch out item buckets ,2a,No idea,,,,062419_p1,001,2019_Jun_24_1520,body_behavioural,3.0.4,60.091727138208064,
,,,,,,,,,,,,,,,,,,,,,,,,,,,,,,,,,,,,,,,,,,,,,,,,,,,,,,,,,,,,,,,,,,,,,,,,,,,,,,5501.278612312002,space,0.9672962640033802,062419_p1,001,2019_Jun_24_1520,body_behavioural,3.0.4,60.091727138208064,
,,,,,,,,,,,,,,,,,,,,,,,,,,,,,,,,,,,,0,0,0,0,,,,,,,,,,,,,,,,,,,,,,,,,,,,,,,,,,,,,,,,,,062419_p1,001,2019_Jun_24_1520,body_behavioural,3.0.4,60.091727138208064,
,,,,,,,,,,,,,,,,,,,,,,,,,,,,,,,,,,,,1,0,1,0,,,,,,,,,,,,,,,,,,,,,,,,,,,,,,,,,,,,,,,,,,062419_p1,001,2019_Jun_24_1520,body_behavioural,3.0.4,60.091727138208064,
,,,,,,,,,,,,,,,,,,,,,,,,,,,,,,,,,,,,2,0,2,0,,,,,,,,,,,,,,,,,,,,,,,,,,,,,,,,,,,,,,,,,,062419_p1,001,2019_Jun_24_1520,body_behavioural,3.0.4,60.091727138208064,
,,,,,,,,,,,,,,,,,,,,,,,,,,,,,,,,,,,,3,0,3,0,,,,,,,,,,,,,,,,,,,,,,,,,,,,,,,,,,,,,,,,,,062419_p1,001,2019_Jun_24_1520,body_behavioural,3.0.4,60.091727138208064,
,,,,,,,,,,,,,,,,,,,,,,,,,,,,,,,,,,,,4,0,4,0,,,,,,,,,,,,,,,,,,,,,,,,,,,,,,,,,,,,,,,,,,062419_p1,001,2019_Jun_24_1520,body_behavioural,3.0.4,60.091727138208064,
