count,storyText,locationEvent,socialEvent,story,locationEventSize,socialEventSize,socialAnswer,locationAnswer,instructText,trials.thisRepN,trials.thisTrialN,trials.thisN,trials.thisIndex,trials_7.thisRepN,trials_7.thisTrialN,trials_7.thisN,trials_7.thisIndex,trials_2.thisRepN,trials_2.thisTrialN,trials_2.thisN,trials_2.thisIndex,trials_3.thisRepN,trials_3.thisTrialN,trials_3.thisN,trials_3.thisIndex,trials_4.thisRepN,trials_4.thisTrialN,trials_4.thisN,trials_4.thisIndex,trials_5.thisRepN,trials_5.thisTrialN,trials_5.thisN,trials_5.thisIndex,trials_6.thisRepN,trials_6.thisTrialN,trials_6.thisN,trials_6.thisIndex,trials_8.thisRepN,trials_8.thisTrialN,trials_8.thisN,trials_8.thisIndex,order of stories,order of perspectives,participant 2 order - stories,participant 2 order  - schemas types,key_resp_8.keys,key_resp_8.rt,key_resp_5.keys,key_resp_5.rt,key_resp_7.keys,key_resp_7.rt,key_resp_15.keys,key_resp_15.rt,key_resp_14.keys,key_resp_14.rt,story_presses.keys,story_presses.rt,story time,key_resp_6.keys,key_resp_6.rt,key_resp_2.keys,key_resp_2.rt,key_resp_10.keys,key_resp_10.rt,recall,recall time,key_resp_12.keys,key_resp_12.rt,key_resp_3.keys,key_resp_3.rt,key_resp_11.keys,key_resp_11.rt,question1_answer,order of question,question2_answer,question3_answer,question4_answer,question5_answer,question6_answer,question7_answer,question8_answer,questions time,key_resp_13.keys,key_resp_13.rt,participant,session,date,expName,psychopyVersion,frameRate,
0,,,,,,,,,,0,0,0,0,0,0,0,0,,,,,,,,,,,,,,,,,,,,,,,,,[23 42 43 11 34 31 22 14 33 24 13 32 44 41 12 21],"['Location' 'Location' 'Social' 'Social' 'Social' 'Location' 'Social'
 'Location' 'Social' 'Location' 'Location' 'Location' 'Social' 'Location'
 'Social' 'Social']",[33 24 13 32 44 41 12 21],"['Social' 'Location' 'Location' 'Location' 'Social' 'Location' 'Social'
 'Social']",space,3.5876571599801537,space,1.386088549013948,space,2.167714082985185,,,,,,,,,,,,,,,,,,,,,,,,,,,,,,,,,,062519_p2,001,2019_Jun_25_1339,body_behavioural,3.0.4,59.8388600547107,
0,"Alex was a distracted, sweaty mess as he walked into the grocery store with Chloe; he was hoping that she wouldn't suspect that he was about to propose.",1,1,23.0,,,,,,0,0,0,0,,,,,0,0,0,0,,,,,,,,,,,,,,,,,,,,,,,,,,,,,,,space,3.069433687021956,space,2.5030319030047394,1,18.571505226980662,,,,,,,,,,,,,,,,,,,,,,,,,,,,062519_p2,001,2019_Jun_25_1339,body_behavioural,3.0.4,59.8388600547107,
0,The grocery store was brightly lit with sunshine pouring in through glass walls at the front of the store.,1,1,None,,,,,,0,0,0,0,,,,,0,1,1,1,,,,,,,,,,,,,,,,,,,,,,,,,,,,,,,,,,,1,10.251616016001208,,,,,,,,,,,,,,,,,,,,,,,,,,,,062519_p2,001,2019_Jun_25_1339,body_behavioural,3.0.4,59.8388600547107,
0,Also in the front area were large posters advertising thanksgiving promotions.,1,1,None,,,,,,0,0,0,0,,,,,0,2,2,2,,,,,,,,,,,,,,,,,,,,,,,,,,,,,,,,,,,1,7.083876566000981,,,,,,,,,,,,,,,,,,,,,,,,,,,,062519_p2,001,2019_Jun_25_1339,body_behavioural,3.0.4,59.8388600547107,
0,"The store was buzzing with activity because the next day was Thanksgiving, and most shoppers had carts piled high with turkey, stuffing, and pies.",1,1,None,,,,,,0,0,0,0,,,,,0,3,3,3,,,,,,,,,,,,,,,,,,,,,,,,,,,,,,,,,,,1,7.75311357100145,,,,,,,,,,,,,,,,,,,,,,,,,,,,062519_p2,001,2019_Jun_25_1339,body_behavioural,3.0.4,59.8388600547107,
0,Alex wanted to propose here because he knew Chloe would be wonderfully surprised. ,1,1,None,,,,,,0,0,0,0,,,,,0,4,4,4,,,,,,,,,,,,,,,,,,,,,,,,,,,,,,,,,,,1,4.769894003024092,,,,,,,,,,,,,,,,,,,,,,,,,,,,062519_p2,001,2019_Jun_25_1339,body_behavioural,3.0.4,59.8388600547107,
0,"After 23 months of dating, Alex knew one of the things Chloe loved most was surprises. ",1,1,None,,,,,,0,0,0,0,,,,,0,5,5,5,,,,,,,,,,,,,,,,,,,,,,,,,,,,,,,,,,,1,9.053937817981932,,,,,,,,,,,,,,,,,,,,,,,,,,,,062519_p2,001,2019_Jun_25_1339,body_behavioural,3.0.4,59.8388600547107,
0,"Chloe perused the canned goods aisle, and said, “Alex, we need a couple things.”",2,1,None,,,,,,0,0,0,0,,,,,0,6,6,6,,,,,,,,,,,,,,,,,,,,,,,,,,,,,,,,,,,9,17.57180272799451,,,,,,,,,,,,,,,,,,,,,,,,,,,,062519_p2,001,2019_Jun_25_1339,body_behavioural,3.0.4,59.8388600547107,
0,"He didn’t hear her and was fanning himself, and Chloe asked him if he was okay.",2,1,None,,,,,,0,0,0,0,,,,,0,7,7,7,,,,,,,,,,,,,,,,,,,,,,,,,,,,,,,,,,,1,9.820744292985182,,,,,,,,,,,,,,,,,,,,,,,,,,,,062519_p2,001,2019_Jun_25_1339,body_behavioural,3.0.4,59.8388600547107,
0,"“Oh yeah, for sure,” he said, unconvincingly. ",2,1,None,,,,,,0,0,0,0,,,,,0,8,8,8,,,,,,,,,,,,,,,,,,,,,,,,,,,,,,,,,,,1,2.519341192994034,,,,,,,,,,,,,,,,,,,,,,,,,,,,062519_p2,001,2019_Jun_25_1339,body_behavioural,3.0.4,59.8388600547107,
0,"She chuckled, “Alright, whatever you say.” ",2,1,None,,,,,,0,0,0,0,,,,,0,9,9,9,,,,,,,,,,,,,,,,,,,,,,,,,,,,,,,,,,,1,3.986931199004175,,,,,,,,,,,,,,,,,,,,,,,,,,,,062519_p2,001,2019_Jun_25_1339,body_behavioural,3.0.4,59.8388600547107,
0,"She had a can of pumpkin puree and a bottle of vinegar picked out, and she was now mulling over the different cans of cranberry sauce.",2,1,None,,,,,,0,0,0,0,,,,,0,10,10,10,,,,,,,,,,,,,,,,,,,,,,,,,,,,,,,,,,,1,4.9200625360244885,,,,,,,,,,,,,,,,,,,,,,,,,,,,062519_p2,001,2019_Jun_25_1339,body_behavioural,3.0.4,59.8388600547107,
0,"Alex was guessing she would be a while, and he turned his back to her and pulled out the ring to look at it one more time. ",2,2,None,,,,,,0,0,0,0,,,,,0,11,11,11,,,,,,,,,,,,,,,,,,,,,,,,,,,,,,,,,,,1,5.686418682016665,,,,,,,,,,,,,,,,,,,,,,,,,,,,062519_p2,001,2019_Jun_25_1339,body_behavioural,3.0.4,59.8388600547107,
0,The ring a thin band with one white diamond that glittered excessively in the light. ,2,2,None,,,,,,0,0,0,0,,,,,0,12,12,12,,,,,,,,,,,,,,,,,,,,,,,,,,,,,,,,,,,1,7.717958663008176,,,,,,,,,,,,,,,,,,,,,,,,,,,,062519_p2,001,2019_Jun_25_1339,body_behavioural,3.0.4,59.8388600547107,
0,“Do we need anything else?” she called out to him. ,2,2,None,,,,,,0,0,0,0,,,,,0,13,13,13,,,,,,,,,,,,,,,,,,,,,,,,,,,,,,,,,,,1,4.20376587100327,,,,,,,,,,,,,,,,,,,,,,,,,,,,062519_p2,001,2019_Jun_25_1339,body_behavioural,3.0.4,59.8388600547107,
0,"“Yeah I don’t know, honey,” he said back, still looking at the ring. ",2,2,None,,,,,,0,0,0,0,,,,,0,14,14,14,,,,,,,,,,,,,,,,,,,,,,,,,,,,,,,,,,,1,3.8031773309921846,,,,,,,,,,,,,,,,,,,,,,,,,,,,062519_p2,001,2019_Jun_25_1339,body_behavioural,3.0.4,59.8388600547107,
0,"In the checkout area, there were 5 aisles open and they stepped in line for station 3. ",3,2,None,,,,,,0,0,0,0,,,,,0,15,15,15,,,,,,,,,,,,,,,,,,,,,,,,,,,,,,,,,,,1,6.07042032800382,,,,,,,,,,,,,,,,,,,,,,,,,,,,062519_p2,001,2019_Jun_25_1339,body_behavioural,3.0.4,59.8388600547107,
0,Alex was staring intensely off into the distance for most of the time and fidgeting with his wallet. ,3,2,None,,,,,,0,0,0,0,,,,,0,16,16,16,,,,,,,,,,,,,,,,,,,,,,,,,,,,,,,,,,,1,10.172813792014495,,,,,,,,,,,,,,,,,,,,,,,,,,,,062519_p2,001,2019_Jun_25_1339,body_behavioural,3.0.4,59.8388600547107,
0,"Chloe watched him trying to decide whether he looked scared or confused, and shrugged, pulling out her phone since she figured he’d talk about whatever was on his mind when he was ready. ",3,2,None,,,,,,0,0,0,0,,,,,0,17,17,17,,,,,,,,,,,,,,,,,,,,,,,,,,,,,,,,,,,1,8.205365893023554,,,,,,,,,,,,,,,,,,,,,,,,,,,,062519_p2,001,2019_Jun_25_1339,body_behavioural,3.0.4,59.8388600547107,
0,Alex looked over at their friends who were waiting by the entrance of the grocery store.,3,2,None,,,,,,0,0,0,0,,,,,0,18,18,18,,,,,,,,,,,,,,,,,,,,,,,,,,,,,,,,,,,1,5.585820487991441,,,,,,,,,,,,,,,,,,,,,,,,,,,,062519_p2,001,2019_Jun_25_1339,body_behavioural,3.0.4,59.8388600547107,
0,They walked over slowly. ,3,2,None,,,,,,0,0,0,0,,,,,0,19,19,19,,,,,,,,,,,,,,,,,,,,,,,,,,,,,,,,,,,1,2.3842257969954517,,,,,,,,,,,,,,,,,,,,,,,,,,,,062519_p2,001,2019_Jun_25_1339,body_behavioural,3.0.4,59.8388600547107,
0,"Seemingly out of nowhere, Alex took Chloe’s hand and he got down on one knee. ",3,3,None,,,,,,0,0,0,0,,,,,0,20,20,20,,,,,,,,,,,,,,,,,,,,,,,,,,,,,,,,,,,9,5.07184275999316,,,,,,,,,,,,,,,,,,,,,,,,,,,,062519_p2,001,2019_Jun_25_1339,body_behavioural,3.0.4,59.8388600547107,
0,Chloe gasped,3,3,None,,,,,,0,0,0,0,,,,,0,21,21,21,,,,,,,,,,,,,,,,,,,,,,,,,,,,,,,,,,,1,2.4200377500092145,,,,,,,,,,,,,,,,,,,,,,,,,,,,062519_p2,001,2019_Jun_25_1339,body_behavioural,3.0.4,59.8388600547107,
0,"“Chloe, I love you so much and I want to be with you forever, I can’t imagine a day without you.”",3,3,None,,,,,,0,0,0,0,,,,,0,22,22,22,,,,,,,,,,,,,,,,,,,,,,,,,,,,,,,,,,,1,2.8538433900102973,,,,,,,,,,,,,,,,,,,,,,,,,,,,062519_p2,001,2019_Jun_25_1339,body_behavioural,3.0.4,59.8388600547107,
0,"“Alex, me too,” she replied.",3,3,None,,,,,,0,0,0,0,,,,,0,23,23,23,,,,,,,,,,,,,,,,,,,,,,,,,,,,,,,,,,,1,1.6536907459958456,,,,,,,,,,,,,,,,,,,,,,,,,,,,062519_p2,001,2019_Jun_25_1339,body_behavioural,3.0.4,59.8388600547107,
0,"The ring was in the crevice of his wallet, and he opened it.",3,3,None,,,,,,0,0,0,0,,,,,0,24,24,24,,,,,,,,,,,,,,,,,,,,,,,,,,,,,,,,,,,1,3.1370749580091797,,,,,,,,,,,,,,,,,,,,,,,,,,,,062519_p2,001,2019_Jun_25_1339,body_behavioural,3.0.4,59.8388600547107,
0,“Will you marry me?”,3,3,None,,,,,,0,0,0,0,,,,,0,25,25,25,,,,,,,,,,,,,,,,,,,,,,,,,,,,,,,,,,,1,6.720279033004772,,,,,,,,,,,,,,,,,,,,,,,,,,,,062519_p2,001,2019_Jun_25_1339,body_behavioural,3.0.4,59.8388600547107,
0,"The people in line around them realized what was happening, stepped back, and started taking pictures.",3,3,None,,,,,,0,0,0,0,,,,,0,26,26,26,,,,,,,,,,,,,,,,,,,,,,,,,,,,,,,,,,,1,5.2037039679999,,,,,,,,,,,,,,,,,,,,,,,,,,,,062519_p2,001,2019_Jun_25_1339,body_behavioural,3.0.4,59.8388600547107,
0,Their friends were no longer trying to hide and were videotaping and taking pictures too. ,3,3,None,,,,,,0,0,0,0,,,,,0,27,27,27,,,,,,,,,,,,,,,,,,,,,,,,,,,,,,,,,,,1,6.236611461004941,,,,,,,,,,,,,,,,,,,,,,,,,,,,062519_p2,001,2019_Jun_25_1339,body_behavioural,3.0.4,59.8388600547107,
0,"After a few moments of suspense she shouted,“Yes!”, and she jumped to embrace Alex in a hug. ",3,4,None,,,,,,0,0,0,0,,,,,0,28,28,28,,,,,,,,,,,,,,,,,,,,,,,,,,,,,,,,,,,1,2.5031477529846597,,,,,,,,,,,,,,,,,,,,,,,,,,,,062519_p2,001,2019_Jun_25_1339,body_behavioural,3.0.4,59.8388600547107,
0,Everyone in line clapped and cheered. ,3,4,None,,,,,,0,0,0,0,,,,,0,29,29,29,,,,,,,,,,,,,,,,,,,,,,,,,,,,,,,,,,,9,5.504355448996648,,,,,,,,,,,,,,,,,,,,,,,,,,,,062519_p2,001,2019_Jun_25_1339,body_behavioural,3.0.4,59.8388600547107,
0,"Alex put the ring on Chloe’s finger, who was nearly spinning in excitement.",3,4,None,,,,,,0,0,0,0,,,,,0,30,30,30,,,,,,,,,,,,,,,,,,,,,,,,,,,,,,,,,,,1,4.486915790010244,,,,,,,,,,,,,,,,,,,,,,,,,,,,062519_p2,001,2019_Jun_25_1339,body_behavioural,3.0.4,59.8388600547107,
0,“I love it!,3,4,None,,,,,,0,0,0,0,,,,,0,31,31,31,,,,,,,,,,,,,,,,,,,,,,,,,,,,,,,,,,,1,1.9863618169911206,,,,,,,,,,,,,,,,,,,,,,,,,,,,062519_p2,001,2019_Jun_25_1339,body_behavioural,3.0.4,59.8388600547107,
0,Oh my- it’s so glittery!,3,4,None,,,,,,0,0,0,0,,,,,0,32,32,32,,,,,,,,,,,,,,,,,,,,,,,,,,,,,,,,,,,1,2.0702257490193006,,,,,,,,,,,,,,,,,,,,,,,,,,,,062519_p2,001,2019_Jun_25_1339,body_behavioural,3.0.4,59.8388600547107,
0,Look at this!” she said as she shoved her hand in a stranger’s face.,3,4,None,,,,,,0,0,0,0,,,,,0,33,33,33,,,,,,,,,,,,,,,,,,,,,,,,,,,,,,,,,,,1,3.703646818001289,,,,,,,,,,,,,,,,,,,,,,,,,,,,062519_p2,001,2019_Jun_25_1339,body_behavioural,3.0.4,59.8388600547107,
0,Their friends came over and hugged them.,3,4,None,,,,,,0,0,0,0,,,,,0,34,34,34,,,,,,,,,,,,,,,,,,,,,,,,,,,,,,,,,,,1,1.95336096000392,,,,,,,,,,,,,,,,,,,,,,,,,,,,062519_p2,001,2019_Jun_25_1339,body_behavioural,3.0.4,59.8388600547107,
0,The other people let them move up to the front of the checkout line. ,3,4,None,,,,,,0,0,0,0,,,,,0,35,35,35,,,,,,,,,,,,,,,,,,,,,,,,,,,,,,,,,,,1,2.604444388009142,,,,,,,,,,,,,,,,,,,,,,,,,,,,062519_p2,001,2019_Jun_25_1339,body_behavioural,3.0.4,59.8388600547107,
0,Chloe immediately texted her mom a picture of her hand. ,3,4,None,,,,,,0,0,0,0,,,,,0,36,36,36,,,,,,,,,,,,,,,,,,,,,,,,,,,,,,,,,,,1,2.5881298119784333,,,,,,,,,,,,,,,,,,,,,,,,,,,,062519_p2,001,2019_Jun_25_1339,body_behavioural,3.0.4,59.8388600547107,
0,The cashier congratulated them and scanned their groceries. ,4,4,None,,,,,,0,0,0,0,,,,,0,37,37,37,,,,,,,,,,,,,,,,,,,,,,,,,,,,,,,,,,,1,6.403437633998692,,,,,,,,,,,,,,,,,,,,,,,,,,,,062519_p2,001,2019_Jun_25_1339,body_behavioural,3.0.4,59.8388600547107,
0,The total came to $14 and Alex paid in cash while Chloe greeted their friends.,4,4,None,,,,,,0,0,0,0,,,,,0,38,38,38,,,,,,,,,,,,,,,,,,,,,,,,,,,,,,,,,,,1,11.985086461994797,,,,,,,,,,,,,,,,,,,,,,,,,,,,062519_p2,001,2019_Jun_25_1339,body_behavioural,3.0.4,59.8388600547107,
0,"Alex grabbed the bags, and they all walked out together working out where they’d go to celebrate.  ",4,4,None,,,,,,0,0,0,0,,,,,0,39,39,39,,,,,,,,,,,,,,,,,,,,,,,,,,,,,,,,,,,1,3.8535469459893648,,,,,,,,,,,,,,,,,,,,,,,,,,,,062519_p2,001,2019_Jun_25_1339,body_behavioural,3.0.4,59.8388600547107,
0,,,,,,,,,,0,0,0,0,,,,,,,,,,,,,,,,,,,,,,,,,,,,,,,,,,,,,,,,,,,,,,,,,,,,,,,,,,,,,,,,,,,,,,,,062519_p2,001,2019_Jun_25_1339,body_behavioural,3.0.4,59.8388600547107,
1,,,,,,,,,,0,1,1,1,0,0,0,0,,,,,,,,,,,,,,,,,,,,,,,,,,,,,space,3.1016174429969396,space,1.184338162012864,space,1.387558340007672,,,,,,,,,,,,,,,,,,,,,,,,,,,,,,,,,,062519_p2,001,2019_Jun_25_1339,body_behavioural,3.0.4,59.8388600547107,
1,David saw Anna for the first time when she burst into the airport frazzled with her half-zipped bag skidding behind her.,1,1,42.0,,,,,,0,1,1,1,,,,,0,0,0,0,,,,,,,,,,,,,,,,,,,,,,,,,,,,,,,space,1.7702928069920745,space,1.970051814976614,1,10.187660158000654,,,,,,,,,,,,,,,,,,,,,,,,,,,,062519_p2,001,2019_Jun_25_1339,body_behavioural,3.0.4,59.8388600547107,
1,"He had three hours until his flight and was reading a book on the laptop he was holding in the entrance to the airport, but she had only 35 minutes and was hoping to spend as little time in the entrance as possible. ",1,1,None,,,,,,0,1,1,1,,,,,0,1,1,1,,,,,,,,,,,,,,,,,,,,,,,,,,,,,,,,,,,1,12.034995997993974,,,,,,,,,,,,,,,,,,,,,,,,,,,,062519_p2,001,2019_Jun_25_1339,body_behavioural,3.0.4,59.8388600547107,
1,"Anna, a few strides into the airport, suddenly realized to her dismay that her shoes were untied, so she hunched over to tie them.",1,1,None,,,,,,0,1,1,1,,,,,0,2,2,2,,,,,,,,,,,,,,,,,,,,,,,,,,,,,,,,,,,1,6.854399912001099,,,,,,,,,,,,,,,,,,,,,,,,,,,,062519_p2,001,2019_Jun_25_1339,body_behavioural,3.0.4,59.8388600547107,
1,"David, who had been intrigued by Anna, observed that someone with a tall cart of luggage was heading straight for where she was kneeling and that both her and the person driving the cart were oblivious to the impeding collision. ",1,1,None,,,,,,0,1,1,1,,,,,0,3,3,3,,,,,,,,,,,,,,,,,,,,,,,,,,,,,,,,,,,9,10.137105710018659,,,,,,,,,,,,,,,,,,,,,,,,,,,,062519_p2,001,2019_Jun_25_1339,body_behavioural,3.0.4,59.8388600547107,
1,"After a few moment of deliberation, David decided to intervene, and he ran in front of the cart pushing her out of the way just in the nick of time, and they tumbled on the airport floor. ",1,2,None,,,,,,0,1,1,1,,,,,0,4,4,4,,,,,,,,,,,,,,,,,,,,,,,,,,,,,,,,,,,1,5.6548762079910375,,,,,,,,,,,,,,,,,,,,,,,,,,,,062519_p2,001,2019_Jun_25_1339,body_behavioural,3.0.4,59.8388600547107,
1,"Anna, bewildered, looked up and saw the cart pass by and then looked at David. ",1,2,None,,,,,,0,1,1,1,,,,,0,5,5,5,,,,,,,,,,,,,,,,,,,,,,,,,,,,,,,,,,,1,3.52011507700081,,,,,,,,,,,,,,,,,,,,,,,,,,,,062519_p2,001,2019_Jun_25_1339,body_behavioural,3.0.4,59.8388600547107,
1,He flashed a smile.,1,2,None,,,,,,0,1,1,1,,,,,0,6,6,6,,,,,,,,,,,,,,,,,,,,,,,,,,,,,,,,,,,1,1.9200396399828605,,,,,,,,,,,,,,,,,,,,,,,,,,,,062519_p2,001,2019_Jun_25_1339,body_behavioural,3.0.4,59.8388600547107,
1,“Were you ever a gymnast?,1,2,None,,,,,,0,1,1,1,,,,,0,7,7,7,,,,,,,,,,,,,,,,,,,,,,,,,,,,,,,,,,,1,2.1550804669968784,,,,,,,,,,,,,,,,,,,,,,,,,,,,062519_p2,001,2019_Jun_25_1339,body_behavioural,3.0.4,59.8388600547107,
1," That was a nice tumble,” he said.",1,2,None,,,,,,0,1,1,1,,,,,0,8,8,8,,,,,,,,,,,,,,,,,,,,,,,,,,,,,,,,,,,1,3.3705722999875434,,,,,,,,,,,,,,,,,,,,,,,,,,,,062519_p2,001,2019_Jun_25_1339,body_behavioural,3.0.4,59.8388600547107,
1,"She managed a chuckle and said, “Actually yes, but I’d say that deserved a score of zero.",1,2,None,,,,,,0,1,1,1,,,,,0,9,9,9,,,,,,,,,,,,,,,,,,,,,,,,,,,,,,,,,,,1,6.017849733005278,,,,,,,,,,,,,,,,,,,,,,,,,,,,062519_p2,001,2019_Jun_25_1339,body_behavioural,3.0.4,59.8388600547107,
1,Wow- I almost got smooshed by that cart.”,1,2,None,,,,,,0,1,1,1,,,,,0,10,10,10,,,,,,,,,,,,,,,,,,,,,,,,,,,,,,,,,,,1,3.8031253429944627,,,,,,,,,,,,,,,,,,,,,,,,,,,,062519_p2,001,2019_Jun_25_1339,body_behavioural,3.0.4,59.8388600547107,
1,Her head was still spinning as she stared at the handsome stranger who had saved her. ,1,2,None,,,,,,0,1,1,1,,,,,0,11,11,11,,,,,,,,,,,,,,,,,,,,,,,,,,,,,,,,,,,1,7.304086244985228,,,,,,,,,,,,,,,,,,,,,,,,,,,,062519_p2,001,2019_Jun_25_1339,body_behavioural,3.0.4,59.8388600547107,
1,David helped her up and had to keep holding on to her arms to steady her even once they were standing.,1,2,None,,,,,,0,1,1,1,,,,,0,12,12,12,,,,,,,,,,,,,,,,,,,,,,,,,,,,,,,,,,,1,5.270151378004812,,,,,,,,,,,,,,,,,,,,,,,,,,,,062519_p2,001,2019_Jun_25_1339,body_behavioural,3.0.4,59.8388600547107,
1,"“I’m really late for my flight,” she said. ",1,2,None,,,,,,0,1,1,1,,,,,0,13,13,13,,,,,,,,,,,,,,,,,,,,,,,,,,,,,,,,,,,9,4.871238362975419,,,,,,,,,,,,,,,,,,,,,,,,,,,,062519_p2,001,2019_Jun_25_1339,body_behavioural,3.0.4,59.8388600547107,
1,"“Don't worry,” said David, "let me help you get to your gate." ",1,2,None,,,,,,0,1,1,1,,,,,0,14,14,14,,,,,,,,,,,,,,,,,,,,,,,,,,,,,,,,,,,1,2.318915443000151,,,,,,,,,,,,,,,,,,,,,,,,,,,,062519_p2,001,2019_Jun_25_1339,body_behavioural,3.0.4,59.8388600547107,
1,He waved off her half-hearted protests. ,1,2,None,,,,,,0,1,1,1,,,,,0,15,15,15,,,,,,,,,,,,,,,,,,,,,,,,,,,,,,,,,,,1,3.686277369997697,,,,,,,,,,,,,,,,,,,,,,,,,,,,062519_p2,001,2019_Jun_25_1339,body_behavioural,3.0.4,59.8388600547107,
1,“Really- I have plenty of time and nothing better to do.” he said. ,1,2,None,,,,,,0,1,1,1,,,,,0,16,16,16,,,,,,,,,,,,,,,,,,,,,,,,,,,,,,,,,,,1,3.553859794017626,,,,,,,,,,,,,,,,,,,,,,,,,,,,062519_p2,001,2019_Jun_25_1339,body_behavioural,3.0.4,59.8388600547107,
1,"At security, the line was not long, but since Anna’s flight was so soon the security guard allowed them to go to the front of the line.",2,2,None,,,,,,0,1,1,1,,,,,0,17,17,17,,,,,,,,,,,,,,,,,,,,,,,,,,,,,,,,,,,1,11.020206285000313,,,,,,,,,,,,,,,,,,,,,,,,,,,,062519_p2,001,2019_Jun_25_1339,body_behavioural,3.0.4,59.8388600547107,
1,"They had to wait however, because there was a strange malfunction of the metal detector. ",2,2,None,,,,,,0,1,1,1,,,,,0,18,18,18,,,,,,,,,,,,,,,,,,,,,,,,,,,,,,,,,,,1,2.97031100501772,,,,,,,,,,,,,,,,,,,,,,,,,,,,062519_p2,001,2019_Jun_25_1339,body_behavioural,3.0.4,59.8388600547107,
1,"In this span of time, they managed to find out that they had gone to the same high school and that Anna had graduated 3 years before David. ",2,2,None,,,,,,0,1,1,1,,,,,0,19,19,19,,,,,,,,,,,,,,,,,,,,,,,,,,,,,,,,,,,1,8.487015821010573,,,,,,,,,,,,,,,,,,,,,,,,,,,,062519_p2,001,2019_Jun_25_1339,body_behavioural,3.0.4,59.8388600547107,
1,They hurriedly took off their shoes and coats.,2,2,None,,,,,,0,1,1,1,,,,,0,20,20,20,,,,,,,,,,,,,,,,,,,,,,,,,,,,,,,,,,,1,3.5028377290000208,,,,,,,,,,,,,,,,,,,,,,,,,,,,062519_p2,001,2019_Jun_25_1339,body_behavioural,3.0.4,59.8388600547107,
1,"Anna placed her purse and suitcase on the conveyor belt, and David put his backpack on the conveyor belt as well, with his laptop in a separate bin. ",2,2,None,,,,,,0,1,1,1,,,,,0,21,21,21,,,,,,,,,,,,,,,,,,,,,,,,,,,,,,,,,,,1,8.937407298013568,,,,,,,,,,,,,,,,,,,,,,,,,,,,062519_p2,001,2019_Jun_25_1339,body_behavioural,3.0.4,59.8388600547107,
1,Both of them went through the metal detector without any problems. ,2,2,None,,,,,,0,1,1,1,,,,,0,22,22,22,,,,,,,,,,,,,,,,,,,,,,,,,,,,,,,,,,,1,3.13426027901005,,,,,,,,,,,,,,,,,,,,,,,,,,,,062519_p2,001,2019_Jun_25_1339,body_behavioural,3.0.4,59.8388600547107,
1,"As they were rushing to put their shoes and coats on, they shared when they were coming back. ",2,2,None,,,,,,0,1,1,1,,,,,0,23,23,23,,,,,,,,,,,,,,,,,,,,,,,,,,,,,,,,,,,1,4.487176452006679,,,,,,,,,,,,,,,,,,,,,,,,,,,,062519_p2,001,2019_Jun_25_1339,body_behavioural,3.0.4,59.8388600547107,
1,"In a moment of boldness, David asked, “When we're back in town next Tuesday, is there any chance you'd want to get dinner?",2,3,None,,,,,,0,1,1,1,,,,,0,24,24,24,,,,,,,,,,,,,,,,,,,,,,,,,,,,,,,,,,,1,9.020756180980243,,,,,,,,,,,,,,,,,,,,,,,,,,,,062519_p2,001,2019_Jun_25_1339,body_behavioural,3.0.4,59.8388600547107,
1,"I know we just met, but when life throws a luggage cart at you it seems like we should listen. “",2,3,None,,,,,,0,1,1,1,,,,,0,25,25,25,,,,,,,,,,,,,,,,,,,,,,,,,,,,,,,,,,,1,4.685104203002993,,,,,,,,,,,,,,,,,,,,,,,,,,,,062519_p2,001,2019_Jun_25_1339,body_behavioural,3.0.4,59.8388600547107,
1,"She stopped packing, and said with a smile, “Yes I would love that.”",2,3,None,,,,,,0,1,1,1,,,,,0,26,26,26,,,,,,,,,,,,,,,,,,,,,,,,,,,,,,,,,,,9,4.15359387701028,,,,,,,,,,,,,,,,,,,,,,,,,,,,062519_p2,001,2019_Jun_25_1339,body_behavioural,3.0.4,59.8388600547107,
1,"On the concourse, they were running to get to Anna’s gate, J37, which was at the end of the terminal. ",3,3,None,,,,,,0,1,1,1,,,,,0,27,27,27,,,,,,,,,,,,,,,,,,,,,,,,,,,,,,,,,,,1,6.83649327600142,,,,,,,,,,,,,,,,,,,,,,,,,,,,062519_p2,001,2019_Jun_25_1339,body_behavioural,3.0.4,59.8388600547107,
1,"David took her suitcase, grabbed her hand, and weaved crowd of people.",3,3,None,,,,,,0,1,1,1,,,,,0,28,28,28,,,,,,,,,,,,,,,,,,,,,,,,,,,,,,,,,,,1,5.070422390010208,,,,,,,,,,,,,,,,,,,,,,,,,,,,062519_p2,001,2019_Jun_25_1339,body_behavioural,3.0.4,59.8388600547107,
1,People passing them were giving them funny looks because Anna looked so bewildered.,3,3,None,,,,,,0,1,1,1,,,,,0,29,29,29,,,,,,,,,,,,,,,,,,,,,,,,,,,,,,,,,,,1,3.703055416001007,,,,,,,,,,,,,,,,,,,,,,,,,,,,062519_p2,001,2019_Jun_25_1339,body_behavioural,3.0.4,59.8388600547107,
1,"Before getting to the gate, explaining that she would sprint the rest of the way, Anna fished out a crumpled business card from her pocket and handed it to David, who handed her the suitcase.",3,4,None,,,,,,0,1,1,1,,,,,0,30,30,30,,,,,,,,,,,,,,,,,,,,,,,,,,,,,,,,,,,1,6.354380931996275,,,,,,,,,,,,,,,,,,,,,,,,,,,,062519_p2,001,2019_Jun_25_1339,body_behavioural,3.0.4,59.8388600547107,
1,"She gave him one last embarrassed smile, thanked him, and hurried away.",3,4,None,,,,,,0,1,1,1,,,,,0,31,31,31,,,,,,,,,,,,,,,,,,,,,,,,,,,,,,,,,,,1,2.93758542498108,,,,,,,,,,,,,,,,,,,,,,,,,,,,062519_p2,001,2019_Jun_25_1339,body_behavioural,3.0.4,59.8388600547107,
1,"David looked at his watch which read 10:55 AM, 5 minutes before her flight was supposed to leave. ",3,4,None,,,,,,0,1,1,1,,,,,0,32,32,32,,,,,,,,,,,,,,,,,,,,,,,,,,,,,,,,,,,1,6.886671204003505,,,,,,,,,,,,,,,,,,,,,,,,,,,,062519_p2,001,2019_Jun_25_1339,body_behavioural,3.0.4,59.8388600547107,
1,"At the gate, Anna waved to the flight attendant who motioned for her to hurry and she boarded the plane. ",4,4,None,,,,,,0,1,1,1,,,,,0,33,33,33,,,,,,,,,,,,,,,,,,,,,,,,,,,,,,,,,,,1,3.120021265989635,,,,,,,,,,,,,,,,,,,,,,,,,,,,062519_p2,001,2019_Jun_25_1339,body_behavioural,3.0.4,59.8388600547107,
1,"She slid into her window seat 7D in business class, and barely containing her glee, she hugged the plastic-wrapped blanket. ",4,4,None,,,,,,0,1,1,1,,,,,0,34,34,34,,,,,,,,,,,,,,,,,,,,,,,,,,,,,,,,,,,1,9.888721876021009,,,,,,,,,,,,,,,,,,,,,,,,,,,,062519_p2,001,2019_Jun_25_1339,body_behavioural,3.0.4,59.8388600547107,
1,"She was thankful that she had not only made it onto the plane in time, but also that she had been clumsy enough to forget to tie her shoes.",4,4,None,,,,,,0,1,1,1,,,,,0,35,35,35,,,,,,,,,,,,,,,,,,,,,,,,,,,,,,,,,,,1,5.868001524999272,,,,,,,,,,,,,,,,,,,,,,,,,,,,062519_p2,001,2019_Jun_25_1339,body_behavioural,3.0.4,59.8388600547107,
1,,,,,,,,,,0,1,1,1,,,,,,,,,,,,,,,,,,,,,,,,,,,,,,,,,,,,,,,,,,,,,,,,,,,,,,,,,,,,,,,,,,,,,,,,062519_p2,001,2019_Jun_25_1339,body_behavioural,3.0.4,59.8388600547107,
2,,,,,,,,,,0,2,2,2,0,0,0,0,,,,,,,,,,,,,,,,,,,,,,,,,,,,,space,1.2528605079860426,space,5.3713546479993965,space,0.969701627996983,,,,,,,,,,,,,,,,,,,,,,,,,,,,,,,,,,062519_p2,001,2019_Jun_25_1339,body_behavioural,3.0.4,59.8388600547107,
2,"Carina and Simon, both distracted in thought, nearly ran into each other as they walked into the grocery store. ",1,1,43.0,,,,,,0,2,2,2,,,,,0,0,0,0,,,,,,,,,,,,,,,,,,,,,,,,,,,,,,,space,2.0195223149785306,space,1.453245020005852,1,8.170571480004583,,,,,,,,,,,,,,,,,,,,,,,,,,,,062519_p2,001,2019_Jun_25_1339,body_behavioural,3.0.4,59.8388600547107,
2,She nearly dropped the keys she was holding. ,1,1,None,,,,,,0,2,2,2,,,,,0,1,1,1,,,,,,,,,,,,,,,,,,,,,,,,,,,,,,,,,,,9,4.486642239993671,,,,,,,,,,,,,,,,,,,,,,,,,,,,062519_p2,001,2019_Jun_25_1339,body_behavioural,3.0.4,59.8388600547107,
2,"The store they had entered looked like a warehouse, with high, black ceilings, industrial lights, and large packages of food. ",1,1,None,,,,,,0,2,2,2,,,,,0,2,2,2,,,,,,,,,,,,,,,,,,,,,,,,,,,,,,,,,,,1,10.85374823899474,,,,,,,,,,,,,,,,,,,,,,,,,,,,062519_p2,001,2019_Jun_25_1339,body_behavioural,3.0.4,59.8388600547107,
2,"In the meat section, Carina and Simon were looking over the same cuts of meat, because they were both preparing for barbecues.",2,1,None,,,,,,0,2,2,2,,,,,0,3,3,3,,,,,,,,,,,,,,,,,,,,,,,,,,,,,,,,,,,1,8.63440145298955,,,,,,,,,,,,,,,,,,,,,,,,,,,,062519_p2,001,2019_Jun_25_1339,body_behavioural,3.0.4,59.8388600547107,
2,"Simon had wanted to talk to Carina, and Carina had wanted to say something to Simon, but they felt embarrassed striking up a conversation with a stranger.",2,1,None,,,,,,0,2,2,2,,,,,0,4,4,4,,,,,,,,,,,,,,,,,,,,,,,,,,,,,,,,,,,1,4.386994632979622,,,,,,,,,,,,,,,,,,,,,,,,,,,,062519_p2,001,2019_Jun_25_1339,body_behavioural,3.0.4,59.8388600547107,
2,"Carina mustered the courage, turned to Simon and, pointing at a Cornish hen, asked, “Isn’t this meat cute?”",2,2,None,,,,,,0,2,2,2,,,,,0,5,5,5,,,,,,,,,,,,,,,,,,,,,,,,,,,,,,,,,,,9,4.620417169993743,,,,,,,,,,,,,,,,,,,,,,,,,,,,062519_p2,001,2019_Jun_25_1339,body_behavioural,3.0.4,59.8388600547107,
2,"He laughed, and said, “It is very cute.",2,2,None,,,,,,0,2,2,2,,,,,0,6,6,6,,,,,,,,,,,,,,,,,,,,,,,,,,,,,,,,,,,1,3.5362100179772824,,,,,,,,,,,,,,,,,,,,,,,,,,,,062519_p2,001,2019_Jun_25_1339,body_behavioural,3.0.4,59.8388600547107,
2,"Probably the younger brother of this guy,” and he picked up a regular-sized chicken.",2,2,None,,,,,,0,2,2,2,,,,,0,7,7,7,,,,,,,,,,,,,,,,,,,,,,,,,,,,,,,,,,,1,5.003081495000515,,,,,,,,,,,,,,,,,,,,,,,,,,,,062519_p2,001,2019_Jun_25_1339,body_behavioural,3.0.4,59.8388600547107,
2,"“Unlucky family,” she responded as she shook her head. ",2,2,None,,,,,,0,2,2,2,,,,,0,8,8,8,,,,,,,,,,,,,,,,,,,,,,,,,,,,,,,,,,,1,3.653801910026232,,,,,,,,,,,,,,,,,,,,,,,,,,,,062519_p2,001,2019_Jun_25_1339,body_behavioural,3.0.4,59.8388600547107,
2,They chatted as they picked out a few last-minute groceries.,2,2,None,,,,,,0,2,2,2,,,,,0,9,9,9,,,,,,,,,,,,,,,,,,,,,,,,,,,,,,,,,,,1,6.984415975020966,,,,,,,,,,,,,,,,,,,,,,,,,,,,062519_p2,001,2019_Jun_25_1339,body_behavioural,3.0.4,59.8388600547107,
2,"Simon helped Carina select the best ribs and his personal favorite barbecue sauce, and she helped him choose red peppers and spices for a vegetable kabob she recommended.",2,2,None,,,,,,0,2,2,2,,,,,0,10,10,10,,,,,,,,,,,,,,,,,,,,,,,,,,,,,,,,,,,1,6.30429819598794,,,,,,,,,,,,,,,,,,,,,,,,,,,,062519_p2,001,2019_Jun_25_1339,body_behavioural,3.0.4,59.8388600547107,
2,"In the checkout area, there were three lines open, and they went to the one labeled “8.”",3,2,None,,,,,,0,2,2,2,,,,,0,11,11,11,,,,,,,,,,,,,,,,,,,,,,,,,,,,,,,,,,,1,10.521248103992548,,,,,,,,,,,,,,,,,,,,,,,,,,,,062519_p2,001,2019_Jun_25_1339,body_behavioural,3.0.4,59.8388600547107,
2,"Carina and Simon made jokes about the magazine covers while waiting in line, and they were laughing so hard their stomachs hurt. ",3,2,None,,,,,,0,2,2,2,,,,,0,12,12,12,,,,,,,,,,,,,,,,,,,,,,,,,,,,,,,,,,,1,7.68618842199794,,,,,,,,,,,,,,,,,,,,,,,,,,,,062519_p2,001,2019_Jun_25_1339,body_behavioural,3.0.4,59.8388600547107,
2,"Simon turned to face Carina and, while looking at her straight in the eyes, asked, “Would you like to go out to dinner with me?",3,3,None,,,,,,0,2,2,2,,,,,0,13,13,13,,,,,,,,,,,,,,,,,,,,,,,,,,,,,,,,,,,9,3.369720407994464,,,,,,,,,,,,,,,,,,,,,,,,,,,,062519_p2,001,2019_Jun_25_1339,body_behavioural,3.0.4,59.8388600547107,
2,Next Saturday we could tour around Harvard Square and get something to eat.,3,3,None,,,,,,0,2,2,2,,,,,0,14,14,14,,,,,,,,,,,,,,,,,,,,,,,,,,,,,,,,,,,1,4.620390842028428,,,,,,,,,,,,,,,,,,,,,,,,,,,,062519_p2,001,2019_Jun_25_1339,body_behavioural,3.0.4,59.8388600547107,
2,"There are a lot of great places around there, and it’s really nice during the summer.”",3,3,None,,,,,,0,2,2,2,,,,,0,15,15,15,,,,,,,,,,,,,,,,,,,,,,,,,,,,,,,,,,,1,5.370511076005641,,,,,,,,,,,,,,,,,,,,,,,,,,,,062519_p2,001,2019_Jun_25_1339,body_behavioural,3.0.4,59.8388600547107,
2,"Carina smiled, “I’d love to- that sounds great!”",3,3,None,,,,,,0,2,2,2,,,,,0,16,16,16,,,,,,,,,,,,,,,,,,,,,,,,,,,,,,,,,,,1,2.6178900270024315,,,,,,,,,,,,,,,,,,,,,,,,,,,,062519_p2,001,2019_Jun_25_1339,body_behavioural,3.0.4,59.8388600547107,
2,The cashier scanned Carina’s groceries.,4,3,None,,,,,,0,2,2,2,,,,,0,17,17,17,,,,,,,,,,,,,,,,,,,,,,,,,,,,,,,,,,,1,2.003982891998021,,,,,,,,,,,,,,,,,,,,,,,,,,,,062519_p2,001,2019_Jun_25_1339,body_behavioural,3.0.4,59.8388600547107,
2,"Simon lifted up the divider on the conveyor belt and said to the cashier, “Actually, these are together.",4,3,None,,,,,,0,2,2,2,,,,,0,18,18,18,,,,,,,,,,,,,,,,,,,,,,,,,,,,,,,,,,,1,6.103180509002414,,,,,,,,,,,,,,,,,,,,,,,,,,,,062519_p2,001,2019_Jun_25_1339,body_behavioural,3.0.4,59.8388600547107,
2,"Carina, I’ve got it.",4,3,None,,,,,,0,2,2,2,,,,,0,19,19,19,,,,,,,,,,,,,,,,,,,,,,,,,,,,,,,,,,,1,4.104463333991589,,,,,,,,,,,,,,,,,,,,,,,,,,,,062519_p2,001,2019_Jun_25_1339,body_behavioural,3.0.4,59.8388600547107,
2,This was kind-of a date today.”,4,3,None,,,,,,0,2,2,2,,,,,0,20,20,20,,,,,,,,,,,,,,,,,,,,,,,,,,,,,,,,,,,1,4.619713173015043,,,,,,,,,,,,,,,,,,,,,,,,,,,,062519_p2,001,2019_Jun_25_1339,body_behavioural,3.0.4,59.8388600547107,
2,Carina blushed and laughed; she thought this was ridiculous but also very sweet. ,4,3,None,,,,,,0,2,2,2,,,,,0,21,21,21,,,,,,,,,,,,,,,,,,,,,,,,,,,,,,,,,,,9,5.4868825760204345,,,,,,,,,,,,,,,,,,,,,,,,,,,,062519_p2,001,2019_Jun_25_1339,body_behavioural,3.0.4,59.8388600547107,
2,"The cashier rolled her eyes when they weren’t looking, and she scanned the rest of his items. ",4,3,None,,,,,,0,2,2,2,,,,,0,22,22,22,,,,,,,,,,,,,,,,,,,,,,,,,,,,,,,,,,,1,3.9205789659754373,,,,,,,,,,,,,,,,,,,,,,,,,,,,062519_p2,001,2019_Jun_25_1339,body_behavioural,3.0.4,59.8388600547107,
2,"The total came to $52, and he paid with his credit card.",4,3,None,,,,,,0,2,2,2,,,,,0,23,23,23,,,,,,,,,,,,,,,,,,,,,,,,,,,,,,,,,,,1,7.938022953981999,,,,,,,,,,,,,,,,,,,,,,,,,,,,062519_p2,001,2019_Jun_25_1339,body_behavioural,3.0.4,59.8388600547107,
2,"Seeing that it was 4:30 PM on her phone, Carina gasped because she realized she was late for her own barbecue. ",4,4,None,,,,,,0,2,2,2,,,,,0,24,24,24,,,,,,,,,,,,,,,,,,,,,,,,,,,,,,,,,,,1,4.250311793002766,,,,,,,,,,,,,,,,,,,,,,,,,,,,062519_p2,001,2019_Jun_25_1339,body_behavioural,3.0.4,59.8388600547107,
2,Carina thanked Simon and took her groceries and ran. ,4,4,None,,,,,,0,2,2,2,,,,,0,25,25,25,,,,,,,,,,,,,,,,,,,,,,,,,,,,,,,,,,,1,2.0359551529982127,,,,,,,,,,,,,,,,,,,,,,,,,,,,062519_p2,001,2019_Jun_25_1339,body_behavioural,3.0.4,59.8388600547107,
2,"“I hope her guests aren’t hungry,” the cashier remarked.",4,4,None,,,,,,0,2,2,2,,,,,0,26,26,26,,,,,,,,,,,,,,,,,,,,,,,,,,,,,,,,,,,1,3.6201268429867923,,,,,,,,,,,,,,,,,,,,,,,,,,,,062519_p2,001,2019_Jun_25_1339,body_behavioural,3.0.4,59.8388600547107,
2,Simon was thoroughly charmed and barely heard the comment as he watched her go. ,4,4,None,,,,,,0,2,2,2,,,,,0,27,27,27,,,,,,,,,,,,,,,,,,,,,,,,,,,,,,,,,,,1,4.171520529984264,,,,,,,,,,,,,,,,,,,,,,,,,,,,062519_p2,001,2019_Jun_25_1339,body_behavioural,3.0.4,59.8388600547107,
2,,,,,,,,,,0,2,2,2,,,,,,,,,,,,,,,,,,,,,,,,,,,,,,,,,,,,,,,,,,,,,,,,,,,,,,,,,,,,,,,,,,,,,,,,062519_p2,001,2019_Jun_25_1339,body_behavioural,3.0.4,59.8388600547107,
3,,,,,,,,,,0,3,3,3,0,0,0,0,,,,,,,,,,,,,,,,,,,,,,,,,,,,,space,1.4847941830230411,space,1.6531591170059983,space,1.3192739980004262,,,,,,,,,,,,,,,,,,,,,,,,,,,,,,,,,,062519_p2,001,2019_Jun_25_1339,body_behavioural,3.0.4,59.8388600547107,
3,"Thomas, dreading the approaching breakup conversation he was about to start, got to Annika’s Finer Diner late but Sadie, his girlfriend, was not there yet.",1,1,11.0,None,None,None,None,,0,3,3,3,,,,,0,0,0,0,,,,,,,,,,,,,,,,,,,,,,,,,,,,,,,space,1.6366300249937922,space,0.7538274980033748,1,16.08811445601168,,,,,,,,,,,,,,,,,,,,,,,,,,,,062519_p2,001,2019_Jun_25_1339,body_behavioural,3.0.4,59.8388600547107,
3,Thomas had been thinking about breaking up with her for 2 months now.,1,1,None,None,None,1.0,None,,0,3,3,3,,,,,0,1,1,1,,,,,,,,,,,,,,,,,,,,,,,,,,,,,,,,,,,1,5.186896362982225,,,,,,,,,,,,,,,,,,,,,,,,,,,,062519_p2,001,2019_Jun_25_1339,body_behavioural,3.0.4,59.8388600547107,
3,"The restaurant he had chosen to meet at was reminiscent of a diner from the 70’s; there was black and white checkerboard tiling on the floor, a long bar in the front, and booths and stools with red, leather upholstery. ",1,1,None,None,None,None,1.0,,0,3,3,3,,,,,0,2,2,2,,,,,,,,,,,,,,,,,,,,,,,,,,,,,,,,,,,1,6.087413828005083,,,,,,,,,,,,,,,,,,,,,,,,,,,,062519_p2,001,2019_Jun_25_1339,body_behavioural,3.0.4,59.8388600547107,
3,"A bell chimed as the door swung open, and Sadie entered to find Thomas ruminating at the bar.",1,1,None,None,None,None,None,,0,3,3,3,,,,,0,3,3,3,,,,,,,,,,,,,,,,,,,,,,,,,,,,,,,,,,,1,4.603295509004965,,,,,,,,,,,,,,,,,,,,,,,,,,,,062519_p2,001,2019_Jun_25_1339,body_behavioural,3.0.4,59.8388600547107,
3,"He stood up and gave her a side hug, asking quickly, “How was your day?”",1,1,None,None,None,None,None,,0,3,3,3,,,,,0,4,4,4,,,,,,,,,,,,,,,,,,,,,,,,,,,,,,,,,,,1,4.653853967989562,,,,,,,,,,,,,,,,,,,,,,,,,,,,062519_p2,001,2019_Jun_25_1339,body_behavioural,3.0.4,59.8388600547107,
3,"She clung onto him, “It was okay- I missed you today.”",1,1,None,None,None,None,None,,0,3,3,3,,,,,0,5,5,5,,,,,,,,,,,,,,,,,,,,,,,,,,,,,,,,,,,1,3.2360949219728354,,,,,,,,,,,,,,,,,,,,,,,,,,,,062519_p2,001,2019_Jun_25_1339,body_behavioural,3.0.4,59.8388600547107,
3,"He looked away and addressed the hostess coming towards them, “Can we have a booth in the back?”",1,1,None,None,None,None,None,,0,3,3,3,,,,,0,6,6,6,,,,,,,,,,,,,,,,,,,,,,,,,,,,,,,,,,,1,4.652557674009586,,,,,,,,,,,,,,,,,,,,,,,,,,,,062519_p2,001,2019_Jun_25_1339,body_behavioural,3.0.4,59.8388600547107,
3,"She shrugged and after loudly popping her bubblegum replied, “Sure, honey.”",1,1,None,9.0,None,None,None,,0,3,3,3,,,,,0,7,7,7,,,,,,,,,,,,,,,,,,,,,,,,,,,,,,,,,,,1,4.467669325007591,,,,,,,,,,,,,,,,,,,,,,,,,,,,062519_p2,001,2019_Jun_25_1339,body_behavioural,3.0.4,59.8388600547107,
3,She seated them at a booth in the back corner of the diner.  ,2,1,None,None,None,None,None,,0,3,3,3,,,,,0,8,8,8,,,,,,,,,,,,,,,,,,,,,,,,,,,,,,,,,,,1,5.486983304988826,,,,,,,,,,,,,,,,,,,,,,,,,,,,062519_p2,001,2019_Jun_25_1339,body_behavioural,3.0.4,59.8388600547107,
3,Sadie slipped into the cushioned seat and grabbed Thomas’ hand.,2,1,None,None,None,None,None,,0,3,3,3,,,,,0,9,9,9,,,,,,,,,,,,,,,,,,,,,,,,,,,,,,,,,,,1,5.836502207996091,,,,,,,,,,,,,,,,,,,,,,,,,,,,062519_p2,001,2019_Jun_25_1339,body_behavioural,3.0.4,59.8388600547107,
3,“Tell me about your day!” she sang.,2,1,None,None,None,None,None,,0,3,3,3,,,,,0,10,10,10,,,,,,,,,,,,,,,,,,,,,,,,,,,,,,,,,,,1,2.154178696015151,,,,,,,,,,,,,,,,,,,,,,,,,,,,062519_p2,001,2019_Jun_25_1339,body_behavioural,3.0.4,59.8388600547107,
3,He looked at her silently and pulled his hand slowly from hers as a puzzled look grew on Sadie’s face. ,2,1,None,None,None,None,None,,0,3,3,3,,,,,0,11,11,11,,,,,,,,,,,,,,,,,,,,,,,,,,,,,,,,,,,9,5.320426313002827,,,,,,,,,,,,,,,,,,,,,,,,,,,,062519_p2,001,2019_Jun_25_1339,body_behavioural,3.0.4,59.8388600547107,
3,Thomas looked away and took a deep breath. ,2,1,None,None,None,None,None,,0,3,3,3,,,,,0,12,12,12,,,,,,,,,,,,,,,,,,,,,,,,,,,,,,,,,,,1,2.9701377709861845,,,,,,,,,,,,,,,,,,,,,,,,,,,,062519_p2,001,2019_Jun_25_1339,body_behavioural,3.0.4,59.8388600547107,
3,"Sadie asked, “What’s wrong?” ",2,1,None,None,None,None,None,,0,3,3,3,,,,,0,13,13,13,,,,,,,,,,,,,,,,,,,,,,,,,,,,,,,,,,,1,2.668982730974676,,,,,,,,,,,,,,,,,,,,,,,,,,,,062519_p2,001,2019_Jun_25_1339,body_behavioural,3.0.4,59.8388600547107,
3,Thomas picked at his fingernails.,2,1,None,None,22.0,None,None,,0,3,3,3,,,,,0,14,14,14,,,,,,,,,,,,,,,,,,,,,,,,,,,,,,,,,,,1,2.6174210410099477,,,,,,,,,,,,,,,,,,,,,,,,,,,,062519_p2,001,2019_Jun_25_1339,body_behavioural,3.0.4,59.8388600547107,
3,"After a few moments, Thomas let out a deep breath and said, “Sadie, I’ve been thinking, and I need a break from this relationship because I need to figure out my career path on my own.”",2,2,None,None,None,None,None,,0,3,3,3,,,,,0,15,15,15,,,,,,,,,,,,,,,,,,,,,,,,,,,,,,,,,,,9,11.236967529985122,,,,,,,,,,,,,,,,,,,,,,,,,,,,062519_p2,001,2019_Jun_25_1339,body_behavioural,3.0.4,59.8388600547107,
3,Sadie sat back in her seat.,2,2,None,None,None,None,None,,0,3,3,3,,,,,0,16,16,16,,,,,,,,,,,,,,,,,,,,,,,,,,,,,,,,,,,1,1.73603781600832,,,,,,,,,,,,,,,,,,,,,,,,,,,,062519_p2,001,2019_Jun_25_1339,body_behavioural,3.0.4,59.8388600547107,
3,"Thomas continued, “Things have been really picking up at work, and I’m not sure that this is the job I want to do anymore.",2,2,None,None,None,None,None,,0,3,3,3,,,,,0,17,17,17,,,,,,,,,,,,,,,,,,,,,,,,,,,,,,,,,,,1,4.520276455004932,,,,,,,,,,,,,,,,,,,,,,,,,,,,062519_p2,001,2019_Jun_25_1339,body_behavioural,3.0.4,59.8388600547107,
3,"Plus, it’s been really overwhelming between working and figuring out if I should change careers, and I really feel like I need more time to figure it out.” ",2,2,None,17.0,None,None,None,,0,3,3,3,,,,,0,18,18,18,,,,,,,,,,,,,,,,,,,,,,,,,,,,,,,,,,,1,4.970112006994896,,,,,,,,,,,,,,,,,,,,,,,,,,,,062519_p2,001,2019_Jun_25_1339,body_behavioural,3.0.4,59.8388600547107,
3,"The waiter appeared and cheerily asked, “Have you decided what you would like?”",3,2,None,None,None,None,None,,0,3,3,3,,,,,0,19,19,19,,,,,,,,,,,,,,,,,,,,,,,,,,,,,,,,,,,1,4.170027134998236,,,,,,,,,,,,,,,,,,,,,,,,,,,,062519_p2,001,2019_Jun_25_1339,body_behavioural,3.0.4,59.8388600547107,
3,"Thomas and Sadie realized there were menus on the table, and they glanced at them quickly.",3,2,None,None,None,None,None,,0,3,3,3,,,,,0,20,20,20,,,,,,,,,,,,,,,,,,,,,,,,,,,,,,,,,,,1,4.236727622977924,,,,,,,,,,,,,,,,,,,,,,,,,,,,062519_p2,001,2019_Jun_25_1339,body_behavioural,3.0.4,59.8388600547107,
3,"The menus were laminated posters with silly names for all the foods, and since they didn’t want to read through each item description, they settled on familiar orders.",3,2,None,None,None,None,None,,0,3,3,3,,,,,0,21,21,21,,,,,,,,,,,,,,,,,,,,,,,,,,,,,,,,,,,1,6.07105499698082,,,,,,,,,,,,,,,,,,,,,,,,,,,,062519_p2,001,2019_Jun_25_1339,body_behavioural,3.0.4,59.8388600547107,
3,"“I’ll have a burger, no tomatoes,” Thomas said.",3,2,None,None,None,None,None,,0,3,3,3,,,,,0,22,22,22,,,,,,,,,,,,,,,,,,,,,,,,,,,,,,,,,,,1,2.0027661030180752,,,,,,,,,,,,,,,,,,,,,,,,,,,,062519_p2,001,2019_Jun_25_1339,body_behavioural,3.0.4,59.8388600547107,
3,"Sadie asked about the reuben, and the waiter told her it was excellent.",3,2,None,None,None,None,None,,0,3,3,3,,,,,0,23,23,23,,,,,,,,,,,,,,,,,,,,,,,,,,,,,,,,,,,1,3.667259391018888,,,,,,,,,,,,,,,,,,,,,,,,,,,,062519_p2,001,2019_Jun_25_1339,body_behavioural,3.0.4,59.8388600547107,
3,"Confirming that that was all they’d like, the waiter walked away. ",3,2,None,None,None,None,None,,0,3,3,3,,,,,0,24,24,24,,,,,,,,,,,,,,,,,,,,,,,,,,,,,,,,,,,1,1.7698379959911108,,,,,,,,,,,,,,,,,,,,,,,,,,,,062519_p2,001,2019_Jun_25_1339,body_behavioural,3.0.4,59.8388600547107,
3,Sadie- not so quietly- burst into tears. ,3,3,None,None,None,None,None,,0,3,3,3,,,,,0,25,25,25,,,,,,,,,,,,,,,,,,,,,,,,,,,,,,,,,,,1,3.170024885010207,,,,,,,,,,,,,,,,,,,,,,,,,,,,062519_p2,001,2019_Jun_25_1339,body_behavioural,3.0.4,59.8388600547107,
3,People sitting at the bar looked over and quickly averted their gaze when they figured what was happening. ,3,3,None,None,None,None,None,,0,3,3,3,,,,,0,26,26,26,,,,,,,,,,,,,,,,,,,,,,,,,,,,,,,,,,,1,6.237440789991524,,,,,,,,,,,,,,,,,,,,,,,,,,,,062519_p2,001,2019_Jun_25_1339,body_behavioural,3.0.4,59.8388600547107,
3,"She whispered, “Is this really what you want?",3,3,None,None,None,None,None,,0,3,3,3,,,,,0,27,27,27,,,,,,,,,,,,,,,,,,,,,,,,,,,,,,,,,,,9,6.336753031006083,,,,,,,,,,,,,,,,,,,,,,,,,,,,062519_p2,001,2019_Jun_25_1339,body_behavioural,3.0.4,59.8388600547107,
3,"I don’t understand- things were fine, I thought. ",3,3,None,None,None,None,None,,0,3,3,3,,,,,0,28,28,28,,,,,,,,,,,,,,,,,,,,,,,,,,,,,,,,,,,1,1.7364896179933567,,,,,,,,,,,,,,,,,,,,,,,,,,,,062519_p2,001,2019_Jun_25_1339,body_behavioural,3.0.4,59.8388600547107,
3,I think we should stay together because we can change how much we hang out. ,3,3,None,None,None,None,None,,0,3,3,3,,,,,0,29,29,29,,,,,,,,,,,,,,,,,,,,,,,,,,,,,,,,,,,1,3.5542705449915957,,,,,,,,,,,,,,,,,,,,,,,,,,,,062519_p2,001,2019_Jun_25_1339,body_behavioural,3.0.4,59.8388600547107,
3,"We don’t have to hang out all the time, or as much as we do now.”",3,3,None,None,None,None,None,,0,3,3,3,,,,,0,30,30,30,,,,,,,,,,,,,,,,,,,,,,,,,,,,,,,,,,,1,3.037007275997894,,,,,,,,,,,,,,,,,,,,,,,,,,,,062519_p2,001,2019_Jun_25_1339,body_behavioural,3.0.4,59.8388600547107,
3,Thomas chewed on his bottom lip and picked at his now bleeding hangnail. ,3,3,None,20.0,None,None,None,,0,3,3,3,,,,,0,31,31,31,,,,,,,,,,,,,,,,,,,,,,,,,,,,,,,,,,,1,2.5538167350168806,,,,,,,,,,,,,,,,,,,,,,,,,,,,062519_p2,001,2019_Jun_25_1339,body_behavioural,3.0.4,59.8388600547107,
3,The waiter appeared with the burger and reuben and set them in front of them.,4,3,None,None,None,None,None,,0,3,3,3,,,,,0,32,32,32,,,,,,,,,,,,,,,,,,,,,,,,,,,,,,,,,,,1,4.952283349994104,,,,,,,,,,,,,,,,,,,,,,,,,,,,062519_p2,001,2019_Jun_25_1339,body_behavioural,3.0.4,59.8388600547107,
3,“Is there anything else I can get for you two?,4,3,None,None,None,None,None,,0,3,3,3,,,,,0,33,33,33,,,,,,,,,,,,,,,,,,,,,,,,,,,,,,,,,,,1,1.4374467380112037,,,,,,,,,,,,,,,,,,,,,,,,,,,,062519_p2,001,2019_Jun_25_1339,body_behavioural,3.0.4,59.8388600547107,
3,Will you be getting dessert tonight?” he asked.,4,3,None,None,None,None,None,,0,3,3,3,,,,,0,34,34,34,,,,,,,,,,,,,,,,,,,,,,,,,,,,,,,,,,,1,6.486481116007781,,,,,,,,,,,,,,,,,,,,,,,,,,,,062519_p2,001,2019_Jun_25_1339,body_behavioural,3.0.4,59.8388600547107,
3,"“Oh no, we’re good, thanks,” Thomas said blankly.",4,3,None,None,None,None,None,,0,3,3,3,,,,,0,35,35,35,,,,,,,,,,,,,,,,,,,,,,,,,,,,,,,,,,,1,2.737252963008359,,,,,,,,,,,,,,,,,,,,,,,,,,,,062519_p2,001,2019_Jun_25_1339,body_behavioural,3.0.4,59.8388600547107,
3," With the waiter gone, Sadie suddenly stood up, grabbed half of the reuben, and shook it at him as she growled, “Don’t follow me, and don’t talk to me anymore!",4,4,None,None,None,None,None,,0,3,3,3,,,,,0,36,36,36,,,,,,,,,,,,,,,,,,,,,,,,,,,,,,,,,,,1,14.171273140993435,,,,,,,,,,,,,,,,,,,,,,,,,,,,062519_p2,001,2019_Jun_25_1339,body_behavioural,3.0.4,59.8388600547107,
3,"Also, I want my polaroid camera and Beatles poster back!”",4,4,None,None,None,None,None,,0,3,3,3,,,,,0,37,37,37,,,,,,,,,,,,,,,,,,,,,,,,,,,,,,,,,,,1,2.2702865230094176,,,,,,,,,,,,,,,,,,,,,,,,,,,,062519_p2,001,2019_Jun_25_1339,body_behavioural,3.0.4,59.8388600547107,
3,"She stormed off, and the bell above the door jingled cheerfully as the door closed behind her.",4,4,None,None,None,None,None,,0,3,3,3,,,,,0,38,38,38,,,,,,,,,,,,,,,,,,,,,,,,,,,,,,,,,,,1,3.419890505989315,,,,,,,,,,,,,,,,,,,,,,,,,,,,062519_p2,001,2019_Jun_25_1339,body_behavioural,3.0.4,59.8388600547107,
3,Thomas sat there for awhile surprised at how quickly everything had transpired. ,4,4,None,None,None,None,None,,0,3,3,3,,,,,0,39,39,39,,,,,,,,,,,,,,,,,,,,,,,,,,,,,,,,,,,1,5.303651797992643,,,,,,,,,,,,,,,,,,,,,,,,,,,,062519_p2,001,2019_Jun_25_1339,body_behavioural,3.0.4,59.8388600547107,
3,"He grabbed his burger and took a bite of it, creating a dry and fishy taste in his mouth.",4,4,None,None,None,None,None,,0,3,3,3,,,,,0,40,40,40,,,,,,,,,,,,,,,,,,,,,,,,,,,,,,,,,,,9,6.403491322998889,,,,,,,,,,,,,,,,,,,,,,,,,,,,062519_p2,001,2019_Jun_25_1339,body_behavioural,3.0.4,59.8388600547107,
3,He dropped it back on his plate and wondered if the restaurant was responsible for the foul taste. ,4,4,None,13.0,5.0,None,None,,0,3,3,3,,,,,0,41,41,41,,,,,,,,,,,,,,,,,,,,,,,,,,,,,,,,,,,1,4.336818654002855,,,,,,,,,,,,,,,,,,,,,,,,,,,,062519_p2,001,2019_Jun_25_1339,body_behavioural,3.0.4,59.8388600547107,
3,,,,,,,,,,0,3,3,3,,,,,,,,,,,,,,,,,,,,,,,,,,,,,,,,,,,,,,,,,,,,,,,,,,,,,,,,,,,,,,,,,,,,,,,,062519_p2,001,2019_Jun_25_1339,body_behavioural,3.0.4,59.8388600547107,
4,,,,,,,,,,0,4,4,4,0,0,0,0,,,,,,,,,,,,,,,,,,,,,,,,,,,,,space,1.9876016479975078,space,0.6533290169900283,space,0.9867206400085706,,,,,,,,,,,,,,,,,,,,,,,,,,,,,,,,,,062519_p2,001,2019_Jun_25_1339,body_behavioural,3.0.4,59.8388600547107,
4,"Charlie saw Alma as they walked into class, and he motioned for her to come sit in the back next to him because they had a deal to discuss.",1,1,34.0,,,,,,0,4,4,4,,,,,0,0,0,0,,,,,,,,,,,,,,,,,,,,,,,,,,,,,,,space,1.3703236050205305,space,1.0028148500132374,1,20.885337430023355,,,,,,,,,,,,,,,,,,,,,,,,,,,,062519_p2,001,2019_Jun_25_1339,body_behavioural,3.0.4,59.8388600547107,
4,Charlie and Alma were both history majors with entrepreneurial bents.,1,1,None,,,,,,0,4,4,4,,,,,0,1,1,1,,,,,,,,,,,,,,,,,,,,,,,,,,,,,,,,,,,1,3.5208334859926254,,,,,,,,,,,,,,,,,,,,,,,,,,,,062519_p2,001,2019_Jun_25_1339,body_behavioural,3.0.4,59.8388600547107,
4,They were also both very busy and happened to be in the same class.,1,1,None,,,,,,0,4,4,4,,,,,0,2,2,2,,,,,,,,,,,,,,,,,,,,,,,,,,,,,,,,,,,1,5.153232328011654,,,,,,,,,,,,,,,,,,,,,,,,,,,,062519_p2,001,2019_Jun_25_1339,body_behavioural,3.0.4,59.8388600547107,
4,"After talking at a party, Charlie had discovered that Alma was looking for financing for her web development company of which she was the founder and CEO.",1,1,None,,,,,,0,4,4,4,,,,,0,3,3,3,,,,,,,,,,,,,,,,,,,,,,,,,,,,,,,,,,,1,7.020914241991704,,,,,,,,,,,,,,,,,,,,,,,,,,,,062519_p2,001,2019_Jun_25_1339,body_behavioural,3.0.4,59.8388600547107,
4,It was serendipitous because he was an investment analyst for a student finance group on campus and he had been talking with other members of the group about making a new investment. ,1,1,None,,,,,,0,4,4,4,,,,,0,4,4,4,,,,,,,,,,,,,,,,,,,,,,,,,,,,,,,,,,,1,7.570766910008388,,,,,,,,,,,,,,,,,,,,,,,,,,,,062519_p2,001,2019_Jun_25_1339,body_behavioural,3.0.4,59.8388600547107,
4,"His financial group had come to a decision that morning about Alma’s startup, and he didn't want to wait until after class to discuss the proposal with her. ",1,1,None,,,,,,0,4,4,4,,,,,0,5,5,5,,,,,,,,,,,,,,,,,,,,,,,,,,,,,,,,,,,1,5.786550949997036,,,,,,,,,,,,,,,,,,,,,,,,,,,,062519_p2,001,2019_Jun_25_1339,body_behavioural,3.0.4,59.8388600547107,
4,The class was in a medium-sized auditorium which was brightly lit and very modern-looking. ,1,1,None,,,,,,0,4,4,4,,,,,0,6,6,6,,,,,,,,,,,,,,,,,,,,,,,,,,,,,,,,,,,1,5.570062270009657,,,,,,,,,,,,,,,,,,,,,,,,,,,,062519_p2,001,2019_Jun_25_1339,body_behavioural,3.0.4,59.8388600547107,
4,There were three projector screens in the front and each row of the audience had a table with power outlets and USB ports. ,1,1,None,,,,,,0,4,4,4,,,,,0,7,7,7,,,,,,,,,,,,,,,,,,,,,,,,,,,,,,,,,,,1,5.23699329001829,,,,,,,,,,,,,,,,,,,,,,,,,,,,062519_p2,001,2019_Jun_25_1339,body_behavioural,3.0.4,59.8388600547107,
4,“Here we are at Lecture Seven of Archaeology of Rome” said the professor. ,2,1,None,,,,,,0,4,4,4,,,,,0,8,8,8,,,,,,,,,,,,,,,,,,,,,,,,,,,,,,,,,,,1,5.836696561018471,,,,,,,,,,,,,,,,,,,,,,,,,,,,062519_p2,001,2019_Jun_25_1339,body_behavioural,3.0.4,59.8388600547107,
4,"“The topic for today is Augustus, an incredibly important influence in Roman architecture.” ",2,1,None,,,,,,0,4,4,4,,,,,0,9,9,9,,,,,,,,,,,,,,,,,,,,,,,,,,,,,,,,,,,9,6.2868797139963135,,,,,,,,,,,,,,,,,,,,,,,,,,,,062519_p2,001,2019_Jun_25_1339,body_behavioural,3.0.4,59.8388600547107,
4,She went into some recap of the last lecture.,2,1,None,,,,,,0,4,4,4,,,,,0,10,10,10,,,,,,,,,,,,,,,,,,,,,,,,,,,,,,,,,,,1,3.3196158959763125,,,,,,,,,,,,,,,,,,,,,,,,,,,,062519_p2,001,2019_Jun_25_1339,body_behavioural,3.0.4,59.8388600547107,
4,"Charlie turned to Alma and said, “Okay, so I’ve been thinking about your startup, and I have talked about it with my fellow investors.",2,2,None,,,,,,0,4,4,4,,,,,0,11,11,11,,,,,,,,,,,,,,,,,,,,,,,,,,,,,,,,,,,1,5.737028335017385,,,,,,,,,,,,,,,,,,,,,,,,,,,,062519_p2,001,2019_Jun_25_1339,body_behavioural,3.0.4,59.8388600547107,
4,We’d like to invest half of what you originally suggested.,2,2,None,,,,,,0,4,4,4,,,,,0,12,12,12,,,,,,,,,,,,,,,,,,,,,,,,,,,,,,,,,,,1,4.803745375014842,,,,,,,,,,,,,,,,,,,,,,,,,,,,062519_p2,001,2019_Jun_25_1339,body_behavioural,3.0.4,59.8388600547107,
4,"So we propose we start with wiring you $28,000.",2,2,None,,,,,,0,4,4,4,,,,,0,13,13,13,,,,,,,,,,,,,,,,,,,,,,,,,,,,,,,,,,,1,4.8680890929827,,,,,,,,,,,,,,,,,,,,,,,,,,,,062519_p2,001,2019_Jun_25_1339,body_behavioural,3.0.4,59.8388600547107,
4,We would see how the company does and then invest the other half later.” ,2,2,None,,,,,,0,4,4,4,,,,,0,14,14,14,,,,,,,,,,,,,,,,,,,,,,,,,,,,,,,,,,,1,1.637554913002532,,,,,,,,,,,,,,,,,,,,,,,,,,,,062519_p2,001,2019_Jun_25_1339,body_behavioural,3.0.4,59.8388600547107,
4,"The professor said, “The senate had conferred upon him the title of Augustus the sacred and revered one, the restorer of traditional values, the city’s new religious leader, the restorer of temples. ",3,2,None,,,,,,0,4,4,4,,,,,0,15,15,15,,,,,,,,,,,,,,,,,,,,,,,,,,,,,,,,,,,1,3.352426753990585,,,,,,,,,,,,,,,,,,,,,,,,,,,,062519_p2,001,2019_Jun_25_1339,body_behavioural,3.0.4,59.8388600547107,
4,"Augustus also sought to beautify Rome, make it into a new Athens, and dispel the criticisms of Rome as disorganized and ugly.”",3,2,None,,,,,,0,4,4,4,,,,,0,16,16,16,,,,,,,,,,,,,,,,,,,,,,,,,,,,,,,,,,,1,7.853863662981894,,,,,,,,,,,,,,,,,,,,,,,,,,,,062519_p2,001,2019_Jun_25_1339,body_behavioural,3.0.4,59.8388600547107,
4,"Alma turned to Charlie and offered her rebuttal, “I don’t know about that.",3,3,None,,,,,,0,4,4,4,,,,,0,17,17,17,,,,,,,,,,,,,,,,,,,,,,,,,,,,,,,,,,,1,4.4863667209865525,,,,,,,,,,,,,,,,,,,,,,,,,,,,062519_p2,001,2019_Jun_25_1339,body_behavioural,3.0.4,59.8388600547107,
4,It’s not going to be possible to implement our ideas effectively unless the project is fully funded. ,3,3,None,,,,,,0,4,4,4,,,,,0,18,18,18,,,,,,,,,,,,,,,,,,,,,,,,,,,,,,,,,,,1,2.6701210050086956,,,,,,,,,,,,,,,,,,,,,,,,,,,,062519_p2,001,2019_Jun_25_1339,body_behavioural,3.0.4,59.8388600547107,
4,"We would have to find other investors like your competitor on campus, Churchill Capital Group, and that would set us back in our timeline. ",3,3,None,,,,,,0,4,4,4,,,,,0,19,19,19,,,,,,,,,,,,,,,,,,,,,,,,,,,,,,,,,,,1,8.022388484998373,,,,,,,,,,,,,,,,,,,,,,,,,,,,062519_p2,001,2019_Jun_25_1339,body_behavioural,3.0.4,59.8388600547107,
4,"Our profit projections assumed we'd be starting relatively soon, not months down the line.” ",3,3,None,,,,,,0,4,4,4,,,,,0,20,20,20,,,,,,,,,,,,,,,,,,,,,,,,,,,,,,,,,,,1,4.367319655022584,,,,,,,,,,,,,,,,,,,,,,,,,,,,062519_p2,001,2019_Jun_25_1339,body_behavioural,3.0.4,59.8388600547107,
4,They whispered back and forth during the entire class working out a compromise. ,3,3,None,,,,,,0,4,4,4,,,,,0,21,21,21,,,,,,,,,,,,,,,,,,,,,,,,,,,,,,,,,,,9,7.35322488102247,,,,,,,,,,,,,,,,,,,,,,,,,,,,062519_p2,001,2019_Jun_25_1339,body_behavioural,3.0.4,59.8388600547107,
4,The professor dismissed the students with a reminder that the midterm paper was due on Thursday and that they should email their papers to the TA.,4,3,None,,,,,,0,4,4,4,,,,,0,22,22,22,,,,,,,,,,,,,,,,,,,,,,,,,,,,,,,,,,,1,5.153091424988816,,,,,,,,,,,,,,,,,,,,,,,,,,,,062519_p2,001,2019_Jun_25_1339,body_behavioural,3.0.4,59.8388600547107,
4,"Everyone, except Charlie and Alma, packed up their things and headed out of the lecture hall. ",4,3,None,,,,,,0,4,4,4,,,,,0,23,23,23,,,,,,,,,,,,,,,,,,,,,,,,,,,,,,,,,,,1,2.9368285200034734,,,,,,,,,,,,,,,,,,,,,,,,,,,,062519_p2,001,2019_Jun_25_1339,body_behavioural,3.0.4,59.8388600547107,
4,"“Alright, so we’ll have the $30,000 wired to you by tomorrow,” Charlie said. ",4,4,None,,,,,,0,4,4,4,,,,,0,24,24,24,,,,,,,,,,,,,,,,,,,,,,,,,,,,,,,,,,,1,8.071257270989008,,,,,,,,,,,,,,,,,,,,,,,,,,,,062519_p2,001,2019_Jun_25_1339,body_behavioural,3.0.4,59.8388600547107,
4,"This wasn't ideal for Charlie, but Alma had refused to budge, and his investment group had told him they were willing to pay the full amount if necessary. ",4,4,None,,,,,,0,4,4,4,,,,,0,25,25,25,,,,,,,,,,,,,,,,,,,,,,,,,,,,,,,,,,,1,10.534796462976374,,,,,,,,,,,,,,,,,,,,,,,,,,,,062519_p2,001,2019_Jun_25_1339,body_behavioural,3.0.4,59.8388600547107,
4,They hugged in confirmation of the deal and made plans to sign the official paperwork the next day. ,4,4,None,,,,,,0,4,4,4,,,,,0,26,26,26,,,,,,,,,,,,,,,,,,,,,,,,,,,,,,,,,,,1,6.954052043001866,,,,,,,,,,,,,,,,,,,,,,,,,,,,062519_p2,001,2019_Jun_25_1339,body_behavioural,3.0.4,59.8388600547107,
4,,,,,,,,,,0,4,4,4,,,,,,,,,,,,,,,,,,,,,,,,,,,,,,,,,,,,,,,,,,,,,,,,,,,,,,,,,,,,,,,,,,,,,,,,062519_p2,001,2019_Jun_25_1339,body_behavioural,3.0.4,59.8388600547107,
5,,,,,,,,,,0,5,5,5,0,0,0,0,,,,,,,,,,,,,,,,,,,,,,,,,,,,,space,2.4552018670074176,space,3.387219289987115,space,0.8210987700149417,,,,,,,,,,,,,,,,,,,,,,,,,,,,,,,,,,062519_p2,001,2019_Jun_25_1339,body_behavioural,3.0.4,59.8388600547107,
5,Mr. Shelton and Mr. Gordon shook hands inside the waiting area of the restaurant: lunch today was about big business. ,1,1,31.0,,,,,,0,5,5,5,,,,,0,0,0,0,,,,,,,,,,,,,,,,,,,,,,,,,,,,,,,space,3.503335343004437,space,1.0534809750097338,1,9.953322428977117,,,,,,,,,,,,,,,,,,,,,,,,,,,,062519_p2,001,2019_Jun_25_1339,body_behavioural,3.0.4,59.8388600547107,
5,They were both in the airplane manufacturing industry.,1,1,None,,,,,,0,5,5,5,,,,,0,1,1,1,,,,,,,,,,,,,,,,,,,,,,,,,,,,,,,,,,,1,17.489900159998797,,,,,,,,,,,,,,,,,,,,,,,,,,,,062519_p2,001,2019_Jun_25_1339,body_behavioural,3.0.4,59.8388600547107,
5,"Mr. Shelton was the CFO of a larger, well-established company and had been in the aviation business for decades.",1,1,None,,,,,,0,5,5,5,,,,,0,2,2,2,,,,,,,,,,,,,,,,,,,,,,,,,,,,,,,,,,,1,6.503048218000913,,,,,,,,,,,,,,,,,,,,,,,,,,,,062519_p2,001,2019_Jun_25_1339,body_behavioural,3.0.4,59.8388600547107,
5,Mr. Gordon was the CEO of a smaller but technologically-advanced company that was projected to disrupt the airplane manufacturing market. ,1,1,None,,,,,,0,5,5,5,,,,,0,3,3,3,,,,,,,,,,,,,,,,,,,,,,,,,,,,,,,,,,,1,7.687406464014202,,,,,,,,,,,,,,,,,,,,,,,,,,,,062519_p2,001,2019_Jun_25_1339,body_behavioural,3.0.4,59.8388600547107,
5,"They chose to meet at an old steakhouse with dark wood paneling on the floor and ceilings, taxidermy animals on the walls, and a candelabra on every table.",1,1,None,,,,,,0,5,5,5,,,,,0,4,4,4,,,,,,,,,,,,,,,,,,,,,,,,,,,,,,,,,,,1,11.187237158999778,,,,,,,,,,,,,,,,,,,,,,,,,,,,062519_p2,001,2019_Jun_25_1339,body_behavioural,3.0.4,59.8388600547107,
5,The waitress seated them at their table in the back. ,2,1,None,,,,,,0,5,5,5,,,,,0,5,5,5,,,,,,,,,,,,,,,,,,,,,,,,,,,,,,,,,,,1,4.536598503997084,,,,,,,,,,,,,,,,,,,,,,,,,,,,062519_p2,001,2019_Jun_25_1339,body_behavioural,3.0.4,59.8388600547107,
5,"She brought out the menus, and they briefly chatted about personal happenings. ",2,1,None,,,,,,0,5,5,5,,,,,0,6,6,6,,,,,,,,,,,,,,,,,,,,,,,,,,,,,,,,,,,1,3.3027844470052514,,,,,,,,,,,,,,,,,,,,,,,,,,,,062519_p2,001,2019_Jun_25_1339,body_behavioural,3.0.4,59.8388600547107,
5,"Mr. Gordon took out a picture of his daughter and talked about her recent engagement, and Mr. Gordon mentioned his purchase of a Tesla. ",2,1,None,,,,,,0,5,5,5,,,,,0,7,7,7,,,,,,,,,,,,,,,,,,,,,,,,,,,,,,,,,,,9,6.33740485200542,,,,,,,,,,,,,,,,,,,,,,,,,,,,062519_p2,001,2019_Jun_25_1339,body_behavioural,3.0.4,59.8388600547107,
5,They also looked over the menus which were heavy and covered in felt.,2,1,None,,,,,,0,5,5,5,,,,,0,8,8,8,,,,,,,,,,,,,,,,,,,,,,,,,,,,,,,,,,,1,5.234214653988602,,,,,,,,,,,,,,,,,,,,,,,,,,,,062519_p2,001,2019_Jun_25_1339,body_behavioural,3.0.4,59.8388600547107,
5,Flipping to the back of the menu brought one to a lengthy drink selection.,2,1,None,,,,,,0,5,5,5,,,,,0,9,9,9,,,,,,,,,,,,,,,,,,,,,,,,,,,,,,,,,,,1,9.587347237975337,,,,,,,,,,,,,,,,,,,,,,,,,,,,062519_p2,001,2019_Jun_25_1339,body_behavioural,3.0.4,59.8388600547107,
5,Mr. Shelton got serious and brought the conversation around to business.,2,2,None,,,,,,0,5,5,5,,,,,0,10,10,10,,,,,,,,,,,,,,,,,,,,,,,,,,,,,,,,,,,1,2.9837713300075848,,,,,,,,,,,,,,,,,,,,,,,,,,,,062519_p2,001,2019_Jun_25_1339,body_behavioural,3.0.4,59.8388600547107,
5,"“Mr. Gordon, we really admire what you’re doing at your company.",2,2,None,,,,,,0,5,5,5,,,,,0,11,11,11,,,,,,,,,,,,,,,,,,,,,,,,,,,,,,,,,,,9,5.804734534991439,,,,,,,,,,,,,,,,,,,,,,,,,,,,062519_p2,001,2019_Jun_25_1339,body_behavioural,3.0.4,59.8388600547107,
5,We think it’s genius; we want to support your vision and make this tiny company of yours internationally known.,2,2,None,,,,,,0,5,5,5,,,,,0,12,12,12,,,,,,,,,,,,,,,,,,,,,,,,,,,,,,,,,,,1,5.671446466993075,,,,,,,,,,,,,,,,,,,,,,,,,,,,062519_p2,001,2019_Jun_25_1339,body_behavioural,3.0.4,59.8388600547107,
5,"But honestly, your company doesn’t have the resources to reach international markets right now.",2,2,None,,,,,,0,5,5,5,,,,,0,13,13,13,,,,,,,,,,,,,,,,,,,,,,,,,,,,,,,,,,,1,2.886545620014658,,,,,,,,,,,,,,,,,,,,,,,,,,,,062519_p2,001,2019_Jun_25_1339,body_behavioural,3.0.4,59.8388600547107,
5,"Maybe in a few years you could, but by that time, other companies may have already filled your niche.",2,2,None,,,,,,0,5,5,5,,,,,0,14,14,14,,,,,,,,,,,,,,,,,,,,,,,,,,,,,,,,,,,1,7.219741989014437,,,,,,,,,,,,,,,,,,,,,,,,,,,,062519_p2,001,2019_Jun_25_1339,body_behavioural,3.0.4,59.8388600547107,
5,I think we should join forces.”,2,2,None,,,,,,0,5,5,5,,,,,0,15,15,15,,,,,,,,,,,,,,,,,,,,,,,,,,,,,,,,,,,1,2.604357504984364,,,,,,,,,,,,,,,,,,,,,,,,,,,,062519_p2,001,2019_Jun_25_1339,body_behavioural,3.0.4,59.8388600547107,
5,The waitress arrived and asked if they were ready to order.,3,2,None,,,,,,0,5,5,5,,,,,0,16,16,16,,,,,,,,,,,,,,,,,,,,,,,,,,,,,,,,,,,1,1.8528313289862126,,,,,,,,,,,,,,,,,,,,,,,,,,,,062519_p2,001,2019_Jun_25_1339,body_behavioural,3.0.4,59.8388600547107,
5,"Mr. Gordon chose the medium-rare steak and a martini, and Mr. Shelton ordered the veal and a manhattan. ",3,2,None,,,,,,0,5,5,5,,,,,0,17,17,17,,,,,,,,,,,,,,,,,,,,,,,,,,,,,,,,,,,1,8.286426367994864,,,,,,,,,,,,,,,,,,,,,,,,,,,,062519_p2,001,2019_Jun_25_1339,body_behavioural,3.0.4,59.8388600547107,
5,"Then Mr. Shelton continued, “Look, I’ve talked to other members of the board, and we are prepared to offer $600 million to buy your company. ",3,2,None,,,,,,0,5,5,5,,,,,0,18,18,18,,,,,,,,,,,,,,,,,,,,,,,,,,,,,,,,,,,1,5.203134164010407,,,,,,,,,,,,,,,,,,,,,,,,,,,,062519_p2,001,2019_Jun_25_1339,body_behavioural,3.0.4,59.8388600547107,
5,"We'd keep on all of your current employees, and you would join as the director of your company branch.” ",3,2,None,,,,,,0,5,5,5,,,,,0,19,19,19,,,,,,,,,,,,,,,,,,,,,,,,,,,,,,,,,,,1,9.070251019002171,,,,,,,,,,,,,,,,,,,,,,,,,,,,062519_p2,001,2019_Jun_25_1339,body_behavioural,3.0.4,59.8388600547107,
5,"Mr. Gordon looked at Mr. Shelton skeptically for a few moments considering his response until he said, “Mr. Shelton, I think that you make a compelling offer, but there are definitely some disadvantages to attaching our small, streamlined productions to a large company like yours.",3,3,None,,,,,,0,5,5,5,,,,,0,20,20,20,,,,,,,,,,,,,,,,,,,,,,,,,,,,,,,,,,,1,8.204643776989542,,,,,,,,,,,,,,,,,,,,,,,,,,,,062519_p2,001,2019_Jun_25_1339,body_behavioural,3.0.4,59.8388600547107,
5,"We operate in a very different way than a large company, and the kind of administrative complexity that makes the scale of your productions possible would suffocate our business.",3,3,None,,,,,,0,5,5,5,,,,,0,21,21,21,,,,,,,,,,,,,,,,,,,,,,,,,,,,,,,,,,,1,3.2008721829915885,,,,,,,,,,,,,,,,,,,,,,,,,,,,062519_p2,001,2019_Jun_25_1339,body_behavioural,3.0.4,59.8388600547107,
5,"With our product, scaling-up doesn’t necessarily make sense.” ",3,3,None,,,,,,0,5,5,5,,,,,0,22,22,22,,,,,,,,,,,,,,,,,,,,,,,,,,,,,,,,,,,1,1.9695547190203797,,,,,,,,,,,,,,,,,,,,,,,,,,,,062519_p2,001,2019_Jun_25_1339,body_behavioural,3.0.4,59.8388600547107,
5,Mr. Shelton had expected this response and had come prepared.,3,3,None,,,,,,0,5,5,5,,,,,0,23,23,23,,,,,,,,,,,,,,,,,,,,,,,,,,,,,,,,,,,1,2.0868572120089084,,,,,,,,,,,,,,,,,,,,,,,,,,,,062519_p2,001,2019_Jun_25_1339,body_behavioural,3.0.4,59.8388600547107,
5,He began laying out the details of how he had handled similar acquisitions successfully in the past.,3,3,None,,,,,,0,5,5,5,,,,,0,24,24,24,,,,,,,,,,,,,,,,,,,,,,,,,,,,,,,,,,,1,3.786432929977309,,,,,,,,,,,,,,,,,,,,,,,,,,,,062519_p2,001,2019_Jun_25_1339,body_behavioural,3.0.4,59.8388600547107,
5,"He also played out projections of how Mr. Gordon’s company could out-compete their own main competitor in the industry, TechJet, by using the resources of a larger corporation. ",3,3,None,,,,,,0,5,5,5,,,,,0,25,25,25,,,,,,,,,,,,,,,,,,,,,,,,,,,,,,,,,,,1,3.6699445729900617,,,,,,,,,,,,,,,,,,,,,,,,,,,,062519_p2,001,2019_Jun_25_1339,body_behavioural,3.0.4,59.8388600547107,
5,"Mr. Gordon was impressed, and they went back and forth hashing out what the company configuration would look like post-merger. ",3,3,None,,,,,,0,5,5,5,,,,,0,26,26,26,,,,,,,,,,,,,,,,,,,,,,,,,,,,,,,,,,,1,2.3029121730069164,,,,,,,,,,,,,,,,,,,,,,,,,,,,062519_p2,001,2019_Jun_25_1339,body_behavioural,3.0.4,59.8388600547107,
5,The waitress brought out their food on a large tray.,4,3,None,,,,,,0,5,5,5,,,,,0,27,27,27,,,,,,,,,,,,,,,,,,,,,,,,,,,,,,,,,,,1,3.104039643978467,,,,,,,,,,,,,,,,,,,,,,,,,,,,062519_p2,001,2019_Jun_25_1339,body_behavioural,3.0.4,59.8388600547107,
5,“Oh this looks so good!” Mr. Gordon said. ,4,3,None,,,,,,0,5,5,5,,,,,0,28,28,28,,,,,,,,,,,,,,,,,,,,,,,,,,,,,,,,,,,1,4.003516908007441,,,,,,,,,,,,,,,,,,,,,,,,,,,,062519_p2,001,2019_Jun_25_1339,body_behavioural,3.0.4,59.8388600547107,
5, “Can I get you anything else?” the waitress asked.,4,3,None,,,,,,0,5,5,5,,,,,0,29,29,29,,,,,,,,,,,,,,,,,,,,,,,,,,,,,,,,,,,1,2.086063805996673,,,,,,,,,,,,,,,,,,,,,,,,,,,,062519_p2,001,2019_Jun_25_1339,body_behavioural,3.0.4,59.8388600547107,
5,They declined and began to eat. ,4,3,None,,,,,,0,5,5,5,,,,,0,30,30,30,,,,,,,,,,,,,,,,,,,,,,,,,,,,,,,,,,,1,1.402925537986448,,,,,,,,,,,,,,,,,,,,,,,,,,,,062519_p2,001,2019_Jun_25_1339,body_behavioural,3.0.4,59.8388600547107,
5,The meal was subpar- they both found the meat to be a bit overcooked and dry. ,4,3,None,,,,,,0,5,5,5,,,,,0,31,31,31,,,,,,,,,,,,,,,,,,,,,,,,,,,,,,,,,,,1,6.167736130009871,,,,,,,,,,,,,,,,,,,,,,,,,,,,062519_p2,001,2019_Jun_25_1339,body_behavioural,3.0.4,59.8388600547107,
5,"Mr. Gordon, after taking a contemplative bite and swallowing, said, “Mr. Shelton, I think we have a deal. ",4,4,None,,,,,,0,5,5,5,,,,,0,32,32,32,,,,,,,,,,,,,,,,,,,,,,,,,,,,,,,,,,,1,6.687466132018017,,,,,,,,,,,,,,,,,,,,,,,,,,,,062519_p2,001,2019_Jun_25_1339,body_behavioural,3.0.4,59.8388600547107,
5,"If you can guarantee that I can still have the final say in the all the work done by my team, I think this could be beneficial for both of us.",4,4,None,,,,,,0,5,5,5,,,,,0,33,33,33,,,,,,,,,,,,,,,,,,,,,,,,,,,,,,,,,,,1,5.7031672739831265,,,,,,,,,,,,,,,,,,,,,,,,,,,,062519_p2,001,2019_Jun_25_1339,body_behavioural,3.0.4,59.8388600547107,
5,I propose a toast to the merging of our companies.”,4,4,None,,,,,,0,5,5,5,,,,,0,34,34,34,,,,,,,,,,,,,,,,,,,,,,,,,,,,,,,,,,,9,2.0029179400007706,,,,,,,,,,,,,,,,,,,,,,,,,,,,062519_p2,001,2019_Jun_25_1339,body_behavioural,3.0.4,59.8388600547107,
5,Mr. Shelton grinned and lifted his martini to clink glasses.,4,4,None,,,,,,0,5,5,5,,,,,0,35,35,35,,,,,,,,,,,,,,,,,,,,,,,,,,,,,,,,,,,1,3.4677221229940187,,,,,,,,,,,,,,,,,,,,,,,,,,,,062519_p2,001,2019_Jun_25_1339,body_behavioural,3.0.4,59.8388600547107,
5,"He said, “Cheers to a lifelong partnership and to the growth of our company.” ",4,4,None,,,,,,0,5,5,5,,,,,0,36,36,36,,,,,,,,,,,,,,,,,,,,,,,,,,,,,,,,,,,1,2.1870552330219653,,,,,,,,,,,,,,,,,,,,,,,,,,,,062519_p2,001,2019_Jun_25_1339,body_behavioural,3.0.4,59.8388600547107,
5,,,,,,,,,,0,5,5,5,,,,,,,,,,,,,,,,,,,,,,,,,,,,,,,,,,,,,,,,,,,,,,,,,,,,,,,,,,,,,,,,,,,,,,,,062519_p2,001,2019_Jun_25_1339,body_behavioural,3.0.4,59.8388600547107,
6,,,,,,,,,,0,6,6,6,0,0,0,0,,,,,,,,,,,,,,,,,,,,,,,,,,,,,space,2.020239097997546,space,0.6877463849959895,space,1.2710103340214118,,,,,,,,,,,,,,,,,,,,,,,,,,,,,,,,,,062519_p2,001,2019_Jun_25_1339,body_behavioural,3.0.4,59.8388600547107,
6,"Sven and Isabel walked hurriedly from the cab into the Barcelona Airport after an incredible week with Isabel’s family, and this had wiped away any doubts Sven had had about his decision to propose. ",1,1,22.0,,,,,,0,6,6,6,,,,,0,0,0,0,,,,,,,,,,,,,,,,,,,,,,,,,,,,,,,space,1.8338311379775405,space,1.0359650760074146,1,14.254396283009555,,,,,,,,,,,,,,,,,,,,,,,,,,,,062519_p2,001,2019_Jun_25_1339,body_behavioural,3.0.4,59.8388600547107,
6,They had only been dating for 11 months so this was the first time he had met her family. ,1,1,None,,,,,,0,6,6,6,,,,,0,1,1,1,,,,,,,,,,,,,,,,,,,,,,,,,,,,,,,,,,,1,2.9340351579885464,,,,,,,,,,,,,,,,,,,,,,,,,,,,062519_p2,001,2019_Jun_25_1339,body_behavioural,3.0.4,59.8388600547107,
6,"They were pressed for time at the airport, with an hour and 15 minutes until their flight would take off to go back to the US, but they already had their online boarding passes and no checked luggage. ",1,1,None,,,,,,0,6,6,6,,,,,0,2,2,2,,,,,,,,,,,,,,,,,,,,,,,,,,,,,,,,,,,1,4.902740063000238,,,,,,,,,,,,,,,,,,,,,,,,,,,,062519_p2,001,2019_Jun_25_1339,body_behavioural,3.0.4,59.8388600547107,
6,"Isabel stopped to rummage through her purse to look for her phone, and meanwhile Sven turned his back to her and took the velvet box out of his backpack, opening it to look at the ring he had bought her.",1,2,None,,,,,,0,6,6,6,,,,,0,3,3,3,,,,,,,,,,,,,,,,,,,,,,,,,,,,,,,,,,,1,11.818888236011844,,,,,,,,,,,,,,,,,,,,,,,,,,,,062519_p2,001,2019_Jun_25_1339,body_behavioural,3.0.4,59.8388600547107,
6,"He had received her parents’ blessing during the trip, and he was almost giddy with excitement. ",1,2,None,,,,,,0,6,6,6,,,,,0,4,4,4,,,,,,,,,,,,,,,,,,,,,,,,,,,,,,,,,,,1,3.2708533270051703,,,,,,,,,,,,,,,,,,,,,,,,,,,,062519_p2,001,2019_Jun_25_1339,body_behavioural,3.0.4,59.8388600547107,
6,"He tilted the ring backward and forward, despite having already studied it daily since purchasing it a few weeks ago. ",1,2,None,,,,,,0,6,6,6,,,,,0,5,5,5,,,,,,,,,,,,,,,,,,,,,,,,,,,,,,,,,,,1,5.972813155996846,,,,,,,,,,,,,,,,,,,,,,,,,,,,062519_p2,001,2019_Jun_25_1339,body_behavioural,3.0.4,59.8388600547107,
6,"It was a simple design, with two pink diamonds on a silver band.",1,2,None,,,,,,0,6,6,6,,,,,0,6,6,6,,,,,,,,,,,,,,,,,,,,,,,,,,,,,,,,,,,1,8.536570658994606,,,,,,,,,,,,,,,,,,,,,,,,,,,,062519_p2,001,2019_Jun_25_1339,body_behavioural,3.0.4,59.8388600547107,
6,"“Sven, I’m good,” Isabel said. ",1,2,None,,,,,,0,6,6,6,,,,,0,7,7,7,,,,,,,,,,,,,,,,,,,,,,,,,,,,,,,,,,,1,3.003564385988284,,,,,,,,,,,,,,,,,,,,,,,,,,,,062519_p2,001,2019_Jun_25_1339,body_behavioural,3.0.4,59.8388600547107,
6,Sven closed the box and discretely put it in his pocket.,1,2,None,,,,,,0,6,6,6,,,,,0,8,8,8,,,,,,,,,,,,,,,,,,,,,,,,,,,,,,,,,,,1,3.3021746759768575,,,,,,,,,,,,,,,,,,,,,,,,,,,,062519_p2,001,2019_Jun_25_1339,body_behavioural,3.0.4,59.8388600547107,
6,"They entered the security line, weaving through the roped walkways to the front. ",2,2,None,,,,,,0,6,6,6,,,,,0,9,9,9,,,,,,,,,,,,,,,,,,,,,,,,,,,,,,,,,,,1,2.286848577001365,,,,,,,,,,,,,,,,,,,,,,,,,,,,062519_p2,001,2019_Jun_25_1339,body_behavioural,3.0.4,59.8388600547107,
6,"When they were up, Isabel realized her laptop was buried somewhere in her duffle bag. ",2,2,None,,,,,,0,6,6,6,,,,,0,10,10,10,,,,,,,,,,,,,,,,,,,,,,,,,,,,,,,,,,,9,5.070446245023049,,,,,,,,,,,,,,,,,,,,,,,,,,,,062519_p2,001,2019_Jun_25_1339,body_behavioural,3.0.4,59.8388600547107,
6,"Luckily, at the same time, there was a stall in the line because someone ahead of them had a suspicious amount of metal pieces on his person. ",2,2,None,,,,,,0,6,6,6,,,,,0,11,11,11,,,,,,,,,,,,,,,,,,,,,,,,,,,,,,,,,,,1,5.253951535996748,,,,,,,,,,,,,,,,,,,,,,,,,,,,062519_p2,001,2019_Jun_25_1339,body_behavioural,3.0.4,59.8388600547107,
6,Sven had to hold the growing mound of objects Isabel pulled from her bag until she unearthed the laptop and set it in a bin.,2,2,None,,,,,,0,6,6,6,,,,,0,12,12,12,,,,,,,,,,,,,,,,,,,,,,,,,,,,,,,,,,,1,5.034304759989027,,,,,,,,,,,,,,,,,,,,,,,,,,,,062519_p2,001,2019_Jun_25_1339,body_behavioural,3.0.4,59.8388600547107,
6,"She then gave her bag to Sven, unstrapped her heels, and took the bag back from Sven.",2,2,None,,,,,,0,6,6,6,,,,,0,13,13,13,,,,,,,,,,,,,,,,,,,,,,,,,,,,,,,,,,,1,2.817710506002186,,,,,,,,,,,,,,,,,,,,,,,,,,,,062519_p2,001,2019_Jun_25_1339,body_behavioural,3.0.4,59.8388600547107,
6,"Sven, relieved of his holding duties, hurriedly deposited his own backpack on the belt, and took off his shoes. ",2,2,None,,,,,,0,6,6,6,,,,,0,14,14,14,,,,,,,,,,,,,,,,,,,,,,,,,,,,,,,,,,,1,3.420323047990678,,,,,,,,,,,,,,,,,,,,,,,,,,,,062519_p2,001,2019_Jun_25_1339,body_behavioural,3.0.4,59.8388600547107,
6,"Sven went into the millimeter wave scanner after Isabel, put his hands up, and the metal bars whirled around him.",2,2,None,,,,,,0,6,6,6,,,,,0,15,15,15,,,,,,,,,,,,,,,,,,,,,,,,,,,,,,,,,,,1,5.15316650501336,,,,,,,,,,,,,,,,,,,,,,,,,,,,062519_p2,001,2019_Jun_25_1339,body_behavioural,3.0.4,59.8388600547107,
6,The security guard asked Sven to wait. ,2,2,None,,,,,,0,6,6,6,,,,,0,16,16,16,,,,,,,,,,,,,,,,,,,,,,,,,,,,,,,,,,,1,1.136246870009927,,,,,,,,,,,,,,,,,,,,,,,,,,,,062519_p2,001,2019_Jun_25_1339,body_behavioural,3.0.4,59.8388600547107,
6,"After looking at the monitor, the security guard said, “Sir, please empty your pockets,”.",2,2,None,,,,,,0,6,6,6,,,,,0,17,17,17,,,,,,,,,,,,,,,,,,,,,,,,,,,,,,,,,,,1,3.036010576004628,,,,,,,,,,,,,,,,,,,,,,,,,,,,062519_p2,001,2019_Jun_25_1339,body_behavioural,3.0.4,59.8388600547107,
6,"Isabel, shoeless and wrinkling her eyebrows at Sven, looked at him expectantly.",2,2,None,,,,,,0,6,6,6,,,,,0,18,18,18,,,,,,,,,,,,,,,,,,,,,,,,,,,,,,,,,,,9,6.436324908980168,,,,,,,,,,,,,,,,,,,,,,,,,,,,062519_p2,001,2019_Jun_25_1339,body_behavioural,3.0.4,59.8388600547107,
6,"Realizing that he had forgotten the ring in his pocket, he grabbed Isabel’s, got down on one knee, and opening the velvet box, said, “Isabel, this isn't quite how I'd planned this, but - will you marry me?”",2,3,None,,,,,,0,6,6,6,,,,,0,19,19,19,,,,,,,,,,,,,,,,,,,,,,,,,,,,,,,,,,,1,7.202732598001603,,,,,,,,,,,,,,,,,,,,,,,,,,,,062519_p2,001,2019_Jun_25_1339,body_behavioural,3.0.4,59.8388600547107,
6,He held the ring up to her. ,2,3,None,,,,,,0,6,6,6,,,,,0,20,20,20,,,,,,,,,,,,,,,,,,,,,,,,,,,,,,,,,,,1,1.7359700349916238,,,,,,,,,,,,,,,,,,,,,,,,,,,,062519_p2,001,2019_Jun_25_1339,body_behavioural,3.0.4,59.8388600547107,
6,The security guard stood shocked.,2,3,None,,,,,,0,6,6,6,,,,,0,21,21,21,,,,,,,,,,,,,,,,,,,,,,,,,,,,,,,,,,,1,2.9204357669805177,,,,,,,,,,,,,,,,,,,,,,,,,,,,062519_p2,001,2019_Jun_25_1339,body_behavioural,3.0.4,59.8388600547107,
6,All the people who were putting their shoes back on and gathering their belongings stopped and walked closer to the couple.,2,3,None,,,,,,0,6,6,6,,,,,0,22,22,22,,,,,,,,,,,,,,,,,,,,,,,,,,,,,,,,,,,1,4.103230651002377,,,,,,,,,,,,,,,,,,,,,,,,,,,,062519_p2,001,2019_Jun_25_1339,body_behavioural,3.0.4,59.8388600547107,
6,Isabel didn’t know what to do since she was far too shy to respond in front of all the people around.,2,3,None,,,,,,0,6,6,6,,,,,0,23,23,23,,,,,,,,,,,,,,,,,,,,,,,,,,,,,,,,,,,1,4.93601730800583,,,,,,,,,,,,,,,,,,,,,,,,,,,,062519_p2,001,2019_Jun_25_1339,body_behavioural,3.0.4,59.8388600547107,
6,"Without responding to Sven, she frantically grabbed her and Sven’s shoes, leaving Sven to retrieve the rest, and she quickly walked onto the concourse.",3,3,None,,,,,,0,6,6,6,,,,,0,24,24,24,,,,,,,,,,,,,,,,,,,,,,,,,,,,,,,,,,,1,8.138290865026647,,,,,,,,,,,,,,,,,,,,,,,,,,,,062519_p2,001,2019_Jun_25_1339,body_behavioural,3.0.4,59.8388600547107,
6,"Sven, terrified, grabbed everything and hurried after Isabel onto the concourse shoeless.",3,3,None,,,,,,0,6,6,6,,,,,0,25,25,25,,,,,,,,,,,,,,,,,,,,,,,,,,,,,,,,,,,1,3.870308154990198,,,,,,,,,,,,,,,,,,,,,,,,,,,,062519_p2,001,2019_Jun_25_1339,body_behavioural,3.0.4,59.8388600547107,
6,Sven eventually caught up to her with their bags and the open ring box.,3,3,None,,,,,,0,6,6,6,,,,,0,26,26,26,,,,,,,,,,,,,,,,,,,,,,,,,,,,,,,,,,,9,2.8530014529824257,,,,,,,,,,,,,,,,,,,,,,,,,,,,062519_p2,001,2019_Jun_25_1339,body_behavioural,3.0.4,59.8388600547107,
6,"She stopped and with wide, excited eyes, shouted, “Of course yes, Sven!” ",3,4,None,,,,,,0,6,6,6,,,,,0,27,27,27,,,,,,,,,,,,,,,,,,,,,,,,,,,,,,,,,,,1,3.3375571430078708,,,,,,,,,,,,,,,,,,,,,,,,,,,,062519_p2,001,2019_Jun_25_1339,body_behavioural,3.0.4,59.8388600547107,
6,"They dropped their belongings and hugged, and Sven put the ring onto Isabel’s finger. ",3,4,None,,,,,,0,6,6,6,,,,,0,28,28,28,,,,,,,,,,,,,,,,,,,,,,,,,,,,,,,,,,,1,2.4839171950006858,,,,,,,,,,,,,,,,,,,,,,,,,,,,062519_p2,001,2019_Jun_25_1339,body_behavioural,3.0.4,59.8388600547107,
6,"“Isabel, you scared me!” he said. ",3,4,None,,,,,,0,6,6,6,,,,,0,29,29,29,,,,,,,,,,,,,,,,,,,,,,,,,,,,,,,,,,,1,6.41933219099883,,,,,,,,,,,,,,,,,,,,,,,,,,,,062519_p2,001,2019_Jun_25_1339,body_behavioural,3.0.4,59.8388600547107,
6,"After getting their shoes back on, they practically floated to gate C40.",3,4,None,,,,,,0,6,6,6,,,,,0,30,30,30,,,,,,,,,,,,,,,,,,,,,,,,,,,,,,,,,,,1,2.403069365012925,,,,,,,,,,,,,,,,,,,,,,,,,,,,062519_p2,001,2019_Jun_25_1339,body_behavioural,3.0.4,59.8388600547107,
6,Sven was so happy he even high-fived a confused shoe-shine attendant as they passed.,3,4,None,,,,,,0,6,6,6,,,,,0,31,31,31,,,,,,,,,,,,,,,,,,,,,,,,,,,,,,,,,,,1,3.386476935003884,,,,,,,,,,,,,,,,,,,,,,,,,,,,062519_p2,001,2019_Jun_25_1339,body_behavioural,3.0.4,59.8388600547107,
6,Isabel texted her best friend telling her the news as they walked. ,3,4,None,,,,,,0,6,6,6,,,,,0,32,32,32,,,,,,,,,,,,,,,,,,,,,,,,,,,,,,,,,,,1,4.2032269700139295,,,,,,,,,,,,,,,,,,,,,,,,,,,,062519_p2,001,2019_Jun_25_1339,body_behavioural,3.0.4,59.8388600547107,
6,"Having arrived at their gate, they waited, until the attendant called for passengers, and they scanned their tickets to board the plane.",4,4,None,,,,,,0,6,6,6,,,,,0,33,33,33,,,,,,,,,,,,,,,,,,,,,,,,,,,,,,,,,,,1,3.8535496320109814,,,,,,,,,,,,,,,,,,,,,,,,,,,,062519_p2,001,2019_Jun_25_1339,body_behavioural,3.0.4,59.8388600547107,
6,"They walked through the connecting tunnel to the plane and sat together in first class, in seats 2A and 2B.",4,4,None,,,,,,0,6,6,6,,,,,0,34,34,34,,,,,,,,,,,,,,,,,,,,,,,,,,,,,,,,,,,1,1.3518882940115873,,,,,,,,,,,,,,,,,,,,,,,,,,,,062519_p2,001,2019_Jun_25_1339,body_behavioural,3.0.4,59.8388600547107,
6,"Some of their neighboring passengers who had witnessed the proposal at security congratulated them, and a woman next to them showed them that she had been live-tweeting the whole event and that it was already going viral online.",4,4,None,,,,,,0,6,6,6,,,,,0,35,35,35,,,,,,,,,,,,,,,,,,,,,,,,,,,,,,,,,,,1,6.470769059989834,,,,,,,,,,,,,,,,,,,,,,,,,,,,062519_p2,001,2019_Jun_25_1339,body_behavioural,3.0.4,59.8388600547107,
6,"Isabel slid down in her seat with her hands over her face, embarrassed and overjoyed at the same time.
",4,4,None,,,,,,0,6,6,6,,,,,0,36,36,36,,,,,,,,,,,,,,,,,,,,,,,,,,,,,,,,,,,1,5.036702271987451,,,,,,,,,,,,,,,,,,,,,,,,,,,,062519_p2,001,2019_Jun_25_1339,body_behavioural,3.0.4,59.8388600547107,
6,,,,,,,,,,0,6,6,6,,,,,,,,,,,,,,,,,,,,,,,,,,,,,,,,,,,,,,,,,,,,,,,,,,,,,,,,,,,,,,,,,,,,,,,,062519_p2,001,2019_Jun_25_1339,body_behavioural,3.0.4,59.8388600547107,
7,,,,,,,,,,0,7,7,7,0,0,0,0,,,,,,,,,,,,,,,,,,,,,,,,,,,,,space,1.5034812370140571,space,4.00322466500802,space,0.6864455300092231,,,,,,,,,,,,,,,,,,,,,,,,,,,,,,,,,,062519_p2,001,2019_Jun_25_1339,body_behavioural,3.0.4,59.8388600547107,
7,Henry walked into lecture with Maria who was mentally rehearsing what she should say to break up with him.,1,1,14.0,,,,,,0,7,7,7,,,,,0,0,0,0,,,,,,,,,,,,,,,,,,,,,,,,,,,,,,,space,2.069968417985365,space,1.0028887549997307,1,6.551511019992176,,,,,,,,,,,,,,,,,,,,,,,,,,,,062519_p2,001,2019_Jun_25_1339,body_behavioural,3.0.4,59.8388600547107,
7,She had been putting it off with a growing sense of dread as she had been since she started to think about it a week ago.,1,1,None,,,,,,0,7,7,7,,,,,0,1,1,1,,,,,,,,,,,,,,,,,,,,,,,,,,,,,,,,,,,1,3.6034667030035052,,,,,,,,,,,,,,,,,,,,,,,,,,,,062519_p2,001,2019_Jun_25_1339,body_behavioural,3.0.4,59.8388600547107,
7,Now this lecture was the last chance to do it. ,1,1,None,,,,,,0,7,7,7,,,,,0,2,2,2,,,,,,,,,,,,,,,,,,,,,,,,,,,,,,,,,,,1,3.6703727670246735,,,,,,,,,,,,,,,,,,,,,,,,,,,,062519_p2,001,2019_Jun_25_1339,body_behavioural,3.0.4,59.8388600547107,
7,"The lecture hall was large, with a stage for the lecturer in the front of the room, and 15 tiered rows of desks. ",1,1,None,,,,,,0,7,7,7,,,,,0,3,3,3,,,,,,,,,,,,,,,,,,,,,,,,,,,,,,,,,,,1,6.967752691998612,,,,,,,,,,,,,,,,,,,,,,,,,,,,062519_p2,001,2019_Jun_25_1339,body_behavioural,3.0.4,59.8388600547107,
7,Maria and Henry slid into neighboring seats near the back of the room.,1,1,None,,,,,,0,7,7,7,,,,,0,4,4,4,,,,,,,,,,,,,,,,,,,,,,,,,,,,,,,,,,,1,2.73619950999273,,,,,,,,,,,,,,,,,,,,,,,,,,,,062519_p2,001,2019_Jun_25_1339,body_behavioural,3.0.4,59.8388600547107,
7,"The professor opened up the lecture with a hardy greeting, “Good afternoon, everybody.”",2,1,None,,,,,,0,7,7,7,,,,,0,5,5,5,,,,,,,,,,,,,,,,,,,,,,,,,,,,,,,,,,,1,4.769847657007631,,,,,,,,,,,,,,,,,,,,,,,,,,,,062519_p2,001,2019_Jun_25_1339,body_behavioural,3.0.4,59.8388600547107,
7,"As he fiddled with the cords to connect his laptop to the projector, he continued to say, “Welcome to Week 4 of Intro to Ancient Philosophy. ",2,1,None,,,,,,0,7,7,7,,,,,0,6,6,6,,,,,,,,,,,,,,,,,,,,,,,,,,,,,,,,,,,1,9.120606554992264,,,,,,,,,,,,,,,,,,,,,,,,,,,,062519_p2,001,2019_Jun_25_1339,body_behavioural,3.0.4,59.8388600547107,
7,Today we are going to continue our lecture on Aristotelian Philosophy.”,2,1,None,,,,,,0,7,7,7,,,,,0,7,7,7,,,,,,,,,,,,,,,,,,,,,,,,,,,,,,,,,,,1,2.436740879988065,,,,,,,,,,,,,,,,,,,,,,,,,,,,062519_p2,001,2019_Jun_25_1339,body_behavioural,3.0.4,59.8388600547107,
7,Mostly everyone in class was taking notes.,2,1,None,,,,,,0,7,7,7,,,,,0,8,8,8,,,,,,,,,,,,,,,,,,,,,,,,,,,,,,,,,,,1,2.4708942260185722,,,,,,,,,,,,,,,,,,,,,,,,,,,,062519_p2,001,2019_Jun_25_1339,body_behavioural,3.0.4,59.8388600547107,
7,"Maria took a deep breath, decided to rip off the bandaid, and leaning into Henry’s desk, said, “Henry, I think we should- I think we should break up because I don’t think I can do long distance.",2,2,None,,,,,,0,7,7,7,,,,,0,9,9,9,,,,,,,,,,,,,,,,,,,,,,,,,,,,,,,,,,,9,10.321152819989948,,,,,,,,,,,,,,,,,,,,,,,,,,,,062519_p2,001,2019_Jun_25_1339,body_behavioural,3.0.4,59.8388600547107,
7,"I think what we have here is great, but I think it will be really hard when we are so far apart for so long during my study abroad.",2,2,None,,,,,,0,7,7,7,,,,,0,10,10,10,,,,,,,,,,,,,,,,,,,,,,,,,,,,,,,,,,,1,4.701423364982475,,,,,,,,,,,,,,,,,,,,,,,,,,,,062519_p2,001,2019_Jun_25_1339,body_behavioural,3.0.4,59.8388600547107,
7,"I’m sorry I’m telling you now in lecture, but you know, I have to leave for the airport after class and this is really hard for me to tell you.",2,2,None,,,,,,0,7,7,7,,,,,0,11,11,11,,,,,,,,,,,,,,,,,,,,,,,,,,,,,,,,,,,1,7.187374847999308,,,,,,,,,,,,,,,,,,,,,,,,,,,,062519_p2,001,2019_Jun_25_1339,body_behavioural,3.0.4,59.8388600547107,
7,I just know when I’m there I’m going to be so busy and I really want to be immersed in the life of the place I’m in.”,2,2,None,,,,,,0,7,7,7,,,,,0,12,12,12,,,,,,,,,,,,,,,,,,,,,,,,,,,,,,,,,,,1,3.6698694600199815,,,,,,,,,,,,,,,,,,,,,,,,,,,,062519_p2,001,2019_Jun_25_1339,body_behavioural,3.0.4,59.8388600547107,
7,"The professor said, “We will now talk about one of Aristotle’s works, The Categories.",3,2,None,,,,,,0,7,7,7,,,,,0,13,13,13,,,,,,,,,,,,,,,,,,,,,,,,,,,,,,,,,,,1,3.95410990001983,,,,,,,,,,,,,,,,,,,,,,,,,,,,062519_p2,001,2019_Jun_25_1339,body_behavioural,3.0.4,59.8388600547107,
7,"This text, as you might have been able to guess, is about the kinds, or categories, of things that there are.",3,2,None,,,,,,0,7,7,7,,,,,0,14,14,14,,,,,,,,,,,,,,,,,,,,,,,,,,,,,,,,,,,1,3.9371180160087533,,,,,,,,,,,,,,,,,,,,,,,,,,,,062519_p2,001,2019_Jun_25_1339,body_behavioural,3.0.4,59.8388600547107,
7,"In fact, our term category comes from this Aristotelian context.",3,2,None,,,,,,0,7,7,7,,,,,0,15,15,15,,,,,,,,,,,,,,,,,,,,,,,,,,,,,,,,,,,1,2.5539699520159047,,,,,,,,,,,,,,,,,,,,,,,,,,,,062519_p2,001,2019_Jun_25_1339,body_behavioural,3.0.4,59.8388600547107,
7,"The Categories, traditionally interpreted as an introduction to Aristotle’s logical work, divides all of  being into ten categories.” ",3,2,None,,,,,,0,7,7,7,,,,,0,16,16,16,,,,,,,,,,,,,,,,,,,,,,,,,,,,,,,,,,,1,3.600593448005384,,,,,,,,,,,,,,,,,,,,,,,,,,,,062519_p2,001,2019_Jun_25_1339,body_behavioural,3.0.4,59.8388600547107,
7,"Henry felt horrible, like the wind had just been knocked out of him and he whispered back, “Maria, I don’t want to break up with you because I love you.",3,3,None,,,,,,0,7,7,7,,,,,0,17,17,17,,,,,,,,,,,,,,,,,,,,,,,,,,,,,,,,,,,1,5.184621046995744,,,,,,,,,,,,,,,,,,,,,,,,,,,,062519_p2,001,2019_Jun_25_1339,body_behavioural,3.0.4,59.8388600547107,
7,I’ll come visit you and it will be fine.,3,3,None,,,,,,0,7,7,7,,,,,0,18,18,18,,,,,,,,,,,,,,,,,,,,,,,,,,,,,,,,,,,1,2.587345287989592,,,,,,,,,,,,,,,,,,,,,,,,,,,,062519_p2,001,2019_Jun_25_1339,body_behavioural,3.0.4,59.8388600547107,
7,I don’t want to break up.”,3,3,None,,,,,,0,7,7,7,,,,,0,19,19,19,,,,,,,,,,,,,,,,,,,,,,,,,,,,,,,,,,,9,2.1368170930072665,,,,,,,,,,,,,,,,,,,,,,,,,,,,062519_p2,001,2019_Jun_25_1339,body_behavioural,3.0.4,59.8388600547107,
7,"Maria felt so guilty that she nearly gave in, but forced herself to hold her ground, knowing that this would make things much easier for both of them in the future.",3,3,None,,,,,,0,7,7,7,,,,,0,20,20,20,,,,,,,,,,,,,,,,,,,,,,,,,,,,,,,,,,,1,7.054196315992158,,,,,,,,,,,,,,,,,,,,,,,,,,,,062519_p2,001,2019_Jun_25_1339,body_behavioural,3.0.4,59.8388600547107,
7,"She gave his hand a squeeze but shook her head sadly, before turning back to look at her empty desk. ",3,3,None,,,,,,0,7,7,7,,,,,0,21,21,21,,,,,,,,,,,,,,,,,,,,,,,,,,,,,,,,,,,1,3.052089275995968,,,,,,,,,,,,,,,,,,,,,,,,,,,,062519_p2,001,2019_Jun_25_1339,body_behavioural,3.0.4,59.8388600547107,
7,"The professor wrapped up, “Alright, class, that’s all for today.",4,3,None,,,,,,0,7,7,7,,,,,0,22,22,22,,,,,,,,,,,,,,,,,,,,,,,,,,,,,,,,,,,1,2.052738809987204,,,,,,,,,,,,,,,,,,,,,,,,,,,,062519_p2,001,2019_Jun_25_1339,body_behavioural,3.0.4,59.8388600547107,
7,"Remember the final exam is coming up next week on Tuesday on the Pre-Socratics, Plato, and Aristotle, so feel free to come by office hours to discuss if you have the inspiration.",4,3,None,,,,,,0,7,7,7,,,,,0,23,23,23,,,,,,,,,,,,,,,,,,,,,,,,,,,,,,,,,,,1,7.272218413010705,,,,,,,,,,,,,,,,,,,,,,,,,,,,062519_p2,001,2019_Jun_25_1339,body_behavioural,3.0.4,59.8388600547107,
7,"If anyone has any conflicts with another exam, please email me so that we can figure out a time to reschedule it. ",4,3,None,,,,,,0,7,7,7,,,,,0,24,24,24,,,,,,,,,,,,,,,,,,,,,,,,,,,,,,,,,,,1,2.8863603319914546,,,,,,,,,,,,,,,,,,,,,,,,,,,,062519_p2,001,2019_Jun_25_1339,body_behavioural,3.0.4,59.8388600547107,
7,"Have a good day, folks.” ",4,3,None,,,,,,0,7,7,7,,,,,0,25,25,25,,,,,,,,,,,,,,,,,,,,,,,,,,,,,,,,,,,1,1.3702458750049118,,,,,,,,,,,,,,,,,,,,,,,,,,,,062519_p2,001,2019_Jun_25_1339,body_behavioural,3.0.4,59.8388600547107,
7,"Maria and Henry packed up hurriedly, and they hugged; both of them had tears. ",4,4,None,,,,,,0,7,7,7,,,,,0,26,26,26,,,,,,,,,,,,,,,,,,,,,,,,,,,,,,,,,,,1,3.50158687698422,,,,,,,,,,,,,,,,,,,,,,,,,,,,062519_p2,001,2019_Jun_25_1339,body_behavioural,3.0.4,59.8388600547107,
7,"“Maria, I don’t want you to leave.",4,4,None,,,,,,0,7,7,7,,,,,0,27,27,27,,,,,,,,,,,,,,,,,,,,,,,,,,,,,,,,,,,1,1.3362515089975204,,,,,,,,,,,,,,,,,,,,,,,,,,,,062519_p2,001,2019_Jun_25_1339,body_behavioural,3.0.4,59.8388600547107,
7,I don’t want this to end. ,4,4,None,,,,,,0,7,7,7,,,,,0,28,28,28,,,,,,,,,,,,,,,,,,,,,,,,,,,,,,,,,,,1,0.9534425949968863,,,,,,,,,,,,,,,,,,,,,,,,,,,,062519_p2,001,2019_Jun_25_1339,body_behavioural,3.0.4,59.8388600547107,
7,"But if this is what you think is best, I can’t make it otherwise.” ",4,4,None,,,,,,0,7,7,7,,,,,0,29,29,29,,,,,,,,,,,,,,,,,,,,,,,,,,,,,,,,,,,1,1.98629910001182,,,,,,,,,,,,,,,,,,,,,,,,,,,,062519_p2,001,2019_Jun_25_1339,body_behavioural,3.0.4,59.8388600547107,
7,"They hugged one last time, and then Maria remembered she had left her favorite Alpaca sweater in Henry’s room.",4,4,None,,,,,,0,7,7,7,,,,,0,30,30,30,,,,,,,,,,,,,,,,,,,,,,,,,,,,,,,,,,,1,4.43750915597775,,,,,,,,,,,,,,,,,,,,,,,,,,,,062519_p2,001,2019_Jun_25_1339,body_behavioural,3.0.4,59.8388600547107,
7,"“Henry, I’m so sorry to ask this now but could you grab my alpaca sweater from your dorm and meet me in front of the student center?”",4,4,None,,,,,,0,7,7,7,,,,,0,31,31,31,,,,,,,,,,,,,,,,,,,,,,,,,,,,,,,,,,,9,4.537560300988844,,,,,,,,,,,,,,,,,,,,,,,,,,,,062519_p2,001,2019_Jun_25_1339,body_behavioural,3.0.4,59.8388600547107,
7,"He agreed, and she ran off to get her things from her dorm as he sadly watched her go. ",4,4,None,,,,,,0,7,7,7,,,,,0,32,32,32,,,,,,,,,,,,,,,,,,,,,,,,,,,,,,,,,,,1,1.9206692589796148,,,,,,,,,,,,,,,,,,,,,,,,,,,,062519_p2,001,2019_Jun_25_1339,body_behavioural,3.0.4,59.8388600547107,
7,,,,,,,,,,0,7,7,7,,,,,,,,,,,,,,,,,,,,,,,,,,,,,,,,,,,,,,,,,,,,,,,,,,,,,,,,,,,,,,,,,,,,,,,,062519_p2,001,2019_Jun_25_1339,body_behavioural,3.0.4,59.8388600547107,
,,,,,,,,,,,,,,,,,,,,,,,,,,,,,,,,,,,,,,,,,,,,,,,,,,,,,,,,,,1707.588684079994,space,2.5520241750054993,,,,,,,,,,,,,,,,,,,,,,,,,062519_p2,001,2019_Jun_25_1339,body_behavioural,3.0.4,59.8388600547107,
,,,,,,,,,"In this next part of the experiment, please recall each story to the best of your ability.",,,,,,,,,,,,,0,0,0,0,,,,,,,,,,,,,,,,,,,,,,,,,,,,,,,,,,,,space,4.670071683009155,,,,,,,,,,,,,,,,,,,,,,,062519_p2,001,2019_Jun_25_1339,body_behavioural,3.0.4,59.8388600547107,
,,,,,,,,,"You will be presented with the story title, names, the images, and a blank text box for each story.",,,,,,,,,,,,,0,1,1,1,,,,,,,,,,,,,,,,,,,,,,,,,,,,,,,,,,,,space,3.886933002009755,,,,,,,,,,,,,,,,,,,,,,,062519_p2,001,2019_Jun_25_1339,body_behavioural,3.0.4,59.8388600547107,
,,,,,,,,,Describe the story indicated with as many details as you can remember in the space provided. ,,,,,,,,,,,,,0,2,2,2,,,,,,,,,,,,,,,,,,,,,,,,,,,,,,,,,,,,space,3.8517266040144023,,,,,,,,,,,,,,,,,,,,,,,062519_p2,001,2019_Jun_25_1339,body_behavioural,3.0.4,59.8388600547107,
,,,,,,,,,"When you are finished recalling one story, to move onto the next one, press the ‘return’ key. ",,,,,,,,,,,,,0,3,3,3,,,,,,,,,,,,,,,,,,,,,,,,,,,,,,,,,,,,space,2.4703918200102635,,,,,,,,,,,,,,,,,,,,,,,062519_p2,001,2019_Jun_25_1339,body_behavioural,3.0.4,59.8388600547107,
,,,,,,,,,There is a 5 minute time limit to make your response. ,,,,,,,,,,,,,0,4,4,4,,,,,,,,,,,,,,,,,,,,,,,,,,,,,,,,,,,,space,1.9862179959891364,,,,,,,,,,,,,,,,,,,,,,,062519_p2,001,2019_Jun_25_1339,body_behavioural,3.0.4,59.8388600547107,
,,,,,,,,,Please note that you will not be able to capitalize any letters except for the first letter of your answer. This will not effect the scoring of your recall answer.,,,,,,,,,,,,,0,5,5,5,,,,,,,,,,,,,,,,,,,,,,,,,,,,,,,,,,,,space,5.300383195019094,,,,,,,,,,,,,,,,,,,,,,,062519_p2,001,2019_Jun_25_1339,body_behavioural,3.0.4,59.8388600547107,
0,,,,,,,,,,,,,,,,,,,,,,,,,,0,0,0,0,,,,,,,,,,,,,,,,,,,,,,,,,,,,,,,,,,space,1.6201950979884714,"They were in a supermarket. it was a few days before thanskiving and everyone was shopping for turkey and stuffing. she was looking at cranberry sauce while he was admiring the ring. they didnt face each other. they went in line 3 and he saw his freinds outside the shop.  he takes the ring out of his pocket, kneels down and asks her is she wants to marry him. everyone looks at them. she accepts. people start recording and his friends come out from where they were hiding and record and take pictures of them.",,,,,,,,,,,,,,,,,,,,062519_p2,001,2019_Jun_25_1339,body_behavioural,3.0.4,59.8388600547107,
1,,,,,,,,,,,,,,,,,,,,,,,,,,0,1,1,1,,,,,,,,,,,,,,,,,,,,,,,,,,,,,,,,,,space,1.8038160190044437,,,,,,,,,,,,,,,,,,,,,062519_p2,001,2019_Jun_25_1339,body_behavioural,3.0.4,59.8388600547107,
2,,,,,,,,,,,,,,,,,,,,,,,,,,0,2,2,2,,,,,,,,,,,,,,,,,,,,,,,,,,,,,,,,,,space,3.852711639017798,"They meet at a supermarket. he makes a joke about a meat cute and she continues it. then they both share some advice for cooking, he tells her about a barbecue sauce he really likes and she tells him about some spices for a dish she enjoys. they go in lane and he asks her if she is interested in seeing him anytime soon. she accepts.the cashier rolls her eyes. he pays for her groceries because he felt that it was a nice date and she shyly accepts. she says she has to leave soon because she is already late to her barbecue. the cashier comments that hopeuflly her guests are not hungr but simon doesnt listen to the side comment.",,,,,,,,,,,,,,,,,,,,062519_p2,001,2019_Jun_25_1339,body_behavioural,3.0.4,59.8388600547107,
3,,,,,,,,,,,,,,,,,,,,,,,,,,0,3,3,3,,,,,,,,,,,,,,,,,,,,,,,,,,,,,,,,,,space,1.1055722820165101,They are in a restaurant. he wants to break up with her and thought about it for 2 months. a waiter is taking them to their booth in the back. he finally says that they should break up because of his work and his confusiion about his career. he orders a burger with no tomatoes and she orders a different dish. she start to cry and says that they can hang out lessand work things out. she says she wants her polaroid camera and her beatles poster back and then storms the restaurnat. the bells at the door jingle cheerly. he is somehow content that the story ended so fast.,,,,,,,,,,,,,,,,,,,,062519_p2,001,2019_Jun_25_1339,body_behavioural,3.0.4,59.8388600547107,
4,,,,,,,,,,,,,,,,,,,,,,,,,,0,4,4,4,,,,,,,,,,,,,,,,,,,,,,,,,,,,,,,,,,space,1.3033670650038403,"They are in a class. she has a business strategy and his company wants to invest in her plan. they start talking about it and he offers $28,000 but she doesnt think this is a fair price. she says that she can go to another investment club on campus, church investment, which is their competition. they start negotiating how much money her plan should receive. charlie and his club really want her plan and are willing to pay the full price if  it comes to that. they continue talking even though the class ended. it was a class about ancient rome and augustus. they have a midterm soon. they make the deal and hug in order to formalize it.",,,,,,,,,,,,,,,,,,,,062519_p2,001,2019_Jun_25_1339,body_behavioural,3.0.4,59.8388600547107,
5,,,,,,,,,,,,,,,,,,,,,,,,,,0,5,5,5,,,,,,,,,,,,,,,,,,,,,,,,,,,,,,,,,,space,1.2370185100007802,"They meet in a restaurant . the steakhouse has wooden decorum and candles on everytable. the menu weighs something and has a long list of drinks. mr shelton orders medium-rare steak and a martini and mr gordon orders veal and a manhattan. mr. shelton wants to buy the smaller firm mr. gordon has because he believs it can become more profitable and actually do something. in the beginning, mr. gordon is not persuaded but he is finally convinced whrn mr. shelton tells him how he took care of other small firm acqusitions. the food was not great, it was kind of dry and overcooked. they make a deal because mr. shelton agrees to let mr. gordon in charde of his employees and the future of his smaller company.",,,,,,,,,,,,,,,,,,,,062519_p2,001,2019_Jun_25_1339,body_behavioural,3.0.4,59.8388600547107,
6,,,,,,,,,,,,,,,,,,,,,,,,,,0,6,6,6,,,,,,,,,,,,,,,,,,,,,,,,,,,,,,,,,,space,1.1870788899832405,"They are in an airport in barcelona. sven met isable/s parents. they started dating 11 months ago. they are going through airport security. he wants to propose and forgets the engagement ring in his pocket so the airport security asks him to empty his pockets. he realizes that the ring is there so he kneels down and proposes. the ring is pink with 2 diamonds. she is too shy to accept in front of everyone so she takes her shoes and leaves him hanging. he follows her and there she finally says yes. they walk to the airplane and she texts her bestfriend. on the airplane, people who saw the proposal at the security point congratulate them. she is somewhat embaressed and ecited at the same time.",,,,,,,,,,,,,,,,,,,,062519_p2,001,2019_Jun_25_1339,body_behavioural,3.0.4,59.8388600547107,
7,,,,,,,,,,,,,,,,,,,,,,,,,,0,7,7,7,,,,,,,,,,,,,,,,,,,,,,,,,,,,,,,,,,space,1.036934385978384,"They are in a big class with 15 rows of seats. the class is about aristotelian ategories. the professor talk about how there are 10 categories and how the word itself comes from aristotle. maria wants to break up with henry because she will have a semster abroud and wants to really emmerse herself in the new place and culture but he thinks they can do long distance and pledges to come visit her. even though is hard for her to refuse his offfer, she knows that is the best thing to break up now and move on with their lives. her flight is today after class and she wants her sweater back from his room. the professor announces that they have amidterm next tuesday so the students are welcomed to email the tas about that.",,,,,,,,,,,,,,,,,,,,062519_p2,001,2019_Jun_25_1339,body_behavioural,3.0.4,59.8388600547107,
,,,,,,,,,,,,,,,,,,,,,,,,,,,,,,,,,,,,,,,,,,,,,,,,,,,,,,,,,,,,,,,,,,3605.733053689997,space,1.470602229994256,,,,,,,,,,,,,,,,,062519_p2,001,2019_Jun_25_1339,body_behavioural,3.0.4,59.8388600547107,
,,,,,,,,,"In this last part of the experiment, please answer 8 questions about each story.",,,,,,,,,,,,,,,,,,,,,0,0,0,0,,,,,,,,,,,,,,,,,,,,,,,,,,,,,,,,,,,,space,2.6368434250180144,,,,,,,,,,,,,,,062519_p2,001,2019_Jun_25_1339,body_behavioural,3.0.4,59.8388600547107,
,,,,,,,,,Some of the questions are not related to the perspective you were asked to assume.,,,,,,,,,,,,,,,,,,,,,0,1,1,1,,,,,,,,,,,,,,,,,,,,,,,,,,,,,,,,,,,,space,3.4536236010026187,,,,,,,,,,,,,,,062519_p2,001,2019_Jun_25_1339,body_behavioural,3.0.4,59.8388600547107,
,,,,,,,,,"We realize that we did not tell you to think of these questions during the story, but please do your best to answer them.",,,,,,,,,,,,,,,,,,,,,0,2,2,2,,,,,,,,,,,,,,,,,,,,,,,,,,,,,,,,,,,,space,3.420243072992889,,,,,,,,,,,,,,,062519_p2,001,2019_Jun_25_1339,body_behavioural,3.0.4,59.8388600547107,
,,,,,,,,,"When you have finished typing your answer, hit ‘return’ to submit your answer and move onto the next question. ",,,,,,,,,,,,,,,,,,,,,0,3,3,3,,,,,,,,,,,,,,,,,,,,,,,,,,,,,,,,,,,,space,2.4706877490098123,,,,,,,,,,,,,,,062519_p2,001,2019_Jun_25_1339,body_behavioural,3.0.4,59.8388600547107,
0,,,,,,,,,,,,,,,,,,,,,,,,,,,,,,,,,,0,0,0,0,,,,,,,,,,,,,,,,,,,,,,,,,,,,Theypay by card,,,,,,space,2.5376439900137484,/,non-primed first,2; bright yellow,In a ring box,She calls her mom,There are a lot of people there shopping for thanskiving dinner food,Cranberry sauce,They go to line 3,Theypay by card,,,,062519_p2,001,2019_Jun_25_1339,body_behavioural,3.0.4,59.8388600547107,
1,,,,,,,,,,,,,,,,,,,,,,,,,,,,,,,,,,0,1,1,1,,,,,,,,,,,,,,,,,,,,,,,,,,,,3;55,,,,,,space,2.61749586800579,He has an hour and a half and she has less than that,primed first,Someone has too much metal on them,Gate j,She sits in business class seat 7d,She ties up her shoes and ,He asks her if she was a gymnast,They will meet the following tuesday when they will be both back in town,3;55,,,,062519_p2,001,2019_Jun_25_1339,body_behavioural,3.0.4,59.8388600547107,
2,,,,,,,,,,,,,,,,,,,,,,,,,,,,,,,,,,0,2,2,2,,,,,,,,,,,,,,,,,,,,,,,,,,,,He pays for bith of them by card,,,,,,space,4.053769354999531,They are holding meat,primed first,He asks about their interaction being a meat cute and then she comments on a chicken's unlucky family,T/,,,She picks barbecue sauce and he picks some spices,They go to line 13,He pays for bith of them by card,,,,062519_p2,001,2019_Jun_25_1339,body_behavioural,3.0.4,59.8388600547107,
3,,,,,,,,,,,,,,,,,,,,,,,,,,,,,,,,,,0,3,3,3,,,,,,,,,,,,,,,,,,,,,,,,,,,,She takes half of her food and leaves and he feels that is kind of dry,,,,,,space,3.3037354350090027,2 months,primed first,He needs more time to figure out his career goals and plans,She does not want to broke up. she suggests they should continue seeing each other but they dont have to hang out that often,She wants her polaroid camera and her beatles poster back,Black and white floors and has booths,Plasticated,He orders a burger with no tomatoes and she orders a different thing,She takes half of her food and leaves and he feels that is kind of dry,,,,062519_p2,001,2019_Jun_25_1339,body_behavioural,3.0.4,59.8388600547107,
4,,,,,,,,,,,,,,,,,,,,,,,,,,,,,,,,,,0,4,4,4,,,,,,,,,,,,,,,,,,,,,,,,,,,,They hug at the end,,,,,,space,1.417781719006598,Big,non-primed first,They are talking about ancient rome and augustus and how he wanted to design rome to look more like ancient athens,Augustus wanted to design ancient rome to be more like ancient athens,,She has a business plan and he is an investor,He initilly offers $28000,Church investment,They hug at the end,,,,062519_p2,001,2019_Jun_25_1339,body_behavioural,3.0.4,59.8388600547107,
5,,,,,,,,,,,,,,,,,,,,,,,,,,,,,,,,,,0,5,5,5,,,,,,,,,,,,,,,,,,,,,,,,,,,,They think is dry and over cooked,,,,,,space,1.2862952600116841,Mr. shelton is the cfo of a large company and mr. gordon owns a smaller one,non-primed first,600 mil,,They shake hands,"With wooden furniture, candles on each table",Heavy and leathered,Mr. gordon orders a medium-rare steak and a maritini and mr. gordon orders a veal with a manhattan,They think is dry and over cooked,,,,062519_p2,001,2019_Jun_25_1339,body_behavioural,3.0.4,59.8388600547107,
6,,,,,,,,,,,,,,,,,,,,,,,,,,,,,,,,,,0,6,6,6,,,,,,,,,,,,,,,,,,,,,,,,,,,,Her best friend,,,,,,space,1.4029082150082104,1 hour,non-primed first,Someone has too much metal ,C,,11 months,2 and pink,In a ring box,Her best friend,,,,062519_p2,001,2019_Jun_25_1339,body_behavioural,3.0.4,59.8388600547107,
7,,,,,,,,,,,,,,,,,,,,,,,,,,,,,,,,,,0,7,7,7,,,,,,,,,,,,,,,,,,,,,,,,,,,,They have a midterm next tuesday,,,,,,space,1.0357508130255155,1 week,non-primed first,She is going on a study abroad program for the semster,He does not want to break up. claims to love her and wants a long distance relationship saying that he can visit her,She wants her sweater,"Big, 15 rows",Ancient philosophy and they were talking about aristotle,How aristotle believes there are 10 categories of things and the word itself comes from him,They have a midterm next tuesday,,,,062519_p2,001,2019_Jun_25_1339,body_behavioural,3.0.4,59.8388600547107,
,,,,,,,,,,,,,,,,,,,,,,,,,,,,,,,,,,,,,,,,,,,,,,,,,,,,,,,,,,,,,,,,,,,,,,,,,,,,,,,,,,4658.671363169997,space,1.419236379006179,062519_p2,001,2019_Jun_25_1339,body_behavioural,3.0.4,59.8388600547107,
,,,,,,,,,,,,,,,,,,,,,,,,,,,,,,,,,,,,,,0,0,0,0,,,,,,,,,,,,,,,,,,,,,,,,,,,,,,,,,,,,,,,,,,,,062519_p2,001,2019_Jun_25_1339,body_behavioural,3.0.4,59.8388600547107,
,,,,,,,,,,,,,,,,,,,,,,,,,,,,,,,,,,,,,,1,0,1,0,,,,,,,,,,,,,,,,,,,,,,,,,,,,,,,,,,,,,,,,,,,,062519_p2,001,2019_Jun_25_1339,body_behavioural,3.0.4,59.8388600547107,
,,,,,,,,,,,,,,,,,,,,,,,,,,,,,,,,,,,,,,2,0,2,0,,,,,,,,,,,,,,,,,,,,,,,,,,,,,,,,,,,,,,,,,,,,062519_p2,001,2019_Jun_25_1339,body_behavioural,3.0.4,59.8388600547107,
