count,storyText,locationEvent,socialEvent,story,locationEventSize,socialEventSize,socialAnswer,locationAnswer,instructText,trials.thisRepN,trials.thisTrialN,trials.thisN,trials.thisIndex,trials_7.thisRepN,trials_7.thisTrialN,trials_7.thisN,trials_7.thisIndex,trials_2.thisRepN,trials_2.thisTrialN,trials_2.thisN,trials_2.thisIndex,trials_3.thisRepN,trials_3.thisTrialN,trials_3.thisN,trials_3.thisIndex,trials_4.thisRepN,trials_4.thisTrialN,trials_4.thisN,trials_4.thisIndex,trials_5.thisRepN,trials_5.thisTrialN,trials_5.thisN,trials_5.thisIndex,trials_6.thisRepN,trials_6.thisTrialN,trials_6.thisN,trials_6.thisIndex,trials_8.thisRepN,trials_8.thisTrialN,trials_8.thisN,trials_8.thisIndex,order of stories,order of perspectives,participant 2 order - stories,participant 2 order  - schemas types,key_resp_8.keys,key_resp_8.rt,key_resp_5.keys,key_resp_5.rt,key_resp_7.keys,key_resp_7.rt,key_resp_15.keys,key_resp_15.rt,key_resp_14.keys,key_resp_14.rt,story_presses.keys,story_presses.rt,story time,key_resp_6.keys,key_resp_6.rt,key_resp_2.keys,key_resp_2.rt,key_resp_10.keys,key_resp_10.rt,recall,recall time,key_resp_12.keys,key_resp_12.rt,key_resp_3.keys,key_resp_3.rt,key_resp_11.keys,key_resp_11.rt,question1_answer,order of question,question2_answer,question3_answer,question4_answer,question5_answer,question6_answer,question7_answer,question8_answer,questions time,key_resp_13.keys,key_resp_13.rt,participant,session,date,expName,psychopyVersion,frameRate,
0,,,,,,,,,,0,0,0,0,0,0,0,0,,,,,,,,,,,,,,,,,,,,,,,,,[42 21 11 33 32 14 43 24 44 31 13 23 12 22 41 34],"['Location' 'Social' 'Location' 'Location' 'Social' 'Social' 'Social'
 'Location' 'Location' 'Location' 'Location' 'Social' 'Social' 'Location'
 'Social' 'Social']",[44 31 13 23 12 22 41 34],"['Location' 'Location' 'Location' 'Social' 'Social' 'Location' 'Social'
 'Social']",space,19.52564011499635,space,2.385538002999965,space,1.3196708470059093,,,,,,,,,,,,,,,,,,,,,,,,,,,,,,,,,,062619_p1,001,2019_Jun_26_1728,body_behavioural,3.0.4,59.97086771091615,
0,David saw Anna for the first time when she burst into the airport frazzled with her half-zipped bag skidding behind her.,1,1,42.0,,,,,,0,0,0,0,,,,,0,0,0,0,,,,,,,,,,,,,,,,,,,,,,,,,,,,,,,space,2.653612281981623,space,2.270100777997868,9,12.874096601997735,,,,,,,,,,,,,,,,,,,,,,,,,,,,062619_p1,001,2019_Jun_26_1728,body_behavioural,3.0.4,59.97086771091615,
0,"He had three hours until his flight and was reading a book on the laptop he was holding in the entrance to the airport, but she had only 35 minutes and was hoping to spend as little time in the entrance as possible. ",1,1,None,,,,,,0,0,0,0,,,,,0,1,1,1,,,,,,,,,,,,,,,,,,,,,,,,,,,,,,,,,,,1,10.43795999797294,,,,,,,,,,,,,,,,,,,,,,,,,,,,062619_p1,001,2019_Jun_26_1728,body_behavioural,3.0.4,59.97086771091615,
0,"Anna, a few strides into the airport, suddenly realized to her dismay that her shoes were untied, so she hunched over to tie them.",1,1,None,,,,,,0,0,0,0,,,,,0,2,2,2,,,,,,,,,,,,,,,,,,,,,,,,,,,,,,,,,,,1,5.187457141990308,,,,,,,,,,,,,,,,,,,,,,,,,,,,062619_p1,001,2019_Jun_26_1728,body_behavioural,3.0.4,59.97086771091615,
0,"David, who had been intrigued by Anna, observed that someone with a tall cart of luggage was heading straight for where she was kneeling and that both her and the person driving the cart were oblivious to the impeding collision. ",1,1,None,,,,,,0,0,0,0,,,,,0,3,3,3,,,,,,,,,,,,,,,,,,,,,,,,,,,,,,,,,,,1,8.936276464024559,,,,,,,,,,,,,,,,,,,,,,,,,,,,062619_p1,001,2019_Jun_26_1728,body_behavioural,3.0.4,59.97086771091615,
0,"After a few moment of deliberation, David decided to intervene, and he ran in front of the cart pushing her out of the way just in the nick of time, and they tumbled on the airport floor. ",1,2,None,,,,,,0,0,0,0,,,,,0,4,4,4,,,,,,,,,,,,,,,,,,,,,,,,,,,,,,,,,,,1,8.470542010007193,,,,,,,,,,,,,,,,,,,,,,,,,,,,062619_p1,001,2019_Jun_26_1728,body_behavioural,3.0.4,59.97086771091615,
0,"Anna, bewildered, looked up and saw the cart pass by and then looked at David. ",1,2,None,,,,,,0,0,0,0,,,,,0,5,5,5,,,,,,,,,,,,,,,,,,,,,,,,,,,,,,,,,,,1,3.2009027950116433,,,,,,,,,,,,,,,,,,,,,,,,,,,,062619_p1,001,2019_Jun_26_1728,body_behavioural,3.0.4,59.97086771091615,
0,He flashed a smile.,1,2,None,,,,,,0,0,0,0,,,,,0,6,6,6,,,,,,,,,,,,,,,,,,,,,,,,,,,,,,,,,,,1,1.869720521994168,,,,,,,,,,,,,,,,,,,,,,,,,,,,062619_p1,001,2019_Jun_26_1728,body_behavioural,3.0.4,59.97086771091615,
0,“Were you ever a gymnast?,1,2,None,,,,,,0,0,0,0,,,,,0,7,7,7,,,,,,,,,,,,,,,,,,,,,,,,,,,,,,,,,,,9,6.953046217007795,,,,,,,,,,,,,,,,,,,,,,,,,,,,062619_p1,001,2019_Jun_26_1728,body_behavioural,3.0.4,59.97086771091615,
0," That was a nice tumble,” he said.",1,2,None,,,,,,0,0,0,0,,,,,0,8,8,8,,,,,,,,,,,,,,,,,,,,,,,,,,,,,,,,,,,1,3.536175724992063,,,,,,,,,,,,,,,,,,,,,,,,,,,,062619_p1,001,2019_Jun_26_1728,body_behavioural,3.0.4,59.97086771091615,
0,"She managed a chuckle and said, “Actually yes, but I’d say that deserved a score of zero.",1,2,None,,,,,,0,0,0,0,,,,,0,9,9,9,,,,,,,,,,,,,,,,,,,,,,,,,,,,,,,,,,,1,3.5698462550062686,,,,,,,,,,,,,,,,,,,,,,,,,,,,062619_p1,001,2019_Jun_26_1728,body_behavioural,3.0.4,59.97086771091615,
0,Wow- I almost got smooshed by that cart.”,1,2,None,,,,,,0,0,0,0,,,,,0,10,10,10,,,,,,,,,,,,,,,,,,,,,,,,,,,,,,,,,,,1,2.334154952026438,,,,,,,,,,,,,,,,,,,,,,,,,,,,062619_p1,001,2019_Jun_26_1728,body_behavioural,3.0.4,59.97086771091615,
0,Her head was still spinning as she stared at the handsome stranger who had saved her. ,1,2,None,,,,,,0,0,0,0,,,,,0,11,11,11,,,,,,,,,,,,,,,,,,,,,,,,,,,,,,,,,,,9,3.03634539199993,,,,,,,,,,,,,,,,,,,,,,,,,,,,062619_p1,001,2019_Jun_26_1728,body_behavioural,3.0.4,59.97086771091615,
0,David helped her up and had to keep holding on to her arms to steady her even once they were standing.,1,2,None,,,,,,0,0,0,0,,,,,0,12,12,12,,,,,,,,,,,,,,,,,,,,,,,,,,,,,,,,,,,1,3.086576044996036,,,,,,,,,,,,,,,,,,,,,,,,,,,,062619_p1,001,2019_Jun_26_1728,body_behavioural,3.0.4,59.97086771091615,
0,"“I’m really late for my flight,” she said. ",1,2,None,,,,,,0,0,0,0,,,,,0,13,13,13,,,,,,,,,,,,,,,,,,,,,,,,,,,,,,,,,,,1,3.7697141820099205,,,,,,,,,,,,,,,,,,,,,,,,,,,,062619_p1,001,2019_Jun_26_1728,body_behavioural,3.0.4,59.97086771091615,
0,"“Don't worry,” said David, "let me help you get to your gate." ",1,2,None,,,,,,0,0,0,0,,,,,0,14,14,14,,,,,,,,,,,,,,,,,,,,,,,,,,,,,,,,,,,1,1.400964335014578,,,,,,,,,,,,,,,,,,,,,,,,,,,,062619_p1,001,2019_Jun_26_1728,body_behavioural,3.0.4,59.97086771091615,
0,He waved off her half-hearted protests. ,1,2,None,,,,,,0,0,0,0,,,,,0,15,15,15,,,,,,,,,,,,,,,,,,,,,,,,,,,,,,,,,,,1,2.536654199997429,,,,,,,,,,,,,,,,,,,,,,,,,,,,062619_p1,001,2019_Jun_26_1728,body_behavioural,3.0.4,59.97086771091615,
0,“Really- I have plenty of time and nothing better to do.” he said. ,1,2,None,,,,,,0,0,0,0,,,,,0,16,16,16,,,,,,,,,,,,,,,,,,,,,,,,,,,,,,,,,,,1,1.9204238780075684,,,,,,,,,,,,,,,,,,,,,,,,,,,,062619_p1,001,2019_Jun_26_1728,body_behavioural,3.0.4,59.97086771091615,
0,"At security, the line was not long, but since Anna’s flight was so soon the security guard allowed them to go to the front of the line.",2,2,None,,,,,,0,0,0,0,,,,,0,17,17,17,,,,,,,,,,,,,,,,,,,,,,,,,,,,,,,,,,,9,3.686760835000314,,,,,,,,,,,,,,,,,,,,,,,,,,,,062619_p1,001,2019_Jun_26_1728,body_behavioural,3.0.4,59.97086771091615,
0,"They had to wait however, because there was a strange malfunction of the metal detector. ",2,2,None,,,,,,0,0,0,0,,,,,0,18,18,18,,,,,,,,,,,,,,,,,,,,,,,,,,,,,,,,,,,1,2.7698157749837264,,,,,,,,,,,,,,,,,,,,,,,,,,,,062619_p1,001,2019_Jun_26_1728,body_behavioural,3.0.4,59.97086771091615,
0,"In this span of time, they managed to find out that they had gone to the same high school and that Anna had graduated 3 years before David. ",2,2,None,,,,,,0,0,0,0,,,,,0,19,19,19,,,,,,,,,,,,,,,,,,,,,,,,,,,,,,,,,,,1,4.953025840019109,,,,,,,,,,,,,,,,,,,,,,,,,,,,062619_p1,001,2019_Jun_26_1728,body_behavioural,3.0.4,59.97086771091615,
0,They hurriedly took off their shoes and coats.,2,2,None,,,,,,0,0,0,0,,,,,0,20,20,20,,,,,,,,,,,,,,,,,,,,,,,,,,,,,,,,,,,1,1.8864040070038754,,,,,,,,,,,,,,,,,,,,,,,,,,,,062619_p1,001,2019_Jun_26_1728,body_behavioural,3.0.4,59.97086771091615,
0,"Anna placed her purse and suitcase on the conveyor belt, and David put his backpack on the conveyor belt as well, with his laptop in a separate bin. ",2,2,None,,,,,,0,0,0,0,,,,,0,21,21,21,,,,,,,,,,,,,,,,,,,,,,,,,,,,,,,,,,,1,3.734236457006773,,,,,,,,,,,,,,,,,,,,,,,,,,,,062619_p1,001,2019_Jun_26_1728,body_behavioural,3.0.4,59.97086771091615,
0,Both of them went through the metal detector without any problems. ,2,2,None,,,,,,0,0,0,0,,,,,0,22,22,22,,,,,,,,,,,,,,,,,,,,,,,,,,,,,,,,,,,1,1.5035511599853635,,,,,,,,,,,,,,,,,,,,,,,,,,,,062619_p1,001,2019_Jun_26_1728,body_behavioural,3.0.4,59.97086771091615,
0,"As they were rushing to put their shoes and coats on, they shared when they were coming back. ",2,2,None,,,,,,0,0,0,0,,,,,0,23,23,23,,,,,,,,,,,,,,,,,,,,,,,,,,,,,,,,,,,1,3.903536379977595,,,,,,,,,,,,,,,,,,,,,,,,,,,,062619_p1,001,2019_Jun_26_1728,body_behavioural,3.0.4,59.97086771091615,
0,"In a moment of boldness, David asked, “When we're back in town next Tuesday, is there any chance you'd want to get dinner?",2,3,None,,,,,,0,0,0,0,,,,,0,24,24,24,,,,,,,,,,,,,,,,,,,,,,,,,,,,,,,,,,,9,4.385747630993137,,,,,,,,,,,,,,,,,,,,,,,,,,,,062619_p1,001,2019_Jun_26_1728,body_behavioural,3.0.4,59.97086771091615,
0,"I know we just met, but when life throws a luggage cart at you it seems like we should listen. “",2,3,None,,,,,,0,0,0,0,,,,,0,25,25,25,,,,,,,,,,,,,,,,,,,,,,,,,,,,,,,,,,,1,2.60168428401812,,,,,,,,,,,,,,,,,,,,,,,,,,,,062619_p1,001,2019_Jun_26_1728,body_behavioural,3.0.4,59.97086771091615,
0,"She stopped packing, and said with a smile, “Yes I would love that.”",2,3,None,,,,,,0,0,0,0,,,,,0,26,26,26,,,,,,,,,,,,,,,,,,,,,,,,,,,,,,,,,,,1,2.569875975023024,,,,,,,,,,,,,,,,,,,,,,,,,,,,062619_p1,001,2019_Jun_26_1728,body_behavioural,3.0.4,59.97086771091615,
0,"On the concourse, they were running to get to Anna’s gate, J37, which was at the end of the terminal. ",3,3,None,,,,,,0,0,0,0,,,,,0,27,27,27,,,,,,,,,,,,,,,,,,,,,,,,,,,,,,,,,,,1,10.953798834991176,,,,,,,,,,,,,,,,,,,,,,,,,,,,062619_p1,001,2019_Jun_26_1728,body_behavioural,3.0.4,59.97086771091615,
0,"David took her suitcase, grabbed her hand, and weaved crowd of people.",3,3,None,,,,,,0,0,0,0,,,,,0,28,28,28,,,,,,,,,,,,,,,,,,,,,,,,,,,,,,,,,,,1,3.4033063969982322,,,,,,,,,,,,,,,,,,,,,,,,,,,,062619_p1,001,2019_Jun_26_1728,body_behavioural,3.0.4,59.97086771091615,
0,People passing them were giving them funny looks because Anna looked so bewildered.,3,3,None,,,,,,0,0,0,0,,,,,0,29,29,29,,,,,,,,,,,,,,,,,,,,,,,,,,,,,,,,,,,1,4.253303406992927,,,,,,,,,,,,,,,,,,,,,,,,,,,,062619_p1,001,2019_Jun_26_1728,body_behavioural,3.0.4,59.97086771091615,
0,"Before getting to the gate, explaining that she would sprint the rest of the way, Anna fished out a crumpled business card from her pocket and handed it to David, who handed her the suitcase.",3,4,None,,,,,,0,0,0,0,,,,,0,30,30,30,,,,,,,,,,,,,,,,,,,,,,,,,,,,,,,,,,,1,4.685286174993962,,,,,,,,,,,,,,,,,,,,,,,,,,,,062619_p1,001,2019_Jun_26_1728,body_behavioural,3.0.4,59.97086771091615,
0,"She gave him one last embarrassed smile, thanked him, and hurried away.",3,4,None,,,,,,0,0,0,0,,,,,0,31,31,31,,,,,,,,,,,,,,,,,,,,,,,,,,,,,,,,,,,1,2.686758046998875,,,,,,,,,,,,,,,,,,,,,,,,,,,,062619_p1,001,2019_Jun_26_1728,body_behavioural,3.0.4,59.97086771091615,
0,"David looked at his watch which read 10:55 AM, 5 minutes before her flight was supposed to leave. ",3,4,None,,,,,,0,0,0,0,,,,,0,32,32,32,,,,,,,,,,,,,,,,,,,,,,,,,,,,,,,,,,,9,5.03667848801706,,,,,,,,,,,,,,,,,,,,,,,,,,,,062619_p1,001,2019_Jun_26_1728,body_behavioural,3.0.4,59.97086771091615,
0,"At the gate, Anna waved to the flight attendant who motioned for her to hurry and she boarded the plane. ",4,4,None,,,,,,0,0,0,0,,,,,0,33,33,33,,,,,,,,,,,,,,,,,,,,,,,,,,,,,,,,,,,1,1.8365724500035867,,,,,,,,,,,,,,,,,,,,,,,,,,,,062619_p1,001,2019_Jun_26_1728,body_behavioural,3.0.4,59.97086771091615,
0,"She slid into her window seat 7D in business class, and barely containing her glee, she hugged the plastic-wrapped blanket. ",4,4,None,,,,,,0,0,0,0,,,,,0,34,34,34,,,,,,,,,,,,,,,,,,,,,,,,,,,,,,,,,,,1,5.886673036991851,,,,,,,,,,,,,,,,,,,,,,,,,,,,062619_p1,001,2019_Jun_26_1728,body_behavioural,3.0.4,59.97086771091615,
0,"She was thankful that she had not only made it onto the plane in time, but also that she had been clumsy enough to forget to tie her shoes.",4,4,None,,,,,,0,0,0,0,,,,,0,35,35,35,,,,,,,,,,,,,,,,,,,,,,,,,,,,,,,,,,,1,3.769910324976081,,,,,,,,,,,,,,,,,,,,,,,,,,,,062619_p1,001,2019_Jun_26_1728,body_behavioural,3.0.4,59.97086771091615,
0,,,,,,,,,,0,0,0,0,,,,,,,,,,,,,,,,,,,,,,,,,,,,,,,,,,,,,,,,,,,,,,,,,,,,,,,,,,,,,,,,,,,,,,,,062619_p1,001,2019_Jun_26_1728,body_behavioural,3.0.4,59.97086771091615,
1,,,,,,,,,,0,1,1,1,0,0,0,0,,,,,,,,,,,,,,,,,,,,,,,,,,,,,space,5.752109814988216,space,4.320133363013156,space,1.8341303099878132,,,,,,,,,,,,,,,,,,,,,,,,,,,,,,,,,,062619_p1,001,2019_Jun_26_1728,body_behavioural,3.0.4,59.97086771091615,
1,"Alvira and Senna walked into the restaurant hand in sweaty hand with quite different expectations for the night because Senna, after 5 years of dating, was going to propose, and Alvira had no idea.",1.0,1.0,21.0,None,None,,,,0,1,1,1,,,,,0,0,0,0,,,,,,,,,,,,,,,,,,,,,,,,,,,,,,,space,0.6196156619989779,space,2.436508988001151,9,26.091469066013815,,,,,,,,,,,,,,,,,,,,,,,,,,,,062619_p1,001,2019_Jun_26_1728,body_behavioural,3.0.4,59.97086771091615,
1,"He took a deep breath, trying to calm his nerves as worst case scenarios ran through his mind. ",1.0,1.0,None,None,None,,,,0,1,1,1,,,,,0,1,1,1,,,,,,,,,,,,,,,,,,,,,,,,,,,,,,,,,,,1,2.3204807300062384,,,,,,,,,,,,,,,,,,,,,,,,,,,,062619_p1,001,2019_Jun_26_1728,body_behavioural,3.0.4,59.97086771091615,
1,The restaurant was on the beach and had floor-to-ceiling arched windows that framed an incredible view of the Pacific Ocean.,1.0,1.0,None,None,None,,,,0,1,1,1,,,,,0,2,2,2,,,,,,,,,,,,,,,,,,,,,,,,,,,,,,,,,,,9,11.421300934976898,,,,,,,,,,,,,,,,,,,,,,,,,,,,062619_p1,001,2019_Jun_26_1728,body_behavioural,3.0.4,59.97086771091615,
1,"Besides the view, the restaurant itself was beautiful- crystal chandeliers hung from the high ceiling above small tables covered with white table clothes.
",1.0,1.0,None,None,None,,,,0,1,1,1,,,,,0,3,3,3,,,,,,,,,,,,,,,,,,,,,,,,,,,,,,,,,,,1,10.703858410008252,,,,,,,,,,,,,,,,,,,,,,,,,,,,062619_p1,001,2019_Jun_26_1728,body_behavioural,3.0.4,59.97086771091615,
1,This was surely one of the best restaurants on the West Coast.,1.0,1.0,None,None,None,,,,0,1,1,1,,,,,0,4,4,4,,,,,,,,,,,,,,,,,,,,,,,,,,,,,,,,,,,1,5.003760044986848,,,,,,,,,,,,,,,,,,,,,,,,,,,,062619_p1,001,2019_Jun_26_1728,body_behavioural,3.0.4,59.97086771091615,
1,"After Senna gave his name to the host, who discretely winked at Senna, they were seated at a table right by the window. ",2.0,1.0,None,7.0,None,,,,0,1,1,1,,,,,0,5,5,5,,,,,,,,,,,,,,,,,,,,,,,,,,,,,,,,,,,9,4.7511172399972565,,,,,,,,,,,,,,,,,,,,,,,,,,,,062619_p1,001,2019_Jun_26_1728,body_behavioural,3.0.4,59.97086771091615,
1,The waiter brought out some very small menus.,2.0,1.0,None,None,9.0,,,,0,1,1,1,,,,,0,6,6,6,,,,,,,,,,,,,,,,,,,,,,,,,,,,,,,,,,,1,2.420907374995295,,,,,,,,,,,,,,,,,,,,,,,,,,,,062619_p1,001,2019_Jun_26_1728,body_behavioural,3.0.4,59.97086771091615,
1,"They consisted of a short list of the head chef's carefully selected daily dishes written in a loopy, cursive font unadorned by any mention of prices.",None,None,None,None,None,,,,0,1,1,1,,,,,0,7,7,7,,,,,,,,,,,,,,,,,,,,,,,,,,,,,,,,,,,1,5.537390643003164,,,,,,,,,,,,,,,,,,,,,,,,,,,,062619_p1,001,2019_Jun_26_1728,body_behavioural,3.0.4,59.97086771091615,
1,"Senna got nervous about the ring, and he slipped off to the bathroom to check to make sure it looked alright.",2.0,2.0,None,None,None,,,,0,1,1,1,,,,,0,8,8,8,,,,,,,,,,,,,,,,,,,,,,,,,,,,,,,,,,,9,7.437383437994868,,,,,,,,,,,,,,,,,,,,,,,,,,,,062619_p1,001,2019_Jun_26_1728,body_behavioural,3.0.4,59.97086771091615,
1,The ring contained three canary yellow diamonds that had been in his grandmother’s wedding ring. ,2.0,2.0,None,None,None,,,,0,1,1,1,,,,,0,9,9,9,,,,,,,,,,,,,,,,,,,,,,,,,,,,,,,,,,,1,4.60343603201909,,,,,,,,,,,,,,,,,,,,,,,,,,,,062619_p1,001,2019_Jun_26_1728,body_behavioural,3.0.4,59.97086771091615,
1,"After Senna had gotten back to the table, the waiter appeared at their table to take their order.",3.0,2.0,None,None,None,,,,0,1,1,1,,,,,0,10,10,10,,,,,,,,,,,,,,,,,,,,,,,,,,,,,,,,,,,9,4.070053985022241,,,,,,,,,,,,,,,,,,,,,,,,,,,,062619_p1,001,2019_Jun_26_1728,body_behavioural,3.0.4,59.97086771091615,
1,"Senna ordered the oysters with garlic-parmesan sauce, and Alvira ordered the sauteed sea scallops with caramelized apples. ",3.0,2.0,None,None,None,,,,0,1,1,1,,,,,0,11,11,11,,,,,,,,,,,,,,,,,,,,,,,,,,,,,,,,,,,1,4.1702508500020485,,,,,,,,,,,,,,,,,,,,,,,,,,,,062619_p1,001,2019_Jun_26_1728,body_behavioural,3.0.4,59.97086771091615,
1,"“Excellent choices,” the waiter said, and he left.",3.0,2.0,None,None,None,,,,0,1,1,1,,,,,0,12,12,12,,,,,,,,,,,,,,,,,,,,,,,,,,,,,,,,,,,1,1.6363766819995362,,,,,,,,,,,,,,,,,,,,,,,,,,,,062619_p1,001,2019_Jun_26_1728,body_behavioural,3.0.4,59.97086771091615,
1,"“What a beautiful place, Senna. ",3.0,2.0,None,None,None,,,,0,1,1,1,,,,,0,13,13,13,,,,,,,,,,,,,,,,,,,,,,,,,,,,,,,,,,,9,1.4365830150200054,,,,,,,,,,,,,,,,,,,,,,,,,,,,062619_p1,001,2019_Jun_26_1728,body_behavioural,3.0.4,59.97086771091615,
1,"This is too much just to celebrate the first tomatoes I grew in the garden- really, this is absurd,” Alvira said.",3.0,2.0,None,None,None,,,,0,1,1,1,,,,,0,14,14,14,,,,,,,,,,,,,,,,,,,,,,,,,,,,,,,,,,,1,4.734342031995766,,,,,,,,,,,,,,,,,,,,,,,,,,,,062619_p1,001,2019_Jun_26_1728,body_behavioural,3.0.4,59.97086771091615,
1,"Senna laughed and said, “No, those were really the best tomatoes I’ve ever had. ",3.0,2.0,None,None,None,,,,0,1,1,1,,,,,0,15,15,15,,,,,,,,,,,,,,,,,,,,,,,,,,,,,,,,,,,1,2.3533167300047353,,,,,,,,,,,,,,,,,,,,,,,,,,,,062619_p1,001,2019_Jun_26_1728,body_behavioural,3.0.4,59.97086771091615,
1,We had to celebrate.” ,3.0,2.0,None,None,None,,,,0,1,1,1,,,,,0,16,16,16,,,,,,,,,,,,,,,,,,,,,,,,,,,,,,,,,,,1,0.6690821890078951,,,,,,,,,,,,,,,,,,,,,,,,,,,,062619_p1,001,2019_Jun_26_1728,body_behavioural,3.0.4,59.97086771091615,
1,"They talked and laughed as the sun sank below the horizon, lighting up the sky and water, and slowly the glow from the windows was replaced by the chandeliers.",3.0,2.0,None,8.0,None,,,,0,1,1,1,,,,,0,17,17,17,,,,,,,,,,,,,,,,,,,,,,,,,,,,,,,,,,,9,5.8709215270064306,,,,,,,,,,,,,,,,,,,,,,,,,,,,062619_p1,001,2019_Jun_26_1728,body_behavioural,3.0.4,59.97086771091615,
1,The waiter returned with their dishes.,4.0,2.0,None,None,None,,,,0,1,1,1,,,,,0,18,18,18,,,,,,,,,,,,,,,,,,,,,,,,,,,,,,,,,,,9,5.786707716993988,,,,,,,,,,,,,,,,,,,,,,,,,,,,062619_p1,001,2019_Jun_26_1728,body_behavioural,3.0.4,59.97086771091615,
1,"Everything was even more delicious than they had expected, especially the oysters, which Senna said tasted like the ocean. ",4.0,2.0,None,None,None,,,,0,1,1,1,,,,,0,19,19,19,,,,,,,,,,,,,,,,,,,,,,,,,,,,,,,,,,,1,3.2705034879909363,,,,,,,,,,,,,,,,,,,,,,,,,,,,062619_p1,001,2019_Jun_26_1728,body_behavioural,3.0.4,59.97086771091615,
1," As they were eating, Senna recounted to Alvira how they had met, and he told her in many words how much he loved her and what he loved about her, almost tearing up at moments. ",4.0,2.0,None,None,None,,,,0,1,1,1,,,,,0,20,20,20,,,,,,,,,,,,,,,,,,,,,,,,,,,,,,,,,,,9,9.837067560001742,,,,,,,,,,,,,,,,,,,,,,,,,,,,062619_p1,001,2019_Jun_26_1728,body_behavioural,3.0.4,59.97086771091615,
1,"When they had finished eating, Senna nodded at the waiter who had been watching attentively, and he quickly strode over to place a small, elegant cake topped with the ring in front of Alvira. ",4.0,3.0,None,None,None,,,,0,1,1,1,,,,,0,21,21,21,,,,,,,,,,,,,,,,,,,,,,,,,,,,,,,,,,,1,4.66986925699166,,,,,,,,,,,,,,,,,,,,,,,,,,,,062619_p1,001,2019_Jun_26_1728,body_behavioural,3.0.4,59.97086771091615,
1,Her eyes widened in shock when she realized what she was looking at.,4.0,3.0,None,None,None,,,,0,1,1,1,,,,,0,22,22,22,,,,,,,,,,,,,,,,,,,,,,,,,,,,,,,,,,,1,3.0866488400206435,,,,,,,,,,,,,,,,,,,,,,,,,,,,062619_p1,001,2019_Jun_26_1728,body_behavioural,3.0.4,59.97086771091615,
1,"Senna got down on one knee and said,“Alvira, will you marry me? ",4.0,3.0,None,None,None,,,,0,1,1,1,,,,,0,23,23,23,,,,,,,,,,,,,,,,,,,,,,,,,,,,,,,,,,,1,1.802696177008329,,,,,,,,,,,,,,,,,,,,,,,,,,,,062619_p1,001,2019_Jun_26_1728,body_behavioural,3.0.4,59.97086771091615,
1,"I love you, and I will never stop loving you.” ",4.0,3.0,None,None,None,,,,0,1,1,1,,,,,0,24,24,24,,,,,,,,,,,,,,,,,,,,,,,,,,,,,,,,,,,1,2.0369011650036555,,,,,,,,,,,,,,,,,,,,,,,,,,,,062619_p1,001,2019_Jun_26_1728,body_behavioural,3.0.4,59.97086771091615,
1,"After a few moments with everyone turned and looking at Elvira in expectation, she exclaimed, “Yes, of course, yes!”",4.0,4.0,None,None,None,,,,0,1,1,1,,,,,0,25,25,25,,,,,,,,,,,,,,,,,,,,,,,,,,,,,,,,,,,1,3.919949302013265,,,,,,,,,,,,,,,,,,,,,,,,,,,,062619_p1,001,2019_Jun_26_1728,body_behavioural,3.0.4,59.97086771091615,
1,She hugged Senna with tears flowing down her cheeks. ,4.0,4.0,None,None,None,,,,0,1,1,1,,,,,0,26,26,26,,,,,,,,,,,,,,,,,,,,,,,,,,,,,,,,,,,1,1.4342637629888486,,,,,,,,,,,,,,,,,,,,,,,,,,,,062619_p1,001,2019_Jun_26_1728,body_behavioural,3.0.4,59.97086771091615,
1,"The other guests exploded in applause, and the waiter returned with a bottle of champagne and popped it.",4.0,4.0,None,None,None,,,,0,1,1,1,,,,,0,27,27,27,,,,,,,,,,,,,,,,,,,,,,,,,,,,,,,,,,,1,2.219110135018127,,,,,,,,,,,,,,,,,,,,,,,,,,,,062619_p1,001,2019_Jun_26_1728,body_behavioural,3.0.4,59.97086771091615,
1,Senna slipped the ring onto Alvira’s finger and she held up her hand to admire it.,4.0,4.0,None,None,None,,,,0,1,1,1,,,,,0,28,28,28,,,,,,,,,,,,,,,,,,,,,,,,,,,,,,,,,,,1,2.269775046996074,,,,,,,,,,,,,,,,,,,,,,,,,,,,062619_p1,001,2019_Jun_26_1728,body_behavioural,3.0.4,59.97086771091615,
1,“I need to text my dad and tell him!” she sang. ,4.0,4.0,None,None,None,,,,0,1,1,1,,,,,0,29,29,29,,,,,,,,,,,,,,,,,,,,,,,,,,,,,,,,,,,9,2.934259319998091,,,,,,,,,,,,,,,,,,,,,,,,,,,,062619_p1,001,2019_Jun_26_1728,body_behavioural,3.0.4,59.97086771091615,
1,The whole restaurant proceeded in cheers with them to celebrate the joyous occasion.  ,4.0,4.0,None,None,None,,,,0,1,1,1,,,,,0,30,30,30,,,,,,,,,,,,,,,,,,,,,,,,,,,,,,,,,,,1,1.7195638370176312,,,,,,,,,,,,,,,,,,,,,,,,,,,,062619_p1,001,2019_Jun_26_1728,body_behavioural,3.0.4,59.97086771091615,
1,,,,,,,,,,0,1,1,1,,,,,,,,,,,,,,,,,,,,,,,,,,,,,,,,,,,,,,,,,,,,,,,,,,,,,,,,,,,,,,,,,,,,,,,,062619_p1,001,2019_Jun_26_1728,body_behavioural,3.0.4,59.97086771091615,
2,,,,,,,,,,0,2,2,2,0,0,0,0,,,,,,,,,,,,,,,,,,,,,,,,,,,,,space,3.8361137449974194,space,2.903933480003616,space,0.7530548570211977,,,,,,,,,,,,,,,,,,,,,,,,,,,,,,,,,,062619_p1,001,2019_Jun_26_1728,body_behavioural,3.0.4,59.97086771091615,
2,"Thomas, dreading the approaching breakup conversation he was about to start, got to Annika’s Finer Diner late but Sadie, his girlfriend, was not there yet.",1,1,11.0,None,None,None,None,,0,2,2,2,,,,,0,0,0,0,,,,,,,,,,,,,,,,,,,,,,,,,,,,,,,space,1.8530735770182218,space,0.7695519300177693,9,15.121075339993695,,,,,,,,,,,,,,,,,,,,,,,,,,,,062619_p1,001,2019_Jun_26_1728,body_behavioural,3.0.4,59.97086771091615,
2,Thomas had been thinking about breaking up with her for 2 months now.,1,1,None,None,None,1.0,None,,0,2,2,2,,,,,0,1,1,1,,,,,,,,,,,,,,,,,,,,,,,,,,,,,,,,,,,1,3.8033102470217273,,,,,,,,,,,,,,,,,,,,,,,,,,,,062619_p1,001,2019_Jun_26_1728,body_behavioural,3.0.4,59.97086771091615,
2,"The restaurant he had chosen to meet at was reminiscent of a diner from the 70’s; there was black and white checkerboard tiling on the floor, a long bar in the front, and booths and stools with red, leather upholstery. ",1,1,None,None,None,None,1.0,,0,2,2,2,,,,,0,2,2,2,,,,,,,,,,,,,,,,,,,,,,,,,,,,,,,,,,,9,8.98631044998183,,,,,,,,,,,,,,,,,,,,,,,,,,,,062619_p1,001,2019_Jun_26_1728,body_behavioural,3.0.4,59.97086771091615,
2,"A bell chimed as the door swung open, and Sadie entered to find Thomas ruminating at the bar.",1,1,None,None,None,None,None,,0,2,2,2,,,,,0,3,3,3,,,,,,,,,,,,,,,,,,,,,,,,,,,,,,,,,,,1,2.620496877003461,,,,,,,,,,,,,,,,,,,,,,,,,,,,062619_p1,001,2019_Jun_26_1728,body_behavioural,3.0.4,59.97086771091615,
2,"He stood up and gave her a side hug, asking quickly, “How was your day?”",1,1,None,None,None,None,None,,0,2,2,2,,,,,0,4,4,4,,,,,,,,,,,,,,,,,,,,,,,,,,,,,,,,,,,1,4.936474299989641,,,,,,,,,,,,,,,,,,,,,,,,,,,,062619_p1,001,2019_Jun_26_1728,body_behavioural,3.0.4,59.97086771091615,
2,"She clung onto him, “It was okay- I missed you today.”",1,1,None,None,None,None,None,,0,2,2,2,,,,,0,5,5,5,,,,,,,,,,,,,,,,,,,,,,,,,,,,,,,,,,,1,3.970790864987066,,,,,,,,,,,,,,,,,,,,,,,,,,,,062619_p1,001,2019_Jun_26_1728,body_behavioural,3.0.4,59.97086771091615,
2,"He looked away and addressed the hostess coming towards them, “Can we have a booth in the back?”",1,1,None,None,None,None,None,,0,2,2,2,,,,,0,6,6,6,,,,,,,,,,,,,,,,,,,,,,,,,,,,,,,,,,,9,2.4189360629825387,,,,,,,,,,,,,,,,,,,,,,,,,,,,062619_p1,001,2019_Jun_26_1728,body_behavioural,3.0.4,59.97086771091615,
2,"She shrugged and after loudly popping her bubblegum replied, “Sure, honey.”",1,1,None,9.0,None,None,None,,0,2,2,2,,,,,0,7,7,7,,,,,,,,,,,,,,,,,,,,,,,,,,,,,,,,,,,1,2.8871615050011314,,,,,,,,,,,,,,,,,,,,,,,,,,,,062619_p1,001,2019_Jun_26_1728,body_behavioural,3.0.4,59.97086771091615,
2,She seated them at a booth in the back corner of the diner.  ,2,1,None,None,None,None,None,,0,2,2,2,,,,,0,8,8,8,,,,,,,,,,,,,,,,,,,,,,,,,,,,,,,,,,,1,3.369901190017117,,,,,,,,,,,,,,,,,,,,,,,,,,,,062619_p1,001,2019_Jun_26_1728,body_behavioural,3.0.4,59.97086771091615,
2,Sadie slipped into the cushioned seat and grabbed Thomas’ hand.,2,1,None,None,None,None,None,,0,2,2,2,,,,,0,9,9,9,,,,,,,,,,,,,,,,,,,,,,,,,,,,,,,,,,,9,3.869900007004617,,,,,,,,,,,,,,,,,,,,,,,,,,,,062619_p1,001,2019_Jun_26_1728,body_behavioural,3.0.4,59.97086771091615,
2,“Tell me about your day!” she sang.,2,1,None,None,None,None,None,,0,2,2,2,,,,,0,10,10,10,,,,,,,,,,,,,,,,,,,,,,,,,,,,,,,,,,,1,1.1197369219735265,,,,,,,,,,,,,,,,,,,,,,,,,,,,062619_p1,001,2019_Jun_26_1728,body_behavioural,3.0.4,59.97086771091615,
2,He looked at her silently and pulled his hand slowly from hers as a puzzled look grew on Sadie’s face. ,2,1,None,None,None,None,None,,0,2,2,2,,,,,0,11,11,11,,,,,,,,,,,,,,,,,,,,,,,,,,,,,,,,,,,1,4.286955185001716,,,,,,,,,,,,,,,,,,,,,,,,,,,,062619_p1,001,2019_Jun_26_1728,body_behavioural,3.0.4,59.97086771091615,
2,Thomas looked away and took a deep breath. ,2,1,None,None,None,None,None,,0,2,2,2,,,,,0,12,12,12,,,,,,,,,,,,,,,,,,,,,,,,,,,,,,,,,,,1,2.402896174986381,,,,,,,,,,,,,,,,,,,,,,,,,,,,062619_p1,001,2019_Jun_26_1728,body_behavioural,3.0.4,59.97086771091615,
2,"Sadie asked, “What’s wrong?” ",2,1,None,None,None,None,None,,0,2,2,2,,,,,0,13,13,13,,,,,,,,,,,,,,,,,,,,,,,,,,,,,,,,,,,1,1.1030802250024863,,,,,,,,,,,,,,,,,,,,,,,,,,,,062619_p1,001,2019_Jun_26_1728,body_behavioural,3.0.4,59.97086771091615,
2,Thomas picked at his fingernails.,2,1,None,None,22.0,None,None,,0,2,2,2,,,,,0,14,14,14,,,,,,,,,,,,,,,,,,,,,,,,,,,,,,,,,,,1,0.9203275479958393,,,,,,,,,,,,,,,,,,,,,,,,,,,,062619_p1,001,2019_Jun_26_1728,body_behavioural,3.0.4,59.97086771091615,
2,"After a few moments, Thomas let out a deep breath and said, “Sadie, I’ve been thinking, and I need a break from this relationship because I need to figure out my career path on my own.”",2,2,None,None,None,None,None,,0,2,2,2,,,,,0,15,15,15,,,,,,,,,,,,,,,,,,,,,,,,,,,,,,,,,,,9,5.634458171989536,,,,,,,,,,,,,,,,,,,,,,,,,,,,062619_p1,001,2019_Jun_26_1728,body_behavioural,3.0.4,59.97086771091615,
2,Sadie sat back in her seat.,2,2,None,None,None,None,None,,0,2,2,2,,,,,0,16,16,16,,,,,,,,,,,,,,,,,,,,,,,,,,,,,,,,,,,1,1.202321757999016,,,,,,,,,,,,,,,,,,,,,,,,,,,,062619_p1,001,2019_Jun_26_1728,body_behavioural,3.0.4,59.97086771091615,
2,"Thomas continued, “Things have been really picking up at work, and I’m not sure that this is the job I want to do anymore.",2,2,None,None,None,None,None,,0,2,2,2,,,,,0,17,17,17,,,,,,,,,,,,,,,,,,,,,,,,,,,,,,,,,,,1,4.020890540006803,,,,,,,,,,,,,,,,,,,,,,,,,,,,062619_p1,001,2019_Jun_26_1728,body_behavioural,3.0.4,59.97086771091615,
2,"Plus, it’s been really overwhelming between working and figuring out if I should change careers, and I really feel like I need more time to figure it out.” ",2,2,None,17.0,None,None,None,,0,2,2,2,,,,,0,18,18,18,,,,,,,,,,,,,,,,,,,,,,,,,,,,,,,,,,,1,4.985223263996886,,,,,,,,,,,,,,,,,,,,,,,,,,,,062619_p1,001,2019_Jun_26_1728,body_behavioural,3.0.4,59.97086771091615,
2,"The waiter appeared and cheerily asked, “Have you decided what you would like?”",3,2,None,None,None,None,None,,0,2,2,2,,,,,0,19,19,19,,,,,,,,,,,,,,,,,,,,,,,,,,,,,,,,,,,9,4.153843314998085,,,,,,,,,,,,,,,,,,,,,,,,,,,,062619_p1,001,2019_Jun_26_1728,body_behavioural,3.0.4,59.97086771091615,
2,"Thomas and Sadie realized there were menus on the table, and they glanced at them quickly.",3,2,None,None,None,None,None,,0,2,2,2,,,,,0,20,20,20,,,,,,,,,,,,,,,,,,,,,,,,,,,,,,,,,,,1,3.369806589995278,,,,,,,,,,,,,,,,,,,,,,,,,,,,062619_p1,001,2019_Jun_26_1728,body_behavioural,3.0.4,59.97086771091615,
2,"The menus were laminated posters with silly names for all the foods, and since they didn’t want to read through each item description, they settled on familiar orders.",3,2,None,None,None,None,None,,0,2,2,2,,,,,0,21,21,21,,,,,,,,,,,,,,,,,,,,,,,,,,,,,,,,,,,1,7.203920813015429,,,,,,,,,,,,,,,,,,,,,,,,,,,,062619_p1,001,2019_Jun_26_1728,body_behavioural,3.0.4,59.97086771091615,
2,"“I’ll have a burger, no tomatoes,” Thomas said.",3,2,None,None,None,None,None,,0,2,2,2,,,,,0,22,22,22,,,,,,,,,,,,,,,,,,,,,,,,,,,,,,,,,,,1,5.117901844991138,,,,,,,,,,,,,,,,,,,,,,,,,,,,062619_p1,001,2019_Jun_26_1728,body_behavioural,3.0.4,59.97086771091615,
2,"Sadie asked about the reuben, and the waiter told her it was excellent.",3,2,None,None,None,None,None,,0,2,2,2,,,,,0,23,23,23,,,,,,,,,,,,,,,,,,,,,,,,,,,,,,,,,,,1,1.7528455349965952,,,,,,,,,,,,,,,,,,,,,,,,,,,,062619_p1,001,2019_Jun_26_1728,body_behavioural,3.0.4,59.97086771091615,
2,"Confirming that that was all they’d like, the waiter walked away. ",3,2,None,None,None,None,None,,0,2,2,2,,,,,0,24,24,24,,,,,,,,,,,,,,,,,,,,,,,,,,,,,,,,,,,1,1.9359595499990974,,,,,,,,,,,,,,,,,,,,,,,,,,,,062619_p1,001,2019_Jun_26_1728,body_behavioural,3.0.4,59.97086771091615,
2,Sadie- not so quietly- burst into tears. ,3,3,None,None,None,None,None,,0,2,2,2,,,,,0,25,25,25,,,,,,,,,,,,,,,,,,,,,,,,,,,,,,,,,,,9,1.6535197150078602,,,,,,,,,,,,,,,,,,,,,,,,,,,,062619_p1,001,2019_Jun_26_1728,body_behavioural,3.0.4,59.97086771091615,
2,People sitting at the bar looked over and quickly averted their gaze when they figured what was happening. ,3,3,None,None,None,None,None,,0,2,2,2,,,,,0,26,26,26,,,,,,,,,,,,,,,,,,,,,,,,,,,,,,,,,,,1,3.970092019997537,,,,,,,,,,,,,,,,,,,,,,,,,,,,062619_p1,001,2019_Jun_26_1728,body_behavioural,3.0.4,59.97086771091615,
2,"She whispered, “Is this really what you want?",3,3,None,None,None,None,None,,0,2,2,2,,,,,0,27,27,27,,,,,,,,,,,,,,,,,,,,,,,,,,,,,,,,,,,1,1.436715154995909,,,,,,,,,,,,,,,,,,,,,,,,,,,,062619_p1,001,2019_Jun_26_1728,body_behavioural,3.0.4,59.97086771091615,
2,"I don’t understand- things were fine, I thought. ",3,3,None,None,None,None,None,,0,2,2,2,,,,,0,28,28,28,,,,,,,,,,,,,,,,,,,,,,,,,,,,,,,,,,,1,1.0530383119767066,,,,,,,,,,,,,,,,,,,,,,,,,,,,062619_p1,001,2019_Jun_26_1728,body_behavioural,3.0.4,59.97086771091615,
2,I think we should stay together because we can change how much we hang out. ,3,3,None,None,None,None,None,,0,2,2,2,,,,,0,29,29,29,,,,,,,,,,,,,,,,,,,,,,,,,,,,,,,,,,,1,1.9194105199712794,,,,,,,,,,,,,,,,,,,,,,,,,,,,062619_p1,001,2019_Jun_26_1728,body_behavioural,3.0.4,59.97086771091615,
2,"We don’t have to hang out all the time, or as much as we do now.”",3,3,None,None,None,None,None,,0,2,2,2,,,,,0,30,30,30,,,,,,,,,,,,,,,,,,,,,,,,,,,,,,,,,,,1,2.1533350399986375,,,,,,,,,,,,,,,,,,,,,,,,,,,,062619_p1,001,2019_Jun_26_1728,body_behavioural,3.0.4,59.97086771091615,
2,Thomas chewed on his bottom lip and picked at his now bleeding hangnail. ,3,3,None,20.0,None,None,None,,0,2,2,2,,,,,0,31,31,31,,,,,,,,,,,,,,,,,,,,,,,,,,,,,,,,,,,1,3.752825486997608,,,,,,,,,,,,,,,,,,,,,,,,,,,,062619_p1,001,2019_Jun_26_1728,body_behavioural,3.0.4,59.97086771091615,
2,The waiter appeared with the burger and reuben and set them in front of them.,4,3,None,None,None,None,None,,0,2,2,2,,,,,0,32,32,32,,,,,,,,,,,,,,,,,,,,,,,,,,,,,,,,,,,9,1.569645634997869,,,,,,,,,,,,,,,,,,,,,,,,,,,,062619_p1,001,2019_Jun_26_1728,body_behavioural,3.0.4,59.97086771091615,
2,“Is there anything else I can get for you two?,4,3,None,None,None,None,None,,0,2,2,2,,,,,0,33,33,33,,,,,,,,,,,,,,,,,,,,,,,,,,,,,,,,,,,1,1.5030480280111078,,,,,,,,,,,,,,,,,,,,,,,,,,,,062619_p1,001,2019_Jun_26_1728,body_behavioural,3.0.4,59.97086771091615,
2,Will you be getting dessert tonight?” he asked.,4,3,None,None,None,None,None,,0,2,2,2,,,,,0,34,34,34,,,,,,,,,,,,,,,,,,,,,,,,,,,,,,,,,,,1,2.2361925650038756,,,,,,,,,,,,,,,,,,,,,,,,,,,,062619_p1,001,2019_Jun_26_1728,body_behavioural,3.0.4,59.97086771091615,
2,"“Oh no, we’re good, thanks,” Thomas said blankly.",4,3,None,None,None,None,None,,0,2,2,2,,,,,0,35,35,35,,,,,,,,,,,,,,,,,,,,,,,,,,,,,,,,,,,1,4.4699182999902405,,,,,,,,,,,,,,,,,,,,,,,,,,,,062619_p1,001,2019_Jun_26_1728,body_behavioural,3.0.4,59.97086771091615,
2," With the waiter gone, Sadie suddenly stood up, grabbed half of the reuben, and shook it at him as she growled, “Don’t follow me, and don’t talk to me anymore!",4,4,None,None,None,None,None,,0,2,2,2,,,,,0,36,36,36,,,,,,,,,,,,,,,,,,,,,,,,,,,,,,,,,,,9,8.970318262989167,,,,,,,,,,,,,,,,,,,,,,,,,,,,062619_p1,001,2019_Jun_26_1728,body_behavioural,3.0.4,59.97086771091615,
2,"Also, I want my polaroid camera and Beatles poster back!”",4,4,None,None,None,None,None,,0,2,2,2,,,,,0,37,37,37,,,,,,,,,,,,,,,,,,,,,,,,,,,,,,,,,,,1,3.00348897499498,,,,,,,,,,,,,,,,,,,,,,,,,,,,062619_p1,001,2019_Jun_26_1728,body_behavioural,3.0.4,59.97086771091615,
2,"She stormed off, and the bell above the door jingled cheerfully as the door closed behind her.",4,4,None,None,None,None,None,,0,2,2,2,,,,,0,38,38,38,,,,,,,,,,,,,,,,,,,,,,,,,,,,,,,,,,,9,3.7360358969890513,,,,,,,,,,,,,,,,,,,,,,,,,,,,062619_p1,001,2019_Jun_26_1728,body_behavioural,3.0.4,59.97086771091615,
2,Thomas sat there for awhile surprised at how quickly everything had transpired. ,4,4,None,None,None,None,None,,0,2,2,2,,,,,0,39,39,39,,,,,,,,,,,,,,,,,,,,,,,,,,,,,,,,,,,9,2.168716520012822,,,,,,,,,,,,,,,,,,,,,,,,,,,,062619_p1,001,2019_Jun_26_1728,body_behavioural,3.0.4,59.97086771091615,
2,"He grabbed his burger and took a bite of it, creating a dry and fishy taste in his mouth.",4,4,None,None,None,None,None,,0,2,2,2,,,,,0,40,40,40,,,,,,,,,,,,,,,,,,,,,,,,,,,,,,,,,,,1,4.985478846996557,,,,,,,,,,,,,,,,,,,,,,,,,,,,062619_p1,001,2019_Jun_26_1728,body_behavioural,3.0.4,59.97086771091615,
2,He dropped it back on his plate and wondered if the restaurant was responsible for the foul taste. ,4,4,None,13.0,5.0,None,None,,0,2,2,2,,,,,0,41,41,41,,,,,,,,,,,,,,,,,,,,,,,,,,,,,,,,,,,1,4.200953763996949,,,,,,,,,,,,,,,,,,,,,,,,,,,,062619_p1,001,2019_Jun_26_1728,body_behavioural,3.0.4,59.97086771091615,
2,,,,,,,,,,0,2,2,2,,,,,,,,,,,,,,,,,,,,,,,,,,,,,,,,,,,,,,,,,,,,,,,,,,,,,,,,,,,,,,,,,,,,,,,,062619_p1,001,2019_Jun_26_1728,body_behavioural,3.0.4,59.97086771091615,
3,,,,,,,,,,0,3,3,3,0,0,0,0,,,,,,,,,,,,,,,,,,,,,,,,,,,,,space,3.520765482011484,space,2.8700224149797577,space,0.8199208549922332,,,,,,,,,,,,,,,,,,,,,,,,,,,,,,,,,,062619_p1,001,2019_Jun_26_1728,body_behavioural,3.0.4,59.97086771091615,
3,,,,,,,,,,0,3,3,3,1,0,1,0,,,,,,,,,,,,,,,,,,,,,,,,,,,,,,,,,space,0.88626615999965,,,,,,,,,,,,,,,,,,,,,,,,,,,,,,,,,,062619_p1,001,2019_Jun_26_1728,body_behavioural,3.0.4,59.97086771091615,
3,"Ms. Bianchi and Ms. Morrison walked into the grocery store at the same time, and, after a moment of mutual recognition, greeted each other with a handshake.",1.0,1.0,33.0,,,,,,0,3,3,3,,,,,0,0,0,0,,,,,,,,,,,,,,,,,,,,,,,,,,,,,,,space,1.050137674988946,space,0.886807956994744,9,14.55326652500662,,,,,,,,,,,,,,,,,,,,,,,,,,,,062619_p1,001,2019_Jun_26_1728,body_behavioural,3.0.4,59.97086771091615,
3,"They were standing in the entrance of the grocery store, which had displays of pumpkins, candy, and halloween decorations set up in different stations around the door. ",1.0,1.0,None,,,,,,0,3,3,3,,,,,0,1,1,1,,,,,,,,,,,,,,,,,,,,,,,,,,,,,,,,,,,1,6.903650029998971,,,,,,,,,,,,,,,,,,,,,,,,,,,,062619_p1,001,2019_Jun_26_1728,body_behavioural,3.0.4,59.97086771091615,
3,"“Thank you again for inviting me here to discuss my business proposal,” said Ms. Bianchi.",1.0,1.0,None,,,,,,0,3,3,3,,,,,0,2,2,2,,,,,,,,,,,,,,,,,,,,,,,,,,,,,,,,,,,9,3.9037699250038713,,,,,,,,,,,,,,,,,,,,,,,,,,,,062619_p1,001,2019_Jun_26_1728,body_behavioural,3.0.4,59.97086771091615,
3,“It’s a pleasure to be out of the office.” ,1.0,1.0,None,,,,,,0,3,3,3,,,,,0,3,3,3,,,,,,,,,,,,,,,,,,,,,,,,,,,,,,,,,,,1,1.6865310499852058,,,,,,,,,,,,,,,,,,,,,,,,,,,,062619_p1,001,2019_Jun_26_1728,body_behavioural,3.0.4,59.97086771091615,
3,"As an account representative for an Italian cheese company that was trying to expand its outreach to American grocery stores, this meeting was pivotal for Ms. Bianchi.",1.0,1.0,None,,,,,,0,3,3,3,,,,,0,4,4,4,,,,,,,,,,,,,,,,,,,,,,,,,,,,,,,,,,,1,7.085408337006811,,,,,,,,,,,,,,,,,,,,,,,,,,,,062619_p1,001,2019_Jun_26_1728,body_behavioural,3.0.4,59.97086771091615,
3,"Her sales target, Ms. Morrison, was the senior product manager for a corporate grocer and she had a say in the products distributed in stores across the West Coast.",1.0,1.0,None,,,,,,0,3,3,3,,,,,0,5,5,5,,,,,,,,,,,,,,,,,,,,,,,,,,,,,,,,,,,1,4.153414665022865,,,,,,,,,,,,,,,,,,,,,,,,,,,,062619_p1,001,2019_Jun_26_1728,body_behavioural,3.0.4,59.97086771091615,
3,"Ms. Morrison was also known for doing things unconventionally: for example, she said that she liked to make deals with suppliers in the place where the products were sold- “to keep their minds focused on what’s important.” ",1.0,1.0,None,,,,,,0,3,3,3,,,,,0,6,6,6,,,,,,,,,,,,,,,,,,,,,,,,,,,,,,,,,,,1,7.186280581983738,,,,,,,,,,,,,,,,,,,,,,,,,,,,062619_p1,001,2019_Jun_26_1728,body_behavioural,3.0.4,59.97086771091615,
3,"In the cheese section of the grocery store, Ms. Morrison motioned to the parmesan.",2.0,1.0,None,,,,,,0,3,3,3,,,,,0,7,7,7,,,,,,,,,,,,,,,,,,,,,,,,,,,,,,,,,,,9,1.7871919799945317,,,,,,,,,,,,,,,,,,,,,,,,,,,,062619_p1,001,2019_Jun_26_1728,body_behavioural,3.0.4,59.97086771091615,
3,“We have quite a selection here.,2.0,1.0,None,,,,,,0,3,3,3,,,,,0,8,8,8,,,,,,,,,,,,,,,,,,,,,,,,,,,,,,,,,,,1,2.4189704900200013,,,,,,,,,,,,,,,,,,,,,,,,,,,,062619_p1,001,2019_Jun_26_1728,body_behavioural,3.0.4,59.97086771091615,
3,I don’t know that we need an additional section for gourmet cheeses.” ,2.0,1.0,None,,,,,,0,3,3,3,,,,,0,9,9,9,,,,,,,,,,,,,,,,,,,,,,,,,,,,,,,,,,,1,1.6036736300156917,,,,,,,,,,,,,,,,,,,,,,,,,,,,062619_p1,001,2019_Jun_26_1728,body_behavioural,3.0.4,59.97086771091615,
3," Ms. Bianchi did not hesitate but launched into her pitch: “Ms. Morrison, I think you would agree that selling food is more than just providing variety, but also about providing the highest quality.",2.0,2.0,None,,,,,,0,3,3,3,,,,,0,10,10,10,,,,,,,,,,,,,,,,,,,,,,,,,,,,,,,,,,,1,5.017536747007398,,,,,,,,,,,,,,,,,,,,,,,,,,,,062619_p1,001,2019_Jun_26_1728,body_behavioural,3.0.4,59.97086771091615,
3,You don’t have cheeses made in America that are like ours- it is true.,2.0,2.0,None,,,,,,0,3,3,3,,,,,0,11,11,11,,,,,,,,,,,,,,,,,,,,,,,,,,,,,,,,,,,1,1.5860687269887421,,,,,,,,,,,,,,,,,,,,,,,,,,,,062619_p1,001,2019_Jun_26_1728,body_behavioural,3.0.4,59.97086771091615,
3,The availability of a product of excellent quality leads to the appreciation of the product.,2.0,2.0,None,,,,,,0,3,3,3,,,,,0,12,12,12,,,,,,,,,,,,,,,,,,,,,,,,,,,,,,,,,,,1,2.517370197980199,,,,,,,,,,,,,,,,,,,,,,,,,,,,062619_p1,001,2019_Jun_26_1728,body_behavioural,3.0.4,59.97086771091615,
3,"Your consumers will want to buy other, finer products to compliment that first ingredient, and suddenly your customer will be consuming in a new, more profitable way.",2.0,2.0,None,,,,,,0,3,3,3,,,,,0,13,13,13,,,,,,,,,,,,,,,,,,,,,,,,,,,,,,,,,,,1,3.20187227500719,,,,,,,,,,,,,,,,,,,,,,,,,,,,062619_p1,001,2019_Jun_26_1728,body_behavioural,3.0.4,59.97086771091615,
3,"I propose that you give it a shot: buy $1500 worth of cheese products for a few stores, and see how the sales increase not only in our cheeses but also in products related to cheeses: crackers, jams, olives.”",2.0,2.0,None,,,,,,0,3,3,3,,,,,0,14,14,14,,,,,,,,,,,,,,,,,,,,,,,,,,,,,,,,,,,1,10.134644401987316,,,,,,,,,,,,,,,,,,,,,,,,,,,,062619_p1,001,2019_Jun_26_1728,body_behavioural,3.0.4,59.97086771091615,
3,"Ms. Bianchi picked up a box of crackers by the cheese section, and said, “Here, I will buy these, and we can try some of our cheeses that I've brought with me.”",2.0,2.0,None,,,,,,0,3,3,3,,,,,0,15,15,15,,,,,,,,,,,,,,,,,,,,,,,,,,,,,,,,,,,9,8.120704479981214,,,,,,,,,,,,,,,,,,,,,,,,,,,,062619_p1,001,2019_Jun_26_1728,body_behavioural,3.0.4,59.97086771091615,
3,"Ms. Morrison, who was thinking about the proposed offer, nodded in agreement and said, “That sounds like a great idea, but those crackers are on me.”",2.0,2.0,None,,,,,,0,3,3,3,,,,,0,16,16,16,,,,,,,,,,,,,,,,,,,,,,,,,,,,,,,,,,,1,3.536607037007343,,,,,,,,,,,,,,,,,,,,,,,,,,,,062619_p1,001,2019_Jun_26_1728,body_behavioural,3.0.4,59.97086771091615,
3,She took the crackers from Ms. Bianchi and also picked up a bottle of ketchup and a case of sparkling water “for later.”,2.0,2.0,None,,,,,,0,3,3,3,,,,,0,17,17,17,,,,,,,,,,,,,,,,,,,,,,,,,,,,,,,,,,,9,8.104787171992939,,,,,,,,,,,,,,,,,,,,,,,,,,,,062619_p1,001,2019_Jun_26_1728,body_behavioural,3.0.4,59.97086771091615,
3,It was very busy in the checkout area.,3.0,2.0,None,,,,,,0,3,3,3,,,,,0,18,18,18,,,,,,,,,,,,,,,,,,,,,,,,,,,,,,,,,,,9,2.4032713400083594,,,,,,,,,,,,,,,,,,,,,,,,,,,,062619_p1,001,2019_Jun_26_1728,body_behavioural,3.0.4,59.97086771091615,
3,"People were stocking up for Halloween parties and trick-or-treating, and there were 10 aisles open. ",3.0,2.0,None,,,,,,0,3,3,3,,,,,0,19,19,19,,,,,,,,,,,,,,,,,,,,,,,,,,,,,,,,,,,1,2.969580334989587,,,,,,,,,,,,,,,,,,,,,,,,,,,,062619_p1,001,2019_Jun_26_1728,body_behavioural,3.0.4,59.97086771091615,
3,They stepped into lane 6 and waited.,3.0,2.0,None,,,,,,0,3,3,3,,,,,0,20,20,20,,,,,,,,,,,,,,,,,,,,,,,,,,,,,,,,,,,1,1.8507782770029735,,,,,,,,,,,,,,,,,,,,,,,,,,,,062619_p1,001,2019_Jun_26_1728,body_behavioural,3.0.4,59.97086771091615,
3,Ms. Bianchi handed to Ms. Morrison a packet with printed graphs of the increase in profits that several other stores in Italy had seen after starting to carry their products.,3.0,2.0,None,,,,,,0,3,3,3,,,,,0,21,21,21,,,,,,,,,,,,,,,,,,,,,,,,,,,,,,,,,,,9,7.3013245099864434,,,,,,,,,,,,,,,,,,,,,,,,,,,,062619_p1,001,2019_Jun_26_1728,body_behavioural,3.0.4,59.97086771091615,
3,"After a couple minutes of thinking, Ms. Morrison widened her eyes and said confidently, “You know what, I think you've convinced me that this could work. ",3.0,3.0,None,,,,,,0,3,3,3,,,,,0,22,22,22,,,,,,,,,,,,,,,,,,,,,,,,,,,,,,,,,,,1,2.8196405569906346,,,,,,,,,,,,,,,,,,,,,,,,,,,,062619_p1,001,2019_Jun_26_1728,body_behavioural,3.0.4,59.97086771091615,
3,We've been trying to find a way to add a little European cachet to our stores.,3.0,3.0,None,,,,,,0,3,3,3,,,,,0,23,23,23,,,,,,,,,,,,,,,,,,,,,,,,,,,,,,,,,,,1,1.4873198499844875,,,,,,,,,,,,,,,,,,,,,,,,,,,,062619_p1,001,2019_Jun_26_1728,body_behavioural,3.0.4,59.97086771091615,
3,"Our competitor, Orange Grocers, hasn’t expanded in this direction yet, and I’d like to beat them to it. ",3.0,3.0,None,,,,,,0,3,3,3,,,,,0,24,24,24,,,,,,,,,,,,,,,,,,,,,,,,,,,,,,,,,,,1,2.4519201559887733,,,,,,,,,,,,,,,,,,,,,,,,,,,,062619_p1,001,2019_Jun_26_1728,body_behavioural,3.0.4,59.97086771091615,
3,There's still a problem though- I'm worried we'll be paying out the nose for the import taxes.,3.0,3.0,None,,,,,,0,3,3,3,,,,,0,25,25,25,,,,,,,,,,,,,,,,,,,,,,,,,,,,,,,,,,,1,3.853985384979751,,,,,,,,,,,,,,,,,,,,,,,,,,,,062619_p1,001,2019_Jun_26_1728,body_behavioural,3.0.4,59.97086771091615,
3,Is that the case?",3.0,3.0,None,,,,,,0,3,3,3,,,,,0,26,26,26,,,,,,,,,,,,,,,,,,,,,,,,,,,,,,,,,,,1,0.7356384500162676,,,,,,,,,,,,,,,,,,,,,,,,,,,,062619_p1,001,2019_Jun_26_1728,body_behavioural,3.0.4,59.97086771091615,
3,"It was Ms. Morrison’s turn to check out, and the cashier chatted with Ms. Morrison as she scanned the items.",4.0,3.0,None,,,,,,0,3,3,3,,,,,0,27,27,27,,,,,,,,,,,,,,,,,,,,,,,,,,,,,,,,,,,9,3.9371157950081397,,,,,,,,,,,,,,,,,,,,,,,,,,,,062619_p1,001,2019_Jun_26_1728,body_behavioural,3.0.4,59.97086771091615,
3,Ms. Morrison was also distinguished for knowing most of the employees personally. ,None,None,None,,,,,,0,3,3,3,,,,,0,28,28,28,,,,,,,,,,,,,,,,,,,,,,,,,,,,,,,,,,,1,1.8198419529944658,,,,,,,,,,,,,,,,,,,,,,,,,,,,062619_p1,001,2019_Jun_26_1728,body_behavioural,3.0.4,59.97086771091615,
3,Ms. Bianchi watched in amusement as Ms. Morrison paid the $23 price by writing a check. ,4.0,3.0,None,,,,,,0,3,3,3,,,,,0,29,29,29,,,,,,,,,,,,,,,,,,,,,,,,,,,,,,,,,,,1,5.10031201998936,,,,,,,,,,,,,,,,,,,,,,,,,,,,062619_p1,001,2019_Jun_26_1728,body_behavioural,3.0.4,59.97086771091615,
3,"After Ms. Bianci addressed Ms. Morrison’s concerns, they came to an agreement and would have enough cheese shipments, $20,000 worth, to different stores to qualify for a subsidized import tax. ",4.0,4.0,None,,,,,,0,3,3,3,,,,,0,30,30,30,,,,,,,,,,,,,,,,,,,,,,,,,,,,,,,,,,,9,6.518153917015297,,,,,,,,,,,,,,,,,,,,,,,,,,,,062619_p1,001,2019_Jun_26_1728,body_behavioural,3.0.4,59.97086771091615,
3,"Ms. Morrison had had a small bottle of champagne in her purse, and she pulled it out and popped it in celebration of their deal. ",4.0,4.0,None,,,,,,0,3,3,3,,,,,0,31,31,31,,,,,,,,,,,,,,,,,,,,,,,,,,,,,,,,,,,1,2.819645247014705,,,,,,,,,,,,,,,,,,,,,,,,,,,,062619_p1,001,2019_Jun_26_1728,body_behavioural,3.0.4,59.97086771091615,
3,Ms. Bianchi decided that she loved doing business with Americans. ,4.0,4.0,None,,,,,,0,3,3,3,,,,,0,32,32,32,,,,,,,,,,,,,,,,,,,,,,,,,,,,,,,,,,,1,1.7694137270154897,,,,,,,,,,,,,,,,,,,,,,,,,,,,062619_p1,001,2019_Jun_26_1728,body_behavioural,3.0.4,59.97086771091615,
3,,,,,,,,,,0,3,3,3,,,,,,,,,,,,,,,,,,,,,,,,,,,,,,,,,,,,,,,,,,,,,,,,,,,,,,,,,,,,,,,,,,,,,,,,062619_p1,001,2019_Jun_26_1728,body_behavioural,3.0.4,59.97086771091615,
4,,,,,,,,,,0,4,4,4,0,0,0,0,,,,,,,,,,,,,,,,,,,,,,,,,,,,,space,1.8196474770084023,space,0.8029321520007215,space,1.4364407949906308,,,,,,,,,,,,,,,,,,,,,,,,,,,,,,,,,,062619_p1,001,2019_Jun_26_1728,body_behavioural,3.0.4,59.97086771091615,
4,"Jeff, hoping that today would be a pivotal day for his company, had only been waiting inside the entrance of the airport for a few minutes when he saw William and eagerly waved him over. ",1,1,32.0,,,,,,0,4,4,4,,,,,0,0,0,0,,,,,,,,,,,,,,,,,,,,,,,,,,,,,,,space,1.2865416879940312,space,1.4362829420133494,9,11.754049784998642,,,,,,,,,,,,,,,,,,,,,,,,,,,,062619_p1,001,2019_Jun_26_1728,body_behavioural,3.0.4,59.97086771091615,
4,William checked his watch and was pleased to see that the two of them had two hours to discuss business before their flights left Boston.,1,1,None,,,,,,0,4,4,4,,,,,0,1,1,1,,,,,,,,,,,,,,,,,,,,,,,,,,,,,,,,,,,1,6.335086747974856,,,,,,,,,,,,,,,,,,,,,,,,,,,,062619_p1,001,2019_Jun_26_1728,body_behavioural,3.0.4,59.97086771091615,
4,Jeff and William had met the night before in line for the bathroom at a local bar. ,1,1,None,,,,,,0,4,4,4,,,,,0,2,2,2,,,,,,,,,,,,,,,,,,,,,,,,,,,,,,,,,,,9,3.136536040023202,,,,,,,,,,,,,,,,,,,,,,,,,,,,062619_p1,001,2019_Jun_26_1728,body_behavioural,3.0.4,59.97086771091615,
4,Jeff had delivered some surprisingly-detailed complaints to William about the wine selection.,1,1,None,,,,,,0,4,4,4,,,,,0,3,3,3,,,,,,,,,,,,,,,,,,,,,,,,,,,,,,,,,,,1,2.886192409991054,,,,,,,,,,,,,,,,,,,,,,,,,,,,062619_p1,001,2019_Jun_26_1728,body_behavioural,3.0.4,59.97086771091615,
4,They quickly learned that they were both in the wine industry: Jeff was a sales associate for wine vineyards in the Northeast and William was a wine buyer for corporate events.,1,1,None,,,,,,0,4,4,4,,,,,0,4,4,4,,,,,,,,,,,,,,,,,,,,,,,,,,,,,,,,,,,1,13.737192114989739,,,,,,,,,,,,,,,,,,,,,,,,,,,,062619_p1,001,2019_Jun_26_1728,body_behavioural,3.0.4,59.97086771091615,
4,"Since they both had flights out of Boston at the same time, they had agreed to meet at the airport and talk about doing business together. ",1,1,None,,,,,,0,4,4,4,,,,,0,5,5,5,,,,,,,,,,,,,,,,,,,,,,,,,,,,,,,,,,,1,4.0008664750203025,,,,,,,,,,,,,,,,,,,,,,,,,,,,062619_p1,001,2019_Jun_26_1728,body_behavioural,3.0.4,59.97086771091615,
4,They waited in line at security.,2,1,None,,,,,,0,4,4,4,,,,,0,6,6,6,,,,,,,,,,,,,,,,,,,,,,,,,,,,,,,,,,,1,6.870123525004601,,,,,,,,,,,,,,,,,,,,,,,,,,,,062619_p1,001,2019_Jun_26_1728,body_behavioural,3.0.4,59.97086771091615,
4,"“It’s crazy that we met last night,” William said.",2,1,None,,,,,,0,4,4,4,,,,,0,7,7,7,,,,,,,,,,,,,,,,,,,,,,,,,,,,,,,,,,,9,3.153368692001095,,,,,,,,,,,,,,,,,,,,,,,,,,,,062619_p1,001,2019_Jun_26_1728,body_behavioural,3.0.4,59.97086771091615,
4,"“I am flying out right now to meet my boss, and was worried that I was going to show up empty handed without anything to show for the East Coast.” ",2,1,None,,,,,,0,4,4,4,,,,,0,8,8,8,,,,,,,,,,,,,,,,,,,,,,,,,,,,,,,,,,,1,3.784006338013569,,,,,,,,,,,,,,,,,,,,,,,,,,,,062619_p1,001,2019_Jun_26_1728,body_behavioural,3.0.4,59.97086771091615,
4,"“I know, what are the chances, right?” Jeff replied.",2,1,None,,,,,,0,4,4,4,,,,,0,9,9,9,,,,,,,,,,,,,,,,,,,,,,,,,,,,,,,,,,,1,1.253250570007367,,,,,,,,,,,,,,,,,,,,,,,,,,,,062619_p1,001,2019_Jun_26_1728,body_behavioural,3.0.4,59.97086771091615,
4,"William laughed and said, “I’m glad our complaining can come in handy.”",2,1,None,,,,,,0,4,4,4,,,,,0,10,10,10,,,,,,,,,,,,,,,,,,,,,,,,,,,,,,,,,,,1,1.6031298380112275,,,,,,,,,,,,,,,,,,,,,,,,,,,,062619_p1,001,2019_Jun_26_1728,body_behavioural,3.0.4,59.97086771091615,
4,"William got focused and, shifting gears, said, “I know this is fast, but I'd like to get right down to business since time is a limiting factor.",2,2,None,,,,,,0,4,4,4,,,,,0,11,11,11,,,,,,,,,,,,,,,,,,,,,,,,,,,,,,,,,,,9,5.0366915550257545,,,,,,,,,,,,,,,,,,,,,,,,,,,,062619_p1,001,2019_Jun_26_1728,body_behavioural,3.0.4,59.97086771091615,
4,I'd really like to order a couple of sample shipments from you and present them to our clients: I think they’d really love to have some East Coast variety. ,2,2,None,,,,,,0,4,4,4,,,,,0,12,12,12,,,,,,,,,,,,,,,,,,,,,,,,,,,,,,,,,,,1,2.9843898300023284,,,,,,,,,,,,,,,,,,,,,,,,,,,,062619_p1,001,2019_Jun_26_1728,body_behavioural,3.0.4,59.97086771091615,
4,"Now, typically we expect to get these kinds of samples at a steep discount, at least half-off the label price.",2,2,None,,,,,,0,4,4,4,,,,,0,13,13,13,,,,,,,,,,,,,,,,,,,,,,,,,,,,,,,,,,,1,2.5032780149776954,,,,,,,,,,,,,,,,,,,,,,,,,,,,062619_p1,001,2019_Jun_26_1728,body_behavioural,3.0.4,59.97086771091615,
4,This small loss is well worth the profit you’d be making if even a single client makes a contract.,2,2,None,,,,,,0,4,4,4,,,,,0,14,14,14,,,,,,,,,,,,,,,,,,,,,,,,,,,,,,,,,,,1,3.0669725500047207,,,,,,,,,,,,,,,,,,,,,,,,,,,,062619_p1,001,2019_Jun_26_1728,body_behavioural,3.0.4,59.97086771091615,
4,So I propose that you send us 5 barrels of your select wines for $800.”,2,2,None,,,,,,0,4,4,4,,,,,0,15,15,15,,,,,,,,,,,,,,,,,,,,,,,,,,,,,,,,,,,1,5.402754303009715,,,,,,,,,,,,,,,,,,,,,,,,,,,,062619_p1,001,2019_Jun_26_1728,body_behavioural,3.0.4,59.97086771091615,
4,"Before going through the metal detector, there was a pause in the security line to roll out the empty bin cart and roll in a filled one. ",2,2,None,,,,,,0,4,4,4,,,,,0,16,16,16,,,,,,,,,,,,,,,,,,,,,,,,,,,,,,,,,,,9,3.8201276050240267,,,,,,,,,,,,,,,,,,,,,,,,,,,,062619_p1,001,2019_Jun_26_1728,body_behavioural,3.0.4,59.97086771091615,
4,They placed everything in their bins. ,2,2,None,,,,,,0,4,4,4,,,,,0,17,17,17,,,,,,,,,,,,,,,,,,,,,,,,,,,,,,,,,,,1,2.1526886770152487,,,,,,,,,,,,,,,,,,,,,,,,,,,,062619_p1,001,2019_Jun_26_1728,body_behavioural,3.0.4,59.97086771091615,
4,"Jeff mulled over the offer, nodding noncommittally to William's pitch as they proceeded through the metal detector.",2,2,None,,,,,,0,4,4,4,,,,,0,18,18,18,,,,,,,,,,,,,,,,,,,,,,,,,,,,,,,,,,,9,3.9207612370082643,,,,,,,,,,,,,,,,,,,,,,,,,,,,062619_p1,001,2019_Jun_26_1728,body_behavioural,3.0.4,59.97086771091615,
4,"Having recovered from the security check, they began to walk through the concourse toward Jeff’s gate, B8, and William handed some printed spreadsheets to Jeff.",3,2,None,,,,,,0,4,4,4,,,,,0,19,19,19,,,,,,,,,,,,,,,,,,,,,,,,,,,,,,,,,,,1,6.736461663997034,,,,,,,,,,,,,,,,,,,,,,,,,,,,062619_p1,001,2019_Jun_26_1728,body_behavioural,3.0.4,59.97086771091615,
4,"Jeff, weaving through the crowd of travelers, squinted at William's rosy projections of the number of bottles he would purchase in the future.",3,2,None,,,,,,0,4,4,4,,,,,0,20,20,20,,,,,,,,,,,,,,,,,,,,,,,,,,,,,,,,,,,1,3.4538163200195413,,,,,,,,,,,,,,,,,,,,,,,,,,,,062619_p1,001,2019_Jun_26_1728,body_behavioural,3.0.4,59.97086771091615,
4,"After thinking for a couple minutes and walking past a number of coffee shops that William was eyeing, Jeff said, “I am not sure about this since we’re not coming a corporate vineyard and gambling with sample shipments is the kind of risk we can’t necessarily make. ",3,3,None,,,,,,0,4,4,4,,,,,0,21,21,21,,,,,,,,,,,,,,,,,,,,,,,,,,,,,,,,,,,1,4.917763104982441,,,,,,,,,,,,,,,,,,,,,,,,,,,,062619_p1,001,2019_Jun_26_1728,body_behavioural,3.0.4,59.97086771091615,
4,"These corporate purchases would have to be huge and practically guaranteed, to offset the loss from selling sample shipments at a price like you suggest.”",3,3,None,,,,,,0,4,4,4,,,,,0,22,22,22,,,,,,,,,,,,,,,,,,,,,,,,,,,,,,,,,,,1,4.170719076995738,,,,,,,,,,,,,,,,,,,,,,,,,,,,062619_p1,001,2019_Jun_26_1728,body_behavioural,3.0.4,59.97086771091615,
4,"William decided to tell Jeff that they had made the same offer to their competitor, Yankee Vines, who had refused and that they would make a better offer to Jeff and his company.",3,3,None,,,,,,0,4,4,4,,,,,0,23,23,23,,,,,,,,,,,,,,,,,,,,,,,,,,,,,,,,,,,1,6.386915865004994,,,,,,,,,,,,,,,,,,,,,,,,,,,,062619_p1,001,2019_Jun_26_1728,body_behavioural,3.0.4,59.97086771091615,
4,"They walked to the gates very slowly, barely registering the hubbub of the airport.",3,3,None,,,,,,0,4,4,4,,,,,0,24,24,24,,,,,,,,,,,,,,,,,,,,,,,,,,,,,,,,,,,9,1.7031118599988986,,,,,,,,,,,,,,,,,,,,,,,,,,,,062619_p1,001,2019_Jun_26_1728,body_behavioural,3.0.4,59.97086771091615,
4,"William and Jeff came to an agreement on a compromise rate on the sample shipment, paying $400 for a $600 shipment of wine sample, and they finalized the deal with a handshake. ",3,4,None,,,,,,0,4,4,4,,,,,0,25,25,25,,,,,,,,,,,,,,,,,,,,,,,,,,,,,,,,,,,1,11.487010593002196,,,,,,,,,,,,,,,,,,,,,,,,,,,,062619_p1,001,2019_Jun_26_1728,body_behavioural,3.0.4,59.97086771091615,
4,"“Well, what a tremendous pleasure to do business with you and to have all this work out,” William said.",3,4,None,,,,,,0,4,4,4,,,,,0,26,26,26,,,,,,,,,,,,,,,,,,,,,,,,,,,,,,,,,,,1,1.4863076250185259,,,,,,,,,,,,,,,,,,,,,,,,,,,,062619_p1,001,2019_Jun_26_1728,body_behavioural,3.0.4,59.97086771091615,
4,"Jeff nodded enthusiastically, and responded, “Likewise- this has been great.  ",3,4,None,,,,,,0,4,4,4,,,,,0,27,27,27,,,,,,,,,,,,,,,,,,,,,,,,,,,,,,,,,,,1,2.3530950819840655,,,,,,,,,,,,,,,,,,,,,,,,,,,,062619_p1,001,2019_Jun_26_1728,body_behavioural,3.0.4,59.97086771091615,
4,I'll let you get to your gate.,3,4,None,,,,,,0,4,4,4,,,,,0,28,28,28,,,,,,,,,,,,,,,,,,,,,,,,,,,,,,,,,,,1,1.0691690869862214,,,,,,,,,,,,,,,,,,,,,,,,,,,,062619_p1,001,2019_Jun_26_1728,body_behavioural,3.0.4,59.97086771091615,
4,"Once we’re both back on the ground, we can work out all the official documentation and get this in the books.”",3,4,None,,,,,,0,4,4,4,,,,,0,29,29,29,,,,,,,,,,,,,,,,,,,,,,,,,,,,,,,,,,,1,5.353123274981044,,,,,,,,,,,,,,,,,,,,,,,,,,,,062619_p1,001,2019_Jun_26_1728,body_behavioural,3.0.4,59.97086771091615,
4,"Jeff jogged to his gate, scanned his boarding pass, and walked onto the plane.",4,4,None,,,,,,0,4,4,4,,,,,0,30,30,30,,,,,,,,,,,,,,,,,,,,,,,,,,,,,,,,,,,1,1.2370303749921732,,,,,,,,,,,,,,,,,,,,,,,,,,,,062619_p1,001,2019_Jun_26_1728,body_behavioural,3.0.4,59.97086771091615,
4,He sat down in seat 4A in the business class section and  typed out a quick email on his phone letting the rest of his team know the good news. ,4,4,None,,,,,,0,4,4,4,,,,,0,31,31,31,,,,,,,,,,,,,,,,,,,,,,,,,,,,,,,,,,,9,3.7529048580036033,,,,,,,,,,,,,,,,,,,,,,,,,,,,062619_p1,001,2019_Jun_26_1728,body_behavioural,3.0.4,59.97086771091615,
4,"When the flight attendant came by, he ordered a glass of champagne to celebrate.",4,4,None,,,,,,0,4,4,4,,,,,0,32,32,32,,,,,,,,,,,,,,,,,,,,,,,,,,,,,,,,,,,1,1.517344897001749,,,,,,,,,,,,,,,,,,,,,,,,,,,,062619_p1,001,2019_Jun_26_1728,body_behavioural,3.0.4,59.97086771091615,
4,,,,,,,,,,0,4,4,4,,,,,,,,,,,,,,,,,,,,,,,,,,,,,,,,,,,,,,,,,,,,,,,,,,,,,,,,,,,,,,,,,,,,,,,,062619_p1,001,2019_Jun_26_1728,body_behavioural,3.0.4,59.97086771091615,
5,,,,,,,,,,0,5,5,5,0,0,0,0,,,,,,,,,,,,,,,,,,,,,,,,,,,,,space,0.7668216429883614,space,0.769679429999087,space,0.6840314200089779,,,,,,,,,,,,,,,,,,,,,,,,,,,,,,,,,,062619_p1,001,2019_Jun_26_1728,body_behavioural,3.0.4,59.97086771091615,
5,Henry walked into lecture with Maria who was mentally rehearsing what she should say to break up with him.,1,1,14.0,,,,,,0,5,5,5,,,,,0,0,0,0,,,,,,,,,,,,,,,,,,,,,,,,,,,,,,,space,0.7868946950184181,space,1.2193516269908287,9,10.637226020015078,,,,,,,,,,,,,,,,,,,,,,,,,,,,062619_p1,001,2019_Jun_26_1728,body_behavioural,3.0.4,59.97086771091615,
5,She had been putting it off with a growing sense of dread as she had been since she started to think about it a week ago.,1,1,None,,,,,,0,5,5,5,,,,,0,1,1,1,,,,,,,,,,,,,,,,,,,,,,,,,,,,,,,,,,,1,4.684754923015134,,,,,,,,,,,,,,,,,,,,,,,,,,,,062619_p1,001,2019_Jun_26_1728,body_behavioural,3.0.4,59.97086771091615,
5,Now this lecture was the last chance to do it. ,1,1,None,,,,,,0,5,5,5,,,,,0,2,2,2,,,,,,,,,,,,,,,,,,,,,,,,,,,,,,,,,,,1,1.5530219590000343,,,,,,,,,,,,,,,,,,,,,,,,,,,,062619_p1,001,2019_Jun_26_1728,body_behavioural,3.0.4,59.97086771091615,
5,"The lecture hall was large, with a stage for the lecturer in the front of the room, and 15 tiered rows of desks. ",1,1,None,,,,,,0,5,5,5,,,,,0,3,3,3,,,,,,,,,,,,,,,,,,,,,,,,,,,,,,,,,,,9,2.9368578150169924,,,,,,,,,,,,,,,,,,,,,,,,,,,,062619_p1,001,2019_Jun_26_1728,body_behavioural,3.0.4,59.97086771091615,
5,Maria and Henry slid into neighboring seats near the back of the room.,1,1,None,,,,,,0,5,5,5,,,,,0,4,4,4,,,,,,,,,,,,,,,,,,,,,,,,,,,,,,,,,,,1,1.7691695370012894,,,,,,,,,,,,,,,,,,,,,,,,,,,,062619_p1,001,2019_Jun_26_1728,body_behavioural,3.0.4,59.97086771091615,
5,"The professor opened up the lecture with a hardy greeting, “Good afternoon, everybody.”",2,1,None,,,,,,0,5,5,5,,,,,0,5,5,5,,,,,,,,,,,,,,,,,,,,,,,,,,,,,,,,,,,1,4.169770055013942,,,,,,,,,,,,,,,,,,,,,,,,,,,,062619_p1,001,2019_Jun_26_1728,body_behavioural,3.0.4,59.97086771091615,
5,"As he fiddled with the cords to connect his laptop to the projector, he continued to say, “Welcome to Week 4 of Intro to Ancient Philosophy. ",2,1,None,,,,,,0,5,5,5,,,,,0,6,6,6,,,,,,,,,,,,,,,,,,,,,,,,,,,,,,,,,,,1,2.3696359349996783,,,,,,,,,,,,,,,,,,,,,,,,,,,,062619_p1,001,2019_Jun_26_1728,body_behavioural,3.0.4,59.97086771091615,
5,Today we are going to continue our lecture on Aristotelian Philosophy.”,2,1,None,,,,,,0,5,5,5,,,,,0,7,7,7,,,,,,,,,,,,,,,,,,,,,,,,,,,,,,,,,,,1,2.602856312005315,,,,,,,,,,,,,,,,,,,,,,,,,,,,062619_p1,001,2019_Jun_26_1728,body_behavioural,3.0.4,59.97086771091615,
5,Mostly everyone in class was taking notes.,2,1,None,,,,,,0,5,5,5,,,,,0,8,8,8,,,,,,,,,,,,,,,,,,,,,,,,,,,,,,,,,,,1,1.2030930199834984,,,,,,,,,,,,,,,,,,,,,,,,,,,,062619_p1,001,2019_Jun_26_1728,body_behavioural,3.0.4,59.97086771091615,
5,"Maria took a deep breath, decided to rip off the bandaid, and leaning into Henry’s desk, said, “Henry, I think we should- I think we should break up because I don’t think I can do long distance.",2,2,None,,,,,,0,5,5,5,,,,,0,9,9,9,,,,,,,,,,,,,,,,,,,,,,,,,,,,,,,,,,,9,8.070131011976628,,,,,,,,,,,,,,,,,,,,,,,,,,,,062619_p1,001,2019_Jun_26_1728,body_behavioural,3.0.4,59.97086771091615,
5,"I think what we have here is great, but I think it will be really hard when we are so far apart for so long during my study abroad.",2,2,None,,,,,,0,5,5,5,,,,,0,10,10,10,,,,,,,,,,,,,,,,,,,,,,,,,,,,,,,,,,,1,2.587085874984041,,,,,,,,,,,,,,,,,,,,,,,,,,,,062619_p1,001,2019_Jun_26_1728,body_behavioural,3.0.4,59.97086771091615,
5,"I’m sorry I’m telling you now in lecture, but you know, I have to leave for the airport after class and this is really hard for me to tell you.",2,2,None,,,,,,0,5,5,5,,,,,0,11,11,11,,,,,,,,,,,,,,,,,,,,,,,,,,,,,,,,,,,1,3.7371514049882535,,,,,,,,,,,,,,,,,,,,,,,,,,,,062619_p1,001,2019_Jun_26_1728,body_behavioural,3.0.4,59.97086771091615,
5,I just know when I’m there I’m going to be so busy and I really want to be immersed in the life of the place I’m in.”,2,2,None,,,,,,0,5,5,5,,,,,0,12,12,12,,,,,,,,,,,,,,,,,,,,,,,,,,,,,,,,,,,1,2.5530971199914347,,,,,,,,,,,,,,,,,,,,,,,,,,,,062619_p1,001,2019_Jun_26_1728,body_behavioural,3.0.4,59.97086771091615,
5,"The professor said, “We will now talk about one of Aristotle’s works, The Categories.",3,2,None,,,,,,0,5,5,5,,,,,0,13,13,13,,,,,,,,,,,,,,,,,,,,,,,,,,,,,,,,,,,9,2.3525659999868367,,,,,,,,,,,,,,,,,,,,,,,,,,,,062619_p1,001,2019_Jun_26_1728,body_behavioural,3.0.4,59.97086771091615,
5,"This text, as you might have been able to guess, is about the kinds, or categories, of things that there are.",3,2,None,,,,,,0,5,5,5,,,,,0,14,14,14,,,,,,,,,,,,,,,,,,,,,,,,,,,,,,,,,,,1,1.8174909180088434,,,,,,,,,,,,,,,,,,,,,,,,,,,,062619_p1,001,2019_Jun_26_1728,body_behavioural,3.0.4,59.97086771091615,
5,"In fact, our term category comes from this Aristotelian context.",3,2,None,,,,,,0,5,5,5,,,,,0,15,15,15,,,,,,,,,,,,,,,,,,,,,,,,,,,,,,,,,,,1,2.0030609619861934,,,,,,,,,,,,,,,,,,,,,,,,,,,,062619_p1,001,2019_Jun_26_1728,body_behavioural,3.0.4,59.97086771091615,
5,"The Categories, traditionally interpreted as an introduction to Aristotle’s logical work, divides all of  being into ten categories.” ",3,2,None,,,,,,0,5,5,5,,,,,0,16,16,16,,,,,,,,,,,,,,,,,,,,,,,,,,,,,,,,,,,1,5.919070484000258,,,,,,,,,,,,,,,,,,,,,,,,,,,,062619_p1,001,2019_Jun_26_1728,body_behavioural,3.0.4,59.97086771091615,
5,"Henry felt horrible, like the wind had just been knocked out of him and he whispered back, “Maria, I don’t want to break up with you because I love you.",3,3,None,,,,,,0,5,5,5,,,,,0,17,17,17,,,,,,,,,,,,,,,,,,,,,,,,,,,,,,,,,,,9,4.752954925002996,,,,,,,,,,,,,,,,,,,,,,,,,,,,062619_p1,001,2019_Jun_26_1728,body_behavioural,3.0.4,59.97086771091615,
5,I’ll come visit you and it will be fine.,3,3,None,,,,,,0,5,5,5,,,,,0,18,18,18,,,,,,,,,,,,,,,,,,,,,,,,,,,,,,,,,,,1,1.0697026920097414,,,,,,,,,,,,,,,,,,,,,,,,,,,,062619_p1,001,2019_Jun_26_1728,body_behavioural,3.0.4,59.97086771091615,
5,I don’t want to break up.”,3,3,None,,,,,,0,5,5,5,,,,,0,19,19,19,,,,,,,,,,,,,,,,,,,,,,,,,,,,,,,,,,,1,0.7530375999922398,,,,,,,,,,,,,,,,,,,,,,,,,,,,062619_p1,001,2019_Jun_26_1728,body_behavioural,3.0.4,59.97086771091615,
5,"Maria felt so guilty that she nearly gave in, but forced herself to hold her ground, knowing that this would make things much easier for both of them in the future.",3,3,None,,,,,,0,5,5,5,,,,,0,20,20,20,,,,,,,,,,,,,,,,,,,,,,,,,,,,,,,,,,,9,5.017007714981446,,,,,,,,,,,,,,,,,,,,,,,,,,,,062619_p1,001,2019_Jun_26_1728,body_behavioural,3.0.4,59.97086771091615,
5,"She gave his hand a squeeze but shook her head sadly, before turning back to look at her empty desk. ",3,3,None,,,,,,0,5,5,5,,,,,0,21,21,21,,,,,,,,,,,,,,,,,,,,,,,,,,,,,,,,,,,1,2.320294589997502,,,,,,,,,,,,,,,,,,,,,,,,,,,,062619_p1,001,2019_Jun_26_1728,body_behavioural,3.0.4,59.97086771091615,
5,"The professor wrapped up, “Alright, class, that’s all for today.",4,3,None,,,,,,0,5,5,5,,,,,0,22,22,22,,,,,,,,,,,,,,,,,,,,,,,,,,,,,,,,,,,1,3.8510200300079305,,,,,,,,,,,,,,,,,,,,,,,,,,,,062619_p1,001,2019_Jun_26_1728,body_behavioural,3.0.4,59.97086771091615,
5,"Remember the final exam is coming up next week on Tuesday on the Pre-Socratics, Plato, and Aristotle, so feel free to come by office hours to discuss if you have the inspiration.",4,3,None,,,,,,0,5,5,5,,,,,0,23,23,23,,,,,,,,,,,,,,,,,,,,,,,,,,,,,,,,,,,1,6.303022281994345,,,,,,,,,,,,,,,,,,,,,,,,,,,,062619_p1,001,2019_Jun_26_1728,body_behavioural,3.0.4,59.97086771091615,
5,"If anyone has any conflicts with another exam, please email me so that we can figure out a time to reschedule it. ",4,3,None,,,,,,0,5,5,5,,,,,0,24,24,24,,,,,,,,,,,,,,,,,,,,,,,,,,,,,,,,,,,1,3.400537632027408,,,,,,,,,,,,,,,,,,,,,,,,,,,,062619_p1,001,2019_Jun_26_1728,body_behavioural,3.0.4,59.97086771091615,
5,"Have a good day, folks.” ",4,3,None,,,,,,0,5,5,5,,,,,0,25,25,25,,,,,,,,,,,,,,,,,,,,,,,,,,,,,,,,,,,1,0.9173265330027789,,,,,,,,,,,,,,,,,,,,,,,,,,,,062619_p1,001,2019_Jun_26_1728,body_behavioural,3.0.4,59.97086771091615,
5,"Maria and Henry packed up hurriedly, and they hugged; both of them had tears. ",4,4,None,,,,,,0,5,5,5,,,,,0,26,26,26,,,,,,,,,,,,,,,,,,,,,,,,,,,,,,,,,,,9,2.3370713100011926,,,,,,,,,,,,,,,,,,,,,,,,,,,,062619_p1,001,2019_Jun_26_1728,body_behavioural,3.0.4,59.97086771091615,
5,"“Maria, I don’t want you to leave.",4,4,None,,,,,,0,5,5,5,,,,,0,27,27,27,,,,,,,,,,,,,,,,,,,,,,,,,,,,,,,,,,,1,1.5195180820010137,,,,,,,,,,,,,,,,,,,,,,,,,,,,062619_p1,001,2019_Jun_26_1728,body_behavioural,3.0.4,59.97086771091615,
5,I don’t want this to end. ,4,4,None,,,,,,0,5,5,5,,,,,0,28,28,28,,,,,,,,,,,,,,,,,,,,,,,,,,,,,,,,,,,1,0.7363364699995145,,,,,,,,,,,,,,,,,,,,,,,,,,,,062619_p1,001,2019_Jun_26_1728,body_behavioural,3.0.4,59.97086771091615,
5,"But if this is what you think is best, I can’t make it otherwise.” ",4,4,None,,,,,,0,5,5,5,,,,,0,29,29,29,,,,,,,,,,,,,,,,,,,,,,,,,,,,,,,,,,,1,1.73629642999731,,,,,,,,,,,,,,,,,,,,,,,,,,,,062619_p1,001,2019_Jun_26_1728,body_behavioural,3.0.4,59.97086771091615,
5,"They hugged one last time, and then Maria remembered she had left her favorite Alpaca sweater in Henry’s room.",4,4,None,,,,,,0,5,5,5,,,,,0,30,30,30,,,,,,,,,,,,,,,,,,,,,,,,,,,,,,,,,,,1,3.2196319920185488,,,,,,,,,,,,,,,,,,,,,,,,,,,,062619_p1,001,2019_Jun_26_1728,body_behavioural,3.0.4,59.97086771091615,
5,"“Henry, I’m so sorry to ask this now but could you grab my alpaca sweater from your dorm and meet me in front of the student center?”",4,4,None,,,,,,0,5,5,5,,,,,0,31,31,31,,,,,,,,,,,,,,,,,,,,,,,,,,,,,,,,,,,9,4.817639929999132,,,,,,,,,,,,,,,,,,,,,,,,,,,,062619_p1,001,2019_Jun_26_1728,body_behavioural,3.0.4,59.97086771091615,
5,"He agreed, and she ran off to get her things from her dorm as he sadly watched her go. ",4,4,None,,,,,,0,5,5,5,,,,,0,32,32,32,,,,,,,,,,,,,,,,,,,,,,,,,,,,,,,,,,,1,1.900513239990687,,,,,,,,,,,,,,,,,,,,,,,,,,,,062619_p1,001,2019_Jun_26_1728,body_behavioural,3.0.4,59.97086771091615,
5,,,,,,,,,,0,5,5,5,,,,,,,,,,,,,,,,,,,,,,,,,,,,,,,,,,,,,,,,,,,,,,,,,,,,,,,,,,,,,,,,,,,,,,,,062619_p1,001,2019_Jun_26_1728,body_behavioural,3.0.4,59.97086771091615,
6,,,,,,,,,,0,6,6,6,0,0,0,0,,,,,,,,,,,,,,,,,,,,,,,,,,,,,space,2.48550234301365,space,0.9195508330012672,space,0.6692216219962575,,,,,,,,,,,,,,,,,,,,,,,,,,,,,,,,,,062619_p1,001,2019_Jun_26_1728,body_behavioural,3.0.4,59.97086771091615,
6,"Carina and Simon, both distracted in thought, nearly ran into each other as they walked into the grocery store. ",1,1,43.0,,,,,,0,6,6,6,,,,,0,0,0,0,,,,,,,,,,,,,,,,,,,,,,,,,,,,,,,space,0.484024520003004,space,1.4863556349882856,9,5.987035240017576,,,,,,,,,,,,,,,,,,,,,,,,,,,,062619_p1,001,2019_Jun_26_1728,body_behavioural,3.0.4,59.97086771091615,
6,She nearly dropped the keys she was holding. ,1,1,None,,,,,,0,6,6,6,,,,,0,1,1,1,,,,,,,,,,,,,,,,,,,,,,,,,,,,,,,,,,,1,1.2360051849973388,,,,,,,,,,,,,,,,,,,,,,,,,,,,062619_p1,001,2019_Jun_26_1728,body_behavioural,3.0.4,59.97086771091615,
6,"The store they had entered looked like a warehouse, with high, black ceilings, industrial lights, and large packages of food. ",1,1,None,,,,,,0,6,6,6,,,,,0,2,2,2,,,,,,,,,,,,,,,,,,,,,,,,,,,,,,,,,,,1,14.002274569997098,,,,,,,,,,,,,,,,,,,,,,,,,,,,062619_p1,001,2019_Jun_26_1728,body_behavioural,3.0.4,59.97086771091615,
6,"In the meat section, Carina and Simon were looking over the same cuts of meat, because they were both preparing for barbecues.",2,1,None,,,,,,0,6,6,6,,,,,0,3,3,3,,,,,,,,,,,,,,,,,,,,,,,,,,,,,,,,,,,1,2.8691853399795946,,,,,,,,,,,,,,,,,,,,,,,,,,,,062619_p1,001,2019_Jun_26_1728,body_behavioural,3.0.4,59.97086771091615,
6,"Simon had wanted to talk to Carina, and Carina had wanted to say something to Simon, but they felt embarrassed striking up a conversation with a stranger.",2,1,None,,,,,,0,6,6,6,,,,,0,4,4,4,,,,,,,,,,,,,,,,,,,,,,,,,,,,,,,,,,,1,2.735758352006087,,,,,,,,,,,,,,,,,,,,,,,,,,,,062619_p1,001,2019_Jun_26_1728,body_behavioural,3.0.4,59.97086771091615,
6,"Carina mustered the courage, turned to Simon and, pointing at a Cornish hen, asked, “Isn’t this meat cute?”",2,2,None,,,,,,0,6,6,6,,,,,0,5,5,5,,,,,,,,,,,,,,,,,,,,,,,,,,,,,,,,,,,1,3.453741999983322,,,,,,,,,,,,,,,,,,,,,,,,,,,,062619_p1,001,2019_Jun_26_1728,body_behavioural,3.0.4,59.97086771091615,
6,"He laughed, and said, “It is very cute.",2,2,None,,,,,,0,6,6,6,,,,,0,6,6,6,,,,,,,,,,,,,,,,,,,,,,,,,,,,,,,,,,,1,1.2029640820110217,,,,,,,,,,,,,,,,,,,,,,,,,,,,062619_p1,001,2019_Jun_26_1728,body_behavioural,3.0.4,59.97086771091615,
6,"Probably the younger brother of this guy,” and he picked up a regular-sized chicken.",2,2,None,,,,,,0,6,6,6,,,,,0,7,7,7,,,,,,,,,,,,,,,,,,,,,,,,,,,,,,,,,,,1,5.386708770005498,,,,,,,,,,,,,,,,,,,,,,,,,,,,062619_p1,001,2019_Jun_26_1728,body_behavioural,3.0.4,59.97086771091615,
6,"“Unlucky family,” she responded as she shook her head. ",2,2,None,,,,,,0,6,6,6,,,,,0,8,8,8,,,,,,,,,,,,,,,,,,,,,,,,,,,,,,,,,,,1,1.6675256529997569,,,,,,,,,,,,,,,,,,,,,,,,,,,,062619_p1,001,2019_Jun_26_1728,body_behavioural,3.0.4,59.97086771091615,
6,They chatted as they picked out a few last-minute groceries.,2,2,None,,,,,,0,6,6,6,,,,,0,9,9,9,,,,,,,,,,,,,,,,,,,,,,,,,,,,,,,,,,,9,1.319714107987238,,,,,,,,,,,,,,,,,,,,,,,,,,,,062619_p1,001,2019_Jun_26_1728,body_behavioural,3.0.4,59.97086771091615,
6,"Simon helped Carina select the best ribs and his personal favorite barbecue sauce, and she helped him choose red peppers and spices for a vegetable kabob she recommended.",2,2,None,,,,,,0,6,6,6,,,,,0,10,10,10,,,,,,,,,,,,,,,,,,,,,,,,,,,,,,,,,,,9,4.568137994996505,,,,,,,,,,,,,,,,,,,,,,,,,,,,062619_p1,001,2019_Jun_26_1728,body_behavioural,3.0.4,59.97086771091615,
6,"In the checkout area, there were three lines open, and they went to the one labeled “8.”",3,2,None,,,,,,0,6,6,6,,,,,0,11,11,11,,,,,,,,,,,,,,,,,,,,,,,,,,,,,,,,,,,1,5.553294682002161,,,,,,,,,,,,,,,,,,,,,,,,,,,,062619_p1,001,2019_Jun_26_1728,body_behavioural,3.0.4,59.97086771091615,
6,"Carina and Simon made jokes about the magazine covers while waiting in line, and they were laughing so hard their stomachs hurt. ",3,2,None,,,,,,0,6,6,6,,,,,0,12,12,12,,,,,,,,,,,,,,,,,,,,,,,,,,,,,,,,,,,1,2.7044001600006595,,,,,,,,,,,,,,,,,,,,,,,,,,,,062619_p1,001,2019_Jun_26_1728,body_behavioural,3.0.4,59.97086771091615,
6,"Simon turned to face Carina and, while looking at her straight in the eyes, asked, “Would you like to go out to dinner with me?",3,3,None,,,,,,0,6,6,6,,,,,0,13,13,13,,,,,,,,,,,,,,,,,,,,,,,,,,,,,,,,,,,9,3.8704274210031144,,,,,,,,,,,,,,,,,,,,,,,,,,,,062619_p1,001,2019_Jun_26_1728,body_behavioural,3.0.4,59.97086771091615,
6,Next Saturday we could tour around Harvard Square and get something to eat.,3,3,None,,,,,,0,6,6,6,,,,,0,14,14,14,,,,,,,,,,,,,,,,,,,,,,,,,,,,,,,,,,,1,3.186089002992958,,,,,,,,,,,,,,,,,,,,,,,,,,,,062619_p1,001,2019_Jun_26_1728,body_behavioural,3.0.4,59.97086771091615,
6,"There are a lot of great places around there, and it’s really nice during the summer.”",3,3,None,,,,,,0,6,6,6,,,,,0,15,15,15,,,,,,,,,,,,,,,,,,,,,,,,,,,,,,,,,,,1,1.83590213698335,,,,,,,,,,,,,,,,,,,,,,,,,,,,062619_p1,001,2019_Jun_26_1728,body_behavioural,3.0.4,59.97086771091615,
6,"Carina smiled, “I’d love to- that sounds great!”",3,3,None,,,,,,0,6,6,6,,,,,0,16,16,16,,,,,,,,,,,,,,,,,,,,,,,,,,,,,,,,,,,1,3.734266295010457,,,,,,,,,,,,,,,,,,,,,,,,,,,,062619_p1,001,2019_Jun_26_1728,body_behavioural,3.0.4,59.97086771091615,
6,The cashier scanned Carina’s groceries.,4,3,None,,,,,,0,6,6,6,,,,,0,17,17,17,,,,,,,,,,,,,,,,,,,,,,,,,,,,,,,,,,,1,2.4526654400106054,,,,,,,,,,,,,,,,,,,,,,,,,,,,062619_p1,001,2019_Jun_26_1728,body_behavioural,3.0.4,59.97086771091615,
6,"Simon lifted up the divider on the conveyor belt and said to the cashier, “Actually, these are together.",4,3,None,,,,,,0,6,6,6,,,,,0,18,18,18,,,,,,,,,,,,,,,,,,,,,,,,,,,,,,,,,,,9,7.053427872015163,,,,,,,,,,,,,,,,,,,,,,,,,,,,062619_p1,001,2019_Jun_26_1728,body_behavioural,3.0.4,59.97086771091615,
6,"Carina, I’ve got it.",4,3,None,,,,,,0,6,6,6,,,,,0,19,19,19,,,,,,,,,,,,,,,,,,,,,,,,,,,,,,,,,,,1,1.0529337049811147,,,,,,,,,,,,,,,,,,,,,,,,,,,,062619_p1,001,2019_Jun_26_1728,body_behavioural,3.0.4,59.97086771091615,
6,This was kind-of a date today.”,4,3,None,,,,,,0,6,6,6,,,,,0,20,20,20,,,,,,,,,,,,,,,,,,,,,,,,,,,,,,,,,,,1,0.7195480549999047,,,,,,,,,,,,,,,,,,,,,,,,,,,,062619_p1,001,2019_Jun_26_1728,body_behavioural,3.0.4,59.97086771091615,
6,Carina blushed and laughed; she thought this was ridiculous but also very sweet. ,4,3,None,,,,,,0,6,6,6,,,,,0,21,21,21,,,,,,,,,,,,,,,,,,,,,,,,,,,,,,,,,,,1,1.4523934250173625,,,,,,,,,,,,,,,,,,,,,,,,,,,,062619_p1,001,2019_Jun_26_1728,body_behavioural,3.0.4,59.97086771091615,
6,"The cashier rolled her eyes when they weren’t looking, and she scanned the rest of his items. ",4,3,None,,,,,,0,6,6,6,,,,,0,22,22,22,,,,,,,,,,,,,,,,,,,,,,,,,,,,,,,,,,,1,2.369910807989072,,,,,,,,,,,,,,,,,,,,,,,,,,,,062619_p1,001,2019_Jun_26_1728,body_behavioural,3.0.4,59.97086771091615,
6,"The total came to $52, and he paid with his credit card.",4,3,None,,,,,,0,6,6,6,,,,,0,23,23,23,,,,,,,,,,,,,,,,,,,,,,,,,,,,,,,,,,,1,1.6364510499988683,,,,,,,,,,,,,,,,,,,,,,,,,,,,062619_p1,001,2019_Jun_26_1728,body_behavioural,3.0.4,59.97086771091615,
6,"Seeing that it was 4:30 PM on her phone, Carina gasped because she realized she was late for her own barbecue. ",4,4,None,,,,,,0,6,6,6,,,,,0,24,24,24,,,,,,,,,,,,,,,,,,,,,,,,,,,,,,,,,,,1,3.0531429950206075,,,,,,,,,,,,,,,,,,,,,,,,,,,,062619_p1,001,2019_Jun_26_1728,body_behavioural,3.0.4,59.97086771091615,
6,Carina thanked Simon and took her groceries and ran. ,4,4,None,,,,,,0,6,6,6,,,,,0,25,25,25,,,,,,,,,,,,,,,,,,,,,,,,,,,,,,,,,,,1,4.23644791499828,,,,,,,,,,,,,,,,,,,,,,,,,,,,062619_p1,001,2019_Jun_26_1728,body_behavioural,3.0.4,59.97086771091615,
6,"“I hope her guests aren’t hungry,” the cashier remarked.",4,4,None,,,,,,0,6,6,6,,,,,0,26,26,26,,,,,,,,,,,,,,,,,,,,,,,,,,,,,,,,,,,1,1.1530171479971614,,,,,,,,,,,,,,,,,,,,,,,,,,,,062619_p1,001,2019_Jun_26_1728,body_behavioural,3.0.4,59.97086771091615,
6,Simon was thoroughly charmed and barely heard the comment as he watched her go. ,4,4,None,,,,,,0,6,6,6,,,,,0,27,27,27,,,,,,,,,,,,,,,,,,,,,,,,,,,,,,,,,,,1,3.4698817119933665,,,,,,,,,,,,,,,,,,,,,,,,,,,,062619_p1,001,2019_Jun_26_1728,body_behavioural,3.0.4,59.97086771091615,
6,,,,,,,,,,0,6,6,6,,,,,,,,,,,,,,,,,,,,,,,,,,,,,,,,,,,,,,,,,,,,,,,,,,,,,,,,,,,,,,,,,,,,,,,,062619_p1,001,2019_Jun_26_1728,body_behavioural,3.0.4,59.97086771091615,
7,,,,,,,,,,0,7,7,7,0,0,0,0,,,,,,,,,,,,,,,,,,,,,,,,,,,,,space,3.936039513995638,space,0.7027930819895118,space,0.7525974540039897,,,,,,,,,,,,,,,,,,,,,,,,,,,,,,,,,,062619_p1,001,2019_Jun_26_1728,body_behavioural,3.0.4,59.97086771091615,
7,"Lana walked into lecture holding hands with her boyfriend, Aaron, who was trying to contain his excitement about proposing to Lana in this class.",1,1,24.0,,,,,,0,7,7,7,,,,,0,0,0,0,,,,,,,,,,,,,,,,,,,,,,,,,,,,,,,space,0.6195237470092252,space,0.8529415249940939,9,13.270630907005398,,,,,,,,,,,,,,,,,,,,,,,,,,,,062619_p1,001,2019_Jun_26_1728,body_behavioural,3.0.4,59.97086771091615,
7,"Lana was lost in thought, puzzling over an integral on her problem set for another class.",1,1,None,,,,,,0,7,7,7,,,,,0,1,1,1,,,,,,,,,,,,,,,,,,,,,,,,,,,,,,,,,,,1,2.884213503013598,,,,,,,,,,,,,,,,,,,,,,,,,,,,062619_p1,001,2019_Jun_26_1728,body_behavioural,3.0.4,59.97086771091615,
7,"The lecture hall they had entered was the fanciest one at Princeton, with chandeliers, high ceilings, wood floors, and a large projector screen where chalkboards used to be. ",1,1,None,,,,,,0,7,7,7,,,,,0,2,2,2,,,,,,,,,,,,,,,,,,,,,,,,,,,,,,,,,,,9,7.567880446993513,,,,,,,,,,,,,,,,,,,,,,,,,,,,062619_p1,001,2019_Jun_26_1728,body_behavioural,3.0.4,59.97086771091615,
7,Aaron and Lana had met when they first started dating three years ago in freshman year.,1,1,None,,,,,,0,7,7,7,,,,,0,3,3,3,,,,,,,,,,,,,,,,,,,,,,,,,,,,,,,,,,,9,5.6867174899962265,,,,,,,,,,,,,,,,,,,,,,,,,,,,062619_p1,001,2019_Jun_26_1728,body_behavioural,3.0.4,59.97086771091615,
7,They coincidentally had another class together in this same lecture hall. ,1,1,None,,,,,,0,7,7,7,,,,,0,4,4,4,,,,,,,,,,,,,,,,,,,,,,,,,,,,,,,,,,,1,2.219749120005872,,,,,,,,,,,,,,,,,,,,,,,,,,,,062619_p1,001,2019_Jun_26_1728,body_behavioural,3.0.4,59.97086771091615,
7,The professor caught Aaron's eye as he walked up to the front of the classroom and gave him a wink before the lecture began. ,1,1,None,,,,,,0,7,7,7,,,,,0,5,5,5,,,,,,,,,,,,,,,,,,,,,,,,,,,,,,,,,,,1,3.619900304998737,,,,,,,,,,,,,,,,,,,,,,,,,,,,062619_p1,001,2019_Jun_26_1728,body_behavioural,3.0.4,59.97086771091615,
7,Aaron flashed him a half-smile and nodded. ,1,1,None,,,,,,0,7,7,7,,,,,0,6,6,6,,,,,,,,,,,,,,,,,,,,,,,,,,,,,,,,,,,1,1.0535618469875772,,,,,,,,,,,,,,,,,,,,,,,,,,,,062619_p1,001,2019_Jun_26_1728,body_behavioural,3.0.4,59.97086771091615,
7,"The professor cleared his throat and said,“Alright, good afternoon, everyone!",2,1,None,,,,,,0,7,7,7,,,,,0,7,7,7,,,,,,,,,,,,,,,,,,,,,,,,,,,,,,,,,,,9,6.519363617000636,,,,,,,,,,,,,,,,,,,,,,,,,,,,062619_p1,001,2019_Jun_26_1728,body_behavioural,3.0.4,59.97086771091615,
7,Welcome to another week of Introduction to Chemistry,2,1,None,,,,,,0,7,7,7,,,,,0,8,8,8,,,,,,,,,,,,,,,,,,,,,,,,,,,,,,,,,,,1,1.6514145000255667,,,,,,,,,,,,,,,,,,,,,,,,,,,,062619_p1,001,2019_Jun_26_1728,body_behavioural,3.0.4,59.97086771091615,
7,This week the topic is ions.,2,1,None,,,,,,0,7,7,7,,,,,0,9,9,9,,,,,,,,,,,,,,,,,,,,,,,,,,,,,,,,,,,1,1.2696822119760327,,,,,,,,,,,,,,,,,,,,,,,,,,,,062619_p1,001,2019_Jun_26_1728,body_behavioural,3.0.4,59.97086771091615,
7,"Now, let me get my computer set up, one moment, class.”",2,1,None,,,,,,0,7,7,7,,,,,0,10,10,10,,,,,,,,,,,,,,,,,,,,,,,,,,,,,,,,,,,1,1.4197038170241285,,,,,,,,,,,,,,,,,,,,,,,,,,,,062619_p1,001,2019_Jun_26_1728,body_behavioural,3.0.4,59.97086771091615,
7,Lana pulled out the problem set she was thinking about as Aaron unzipped the small pocket in his backpack and pulled out the ring.,2,2,None,,,,,,0,7,7,7,,,,,0,11,11,11,,,,,,,,,,,,,,,,,,,,,,,,,,,,,,,,,,,9,4.503250341978855,,,,,,,,,,,,,,,,,,,,,,,,,,,,062619_p1,001,2019_Jun_26_1728,body_behavioural,3.0.4,59.97086771091615,
7,"Turning away from her, he looked it over yet again. ",2,2,None,,,,,,0,7,7,7,,,,,0,12,12,12,,,,,,,,,,,,,,,,,,,,,,,,,,,,,,,,,,,1,1.5867499820014928,,,,,,,,,,,,,,,,,,,,,,,,,,,,062619_p1,001,2019_Jun_26_1728,body_behavioural,3.0.4,59.97086771091615,
7,"Instead of one large diamond, there were 5 red diamonds embedded in a thick band. ",2,2,None,,,,,,0,7,7,7,,,,,0,13,13,13,,,,,,,,,,,,,,,,,,,,,,,,,,,,,,,,,,,1,3.5346365869918372,,,,,,,,,,,,,,,,,,,,,,,,,,,,062619_p1,001,2019_Jun_26_1728,body_behavioural,3.0.4,59.97086771091615,
7,He knew Lana would like this because her style was more avant-garde than traditional.,2,2,None,,,,,,0,7,7,7,,,,,0,14,14,14,,,,,,,,,,,,,,,,,,,,,,,,,,,,,,,,,,,1,2.9528969549864996,,,,,,,,,,,,,,,,,,,,,,,,,,,,062619_p1,001,2019_Jun_26_1728,body_behavioural,3.0.4,59.97086771091615,
7,"The professor said, “Remember, class, that the number of protons determines the identity of the element. ",3,2,None,,,,,,0,7,7,7,,,,,0,15,15,15,,,,,,,,,,,,,,,,,,,,,,,,,,,,,,,,,,,9,3.603272447013296,,,,,,,,,,,,,,,,,,,,,,,,,,,,062619_p1,001,2019_Jun_26_1728,body_behavioural,3.0.4,59.97086771091615,
7,"So for example, all atoms of sodium have 11 protons in the nucleus. ",3,2,None,,,,,,0,7,7,7,,,,,0,16,16,16,,,,,,,,,,,,,,,,,,,,,,,,,,,,,,,,,,,1,1.4697483820200432,,,,,,,,,,,,,,,,,,,,,,,,,,,,062619_p1,001,2019_Jun_26_1728,body_behavioural,3.0.4,59.97086771091615,
7,"And if you look on the periodic table, the atomic number for sodium, the symbol is Na, is eleven.",3,2,None,,,,,,0,7,7,7,,,,,0,17,17,17,,,,,,,,,,,,,,,,,,,,,,,,,,,,,,,,,,,1,1.4196894199994858,,,,,,,,,,,,,,,,,,,,,,,,,,,,062619_p1,001,2019_Jun_26_1728,body_behavioural,3.0.4,59.97086771091615,
7,"An ion retains the same number of protons despite losing electrons, and therefore keeps the same identity in the periodic table. ",3,2,None,,,,,,0,7,7,7,,,,,0,18,18,18,,,,,,,,,,,,,,,,,,,,,,,,,,,,,,,,,,,1,2.469072613021126,,,,,,,,,,,,,,,,,,,,,,,,,,,,062619_p1,001,2019_Jun_26_1728,body_behavioural,3.0.4,59.97086771091615,
7,Lana and Aaron tried to take notes during the lecture.,3,2,None,,,,,,0,7,7,7,,,,,0,19,19,19,,,,,,,,,,,,,,,,,,,,,,,,,,,,,,,,,,,1,1.4859459579747636,,,,,,,,,,,,,,,,,,,,,,,,,,,,062619_p1,001,2019_Jun_26_1728,body_behavioural,3.0.4,59.97086771091615,
7,"Right after talking about how two ions bond into one stable molecule by covalent bonds, the professor stopped the lecture, gave another wink to Aaron, and asked Lana to come to the front of the class to do a demonstration. ",3,3,None,,,,,,0,7,7,7,,,,,0,20,20,20,,,,,,,,,,,,,,,,,,,,,,,,,,,,,,,,,,,1,4.985951912007295,,,,,,,,,,,,,,,,,,,,,,,,,,,,062619_p1,001,2019_Jun_26_1728,body_behavioural,3.0.4,59.97086771091615,
7,"She walked to the front of the class confused, and the professor asked her to stand in the middle of the stage.",3,3,None,,,,,,0,7,7,7,,,,,0,21,21,21,,,,,,,,,,,,,,,,,,,,,,,,,,,,,,,,,,,1,1.9531771350011695,,,,,,,,,,,,,,,,,,,,,,,,,,,,062619_p1,001,2019_Jun_26_1728,body_behavioural,3.0.4,59.97086771091615,
7,"Then Aaron walked up and, taking Lana’s hand, got down on one knee. ",3,3,None,,,,,,0,7,7,7,,,,,0,22,22,22,,,,,,,,,,,,,,,,,,,,,,,,,,,,,,,,,,,1,2.803081072983332,,,,,,,,,,,,,,,,,,,,,,,,,,,,062619_p1,001,2019_Jun_26_1728,body_behavioural,3.0.4,59.97086771091615,
7,The professor quickly switched to the last slide on the powerpoint which was a photo collage Aaron had sent him of pictures of Aaron and Lana. ,3,3,None,,,,,,0,7,7,7,,,,,0,23,23,23,,,,,,,,,,,,,,,,,,,,,,,,,,,,,,,,,,,1,3.0528766549832653,,,,,,,,,,,,,,,,,,,,,,,,,,,,062619_p1,001,2019_Jun_26_1728,body_behavioural,3.0.4,59.97086771091615,
7,"“It's time for us to make a bond of our own, Lana.”",3,3,None,,,,,,0,7,7,7,,,,,0,24,24,24,,,,,,,,,,,,,,,,,,,,,,,,,,,,,,,,,,,1,4.2857928579906,,,,,,,,,,,,,,,,,,,,,,,,,,,,062619_p1,001,2019_Jun_26_1728,body_behavioural,3.0.4,59.97086771091615,
7,He opened the small notebook he had in his hand and the ring was sitting on the page. ,3,3,None,,,,,,0,7,7,7,,,,,0,25,25,25,,,,,,,,,,,,,,,,,,,,,,,,,,,,,,,,,,,9,3.154733755014604,,,,,,,,,,,,,,,,,,,,,,,,,,,,062619_p1,001,2019_Jun_26_1728,body_behavioural,3.0.4,59.97086771091615,
7,“Will you marry me?” ,3,3,None,,,,,,0,7,7,7,,,,,0,26,26,26,,,,,,,,,,,,,,,,,,,,,,,,,,,,,,,,,,,9,0.6698476290039252,,,,,,,,,,,,,,,,,,,,,,,,,,,,062619_p1,001,2019_Jun_26_1728,body_behavioural,3.0.4,59.97086771091615,
7,"Lana had put her hand over her mouth and tears were streaming down her face, but finally, she said, “Yes!”",3,4,None,,,,,,0,7,7,7,,,,,0,27,27,27,,,,,,,,,,,,,,,,,,,,,,,,,,,,,,,,,,,1,2.5867676030029543,,,,,,,,,,,,,,,,,,,,,,,,,,,,062619_p1,001,2019_Jun_26_1728,body_behavioural,3.0.4,59.97086771091615,
7,"Aaron put the ring on her finger, and they hugged while the whole class applauded and cheered. ",3,4,None,,,,,,0,7,7,7,,,,,0,28,28,28,,,,,,,,,,,,,,,,,,,,,,,,,,,,,,,,,,,1,1.8204512049851473,,,,,,,,,,,,,,,,,,,,,,,,,,,,062619_p1,001,2019_Jun_26_1728,body_behavioural,3.0.4,59.97086771091615,
7,Their friends who had been secretly waiting outside came into the class and hugged both of them.,3,4,None,,,,,,0,7,7,7,,,,,0,29,29,29,,,,,,,,,,,,,,,,,,,,,,,,,,,,,,,,,,,1,3.636435280001024,,,,,,,,,,,,,,,,,,,,,,,,,,,,062619_p1,001,2019_Jun_26_1728,body_behavioural,3.0.4,59.97086771091615,
7,The professor gave Aaron a celebratory handshake.,3,4,None,,,,,,0,7,7,7,,,,,0,30,30,30,,,,,,,,,,,,,,,,,,,,,,,,,,,,,,,,,,,1,0.8864061870262958,,,,,,,,,,,,,,,,,,,,,,,,,,,,062619_p1,001,2019_Jun_26_1728,body_behavioural,3.0.4,59.97086771091615,
7,"They made their way back to their seats, and Lana pulled out her phone to text her sister",3,4,None,,,,,,0,7,7,7,,,,,0,31,31,31,,,,,,,,,,,,,,,,,,,,,,,,,,,,,,,,,,,1,1.8006054429861251,,,,,,,,,,,,,,,,,,,,,,,,,,,,062619_p1,001,2019_Jun_26_1728,body_behavioural,3.0.4,59.97086771091615,
7,"The professor dismissed the class, saying, “That was enough excitement for today!",4,4,None,,,,,,0,7,7,7,,,,,0,32,32,32,,,,,,,,,,,,,,,,,,,,,,,,,,,,,,,,,,,1,4.1699869820149615,,,,,,,,,,,,,,,,,,,,,,,,,,,,062619_p1,001,2019_Jun_26_1728,body_behavioural,3.0.4,59.97086771091615,
7,Don’t forget there’s a midterm exam next week on Monday on the material covered in the first 4 weeks of the semester.,4,4,None,,,,,,0,7,7,7,,,,,0,33,33,33,,,,,,,,,,,,,,,,,,,,,,,,,,,,,,,,,,,1,3.2192779269826133,,,,,,,,,,,,,,,,,,,,,,,,,,,,062619_p1,001,2019_Jun_26_1728,body_behavioural,3.0.4,59.97086771091615,
7,"As everyone was packing up their notebooks and leaving, Lana and Aaron were surrounded by their friends eager to get a glimpse of the ring and congratulate them. ",4,4,None,,,,,,0,7,7,7,,,,,0,34,34,34,,,,,,,,,,,,,,,,,,,,,,,,,,,,,,,,,,,9,3.8367593070142902,,,,,,,,,,,,,,,,,,,,,,,,,,,,062619_p1,001,2019_Jun_26_1728,body_behavioural,3.0.4,59.97086771091615,
7,,,,,,,,,,0,7,7,7,,,,,,,,,,,,,,,,,,,,,,,,,,,,,,,,,,,,,,,,,,,,,,,,,,,,,,,,,,,,,,,,,,,,,,,,062619_p1,001,2019_Jun_26_1728,body_behavioural,3.0.4,59.97086771091615,
,,,,,,,,,,,,,,,,,,,,,,,,,,,,,,,,,,,,,,,,,,,,,,,,,,,,,,,,,,1295.964234899002,space,1.3364544039941393,,,,,,,,,,,,,,,,,,,,,,,,,062619_p1,001,2019_Jun_26_1728,body_behavioural,3.0.4,59.97086771091615,
,,,,,,,,,"In this next part of the experiment, please recall each story to the best of your ability.",,,,,,,,,,,,,0,0,0,0,,,,,,,,,,,,,,,,,,,,,,,,,,,,,,,,,,,,space,2.6537968549819198,,,,,,,,,,,,,,,,,,,,,,,062619_p1,001,2019_Jun_26_1728,body_behavioural,3.0.4,59.97086771091615,
,,,,,,,,,"You will be presented with the story title, names, the images, and a blank text box for each story.",,,,,,,,,,,,,0,1,1,1,,,,,,,,,,,,,,,,,,,,,,,,,,,,,,,,,,,,space,8.202951479994226,,,,,,,,,,,,,,,,,,,,,,,062619_p1,001,2019_Jun_26_1728,body_behavioural,3.0.4,59.97086771091615,
,,,,,,,,,Describe the story indicated with as many details as you can remember in the space provided. ,,,,,,,,,,,,,0,2,2,2,,,,,,,,,,,,,,,,,,,,,,,,,,,,,,,,,,,,space,4.403172682010336,,,,,,,,,,,,,,,,,,,,,,,062619_p1,001,2019_Jun_26_1728,body_behavioural,3.0.4,59.97086771091615,
,,,,,,,,,"When you are finished recalling one story, to move onto the next one, press the ‘return’ key. ",,,,,,,,,,,,,0,3,3,3,,,,,,,,,,,,,,,,,,,,,,,,,,,,,,,,,,,,space,3.437126820994308,,,,,,,,,,,,,,,,,,,,,,,062619_p1,001,2019_Jun_26_1728,body_behavioural,3.0.4,59.97086771091615,
,,,,,,,,,There is a 5 minute time limit to make your response. ,,,,,,,,,,,,,0,4,4,4,,,,,,,,,,,,,,,,,,,,,,,,,,,,,,,,,,,,space,1.9028861180122476,,,,,,,,,,,,,,,,,,,,,,,062619_p1,001,2019_Jun_26_1728,body_behavioural,3.0.4,59.97086771091615,
,,,,,,,,,Please note that you will not be able to capitalize any letters except for the first letter of your answer. This will not effect the scoring of your recall answer.,,,,,,,,,,,,,0,5,5,5,,,,,,,,,,,,,,,,,,,,,,,,,,,,,,,,,,,,space,4.519993729976704,,,,,,,,,,,,,,,,,,,,,,,062619_p1,001,2019_Jun_26_1728,body_behavioural,3.0.4,59.97086771091615,
0,,,,,,,,,,,,,,,,,,,,,,,,,,0,0,0,0,,,,,,,,,,,,,,,,,,,,,,,,,,,,,,,,,,space,1.3361667419958394,"Anna and david met in the airport lobby - he was 3 hours early for his flight so sitting in the lobby reading a book on his laptop while she was only 35 min early for hers and stumbled in in disarray, bag only half-zipped and shoes untied. when she bent down to tie her shoes a luggage cart came barrelling toward her so david pushed her out of the way. he asked if she was a gymnast with that tumble and although she was she thought that deserved no points. he offered to help her get to her flight on time and so they went through security together. although there was a problem with the metal detector holding things up at security, they both went through just fine. he then grabbed her bag and helped her haul it to her gate which was at the end of the terminal. once there, she sat in her window seat and looked forward to her upcoming date with him, a tuesday dinner once they were both back in town.",,,,,,,,,,,,,,,,,,,,062619_p1,001,2019_Jun_26_1728,body_behavioural,3.0.4,59.97086771091615,
1,,,,,,,,,,,,,,,,,,,,,,,,,,0,1,1,1,,,,,,,,,,,,,,,,,,,,,,,,,,,,,,,,,,space,1.2173823600169271,"Senna and alvira had been dating for 5 years so senna decided to propose to alvira. they went to a very nice restaurant with an incredible view. the menus were small, in cursive, and boasting no prices, and alvira thought that this was much too fancy to celebrate her tomatoes, which is what she thought they were going out to celebrate. they ordered their food - senna thought his oysters actually tasted like the ocean - and he began to talk about how much he loved her. he had been to the bathroom shortly after entering the restaurant to double-check the ring and now felt that this was the right time. the waiter brought out a cake for dessert topped with the ring that had 3 canary diamonds that had been in senna's grandmother's wedding ring. as everyone in the restaurant looked on, alvira said yes to cheers and applause. through her tears, she sang that she must text her dad the good news.",,,,,,,,,,,,,,,,,,,,062619_p1,001,2019_Jun_26_1728,body_behavioural,3.0.4,59.97086771091615,
2,,,,,,,,,,,,,,,,,,,,,,,,,,0,2,2,2,,,,,,,,,,,,,,,,,,,,,,,,,,,,,,,,,,space,0.9865441349975299,,,,,,,,,,,,,,,,,,,,,062619_p1,001,2019_Jun_26_1728,body_behavioural,3.0.4,59.97086771091615,
3,,,,,,,,,,,,,,,,,,,,,,,,,,0,3,3,3,,,,,,,,,,,,,,,,,,,,,,,,,,,,,,,,,,space,0.26814446499338374,"Ms. bianchi and ms. morrison are potential business partners meeting in a grocery store to discuss their upcoming deal. the lobby is decorated with halloween decorations and pumpkins and the store overall is bustling, as evidenced by the busy checkout lines. the women discussed how they might make a deal. ms. bianchi wanted to ms. morrison to stock her gourmet italian cheeses at the stores and ms. morrison seemed interested in doing so. in the cheese section, they picked up a box of crackers and decided to try the new cheeses with the crackers together to really setlle this. ms. morrison also picked up some seltzer and a bottle of ketchup for later. they then went to the busy checkout section and waited in line, futher discussing business arrangements. ms. morrison scanned her items and paid her $23 by writing a check, to ms. bianchi's amusement. the two proceeded out of the grocery, popping a bottle of champagne to toast their new partnership.",,,,,,,,,,,,,,,,,,,,062619_p1,001,2019_Jun_26_1728,body_behavioural,3.0.4,59.97086771091615,
4,,,,,,,,,,,,,,,,,,,,,,,,,,0,4,4,4,,,,,,,,,,,,,,,,,,,,,,,,,,,,,,,,,,space,0.7865503249922767,"The two men met the previous night in line for the bathroom at a bar. they got to talking and realized that they were both in the wine business and agreed to meet up the next day at the airport because they both had flights. the initial offer was for a highly discounted price on 5 of the finest barrels of wine and this number was haggled until an agreement was reached through security. both seemed keen on not letting the competitor, yankee vines, beat them out. finally, the two settled on some numbers, shook hands, and parted ways to the respective flights, agreeing to put this on the books soon.",,,,,,,,,,,,,,,,,,,,062619_p1,001,2019_Jun_26_1728,body_behavioural,3.0.4,59.97086771091615,
5,,,,,,,,,,,,,,,,,,,,,,,,,,0,5,5,5,,,,,,,,,,,,,,,,,,,,,,,,,,,,,,,,,,space,2.8053426799888257,"Maria and henry had been dating for 3 years - since freshman year - but maria would be going abroad soon and didn't want to stay together during that time. she and henry entered the philosophy lecture hall together - today's topic, aristotle with an assessment coming up next week - and took neighboring seats. as the lecturer began, maria leaned over and explained that she wanted to break up because she needed her freedom and ability to be in the moment during her time abroad. although she didn't say so, she had been thinking about ending it for a week, and finally decided to do it now because her flight was leaving right after the lecture. henry was devastated, he said he didn't want to break up with her because he loved her, but that if this is really what she wanted, then it would be for the best. the two parted ways at the end of the lecture with tear-filled hugging. maria then requested that she have her alpaca sweater back from his dorm room and they agreed to meet outside the student center presently so he could return it on her way out of town.",,,,,,,,,,,,,,,,,,,,062619_p1,001,2019_Jun_26_1728,body_behavioural,3.0.4,59.97086771091615,
6,,,,,,,,,,,,,,,,,,,,,,,,,,0,6,6,6,,,,,,,,,,,,,,,,,,,,,,,,,,,,,,,,,,space,1.3715614899992943,"Simon and catarina met in a grocery store - they bumped into each other so hard that she dropped what she was holding. they then both immediately wanted to talk to each other but neither was really sure. carina then broke the silence by asking about how cute the cornish hen was and simon responded making a joke about it and the regular-sized chicken displayed nearby. the two then chatted for the rest of their grocery shopping - both were having barbeques so simon helped her pick out the best meat and sauces and she helped him pick out vegetables for kebobs. in the checkout lines, they laughed about the magazines for sale until their stomachs hurt. he then asked her out to dinner and she said yes. when they arrived at the front of the line, he removed the divider between their purchases and told the cashier that they were together, saying that this was kind of a date. though carina blushed, the cashier rolled her eyes behind their backs. carina and simon made plans to meet in harvard square for their next date to tour the neighborhod and eat. however, carina realized it was already 4colon30 and she had to go because she was late for her own bbq!",,,,,,,,,,,,,,,,,,,,062619_p1,001,2019_Jun_26_1728,body_behavioural,3.0.4,59.97086771091615,
7,,,,,,,,,,,,,,,,,,,,,,,,,,0,7,7,7,,,,,,,,,,,,,,,,,,,,,,,,,,,,,,,,,,space,64.55554539497825,"Aaron and lana had been dating since freshman year and aaron finally decided it was time to propose to lana in their intro to chemistry lecture because when they'd started dating they'd also shared a class in the same lecture hall - the fanciest at princeton, with tiered seats, high ceilings, chandeliers, and a projection screen where the chalkboards used to be. in the lecture, the students learned about ions and the fact that an element was defined by how many protons were in the nucleus while aaron check the ring in his pocket. it had 5 red stones embedded in the band because lana would like that more. according to aaron, her style was more avant-garde than traditional. the professor asked lana to come up to the front of the room to participate in a demonstration, at which point he turned the powerpoint to a collage of photos of the couple and aaron came up to propose. she said yes and everyone cheered. the class was dismissed as the professor reminded them of their upcoming midterm exam on monday.",,,,,,,,,,,,,,,,,,,,062619_p1,001,2019_Jun_26_1728,body_behavioural,3.0.4,59.97086771091615,
,,,,,,,,,,,,,,,,,,,,,,,,,,,,,,,,,,,,,,,,,,,,,,,,,,,,,,,,,,,,,,,,,,3201.9803737720067,space,0.7051658749987837,,,,,,,,,,,,,,,,,062619_p1,001,2019_Jun_26_1728,body_behavioural,3.0.4,59.97086771091615,
,,,,,,,,,"In this last part of the experiment, please answer 8 questions about each story.",,,,,,,,,,,,,,,,,,,,,0,0,0,0,,,,,,,,,,,,,,,,,,,,,,,,,,,,,,,,,,,,space,2.9220667449990287,,,,,,,,,,,,,,,062619_p1,001,2019_Jun_26_1728,body_behavioural,3.0.4,59.97086771091615,
,,,,,,,,,Some of the questions are not related to the perspective you were asked to assume.,,,,,,,,,,,,,,,,,,,,,0,1,1,1,,,,,,,,,,,,,,,,,,,,,,,,,,,,,,,,,,,,space,1.3392679399985354,,,,,,,,,,,,,,,062619_p1,001,2019_Jun_26_1728,body_behavioural,3.0.4,59.97086771091615,
,,,,,,,,,"We realize that we did not tell you to think of these questions during the story, but please do your best to answer them.",,,,,,,,,,,,,,,,,,,,,0,2,2,2,,,,,,,,,,,,,,,,,,,,,,,,,,,,,,,,,,,,space,2.2718148150015622,,,,,,,,,,,,,,,062619_p1,001,2019_Jun_26_1728,body_behavioural,3.0.4,59.97086771091615,
,,,,,,,,,"When you have finished typing your answer, hit ‘return’ to submit your answer and move onto the next question. ",,,,,,,,,,,,,,,,,,,,,0,3,3,3,,,,,,,,,,,,,,,,,,,,,,,,,,,,,,,,,,,,space,1.121570065006381,,,,,,,,,,,,,,,062619_p1,001,2019_Jun_26_1728,body_behavioural,3.0.4,59.97086771091615,
0,,,,,,,,,,,,,,,,,,,,,,,,,,,,,,,,,,0,0,0,0,,,,,,,,,,,,,,,,,,,,,,,,,,,,Section g and the window seat,,,,,,space,1.555379305005772,Laptop,non-primed first,Are you a gymnast,Dinner when they return ,Five minutes before her flight,"3 hours and 35 min, respectively",Metal detector malfunction,The last one in terminal j,Section g and the window seat,,,,062619_p1,001,2019_Jun_26_1728,body_behavioural,3.0.4,59.97086771091615,
1,,,,,,,,,,,,,,,,,,,,,,,,,,,,,,,,,,0,1,1,1,,,,,,,,,,,,,,,,,,,,,,,,,,,,Dad,,,,,,space,1.6886328799882904,It's very fancy with white tablecloths and a gorgeous view,non-primed first,"Small, few options, all written in loopy cursive, no prices listed","Oysters and scallops, respectively","Very much so! the oysters, for example, tasted like the ocean",5,"3, canary",Cake,Dad,,,,062619_p1,001,2019_Jun_26_1728,body_behavioural,3.0.4,59.97086771091615,
2,,,,,,,,,,,,,,,,,,,,,,,,,,,,,,,,,,0,2,2,2,,,,,,,,,,,,,,,,,,,,,,,,,,,,She wants her polaroid camera and a poster back,,,,,,space,1.138079230004223,In the style of a '70,primed first,They are laminated posters with fun names for all of the foods,A burger with no tomatoes and a reuben respectively,She doesn't eat hers and he thinks his is dry and fishy,Awhile,He needs to focus more on his career,She doesn't want to break up because she really cares about him and offers that they spend less time together so he can focus on his job,She wants her polaroid camera and a poster back,,,,062619_p1,001,2019_Jun_26_1728,body_behavioural,3.0.4,59.97086771091615,
3,,,,,,,,,,,,,,,,,,,,,,,,,,,,,,,,,,0,3,3,3,,,,,,,,,,,,,,,,,,,,,,,,,,,,$23 paid by check,,,,,,space,1.0688501929980703,Ms. bianchi is a saleswoman of in this case italian cheeses and ms. morrison is a supplier of foods to grocers in america,non-primed first,$1500,Orange grocers,Ms. morrison buys the crackers that they will share to try the cheese with and then they pop a bottle of champagne,Filled with halloween decorations and pumpkins,"A box of crackers from the cheese section, a bottle of seltzer, and a bottle of ketchup",10 and they step into lane 6,$23 paid by check,,,,062619_p1,001,2019_Jun_26_1728,body_behavioural,3.0.4,59.97086771091615,
4,,,,,,,,,,,,,,,,,,,,,,,,,,,,,,,,,,0,4,4,4,,,,,,,,,,,,,,,,,,,,,,,,,,,,Section g,,,,,,space,0.8355774839874357,They are both in the wine business,primed first,$800,Yankee vines,Handshake,2 hours,Bringing in a new cart of bins,Not sure,Section g,,,,062619_p1,001,2019_Jun_26_1728,body_behavioural,3.0.4,59.97086771091615,
