count,storyText,locationEvent,socialEvent,story,locationEventSize,socialEventSize,socialAnswer,locationAnswer,instructText,trials.thisRepN,trials.thisTrialN,trials.thisN,trials.thisIndex,trials_7.thisRepN,trials_7.thisTrialN,trials_7.thisN,trials_7.thisIndex,trials_2.thisRepN,trials_2.thisTrialN,trials_2.thisN,trials_2.thisIndex,trials_3.thisRepN,trials_3.thisTrialN,trials_3.thisN,trials_3.thisIndex,trials_4.thisRepN,trials_4.thisTrialN,trials_4.thisN,trials_4.thisIndex,trials_5.thisRepN,trials_5.thisTrialN,trials_5.thisN,trials_5.thisIndex,trials_6.thisRepN,trials_6.thisTrialN,trials_6.thisN,trials_6.thisIndex,order of stories,order of perspectives,participant 2 order - stories,participant 2 order  - schemas types,key_resp_8.keys,key_resp_8.rt,key_resp_5.keys,key_resp_5.rt,key_resp_7.keys,key_resp_7.rt,key_resp_15.keys,key_resp_15.rt,key_resp_14.keys,key_resp_14.rt,story_presses.keys,story_presses.rt,story time,key_resp_6.keys,key_resp_6.rt,key_resp_2.keys,key_resp_2.rt,key_resp_10.keys,key_resp_10.rt,recall,recall time,key_resp_12.keys,key_resp_12.rt,key_resp_3.keys,key_resp_3.rt,key_resp_11.keys,key_resp_11.rt,question1_answer,order of question,question2_answer,question3_answer,participant,session,date,expName,psychopyVersion,frameRate,
0,,,,,,,,,,0,0,0,0,0,0,0,0,,,,,,,,,,,,,,,,,,,,,[14 11 42 22 23 43 31 34 12 33 44 21 41 32 13 24],"['Social' 'Location' 'Social' 'Location' 'Social' 'Location' 'Social'
 'Location' 'Social' 'Social' 'Social' 'Social' 'Location' 'Location'
 'Location' 'Location']",[12 33 44 21 41 32 13 24],"['Social' 'Social' 'Social' 'Social' 'Location' 'Location' 'Location'
 'Location']",space,30.67297222703928,space,1.6698937480105087,space,20.785488563007675,,,,,,,,,,,,,,,,,,,,,,,,,,070219_p3,001,2019_Jul_02_1332,body_behavioural,3.0.4,59.948993116977924,
0,"Henry walked into lecture with Maria, who was mentally rehearsing what she should say to break up with him.",1,1,14.0,,,,,,0,0,0,0,,,,,0,0,0,0,,,,,,,,,,,,,,,,,,,,,,,,,,,space,2.853259935043752,space,2.603825466998387,1,25.488144124974497,,,,,,,,,,,,,,,,,,,,070219_p3,001,2019_Jul_02_1332,body_behavioural,3.0.4,59.948993116977924,
0,She had been putting it off with a growing sense of dread as she had been since she started to think about it a week ago.,1,1,None,,,,,,0,0,0,0,,,,,0,1,1,1,,,,,,,,,,,,,,,,,,,,,,,,,,,,,,,1,13.520970354962628,,,,,,,,,,,,,,,,,,,,070219_p3,001,2019_Jul_02_1332,body_behavioural,3.0.4,59.948993116977924,
0,Now this lecture was the last chance to do it. ,1,1,None,,,,,,0,0,0,0,,,,,0,2,2,2,,,,,,,,,,,,,,,,,,,,,,,,,,,,,,,1,5.287398452986963,,,,,,,,,,,,,,,,,,,,070219_p3,001,2019_Jul_02_1332,body_behavioural,3.0.4,59.948993116977924,
0,"The lecture hall was large, with a stage for the lecturer in the front of the room, and 15 tiered rows of desks. ",1,1,None,,,,,,0,0,0,0,,,,,0,3,3,3,,,,,,,,,,,,,,,,,,,,,,,,,,,,,,,9,14.153127849975135,,,,,,,,,,,,,,,,,,,,070219_p3,001,2019_Jul_02_1332,body_behavioural,3.0.4,59.948993116977924,
0,Maria and Henry slid into neighboring seats near the back of the room.,1,1,None,,,,,,0,0,0,0,,,,,0,4,4,4,,,,,,,,,,,,,,,,,,,,,,,,,,,,,,,9,5.186292091966607,,,,,,,,,,,,,,,,,,,,070219_p3,001,2019_Jul_02_1332,body_behavioural,3.0.4,59.948993116977924,
0,"The professor opened up the lecture with a hardy greeting, “Good afternoon, everybody.”",2,1,None,,,,,,0,0,0,0,,,,,0,5,5,5,,,,,,,,,,,,,,,,,,,,,,,,,,,,,,,1,15.087165882985573,,,,,,,,,,,,,,,,,,,,070219_p3,001,2019_Jul_02_1332,body_behavioural,3.0.4,59.948993116977924,
0,"As he fiddled with the cords to connect his laptop to the projector, he continued to say, “Welcome to Week 4 of Intro to Ancient Philosophy. ",2,1,None,,,,,,0,0,0,0,,,,,0,6,6,6,,,,,,,,,,,,,,,,,,,,,,,,,,,,,,,1,13.953535857028328,,,,,,,,,,,,,,,,,,,,070219_p3,001,2019_Jul_02_1332,body_behavioural,3.0.4,59.948993116977924,
0,Today we are going to continue our lecture on Aristotelian Philosophy.”,2,1,None,,,,,,0,0,0,0,,,,,0,7,7,7,,,,,,,,,,,,,,,,,,,,,,,,,,,,,,,1,4.98659448500257,,,,,,,,,,,,,,,,,,,,070219_p3,001,2019_Jul_02_1332,body_behavioural,3.0.4,59.948993116977924,
0,Mostly everyone in class was taking notes.,2,1,None,,,,,,0,0,0,0,,,,,0,8,8,8,,,,,,,,,,,,,,,,,,,,,,,,,,,,,,,1,4.370805577957071,,,,,,,,,,,,,,,,,,,,070219_p3,001,2019_Jul_02_1332,body_behavioural,3.0.4,59.948993116977924,
0,"Maria took a deep breath, decided to rip off the bandaid, and leaning into Henry’s desk, said, “Henry, I think we should- I think we should break up because I don’t think I can do long distance.",2,2,None,,,,,,0,0,0,0,,,,,0,9,9,9,,,,,,,,,,,,,,,,,,,,,,,,,,,,,,,9,16.071454114979133,,,,,,,,,,,,,,,,,,,,070219_p3,001,2019_Jul_02_1332,body_behavioural,3.0.4,59.948993116977924,
0,"I think what we have here is great, but I think it will be really hard when we are so far apart for so long during my study abroad.",2,2,None,,,,,,0,0,0,0,,,,,0,10,10,10,,,,,,,,,,,,,,,,,,,,,,,,,,,,,,,1,5.552497387980111,,,,,,,,,,,,,,,,,,,,070219_p3,001,2019_Jul_02_1332,body_behavioural,3.0.4,59.948993116977924,
0,"I’m sorry I’m telling you now in lecture, but you know, I have to leave for the airport after class and this is really hard for me to tell you.",2,2,None,,,,,,0,0,0,0,,,,,0,11,11,11,,,,,,,,,,,,,,,,,,,,,,,,,,,,,,,1,7.768573893001303,,,,,,,,,,,,,,,,,,,,070219_p3,001,2019_Jul_02_1332,body_behavioural,3.0.4,59.948993116977924,
0,"I just know when I’m there I’m going to be so busy, and I really want to be immersed in the life of the place I’m in.”",2,2,None,,,,,,0,0,0,0,,,,,0,12,12,12,,,,,,,,,,,,,,,,,,,,,,,,,,,,,,,1,7.838125440001022,,,,,,,,,,,,,,,,,,,,070219_p3,001,2019_Jul_02_1332,body_behavioural,3.0.4,59.948993116977924,
0,"The professor said, “We will now talk about one of Aristotle’s works, The Categories.",3,2,None,,,,,,0,0,0,0,,,,,0,13,13,13,,,,,,,,,,,,,,,,,,,,,,,,,,,,,,,9,3.569839371019043,,,,,,,,,,,,,,,,,,,,070219_p3,001,2019_Jul_02_1332,body_behavioural,3.0.4,59.948993116977924,
0,"This text, as you might have been able to guess, is about the kinds, or categories, of things that there are.",3,2,None,,,,,,0,0,0,0,,,,,0,14,14,14,,,,,,,,,,,,,,,,,,,,,,,,,,,,,,,1,4.4193013070034795,,,,,,,,,,,,,,,,,,,,070219_p3,001,2019_Jul_02_1332,body_behavioural,3.0.4,59.948993116977924,
0,"In fact, our term category comes from this Aristotelian context.",3,2,None,,,,,,0,0,0,0,,,,,0,15,15,15,,,,,,,,,,,,,,,,,,,,,,,,,,,,,,,1,12.720781494979747,,,,,,,,,,,,,,,,,,,,070219_p3,001,2019_Jul_02_1332,body_behavioural,3.0.4,59.948993116977924,
0,"The Categories, traditionally interpreted as an introduction to Aristotle’s logical work, divides all of  being into ten categories.” ",3,2,None,,,,,,0,0,0,0,,,,,0,16,16,16,,,,,,,,,,,,,,,,,,,,,,,,,,,,,,,1,27.78563822695287,,,,,,,,,,,,,,,,,,,,070219_p3,001,2019_Jul_02_1332,body_behavioural,3.0.4,59.948993116977924,
0,"Henry felt horrible, like the wind had just been knocked out of him and he whispered back, “Maria, I don’t want to break up with you because I love you.",3,3,None,,,,,,0,0,0,0,,,,,0,17,17,17,,,,,,,,,,,,,,,,,,,,,,,,,,,,,,,9,6.8868234229739755,,,,,,,,,,,,,,,,,,,,070219_p3,001,2019_Jul_02_1332,body_behavioural,3.0.4,59.948993116977924,
0,"I’ll come visit you, and it will be fine.",3,3,None,,,,,,0,0,0,0,,,,,0,18,18,18,,,,,,,,,,,,,,,,,,,,,,,,,,,,,,,1,1.6700296750059351,,,,,,,,,,,,,,,,,,,,070219_p3,001,2019_Jul_02_1332,body_behavioural,3.0.4,59.948993116977924,
0,I don’t want to break up.”,3,3,None,,,,,,0,0,0,0,,,,,0,19,19,19,,,,,,,,,,,,,,,,,,,,,,,,,,,,,,,1,0.9861206010100432,,,,,,,,,,,,,,,,,,,,070219_p3,001,2019_Jul_02_1332,body_behavioural,3.0.4,59.948993116977924,
0,"Maria felt so guilty that she nearly gave in, but she forced herself to hold her ground, knowing that this would make things much easier for both of them in the future.",3,3,None,,,,,,0,0,0,0,,,,,0,20,20,20,,,,,,,,,,,,,,,,,,,,,,,,,,,,,,,1,6.870178769982886,,,,,,,,,,,,,,,,,,,,070219_p3,001,2019_Jul_02_1332,body_behavioural,3.0.4,59.948993116977924,
0,She gave his hand a squeeze but shook her head sadly before turning back to look at her empty desk. ,3,3,None,,,,,,0,0,0,0,,,,,0,21,21,21,,,,,,,,,,,,,,,,,,,,,,,,,,,,,,,1,11.603929549979512,,,,,,,,,,,,,,,,,,,,070219_p3,001,2019_Jul_02_1332,body_behavioural,3.0.4,59.948993116977924,
0,"The professor wrapped up, “Alright, class, that’s all for today.",4,3,None,,,,,,0,0,0,0,,,,,0,22,22,22,,,,,,,,,,,,,,,,,,,,,,,,,,,,,,,9,4.319806150975637,,,,,,,,,,,,,,,,,,,,070219_p3,001,2019_Jul_02_1332,body_behavioural,3.0.4,59.948993116977924,
0,"Remember the final exam is coming up next week on Tuesday on the Pre-Socratics, Plato, and Aristotle, so feel free to come by office hours to discuss if you have the inspiration.",4,3,None,,,,,,0,0,0,0,,,,,0,23,23,23,,,,,,,,,,,,,,,,,,,,,,,,,,,,,,,1,24.85573397797998,,,,,,,,,,,,,,,,,,,,070219_p3,001,2019_Jul_02_1332,body_behavioural,3.0.4,59.948993116977924,
0,"If anyone has any conflicts with another exam, please email me so that we can figure out a time to reschedule it. ",4,3,None,,,,,,0,0,0,0,,,,,0,24,24,24,,,,,,,,,,,,,,,,,,,,,,,,,,,,,,,1,3.721074820961803,,,,,,,,,,,,,,,,,,,,070219_p3,001,2019_Jul_02_1332,body_behavioural,3.0.4,59.948993116977924,
0,"Have a good day, folks.” ",4,3,None,,,,,,0,0,0,0,,,,,0,25,25,25,,,,,,,,,,,,,,,,,,,,,,,,,,,,,,,1,2.1365741079789586,,,,,,,,,,,,,,,,,,,,070219_p3,001,2019_Jul_02_1332,body_behavioural,3.0.4,59.948993116977924,
0,"Maria and Henry packed up hurriedly, and they hugged; both of them had tears. ",4,4,None,,,,,,0,0,0,0,,,,,0,26,26,26,,,,,,,,,,,,,,,,,,,,,,,,,,,,,,,1,4.987358677957673,,,,,,,,,,,,,,,,,,,,070219_p3,001,2019_Jul_02_1332,body_behavioural,3.0.4,59.948993116977924,
0,"“Maria, I don’t want you to leave.",4,4,None,,,,,,0,0,0,0,,,,,0,27,27,27,,,,,,,,,,,,,,,,,,,,,,,,,,,,,,,9,2.8532020099810325,,,,,,,,,,,,,,,,,,,,070219_p3,001,2019_Jul_02_1332,body_behavioural,3.0.4,59.948993116977924,
0,I don’t want this to end. ,4,4,None,,,,,,0,0,0,0,,,,,0,28,28,28,,,,,,,,,,,,,,,,,,,,,,,,,,,,,,,1,3.970358769991435,,,,,,,,,,,,,,,,,,,,070219_p3,001,2019_Jul_02_1332,body_behavioural,3.0.4,59.948993116977924,
0,"But if this is what you think is best, I can’t make it otherwise.” ",4,4,None,,,,,,0,0,0,0,,,,,0,29,29,29,,,,,,,,,,,,,,,,,,,,,,,,,,,,,,,1,2.687012370035518,,,,,,,,,,,,,,,,,,,,070219_p3,001,2019_Jul_02_1332,body_behavioural,3.0.4,59.948993116977924,
0,"They hugged one last time, and then Maria remembered she had left her favorite Alpaca sweater in Henry’s room.",4,4,None,,,,,,0,0,0,0,,,,,0,30,30,30,,,,,,,,,,,,,,,,,,,,,,,,,,,,,,,1,11.003760477004107,,,,,,,,,,,,,,,,,,,,070219_p3,001,2019_Jul_02_1332,body_behavioural,3.0.4,59.948993116977924,
0,"“Henry, I’m so sorry to ask this now but could you grab my alpaca sweater from your dorm and meet me in front of the student center?”",4,4,None,,,,,,0,0,0,0,,,,,0,31,31,31,,,,,,,,,,,,,,,,,,,,,,,,,,,,,,,1,8.02071288699517,,,,,,,,,,,,,,,,,,,,070219_p3,001,2019_Jul_02_1332,body_behavioural,3.0.4,59.948993116977924,
0,"He agreed, and she ran off to get her things from her dorm as he sadly watched her go. ",4,4,None,,,,,,0,0,0,0,,,,,0,32,32,32,,,,,,,,,,,,,,,,,,,,,,,,,,,,,,,1,6.187426850025076,,,,,,,,,,,,,,,,,,,,070219_p3,001,2019_Jul_02_1332,body_behavioural,3.0.4,59.948993116977924,
0,,,,,,,,,,0,0,0,0,,,,,,,,,,,,,,,,,,,,,,,,,,,,,,,,,,,,,,,,,,,,,,,,,,,,,,,,,,,,070219_p3,001,2019_Jul_02_1332,body_behavioural,3.0.4,59.948993116977924,
1,,,,,,,,,,0,1,1,1,0,0,0,0,,,,,,,,,,,,,,,,,,,,,,,,,space,3.920565734966658,space,1.5870928000076674,space,2.1189263449632563,,,,,,,,,,,,,,,,,,,,,,,,,,070219_p3,001,2019_Jul_02_1332,body_behavioural,3.0.4,59.948993116977924,
1,"Thomas, dreading the approaching breakup conversation he was about to start, got to Annika’s Finer Diner late but Sadie, his girlfriend, was not there yet.",1,1,11.0,None,None,None,None,,0,1,1,1,,,,,0,0,0,0,,,,,,,,,,,,,,,,,,,,,,,,,,,space,19.643866361991968,space,1.3340842380421236,1,25.20243876997847,,,,,,,,,,,,,,,,,,,,070219_p3,001,2019_Jul_02_1332,body_behavioural,3.0.4,59.948993116977924,
1,Thomas had been thinking about breaking up with her for 2 months now.,1,1,None,None,None,1.0,None,,0,1,1,1,,,,,0,1,1,1,,,,,,,,,,,,,,,,,,,,,,,,,,,,,,,1,6.087390510016121,,,,,,,,,,,,,,,,,,,,070219_p3,001,2019_Jul_02_1332,body_behavioural,3.0.4,59.948993116977924,
1,"The restaurant he had chosen to meet at was reminiscent of a diner from the 70’s with black and white checkerboard tiling on the floor, a long bar in the front, and booths and stools with red, leather upholstery. ",1,1,None,None,None,None,1.0,,0,1,1,1,,,,,0,2,2,2,,,,,,,,,,,,,,,,,,,,,,,,,,,,,,,1,27.45487921498716,,,,,,,,,,,,,,,,,,,,070219_p3,001,2019_Jul_02_1332,body_behavioural,3.0.4,59.948993116977924,
1,"A bell chimed as the door swung open, and Sadie entered to find Thomas ruminating at the bar.",1,1,None,None,None,None,None,,0,1,1,1,,,,,0,3,3,3,,,,,,,,,,,,,,,,,,,,,,,,,,,,,,,9,5.4863927970291115,,,,,,,,,,,,,,,,,,,,070219_p3,001,2019_Jul_02_1332,body_behavioural,3.0.4,59.948993116977924,
1,"He stood up and gave her a side hug, asking quickly, “How was your day?”",1,1,None,None,None,None,None,,0,1,1,1,,,,,0,4,4,4,,,,,,,,,,,,,,,,,,,,,,,,,,,,,,,1,2.4533862380194478,,,,,,,,,,,,,,,,,,,,070219_p3,001,2019_Jul_02_1332,body_behavioural,3.0.4,59.948993116977924,
1,"She clung onto him, “It was okay- I missed you today.”",1,1,None,None,None,None,None,,0,1,1,1,,,,,0,5,5,5,,,,,,,,,,,,,,,,,,,,,,,,,,,,,,,1,1.3871482380200177,,,,,,,,,,,,,,,,,,,,070219_p3,001,2019_Jul_02_1332,body_behavioural,3.0.4,59.948993116977924,
1,"He looked away and addressed the hostess coming towards them, “Can we have a booth in the back?”",1,1,None,None,None,None,None,,0,1,1,1,,,,,0,6,6,6,,,,,,,,,,,,,,,,,,,,,,,,,,,,,,,1,12.835371882014442,,,,,,,,,,,,,,,,,,,,070219_p3,001,2019_Jul_02_1332,body_behavioural,3.0.4,59.948993116977924,
1,"She shrugged and after loudly popping her bubblegum replied, “Sure, honey.”",1,1,None,9.0,None,None,None,,0,1,1,1,,,,,0,7,7,7,,,,,,,,,,,,,,,,,,,,,,,,,,,,,,,1,8.153172943973914,,,,,,,,,,,,,,,,,,,,070219_p3,001,2019_Jul_02_1332,body_behavioural,3.0.4,59.948993116977924,
1,She seated them at a booth in the back corner of the diner.  ,2,1,None,None,None,None,None,,0,1,1,1,,,,,0,8,8,8,,,,,,,,,,,,,,,,,,,,,,,,,,,,,,,1,2.069310855004005,,,,,,,,,,,,,,,,,,,,070219_p3,001,2019_Jul_02_1332,body_behavioural,3.0.4,59.948993116977924,
1,Sadie slipped into the cushioned seat and grabbed Thomas’ hand.,2,1,None,None,None,None,None,,0,1,1,1,,,,,0,9,9,9,,,,,,,,,,,,,,,,,,,,,,,,,,,,,,,1,5.786699325020891,,,,,,,,,,,,,,,,,,,,070219_p3,001,2019_Jul_02_1332,body_behavioural,3.0.4,59.948993116977924,
1,“Tell me about your day!” she sang.,2,1,None,None,None,None,None,,0,1,1,1,,,,,0,10,10,10,,,,,,,,,,,,,,,,,,,,,,,,,,,,,,,1,2.686641625012271,,,,,,,,,,,,,,,,,,,,070219_p3,001,2019_Jul_02_1332,body_behavioural,3.0.4,59.948993116977924,
1,He looked at her silently and pulled his hand slowly from hers as a puzzled look grew on Sadie’s face. ,2,1,None,None,None,None,None,,0,1,1,1,,,,,0,11,11,11,,,,,,,,,,,,,,,,,,,,,,,,,,,,,,,1,5.253125342016574,,,,,,,,,,,,,,,,,,,,070219_p3,001,2019_Jul_02_1332,body_behavioural,3.0.4,59.948993116977924,
1,Thomas looked away and took a deep breath. ,2,1,None,None,None,None,None,,0,1,1,1,,,,,0,12,12,12,,,,,,,,,,,,,,,,,,,,,,,,,,,,,,,1,4.919999570003711,,,,,,,,,,,,,,,,,,,,070219_p3,001,2019_Jul_02_1332,body_behavioural,3.0.4,59.948993116977924,
1,"Sadie asked, “What’s wrong?” ",2,1,None,None,None,None,None,,0,1,1,1,,,,,0,13,13,13,,,,,,,,,,,,,,,,,,,,,,,,,,,,,,,1,10.186698304023594,,,,,,,,,,,,,,,,,,,,070219_p3,001,2019_Jul_02_1332,body_behavioural,3.0.4,59.948993116977924,
1,Thomas picked at his fingernails.,2,1,None,None,22.0,None,None,,0,1,1,1,,,,,0,14,14,14,,,,,,,,,,,,,,,,,,,,,,,,,,,,,,,1,3.2197708349558525,,,,,,,,,,,,,,,,,,,,070219_p3,001,2019_Jul_02_1332,body_behavioural,3.0.4,59.948993116977924,
1,"After a few moments, Thomas let out a deep breath and said, “Sadie, I’ve been thinking, and I need a break from this relationship because I need to figure out my career path on my own.”",2,2,None,None,None,None,None,,0,1,1,1,,,,,0,15,15,15,,,,,,,,,,,,,,,,,,,,,,,,,,,,,,,9,6.486856558010913,,,,,,,,,,,,,,,,,,,,070219_p3,001,2019_Jul_02_1332,body_behavioural,3.0.4,59.948993116977924,
1,Sadie sat back in her seat.,2,2,None,None,None,None,None,,0,1,1,1,,,,,0,16,16,16,,,,,,,,,,,,,,,,,,,,,,,,,,,,,,,1,2.2031819699914195,,,,,,,,,,,,,,,,,,,,070219_p3,001,2019_Jul_02_1332,body_behavioural,3.0.4,59.948993116977924,
1,"Thomas continued, “Things have been really picking up at work, and I’m not sure that this is the job I want to do anymore.",2,2,None,None,None,None,None,,0,1,1,1,,,,,0,17,17,17,,,,,,,,,,,,,,,,,,,,,,,,,,,,,,,1,5.517636635049712,,,,,,,,,,,,,,,,,,,,070219_p3,001,2019_Jul_02_1332,body_behavioural,3.0.4,59.948993116977924,
1,"Plus, it’s been really overwhelming between working and figuring out if I should change careers, and I really feel like I need more time to figure it out.” ",2,2,None,17.0,None,None,None,,0,1,1,1,,,,,0,18,18,18,,,,,,,,,,,,,,,,,,,,,,,,,,,,,,,1,7.334536477981601,,,,,,,,,,,,,,,,,,,,070219_p3,001,2019_Jul_02_1332,body_behavioural,3.0.4,59.948993116977924,
1,"The waiter appeared and cheerily asked, “Have you decided what you would like?”",3,2,None,None,None,None,None,,0,1,1,1,,,,,0,19,19,19,,,,,,,,,,,,,,,,,,,,,,,,,,,,,,,9,6.403352238005027,,,,,,,,,,,,,,,,,,,,070219_p3,001,2019_Jul_02_1332,body_behavioural,3.0.4,59.948993116977924,
1,"Thomas and Sadie realized there were menus on the table, and they glanced at them quickly.",3,2,None,None,None,None,None,,0,1,1,1,,,,,0,20,20,20,,,,,,,,,,,,,,,,,,,,,,,,,,,,,,,1,3.5866648929659277,,,,,,,,,,,,,,,,,,,,070219_p3,001,2019_Jul_02_1332,body_behavioural,3.0.4,59.948993116977924,
1,"The menus were laminated posters with silly names for all the foods, and since they didn’t want to read through each item description, they settled on familiar orders.",3,2,None,None,None,None,None,,0,1,1,1,,,,,0,21,21,21,,,,,,,,,,,,,,,,,,,,,,,,,,,,,,,1,8.26834512699861,,,,,,,,,,,,,,,,,,,,070219_p3,001,2019_Jul_02_1332,body_behavioural,3.0.4,59.948993116977924,
1,"“I’ll have a burger, no tomatoes,” Thomas said.",3,2,None,None,None,None,None,,0,1,1,1,,,,,0,22,22,22,,,,,,,,,,,,,,,,,,,,,,,,,,,,,,,1,2.568759740970563,,,,,,,,,,,,,,,,,,,,070219_p3,001,2019_Jul_02_1332,body_behavioural,3.0.4,59.948993116977924,
1,"Sadie asked about the reuben, and the waiter told her it was excellent.",3,2,None,None,None,None,None,,0,1,1,1,,,,,0,23,23,23,,,,,,,,,,,,,,,,,,,,,,,,,,,,,,,1,8.58743441302795,,,,,,,,,,,,,,,,,,,,070219_p3,001,2019_Jul_02_1332,body_behavioural,3.0.4,59.948993116977924,
1,"Confirming that that was all they’d like, the waiter walked away. ",3,2,None,None,None,None,None,,0,1,1,1,,,,,0,24,24,24,,,,,,,,,,,,,,,,,,,,,,,,,,,,,,,1,3.8529731140006334,,,,,,,,,,,,,,,,,,,,070219_p3,001,2019_Jul_02_1332,body_behavioural,3.0.4,59.948993116977924,
1,Sadie- not so quietly- burst into tears. ,3,3,None,None,None,None,None,,0,1,1,1,,,,,0,25,25,25,,,,,,,,,,,,,,,,,,,,,,,,,,,,,,,9,2.086924090050161,,,,,,,,,,,,,,,,,,,,070219_p3,001,2019_Jul_02_1332,body_behavioural,3.0.4,59.948993116977924,
1,People sitting at the bar looked over and quickly averted their gaze when they figured what was happening. ,3,3,None,None,None,None,None,,0,1,1,1,,,,,0,26,26,26,,,,,,,,,,,,,,,,,,,,,,,,,,,,,,,1,7.736416406987701,,,,,,,,,,,,,,,,,,,,070219_p3,001,2019_Jul_02_1332,body_behavioural,3.0.4,59.948993116977924,
1,"She whispered, “Is this really what you want?",3,3,None,None,None,None,None,,0,1,1,1,,,,,0,27,27,27,,,,,,,,,,,,,,,,,,,,,,,,,,,,,,,1,1.6370459079626016,,,,,,,,,,,,,,,,,,,,070219_p3,001,2019_Jul_02_1332,body_behavioural,3.0.4,59.948993116977924,
1,"I don’t understand- things were fine, I thought. ",3,3,None,None,None,None,None,,0,1,1,1,,,,,0,28,28,28,,,,,,,,,,,,,,,,,,,,,,,,,,,,,,,1,1.5528671289794147,,,,,,,,,,,,,,,,,,,,070219_p3,001,2019_Jul_02_1332,body_behavioural,3.0.4,59.948993116977924,
1,I think we should stay together because we can change how much we hang out. ,3,3,None,None,None,None,None,,0,1,1,1,,,,,0,29,29,29,,,,,,,,,,,,,,,,,,,,,,,,,,,,,,,1,6.003353675012477,,,,,,,,,,,,,,,,,,,,070219_p3,001,2019_Jul_02_1332,body_behavioural,3.0.4,59.948993116977924,
1,"We don’t have to hang out all the time, or as much as we do now.”",3,3,None,None,None,None,None,,0,1,1,1,,,,,0,30,30,30,,,,,,,,,,,,,,,,,,,,,,,,,,,,,,,1,3.985976310039405,,,,,,,,,,,,,,,,,,,,070219_p3,001,2019_Jul_02_1332,body_behavioural,3.0.4,59.948993116977924,
1,Thomas chewed on his bottom lip and picked at his now bleeding hangnail. ,3,3,None,20.0,None,None,None,,0,1,1,1,,,,,0,31,31,31,,,,,,,,,,,,,,,,,,,,,,,,,,,,,,,1,9.63652188499691,,,,,,,,,,,,,,,,,,,,070219_p3,001,2019_Jul_02_1332,body_behavioural,3.0.4,59.948993116977924,
1,The waiter appeared with the burger and reuben and set them in front of them.,4,3,None,None,None,None,None,,0,1,1,1,,,,,0,32,32,32,,,,,,,,,,,,,,,,,,,,,,,,,,,,,,,9,4.3032782500376925,,,,,,,,,,,,,,,,,,,,070219_p3,001,2019_Jul_02_1332,body_behavioural,3.0.4,59.948993116977924,
1,“Is there anything else I can get for you two?,4,3,None,None,None,None,None,,0,1,1,1,,,,,0,33,33,33,,,,,,,,,,,,,,,,,,,,,,,,,,,,,,,1,1.703815974004101,,,,,,,,,,,,,,,,,,,,070219_p3,001,2019_Jul_02_1332,body_behavioural,3.0.4,59.948993116977924,
1,Will you be getting dessert tonight?” he asked.,4,3,None,None,None,None,None,,0,1,1,1,,,,,0,34,34,34,,,,,,,,,,,,,,,,,,,,,,,,,,,,,,,1,5.4200570049579255,,,,,,,,,,,,,,,,,,,,070219_p3,001,2019_Jul_02_1332,body_behavioural,3.0.4,59.948993116977924,
1,"“Oh no, we’re good, thanks,” Thomas said blankly.",4,3,None,None,None,None,None,,0,1,1,1,,,,,0,35,35,35,,,,,,,,,,,,,,,,,,,,,,,,,,,,,,,1,6.003500550054014,,,,,,,,,,,,,,,,,,,,070219_p3,001,2019_Jul_02_1332,body_behavioural,3.0.4,59.948993116977924,
1," With the waiter gone, Sadie suddenly stood up, grabbed half of the reuben, and shook it at him as she growled, “Don’t follow me, and don’t talk to me anymore!",4,4,None,None,None,None,None,,0,1,1,1,,,,,0,36,36,36,,,,,,,,,,,,,,,,,,,,,,,,,,,,,,,9,19.338408531970344,,,,,,,,,,,,,,,,,,,,070219_p3,001,2019_Jul_02_1332,body_behavioural,3.0.4,59.948993116977924,
1,"Also, I want my polaroid camera and Beatles poster back!”",4,4,None,None,None,None,None,,0,1,1,1,,,,,0,37,37,37,,,,,,,,,,,,,,,,,,,,,,,,,,,,,,,1,10.653924799989909,,,,,,,,,,,,,,,,,,,,070219_p3,001,2019_Jul_02_1332,body_behavioural,3.0.4,59.948993116977924,
1,"She stormed off, and the bell above the door jingled cheerfully as the door closed behind her.",4,4,None,None,None,None,None,,0,1,1,1,,,,,0,38,38,38,,,,,,,,,,,,,,,,,,,,,,,,,,,,,,,1,11.786775634041987,,,,,,,,,,,,,,,,,,,,070219_p3,001,2019_Jul_02_1332,body_behavioural,3.0.4,59.948993116977924,
1,Thomas sat there for awhile surprised at how quickly everything had transpired. ,4,4,None,None,None,None,None,,0,1,1,1,,,,,0,39,39,39,,,,,,,,,,,,,,,,,,,,,,,,,,,,,,,1,4.719954557949677,,,,,,,,,,,,,,,,,,,,070219_p3,001,2019_Jul_02_1332,body_behavioural,3.0.4,59.948993116977924,
1,"He grabbed his burger and took a bite of it, which created a dry and fishy taste in his mouth.",4,4,None,None,None,None,None,,0,1,1,1,,,,,0,40,40,40,,,,,,,,,,,,,,,,,,,,,,,,,,,,,,,9,5.503713071986567,,,,,,,,,,,,,,,,,,,,070219_p3,001,2019_Jul_02_1332,body_behavioural,3.0.4,59.948993116977924,
1,He dropped it back on his plate and wondered if the restaurant was responsible for the foul taste. ,4,4,None,13.0,5.0,None,None,,0,1,1,1,,,,,0,41,41,41,,,,,,,,,,,,,,,,,,,,,,,,,,,,,,,1,6.1176830569747835,,,,,,,,,,,,,,,,,,,,070219_p3,001,2019_Jul_02_1332,body_behavioural,3.0.4,59.948993116977924,
1,,,,,,,,,,0,1,1,1,,,,,,,,,,,,,,,,,,,,,,,,,,,,,,,,,,,,,,,,,,,,,,,,,,,,,,,,,,,,070219_p3,001,2019_Jul_02_1332,body_behavioural,3.0.4,59.948993116977924,
2,,,,,,,,,,0,2,2,2,0,0,0,0,,,,,,,,,,,,,,,,,,,,,,,,,space,2.003139382984955,space,0.88692561496282,space,0.969150745018851,,,,,,,,,,,,,,,,,,,,,,,,,,070219_p3,001,2019_Jul_02_1332,body_behavioural,3.0.4,59.948993116977924,
2,David saw Anna for the first time when she burst into the airport frazzled with her half-zipped bag skidding behind her.,1,1,42.0,,,,,,0,2,2,2,,,,,0,0,0,0,,,,,,,,,,,,,,,,,,,,,,,,,,,space,3.3705171749461442,space,2.9192288679769263,9,13.317577377019916,,,,,,,,,,,,,,,,,,,,070219_p3,001,2019_Jul_02_1332,body_behavioural,3.0.4,59.948993116977924,
2,"He had three hours until his flight and had been reading a book on the laptop he was holding in the entrance to the airport, but she had only 35 minutes and was hoping to spend as little time in the entrance as possible. ",1,1,None,,,,,,0,2,2,2,,,,,0,1,1,1,,,,,,,,,,,,,,,,,,,,,,,,,,,,,,,1,36.955868589982856,,,,,,,,,,,,,,,,,,,,070219_p3,001,2019_Jul_02_1332,body_behavioural,3.0.4,59.948993116977924,
2,"Anna, a few strides into the airport, suddenly realized to her dismay that her shoes were untied, so she hunched over to tie them.",1,1,None,,,,,,0,2,2,2,,,,,0,2,2,2,,,,,,,,,,,,,,,,,,,,,,,,,,,,,,,1,8.536902323015966,,,,,,,,,,,,,,,,,,,,070219_p3,001,2019_Jul_02_1332,body_behavioural,3.0.4,59.948993116977924,
2,"David, who had been intrigued by Anna, observed that someone with a tall cart of luggage was heading straight for where she was kneeling and that both her and the person driving the cart were oblivious to the impending collision. ",1,1,None,,,,,,0,2,2,2,,,,,0,3,3,3,,,,,,,,,,,,,,,,,,,,,,,,,,,,,,,1,20.80471677496098,,,,,,,,,,,,,,,,,,,,070219_p3,001,2019_Jul_02_1332,body_behavioural,3.0.4,59.948993116977924,
2,"After a few moment of deliberation, David decided to intervene, and he ran in front of the cart pushing her out of the way just in the nick of time, and they tumbled on the airport floor. ",1,2,None,,,,,,0,2,2,2,,,,,0,4,4,4,,,,,,,,,,,,,,,,,,,,,,,,,,,,,,,9,13.03780861000996,,,,,,,,,,,,,,,,,,,,070219_p3,001,2019_Jul_02_1332,body_behavioural,3.0.4,59.948993116977924,
2,"Anna, bewildered, looked up and saw the cart pass by and then looked at David. ",1,2,None,,,,,,0,2,2,2,,,,,0,5,5,5,,,,,,,,,,,,,,,,,,,,,,,,,,,,,,,1,5.301366590021644,,,,,,,,,,,,,,,,,,,,070219_p3,001,2019_Jul_02_1332,body_behavioural,3.0.4,59.948993116977924,
2,"He flashed a smile and asked, “Were you ever a gymnast?",1,2,None,,,,,,0,2,2,2,,,,,0,6,6,6,,,,,,,,,,,,,,,,,,,,,,,,,,,,,,,1,5.453255488013383,,,,,,,,,,,,,,,,,,,,070219_p3,001,2019_Jul_02_1332,body_behavioural,3.0.4,59.948993116977924,
2,Because that was a nice tumble.”,1,2,None,,,,,,0,2,2,2,,,,,0,7,7,7,,,,,,,,,,,,,,,,,,,,,,,,,,,,,,,1,2.0359285839949735,,,,,,,,,,,,,,,,,,,,070219_p3,001,2019_Jul_02_1332,body_behavioural,3.0.4,59.948993116977924,
2,"She managed a chuckle and said, “Actually, yes, but I’d say that deserved a score of zero.",1,2,None,,,,,,0,2,2,2,,,,,0,8,8,8,,,,,,,,,,,,,,,,,,,,,,,,,,,,,,,1,4.118296557979193,,,,,,,,,,,,,,,,,,,,070219_p3,001,2019_Jul_02_1332,body_behavioural,3.0.4,59.948993116977924,
2,Maybe a ‘1’ at least for your effort. ,1,2,None,,,,,,0,2,2,2,,,,,0,9,9,9,,,,,,,,,,,,,,,,,,,,,,,,,,,,,,,1,2.0858040550374426,,,,,,,,,,,,,,,,,,,,070219_p3,001,2019_Jul_02_1332,body_behavioural,3.0.4,59.948993116977924,
2,Wow- I almost got smooshed by that cart.”,1,2,None,,,,,,0,2,2,2,,,,,0,10,10,10,,,,,,,,,,,,,,,,,,,,,,,,,,,,,,,1,3.3204685319797136,,,,,,,,,,,,,,,,,,,,070219_p3,001,2019_Jul_02_1332,body_behavioural,3.0.4,59.948993116977924,
2,Her head was still spinning as she stared at the handsome stranger who had saved her. ,1,2,None,,,,,,0,2,2,2,,,,,0,11,11,11,,,,,,,,,,,,,,,,,,,,,,,,,,,,,,,1,5.600968662998639,,,,,,,,,,,,,,,,,,,,070219_p3,001,2019_Jul_02_1332,body_behavioural,3.0.4,59.948993116977924,
2,David helped her up and had to keep holding on to her arms to steady her even once they were standing.,1,2,None,,,,,,0,2,2,2,,,,,0,12,12,12,,,,,,,,,,,,,,,,,,,,,,,,,,,,,,,1,10.003387665958144,,,,,,,,,,,,,,,,,,,,070219_p3,001,2019_Jul_02_1332,body_behavioural,3.0.4,59.948993116977924,
2,"“I’m really late for my flight,” she said. ",1,2,None,,,,,,0,2,2,2,,,,,0,13,13,13,,,,,,,,,,,,,,,,,,,,,,,,,,,,,,,1,2.9205070000025444,,,,,,,,,,,,,,,,,,,,070219_p3,001,2019_Jul_02_1332,body_behavioural,3.0.4,59.948993116977924,
2,"“Don't worry,” said David, "let me help you get to your gate." ",1,2,None,,,,,,0,2,2,2,,,,,0,14,14,14,,,,,,,,,,,,,,,,,,,,,,,,,,,,,,,1,2.636803494999185,,,,,,,,,,,,,,,,,,,,070219_p3,001,2019_Jul_02_1332,body_behavioural,3.0.4,59.948993116977924,
2,He waved off her half-hearted protests. ,1,2,None,,,,,,0,2,2,2,,,,,0,15,15,15,,,,,,,,,,,,,,,,,,,,,,,,,,,,,,,1,8.054092384991236,,,,,,,,,,,,,,,,,,,,070219_p3,001,2019_Jul_02_1332,body_behavioural,3.0.4,59.948993116977924,
2,“Really- I have plenty of time and nothing better to do.” he said. ,1,2,None,,,,,,0,2,2,2,,,,,0,16,16,16,,,,,,,,,,,,,,,,,,,,,,,,,,,,,,,1,2.987026032002177,,,,,,,,,,,,,,,,,,,,070219_p3,001,2019_Jul_02_1332,body_behavioural,3.0.4,59.948993116977924,
2,"At security, the line was not long, but, since Anna’s flight departure was close at hand, the security guard allowed them to go to the front of the line.",2,2,None,,,,,,0,2,2,2,,,,,0,17,17,17,,,,,,,,,,,,,,,,,,,,,,,,,,,,,,,1,6.88684472697787,,,,,,,,,,,,,,,,,,,,070219_p3,001,2019_Jul_02_1332,body_behavioural,3.0.4,59.948993116977924,
2,"They had to wait however, because there was a strange malfunction of the metal detector. ",2,2,None,,,,,,0,2,2,2,,,,,0,18,18,18,,,,,,,,,,,,,,,,,,,,,,,,,,,,,,,1,4.620365027047228,,,,,,,,,,,,,,,,,,,,070219_p3,001,2019_Jul_02_1332,body_behavioural,3.0.4,59.948993116977924,
2,"In this span of time, they managed to find out that they had gone to the same high school and that Anna had graduated 3 years before David. ",2,2,None,,,,,,0,2,2,2,,,,,0,19,19,19,,,,,,,,,,,,,,,,,,,,,,,,,,,,,,,1,17.48810802999651,,,,,,,,,,,,,,,,,,,,070219_p3,001,2019_Jul_02_1332,body_behavioural,3.0.4,59.948993116977924,
2,They hurriedly took off their shoes and coats.,2,2,None,,,,,,0,2,2,2,,,,,0,20,20,20,,,,,,,,,,,,,,,,,,,,,,,,,,,,,,,1,2.6370594679610804,,,,,,,,,,,,,,,,,,,,070219_p3,001,2019_Jul_02_1332,body_behavioural,3.0.4,59.948993116977924,
2,"Anna placed her purse and suitcase on the conveyor belt, and David put his backpack on the conveyor belt as well, with his laptop in a separate bin. ",2,2,None,,,,,,0,2,2,2,,,,,0,21,21,21,,,,,,,,,,,,,,,,,,,,,,,,,,,,,,,1,8.820212788006756,,,,,,,,,,,,,,,,,,,,070219_p3,001,2019_Jul_02_1332,body_behavioural,3.0.4,59.948993116977924,
2,Both of them went through the metal detector without any problems. ,2,2,None,,,,,,0,2,2,2,,,,,0,22,22,22,,,,,,,,,,,,,,,,,,,,,,,,,,,,,,,1,5.453893063007854,,,,,,,,,,,,,,,,,,,,070219_p3,001,2019_Jul_02_1332,body_behavioural,3.0.4,59.948993116977924,
2,"As they were rushing to put their shoes and coats on, they shared when they were coming back. ",2,2,None,,,,,,0,2,2,2,,,,,0,23,23,23,,,,,,,,,,,,,,,,,,,,,,,,,,,,,,,1,5.586067335039843,,,,,,,,,,,,,,,,,,,,070219_p3,001,2019_Jul_02_1332,body_behavioural,3.0.4,59.948993116977924,
2,"In a moment of boldness, David asked, “When we're back in town next Tuesday, is there any chance you'd want to get dinner?",2,3,None,,,,,,0,2,2,2,,,,,0,24,24,24,,,,,,,,,,,,,,,,,,,,,,,,,,,,,,,9,6.9862925939960405,,,,,,,,,,,,,,,,,,,,070219_p3,001,2019_Jul_02_1332,body_behavioural,3.0.4,59.948993116977924,
2,"I know we just met, but when life throws a luggage cart at you it seems like we should listen. “",2,3,None,,,,,,0,2,2,2,,,,,0,25,25,25,,,,,,,,,,,,,,,,,,,,,,,,,,,,,,,1,5.7356400360004045,,,,,,,,,,,,,,,,,,,,070219_p3,001,2019_Jul_02_1332,body_behavioural,3.0.4,59.948993116977924,
2,"She stopped packing, and said with a smile, “Yes I would love that.”",2,3,None,,,,,,0,2,2,2,,,,,0,26,26,26,,,,,,,,,,,,,,,,,,,,,,,,,,,,,,,1,3.6357424409943633,,,,,,,,,,,,,,,,,,,,070219_p3,001,2019_Jul_02_1332,body_behavioural,3.0.4,59.948993116977924,
2,"On the concourse, they were running to get to Anna’s gate, J37, which was at the end of the terminal. ",3,3,None,,,,,,0,2,2,2,,,,,0,27,27,27,,,,,,,,,,,,,,,,,,,,,,,,,,,,,,,1,9.919692276977003,,,,,,,,,,,,,,,,,,,,070219_p3,001,2019_Jul_02_1332,body_behavioural,3.0.4,59.948993116977924,
2,"David took her suitcase, grabbed her hand, and weaved crowd of people.",3,3,None,,,,,,0,2,2,2,,,,,0,28,28,28,,,,,,,,,,,,,,,,,,,,,,,,,,,,,,,1,6.319946949020959,,,,,,,,,,,,,,,,,,,,070219_p3,001,2019_Jul_02_1332,body_behavioural,3.0.4,59.948993116977924,
2,People passing them were giving them funny looks because Anna appeared so bewildered on account of David’s help.,3,3,None,,,,,,0,2,2,2,,,,,0,29,29,29,,,,,,,,,,,,,,,,,,,,,,,,,,,,,,,1,7.56870073301252,,,,,,,,,,,,,,,,,,,,070219_p3,001,2019_Jul_02_1332,body_behavioural,3.0.4,59.948993116977924,
2,"Before getting to the gate, explaining that she would sprint the rest of the way, Anna fished out a crumpled business card from her pocket and handed it to David, who handed her the suitcase.",3,4,None,,,,,,0,2,2,2,,,,,0,30,30,30,,,,,,,,,,,,,,,,,,,,,,,,,,,,,,,1,14.651532228046563,,,,,,,,,,,,,,,,,,,,070219_p3,001,2019_Jul_02_1332,body_behavioural,3.0.4,59.948993116977924,
2,"She gave him one last embarrassed smile, thanked him, and hurried away.",3,4,None,,,,,,0,2,2,2,,,,,0,31,31,31,,,,,,,,,,,,,,,,,,,,,,,,,,,,,,,1,5.067970757023431,,,,,,,,,,,,,,,,,,,,070219_p3,001,2019_Jul_02_1332,body_behavioural,3.0.4,59.948993116977924,
2,"David looked at his watch which read 10:55 AM, 5 minutes before her flight was supposed to leave. ",3,4,None,,,,,,0,2,2,2,,,,,0,32,32,32,,,,,,,,,,,,,,,,,,,,,,,,,,,,,,,1,5.7537550200358965,,,,,,,,,,,,,,,,,,,,070219_p3,001,2019_Jul_02_1332,body_behavioural,3.0.4,59.948993116977924,
2,"At the gate, Anna waved to the flight attendant who motioned for her to hurry, and she boarded the plane. ",4,4,None,,,,,,0,2,2,2,,,,,0,33,33,33,,,,,,,,,,,,,,,,,,,,,,,,,,,,,,,1,9.170585249958094,,,,,,,,,,,,,,,,,,,,070219_p3,001,2019_Jul_02_1332,body_behavioural,3.0.4,59.948993116977924,
2,"She slid into her window seat, 7D, in business class, and barely containing her glee, she hugged the plastic-wrapped blanket. ",4,4,None,,,,,,0,2,2,2,,,,,0,34,34,34,,,,,,,,,,,,,,,,,,,,,,,,,,,,,,,1,11.65130271500675,,,,,,,,,,,,,,,,,,,,070219_p3,001,2019_Jul_02_1332,body_behavioural,3.0.4,59.948993116977924,
2,"She was thankful that she had not only made it onto the plane in time, but also that she had been clumsy enough to forget to tie her shoes.",4,4,None,,,,,,0,2,2,2,,,,,0,35,35,35,,,,,,,,,,,,,,,,,,,,,,,,,,,,,,,9,9.120329090044834,,,,,,,,,,,,,,,,,,,,070219_p3,001,2019_Jul_02_1332,body_behavioural,3.0.4,59.948993116977924,
2,,,,,,,,,,0,2,2,2,,,,,,,,,,,,,,,,,,,,,,,,,,,,,,,,,,,,,,,,,,,,,,,,,,,,,,,,,,,,070219_p3,001,2019_Jul_02_1332,body_behavioural,3.0.4,59.948993116977924,
3,,,,,,,,,,0,3,3,3,0,0,0,0,,,,,,,,,,,,,,,,,,,,,,,,,space,8.953310929995496,space,0.5837060230551288,space,0.8693073919857852,,,,,,,,,,,,,,,,,,,,,,,,,,070219_p3,001,2019_Jul_02_1332,body_behavioural,3.0.4,59.948993116977924,
3,"Sven and Isabel walked hurriedly from the cab into the Barcelona Airport after an incredible week with Isabel’s family, and this had wiped away any doubts Sven had had about his decision to propose. ",1,1,22.0,,,,,,0,3,3,3,,,,,0,0,0,0,,,,,,,,,,,,,,,,,,,,,,,,,,,space,1.0693159980000928,space,2.2674011650378816,1,59.70690704899607,,,,,,,,,,,,,,,,,,,,070219_p3,001,2019_Jul_02_1332,body_behavioural,3.0.4,59.948993116977924,
3,They had only been dating for 11 months and this had been the first time he had met her family. ,1,1,None,,,,,,0,3,3,3,,,,,0,1,1,1,,,,,,,,,,,,,,,,,,,,,,,,,,,,,,,1,3.516937666980084,,,,,,,,,,,,,,,,,,,,070219_p3,001,2019_Jul_02_1332,body_behavioural,3.0.4,59.948993116977924,
3,"They were pressed for time at the airport with only an hour and 15 minutes until their flight would take off to go back to the US, but they already had their online boarding passes and were without checked luggage. ",1,1,None,,,,,,0,3,3,3,,,,,0,2,2,2,,,,,,,,,,,,,,,,,,,,,,,,,,,,,,,1,22.220982001977973,,,,,,,,,,,,,,,,,,,,070219_p3,001,2019_Jul_02_1332,body_behavioural,3.0.4,59.948993116977924,
3,"Isabel stopped to rummage through her purse to look for her phone, and, meanwhile, Sven turned his back to her and took the velvet box out of his backpack, opening it to look at the ring he had bought her.",1,2,None,,,,,,0,3,3,3,,,,,0,3,3,3,,,,,,,,,,,,,,,,,,,,,,,,,,,,,,,1,50.68907050200505,,,,,,,,,,,,,,,,,,,,070219_p3,001,2019_Jul_02_1332,body_behavioural,3.0.4,59.948993116977924,
3,"He had received her parents’ blessing during the trip, and he was almost giddy with excitement. ",1,2,None,,,,,,0,3,3,3,,,,,0,4,4,4,,,,,,,,,,,,,,,,,,,,,,,,,,,,,,,1,4.48628454701975,,,,,,,,,,,,,,,,,,,,070219_p3,001,2019_Jul_02_1332,body_behavioural,3.0.4,59.948993116977924,
3,He tilted the ring backward and forward for a careful examination despite having already studied the ring daily since purchasing it a few weeks ago. ,1,2,None,,,,,,0,3,3,3,,,,,0,5,5,5,,,,,,,,,,,,,,,,,,,,,,,,,,,,,,,1,33.15529381495435,,,,,,,,,,,,,,,,,,,,070219_p3,001,2019_Jul_02_1332,body_behavioural,3.0.4,59.948993116977924,
3,It was a simple design: two pink diamonds on a silver band.,1,2,None,,,,,,0,3,3,3,,,,,0,6,6,6,,,,,,,,,,,,,,,,,,,,,,,,,,,,,,,1,6.887028664990794,,,,,,,,,,,,,,,,,,,,070219_p3,001,2019_Jul_02_1332,body_behavioural,3.0.4,59.948993116977924,
3,"“Sven, I’m ready,” Isabel said. ",1,2,None,,,,,,0,3,3,3,,,,,0,7,7,7,,,,,,,,,,,,,,,,,,,,,,,,,,,,,,,9,3.867721699003596,,,,,,,,,,,,,,,,,,,,070219_p3,001,2019_Jul_02_1332,body_behavioural,3.0.4,59.948993116977924,
3,Sven closed the box and discretely put it in his pocket.,1,2,None,,,,,,0,3,3,3,,,,,0,8,8,8,,,,,,,,,,,,,,,,,,,,,,,,,,,,,,,1,3.303237336978782,,,,,,,,,,,,,,,,,,,,070219_p3,001,2019_Jul_02_1332,body_behavioural,3.0.4,59.948993116977924,
3,"They entered the security line, weaving through the roped walkways to the front. ",2,2,None,,,,,,0,3,3,3,,,,,0,9,9,9,,,,,,,,,,,,,,,,,,,,,,,,,,,,,,,1,4.303091028006747,,,,,,,,,,,,,,,,,,,,070219_p3,001,2019_Jul_02_1332,body_behavioural,3.0.4,59.948993116977924,
3,"When it was their turn to deposit their things onto the belt, Isabel realized her laptop was buried somewhere in her duffle bag. ",2,2,None,,,,,,0,3,3,3,,,,,0,10,10,10,,,,,,,,,,,,,,,,,,,,,,,,,,,,,,,1,7.236758629966062,,,,,,,,,,,,,,,,,,,,070219_p3,001,2019_Jul_02_1332,body_behavioural,3.0.4,59.948993116977924,
3,"Luckily, at the same time, there was a stall in the line because someone ahead of them had a suspicious amount of metal pieces on his person. ",2,2,None,,,,,,0,3,3,3,,,,,0,11,11,11,,,,,,,,,,,,,,,,,,,,,,,,,,,,,,,1,7.503470507042948,,,,,,,,,,,,,,,,,,,,070219_p3,001,2019_Jul_02_1332,body_behavioural,3.0.4,59.948993116977924,
3,Sven had to hold the growing mound of objects Isabel pulled from her bag until she unearthed the laptop and set it in a bin.,2,2,None,,,,,,0,3,3,3,,,,,0,12,12,12,,,,,,,,,,,,,,,,,,,,,,,,,,,,,,,1,19.17117246898124,,,,,,,,,,,,,,,,,,,,070219_p3,001,2019_Jul_02_1332,body_behavioural,3.0.4,59.948993116977924,
3,"She then gave her bag to Sven, unstrapped her heels, and took the bag back from Sven.",2,2,None,,,,,,0,3,3,3,,,,,0,13,13,13,,,,,,,,,,,,,,,,,,,,,,,,,,,,,,,1,6.219374867971055,,,,,,,,,,,,,,,,,,,,070219_p3,001,2019_Jul_02_1332,body_behavioural,3.0.4,59.948993116977924,
3,"Sven, relieved of his holding duties, hurriedly deposited his own backpack on the belt, and took off his shoes. ",2,2,None,,,,,,0,3,3,3,,,,,0,14,14,14,,,,,,,,,,,,,,,,,,,,,,,,,,,,,,,1,7.18658877897542,,,,,,,,,,,,,,,,,,,,070219_p3,001,2019_Jul_02_1332,body_behavioural,3.0.4,59.948993116977924,
3,"Sven went into the millimeter wave scanner after Isabel, put his hands up, and looked at Isabel as the metal bars whirled around him.",2,2,None,,,,,,0,3,3,3,,,,,0,15,15,15,,,,,,,,,,,,,,,,,,,,,,,,,,,,,,,9,23.9222553850268,,,,,,,,,,,,,,,,,,,,070219_p3,001,2019_Jul_02_1332,body_behavioural,3.0.4,59.948993116977924,
3,The security guard asked Sven to wait. ,2,2,None,,,,,,0,3,3,3,,,,,0,16,16,16,,,,,,,,,,,,,,,,,,,,,,,,,,,,,,,1,2.450860331999138,,,,,,,,,,,,,,,,,,,,070219_p3,001,2019_Jul_02_1332,body_behavioural,3.0.4,59.948993116977924,
3,"After looking at the monitor, the security guard said, “Sir, please empty your pockets,”.",2,2,None,,,,,,0,3,3,3,,,,,0,17,17,17,,,,,,,,,,,,,,,,,,,,,,,,,,,,,,,1,4.970368704001885,,,,,,,,,,,,,,,,,,,,070219_p3,001,2019_Jul_02_1332,body_behavioural,3.0.4,59.948993116977924,
3,"Isabel, shoeless and wrinkling her eyebrows at Sven, looked at him expectantly.",2,2,None,,,,,,0,3,3,3,,,,,0,18,18,18,,,,,,,,,,,,,,,,,,,,,,,,,,,,,,,1,7.269190224003978,,,,,,,,,,,,,,,,,,,,070219_p3,001,2019_Jul_02_1332,body_behavioural,3.0.4,59.948993116977924,
3,"Realizing that he had forgotten the ring in his pocket, he grabbed Isabel’s hand, got down on one knee, and opening the velvet box, said, “Isabel, this isn't quite how I'd planned this, but - will you marry me?”",2,3,None,,,,,,0,3,3,3,,,,,0,19,19,19,,,,,,,,,,,,,,,,,,,,,,,,,,,,,,,9,12.836236950010061,,,,,,,,,,,,,,,,,,,,070219_p3,001,2019_Jul_02_1332,body_behavioural,3.0.4,59.948993116977924,
3,He held the ring up to her. ,2,3,None,,,,,,0,3,3,3,,,,,0,20,20,20,,,,,,,,,,,,,,,,,,,,,,,,,,,,,,,1,1.5864166269893758,,,,,,,,,,,,,,,,,,,,070219_p3,001,2019_Jul_02_1332,body_behavioural,3.0.4,59.948993116977924,
3,The security guard stood shocked.,2,3,None,,,,,,0,3,3,3,,,,,0,21,21,21,,,,,,,,,,,,,,,,,,,,,,,,,,,,,,,1,2.8868903029942885,,,,,,,,,,,,,,,,,,,,070219_p3,001,2019_Jul_02_1332,body_behavioural,3.0.4,59.948993116977924,
3,All the people who were putting their shoes back on and gathering their belongings stopped and walked closer to the couple.,2,3,None,,,,,,0,3,3,3,,,,,0,22,22,22,,,,,,,,,,,,,,,,,,,,,,,,,,,,,,,1,7.920030200970359,,,,,,,,,,,,,,,,,,,,070219_p3,001,2019_Jul_02_1332,body_behavioural,3.0.4,59.948993116977924,
3,Isabel didn’t know what to do since she was far too shy to respond in front of all the people around.,2,3,None,,,,,,0,3,3,3,,,,,0,23,23,23,,,,,,,,,,,,,,,,,,,,,,,,,,,,,,,1,4.269294559955597,,,,,,,,,,,,,,,,,,,,070219_p3,001,2019_Jul_02_1332,body_behavioural,3.0.4,59.948993116977924,
3,"Without responding to Sven, she frantically grabbed her and Sven’s shoes, leaving Sven to retrieve the rest, and she quickly walked onto the concourse.",3,3,None,,,,,,0,3,3,3,,,,,0,24,24,24,,,,,,,,,,,,,,,,,,,,,,,,,,,,,,,1,9.470771419990342,,,,,,,,,,,,,,,,,,,,070219_p3,001,2019_Jul_02_1332,body_behavioural,3.0.4,59.948993116977924,
3,"Sven, terrified, grabbed everything and hurried after Isabel onto the concourse shoeless.",3,3,None,,,,,,0,3,3,3,,,,,0,25,25,25,,,,,,,,,,,,,,,,,,,,,,,,,,,,,,,1,4.219814520038199,,,,,,,,,,,,,,,,,,,,070219_p3,001,2019_Jul_02_1332,body_behavioural,3.0.4,59.948993116977924,
3,Sven eventually caught up to her with their bags and the open ring box.,3,3,None,,,,,,0,3,3,3,,,,,0,26,26,26,,,,,,,,,,,,,,,,,,,,,,,,,,,,,,,9,4.869291645009071,,,,,,,,,,,,,,,,,,,,070219_p3,001,2019_Jul_02_1332,body_behavioural,3.0.4,59.948993116977924,
3,"She stopped and with wide, excited eyes, shouted, “Of course yes, Sven!” ",3,4,None,,,,,,0,3,3,3,,,,,0,27,27,27,,,,,,,,,,,,,,,,,,,,,,,,,,,,,,,1,6.269990265020169,,,,,,,,,,,,,,,,,,,,070219_p3,001,2019_Jul_02_1332,body_behavioural,3.0.4,59.948993116977924,
3,"They dropped their belongings and hugged, and Sven put the ring onto Isabel’s finger. ",3,4,None,,,,,,0,3,3,3,,,,,0,28,28,28,,,,,,,,,,,,,,,,,,,,,,,,,,,,,,,1,3.0204180650180206,,,,,,,,,,,,,,,,,,,,070219_p3,001,2019_Jul_02_1332,body_behavioural,3.0.4,59.948993116977924,
3,"“Isabel, you scared me!” he said. ",3,4,None,,,,,,0,3,3,3,,,,,0,29,29,29,,,,,,,,,,,,,,,,,,,,,,,,,,,,,,,1,1.5835320629994385,,,,,,,,,,,,,,,,,,,,070219_p3,001,2019_Jul_02_1332,body_behavioural,3.0.4,59.948993116977924,
3,"After getting their shoes back on, they practically floated to gate C40.",3,4,None,,,,,,0,3,3,3,,,,,0,30,30,30,,,,,,,,,,,,,,,,,,,,,,,,,,,,,,,9,3.903085665020626,,,,,,,,,,,,,,,,,,,,070219_p3,001,2019_Jul_02_1332,body_behavioural,3.0.4,59.948993116977924,
3,Sven was so happy he even high-fived a confused shoe-shine attendant as they passed.,3,4,None,,,,,,0,3,3,3,,,,,0,31,31,31,,,,,,,,,,,,,,,,,,,,,,,,,,,,,,,1,8.003494722011965,,,,,,,,,,,,,,,,,,,,070219_p3,001,2019_Jul_02_1332,body_behavioural,3.0.4,59.948993116977924,
3,Isabel texted her best friend telling her the news as they walked. ,3,4,None,,,,,,0,3,3,3,,,,,0,32,32,32,,,,,,,,,,,,,,,,,,,,,,,,,,,,,,,1,7.137511775013991,,,,,,,,,,,,,,,,,,,,070219_p3,001,2019_Jul_02_1332,body_behavioural,3.0.4,59.948993116977924,
3,"Having arrived at their gate, they waited, until the attendant called for passengers, and they scanned their tickets to board the plane.",4,4,None,,,,,,0,3,3,3,,,,,0,33,33,33,,,,,,,,,,,,,,,,,,,,,,,,,,,,,,,9,4.834952500008512,,,,,,,,,,,,,,,,,,,,070219_p3,001,2019_Jul_02_1332,body_behavioural,3.0.4,59.948993116977924,
3,"They walked through the connecting tunnel to the plane and sat together in first class, in seats 2A and 2B.",4,4,None,,,,,,0,3,3,3,,,,,0,34,34,34,,,,,,,,,,,,,,,,,,,,,,,,,,,,,,,1,10.437135331972968,,,,,,,,,,,,,,,,,,,,070219_p3,001,2019_Jul_02_1332,body_behavioural,3.0.4,59.948993116977924,
3,"Some of their neighboring passengers who had witnessed the proposal at security congratulated them, and a woman next to them showed them that she had been live-tweeting the whole event and that it was already going viral online.",4,4,None,,,,,,0,3,3,3,,,,,0,35,35,35,,,,,,,,,,,,,,,,,,,,,,,,,,,,,,,1,17.271442865021527,,,,,,,,,,,,,,,,,,,,070219_p3,001,2019_Jul_02_1332,body_behavioural,3.0.4,59.948993116977924,
3,"Isabel slid down in her seat with her hands over her face, embarrassed and overjoyed at the same time.
",4,4,None,,,,,,0,3,3,3,,,,,0,36,36,36,,,,,,,,,,,,,,,,,,,,,,,,,,,,,,,1,6.869675609981641,,,,,,,,,,,,,,,,,,,,070219_p3,001,2019_Jul_02_1332,body_behavioural,3.0.4,59.948993116977924,
3,,,,,,,,,,0,3,3,3,,,,,,,,,,,,,,,,,,,,,,,,,,,,,,,,,,,,,,,,,,,,,,,,,,,,,,,,,,,,070219_p3,001,2019_Jul_02_1332,body_behavioural,3.0.4,59.948993116977924,
4,,,,,,,,,,0,4,4,4,0,0,0,0,,,,,,,,,,,,,,,,,,,,,,,,,space,1.003366815042682,space,0.7006434130016714,space,1.6026598899625242,,,,,,,,,,,,,,,,,,,,,,,,,,070219_p3,001,2019_Jul_02_1332,body_behavioural,3.0.4,59.948993116977924,
4,"Alex was a distracted, sweaty mess as he walked into the grocery store with Chloe, and he was hoping that she wouldn't suspect that he was about to propose.",1,1,23.0,,,,,,0,4,4,4,,,,,0,0,0,0,,,,,,,,,,,,,,,,,,,,,,,,,,,space,1.7700465870439075,space,1.9528980029863305,1,15.58742296503624,,,,,,,,,,,,,,,,,,,,070219_p3,001,2019_Jul_02_1332,body_behavioural,3.0.4,59.948993116977924,
4,The grocery store was brightly lit with sunshine pouring in through glass walls at the front of the store.,1,1,None,,,,,,0,4,4,4,,,,,0,1,1,1,,,,,,,,,,,,,,,,,,,,,,,,,,,,,,,9,15.67086496198317,,,,,,,,,,,,,,,,,,,,070219_p3,001,2019_Jul_02_1332,body_behavioural,3.0.4,59.948993116977924,
4,Also in the front area were large posters advertising thanksgiving promotions.,1,1,None,,,,,,0,4,4,4,,,,,0,2,2,2,,,,,,,,,,,,,,,,,,,,,,,,,,,,,,,1,2.8027855289983563,,,,,,,,,,,,,,,,,,,,070219_p3,001,2019_Jul_02_1332,body_behavioural,3.0.4,59.948993116977924,
4,"The store was buzzing with activity because the next day was Thanksgiving Day, and most shoppers had carts piled high with turkey, stuffing, and pies.",1,1,None,,,,,,0,4,4,4,,,,,0,3,3,3,,,,,,,,,,,,,,,,,,,,,,,,,,,,,,,1,9.987196220026817,,,,,,,,,,,,,,,,,,,,070219_p3,001,2019_Jul_02_1332,body_behavioural,3.0.4,59.948993116977924,
4,Alex wanted to propose here because he knew Chloe would be wonderfully surprised. ,1,1,None,,,,,,0,4,4,4,,,,,0,4,4,4,,,,,,,,,,,,,,,,,,,,,,,,,,,,,,,1,7.637218123010825,,,,,,,,,,,,,,,,,,,,070219_p3,001,2019_Jul_02_1332,body_behavioural,3.0.4,59.948993116977924,
4,"After 23 months of dating, Alex knew one of the things Chloe loved most was surprises. ",1,1,None,,,,,,0,4,4,4,,,,,0,5,5,5,,,,,,,,,,,,,,,,,,,,,,,,,,,,,,,1,10.667974039970431,,,,,,,,,,,,,,,,,,,,070219_p3,001,2019_Jul_02_1332,body_behavioural,3.0.4,59.948993116977924,
4,"Chloe perused the canned goods aisle, and said, “Alex, we need a couple things.”",2,1,None,,,,,,0,4,4,4,,,,,0,6,6,6,,,,,,,,,,,,,,,,,,,,,,,,,,,,,,,1,16.10374010395026,,,,,,,,,,,,,,,,,,,,070219_p3,001,2019_Jul_02_1332,body_behavioural,3.0.4,59.948993116977924,
4,"He didn’t hear her and was fanning himself, and Chloe asked him if he was okay.",2,1,None,,,,,,0,4,4,4,,,,,0,7,7,7,,,,,,,,,,,,,,,,,,,,,,,,,,,,,,,1,5.185942295007408,,,,,,,,,,,,,,,,,,,,070219_p3,001,2019_Jul_02_1332,body_behavioural,3.0.4,59.948993116977924,
4,"“Oh yeah, for sure,” he said, unconvincingly. ",2,1,None,,,,,,0,4,4,4,,,,,0,8,8,8,,,,,,,,,,,,,,,,,,,,,,,,,,,,,,,1,1.5354973620269448,,,,,,,,,,,,,,,,,,,,070219_p3,001,2019_Jul_02_1332,body_behavioural,3.0.4,59.948993116977924,
4,"She chuckled, “Alright, whatever you say.” ",2,1,None,,,,,,0,4,4,4,,,,,0,9,9,9,,,,,,,,,,,,,,,,,,,,,,,,,,,,,,,1,1.5527898159925826,,,,,,,,,,,,,,,,,,,,070219_p3,001,2019_Jul_02_1332,body_behavioural,3.0.4,59.948993116977924,
4,She had a can of pumpkin puree and a bottle of vinegar picked out and was now mulling over the different cans of cranberry sauce.,2,1,None,,,,,,0,4,4,4,,,,,0,10,10,10,,,,,,,,,,,,,,,,,,,,,,,,,,,,,,,9,7.588002600998152,,,,,,,,,,,,,,,,,,,,070219_p3,001,2019_Jul_02_1332,body_behavioural,3.0.4,59.948993116977924,
4,"Alex was guessing she would be a while, and so he turned his back to her and pulled out the ring to look at it one more time. ",2,2,None,,,,,,0,4,4,4,,,,,0,11,11,11,,,,,,,,,,,,,,,,,,,,,,,,,,,,,,,1,9.50451710500056,,,,,,,,,,,,,,,,,,,,070219_p3,001,2019_Jul_02_1332,body_behavioural,3.0.4,59.948993116977924,
4,The ring consisted of a thin band with one white diamond that glittered excessively in the light. ,2,2,None,,,,,,0,4,4,4,,,,,0,12,12,12,,,,,,,,,,,,,,,,,,,,,,,,,,,,,,,1,8.070902801991906,,,,,,,,,,,,,,,,,,,,070219_p3,001,2019_Jul_02_1332,body_behavioural,3.0.4,59.948993116977924,
4,“Do we need anything else?” she called out to him. ,2,2,None,,,,,,0,4,4,4,,,,,0,13,13,13,,,,,,,,,,,,,,,,,,,,,,,,,,,,,,,9,4.717442182998639,,,,,,,,,,,,,,,,,,,,070219_p3,001,2019_Jul_02_1332,body_behavioural,3.0.4,59.948993116977924,
4,"“Yeah I don’t know, honey,” he said back, still looking at the ring. ",2,2,None,,,,,,0,4,4,4,,,,,0,14,14,14,,,,,,,,,,,,,,,,,,,,,,,,,,,,,,,1,3.318908727960661,,,,,,,,,,,,,,,,,,,,070219_p3,001,2019_Jul_02_1332,body_behavioural,3.0.4,59.948993116977924,
4,"In the checkout area, there were 5 aisles open and they stepped in line for station 3. ",3,2,None,,,,,,0,4,4,4,,,,,0,15,15,15,,,,,,,,,,,,,,,,,,,,,,,,,,,,,,,9,6.088075104984455,,,,,,,,,,,,,,,,,,,,070219_p3,001,2019_Jul_02_1332,body_behavioural,3.0.4,59.948993116977924,
4,Alex was staring intensely off into the distance for most of the time and fidgeting with his wallet. ,3,2,None,,,,,,0,4,4,4,,,,,0,16,16,16,,,,,,,,,,,,,,,,,,,,,,,,,,,,,,,1,21.971218556980602,,,,,,,,,,,,,,,,,,,,070219_p3,001,2019_Jul_02_1332,body_behavioural,3.0.4,59.948993116977924,
4,"Chloe watched him trying to decide whether he looked scared or confused, and shrugged, pulling out her phone since she figured he’d talk about whatever was on his mind when he was ready. ",3,2,None,,,,,,0,4,4,4,,,,,0,17,17,17,,,,,,,,,,,,,,,,,,,,,,,,,,,,,,,1,17.088104254973587,,,,,,,,,,,,,,,,,,,,070219_p3,001,2019_Jul_02_1332,body_behavioural,3.0.4,59.948993116977924,
4,Alex looked over at their friends who were waiting by the entrance of the grocery store.,3,2,None,,,,,,0,4,4,4,,,,,0,18,18,18,,,,,,,,,,,,,,,,,,,,,,,,,,,,,,,9,6.137544470024295,,,,,,,,,,,,,,,,,,,,070219_p3,001,2019_Jul_02_1332,body_behavioural,3.0.4,59.948993116977924,
4,They walked over slowly. ,3,2,None,,,,,,0,4,4,4,,,,,0,19,19,19,,,,,,,,,,,,,,,,,,,,,,,,,,,,,,,1,1.6359287680243142,,,,,,,,,,,,,,,,,,,,070219_p3,001,2019_Jul_02_1332,body_behavioural,3.0.4,59.948993116977924,
4,"Seemingly out of nowhere, Alex took Chloe’s hand and he got down on one knee. ",3,3,None,,,,,,0,4,4,4,,,,,0,20,20,20,,,,,,,,,,,,,,,,,,,,,,,,,,,,,,,9,5.420839139958844,,,,,,,,,,,,,,,,,,,,070219_p3,001,2019_Jul_02_1332,body_behavioural,3.0.4,59.948993116977924,
4,Chloe gasped,3,3,None,,,,,,0,4,4,4,,,,,0,21,21,21,,,,,,,,,,,,,,,,,,,,,,,,,,,,,,,1,2.316730010032188,,,,,,,,,,,,,,,,,,,,070219_p3,001,2019_Jul_02_1332,body_behavioural,3.0.4,59.948993116977924,
4,"“Chloe, I love you so much, and I want to be with you forever.",3,3,None,,,,,,0,4,4,4,,,,,0,22,22,22,,,,,,,,,,,,,,,,,,,,,,,,,,,,,,,1,3.386964964971412,,,,,,,,,,,,,,,,,,,,070219_p3,001,2019_Jul_02_1332,body_behavioural,3.0.4,59.948993116977924,
4,I can’t imagine a day without you.”,3,3,None,,,,,,0,4,4,4,,,,,0,23,23,23,,,,,,,,,,,,,,,,,,,,,,,,,,,,,,,1,1.0533968119998462,,,,,,,,,,,,,,,,,,,,070219_p3,001,2019_Jul_02_1332,body_behavioural,3.0.4,59.948993116977924,
4,"“Alex, me too,” she replied.",3,3,None,,,,,,0,4,4,4,,,,,0,24,24,24,,,,,,,,,,,,,,,,,,,,,,,,,,,,,,,1,1.9352961580152623,,,,,,,,,,,,,,,,,,,,070219_p3,001,2019_Jul_02_1332,body_behavioural,3.0.4,59.948993116977924,
4,"The ring was in the crevice of his wallet, and he opened it.",3,3,None,,,,,,0,4,4,4,,,,,0,25,25,25,,,,,,,,,,,,,,,,,,,,,,,,,,,,,,,1,8.236478071950842,,,,,,,,,,,,,,,,,,,,070219_p3,001,2019_Jul_02_1332,body_behavioural,3.0.4,59.948993116977924,
4,“Will you marry me?”,3,3,None,,,,,,0,4,4,4,,,,,0,26,26,26,,,,,,,,,,,,,,,,,,,,,,,,,,,,,,,1,1.0365578130003996,,,,,,,,,,,,,,,,,,,,070219_p3,001,2019_Jul_02_1332,body_behavioural,3.0.4,59.948993116977924,
4,"The people in line around them realized what was happening, stepped back, and started taking pictures.",3,3,None,,,,,,0,4,4,4,,,,,0,27,27,27,,,,,,,,,,,,,,,,,,,,,,,,,,,,,,,1,5.586890062026214,,,,,,,,,,,,,,,,,,,,070219_p3,001,2019_Jul_02_1332,body_behavioural,3.0.4,59.948993116977924,
4,Their friends were no longer trying to hide and were videotaping and taking pictures too. ,3,3,None,,,,,,0,4,4,4,,,,,0,28,28,28,,,,,,,,,,,,,,,,,,,,,,,,,,,,,,,1,4.587354012997821,,,,,,,,,,,,,,,,,,,,070219_p3,001,2019_Jul_02_1332,body_behavioural,3.0.4,59.948993116977924,
4,"After a few moments of suspense she shouted,“Yes!”, and she jumped to embrace Alex in a hug. ",3,4,None,,,,,,0,4,4,4,,,,,0,29,29,29,,,,,,,,,,,,,,,,,,,,,,,,,,,,,,,1,5.453306340961717,,,,,,,,,,,,,,,,,,,,070219_p3,001,2019_Jul_02_1332,body_behavioural,3.0.4,59.948993116977924,
4,Everyone in line clapped and cheered. ,3,4,None,,,,,,0,4,4,4,,,,,0,30,30,30,,,,,,,,,,,,,,,,,,,,,,,,,,,,,,,1,1.2535959859960712,,,,,,,,,,,,,,,,,,,,070219_p3,001,2019_Jul_02_1332,body_behavioural,3.0.4,59.948993116977924,
4,"Alex put the ring on Chloe’s finger, who was nearly spinning in excitement.",3,4,None,,,,,,0,4,4,4,,,,,0,31,31,31,,,,,,,,,,,,,,,,,,,,,,,,,,,,,,,1,2.9701139300013892,,,,,,,,,,,,,,,,,,,,070219_p3,001,2019_Jul_02_1332,body_behavioural,3.0.4,59.948993116977924,
4,“I love it!,3,4,None,,,,,,0,4,4,4,,,,,0,32,32,32,,,,,,,,,,,,,,,,,,,,,,,,,,,,,,,1,0.7028052649693564,,,,,,,,,,,,,,,,,,,,070219_p3,001,2019_Jul_02_1332,body_behavioural,3.0.4,59.948993116977924,
4,Oh my- it’s so glittery!,3,4,None,,,,,,0,4,4,4,,,,,0,33,33,33,,,,,,,,,,,,,,,,,,,,,,,,,,,,,,,1,1.7355335330357775,,,,,,,,,,,,,,,,,,,,070219_p3,001,2019_Jul_02_1332,body_behavioural,3.0.4,59.948993116977924,
4,Look at this!” she said as she shoved her hand in a stranger’s face.,3,4,None,,,,,,0,4,4,4,,,,,0,34,34,34,,,,,,,,,,,,,,,,,,,,,,,,,,,,,,,1,3.436190302018076,,,,,,,,,,,,,,,,,,,,070219_p3,001,2019_Jul_02_1332,body_behavioural,3.0.4,59.948993116977924,
4,Their friends came over and hugged them.,3,4,None,,,,,,0,4,4,4,,,,,0,35,35,35,,,,,,,,,,,,,,,,,,,,,,,,,,,,,,,1,1.6866233929758891,,,,,,,,,,,,,,,,,,,,070219_p3,001,2019_Jul_02_1332,body_behavioural,3.0.4,59.948993116977924,
4,The other people let them move up to the front of the checkout line. ,3,4,None,,,,,,0,4,4,4,,,,,0,36,36,36,,,,,,,,,,,,,,,,,,,,,,,,,,,,,,,1,2.3868769870023243,,,,,,,,,,,,,,,,,,,,070219_p3,001,2019_Jul_02_1332,body_behavioural,3.0.4,59.948993116977924,
4,Chloe immediately texted her mom a picture of her hand. ,3,4,None,,,,,,0,4,4,4,,,,,0,37,37,37,,,,,,,,,,,,,,,,,,,,,,,,,,,,,,,1,3.6032500049914233,,,,,,,,,,,,,,,,,,,,070219_p3,001,2019_Jul_02_1332,body_behavioural,3.0.4,59.948993116977924,
4,The cashier congratulated them and scanned their groceries. ,4,4,None,,,,,,0,4,4,4,,,,,0,38,38,38,,,,,,,,,,,,,,,,,,,,,,,,,,,,,,,1,1.687104784999974,,,,,,,,,,,,,,,,,,,,070219_p3,001,2019_Jul_02_1332,body_behavioural,3.0.4,59.948993116977924,
4,"The total came to $14, and Alex paid in cash while Chloe greeted their friends.",4,4,None,,,,,,0,4,4,4,,,,,0,39,39,39,,,,,,,,,,,,,,,,,,,,,,,,,,,,,,,1,7.58704198396299,,,,,,,,,,,,,,,,,,,,070219_p3,001,2019_Jul_02_1332,body_behavioural,3.0.4,59.948993116977924,
4,"Alex grabbed the bags, and they all walked out together working out where they’d go to celebrate.  ",4,4,None,,,,,,0,4,4,4,,,,,0,40,40,40,,,,,,,,,,,,,,,,,,,,,,,,,,,,,,,1,3.620196981995832,,,,,,,,,,,,,,,,,,,,070219_p3,001,2019_Jul_02_1332,body_behavioural,3.0.4,59.948993116977924,
4,,,,,,,,,,0,4,4,4,,,,,,,,,,,,,,,,,,,,,,,,,,,,,,,,,,,,,,,,,,,,,,,,,,,,,,,,,,,,070219_p3,001,2019_Jul_02_1332,body_behavioural,3.0.4,59.948993116977924,
5,,,,,,,,,,0,5,5,5,0,0,0,0,,,,,,,,,,,,,,,,,,,,,,,,,space,2.369199868000578,space,0.5531459350022487,space,0.8859840829973109,,,,,,,,,,,,,,,,,,,,,,,,,,070219_p3,001,2019_Jul_02_1332,body_behavioural,3.0.4,59.948993116977924,
5,,,,,,,,,,0,5,5,5,1,0,1,0,,,,,,,,,,,,,,,,,,,,,,,,,,,,,space,0.9192249689949676,,,,,,,,,,,,,,,,,,,,,,,,,,070219_p3,001,2019_Jul_02_1332,body_behavioural,3.0.4,59.948993116977924,
5,"Carina and Simon, both distracted in thought, nearly ran into each other as they walked into the grocery store. ",1,1,43.0,,,,,,0,5,5,5,,,,,0,0,0,0,,,,,,,,,,,,,,,,,,,,,,,,,,,space,1.3857563919737004,space,1.7863188319606707,9,18.38811945199268,,,,,,,,,,,,,,,,,,,,070219_p3,001,2019_Jul_02_1332,body_behavioural,3.0.4,59.948993116977924,
5,She almost dropped the keys she was holding. ,1,1,None,,,,,,0,5,5,5,,,,,0,1,1,1,,,,,,,,,,,,,,,,,,,,,,,,,,,,,,,1,2.5033438729587942,,,,,,,,,,,,,,,,,,,,070219_p3,001,2019_Jul_02_1332,body_behavioural,3.0.4,59.948993116977924,
5,"The store they had entered looked like a warehouse, with high, black ceilings, industrial lights, and large packages of food. ",1,1,None,,,,,,0,5,5,5,,,,,0,2,2,2,,,,,,,,,,,,,,,,,,,,,,,,,,,,,,,1,18.135195960989222,,,,,,,,,,,,,,,,,,,,070219_p3,001,2019_Jul_02_1332,body_behavioural,3.0.4,59.948993116977924,
5,"In the meat section, Carina and Simon were looking over the same cuts of meat, because they were both preparing for barbecues.",2,1,None,,,,,,0,5,5,5,,,,,0,3,3,3,,,,,,,,,,,,,,,,,,,,,,,,,,,,,,,1,14.784896762983408,,,,,,,,,,,,,,,,,,,,070219_p3,001,2019_Jul_02_1332,body_behavioural,3.0.4,59.948993116977924,
5,"Simon had wanted to talk to Carina, and Carina had wanted to say something to Simon, but they felt embarrassed striking up a conversation with a stranger.",2,1,None,,,,,,0,5,5,5,,,,,0,4,4,4,,,,,,,,,,,,,,,,,,,,,,,,,,,,,,,1,8.253578594943974,,,,,,,,,,,,,,,,,,,,070219_p3,001,2019_Jul_02_1332,body_behavioural,3.0.4,59.948993116977924,
5,"Carina mustered the courage, turned to Simon and, pointing at a Cornish hen, asked, “Isn’t this meat cute?”",2,2,None,,,,,,0,5,5,5,,,,,0,5,5,5,,,,,,,,,,,,,,,,,,,,,,,,,,,,,,,9,6.07009290199494,,,,,,,,,,,,,,,,,,,,070219_p3,001,2019_Jul_02_1332,body_behavioural,3.0.4,59.948993116977924,
5,"He laughed, and said, “It is very cute.",2,2,None,,,,,,0,5,5,5,,,,,0,6,6,6,,,,,,,,,,,,,,,,,,,,,,,,,,,,,,,1,1.8361358499969356,,,,,,,,,,,,,,,,,,,,070219_p3,001,2019_Jul_02_1332,body_behavioural,3.0.4,59.948993116977924,
5,"Probably the younger brother of this guy,” and he picked up a regular-sized chicken.",2,2,None,,,,,,0,5,5,5,,,,,0,7,7,7,,,,,,,,,,,,,,,,,,,,,,,,,,,,,,,1,15.37099628004944,,,,,,,,,,,,,,,,,,,,070219_p3,001,2019_Jul_02_1332,body_behavioural,3.0.4,59.948993116977924,
5,"“Unlucky family,” she responded as she shook her head. ",2,2,None,,,,,,0,5,5,5,,,,,0,8,8,8,,,,,,,,,,,,,,,,,,,,,,,,,,,,,,,1,4.6038019199622795,,,,,,,,,,,,,,,,,,,,070219_p3,001,2019_Jul_02_1332,body_behavioural,3.0.4,59.948993116977924,
5,They chatted as they picked out a few last-minute groceries.,2,2,None,,,,,,0,5,5,5,,,,,0,9,9,9,,,,,,,,,,,,,,,,,,,,,,,,,,,,,,,1,3.8373123820056207,,,,,,,,,,,,,,,,,,,,070219_p3,001,2019_Jul_02_1332,body_behavioural,3.0.4,59.948993116977924,
5,"Simon helped Carina select the best ribs and his personal favorite barbecue sauce, and she helped him choose red peppers and spices for a vegetable kabob she recommended.",2,2,None,,,,,,0,5,5,5,,,,,0,10,10,10,,,,,,,,,,,,,,,,,,,,,,,,,,,,,,,1,26.65482825000072,,,,,,,,,,,,,,,,,,,,070219_p3,001,2019_Jul_02_1332,body_behavioural,3.0.4,59.948993116977924,
5,"In the checkout area, there were three lines open, and they went to the one labeled “8.”",3,2,None,,,,,,0,5,5,5,,,,,0,11,11,11,,,,,,,,,,,,,,,,,,,,,,,,,,,,,,,9,5.303375329996925,,,,,,,,,,,,,,,,,,,,070219_p3,001,2019_Jul_02_1332,body_behavioural,3.0.4,59.948993116977924,
5,"Carina and Simon made jokes about the magazine covers while waiting in line, and they were laughing so hard their stomachs hurt. ",3,2,None,,,,,,0,5,5,5,,,,,0,12,12,12,,,,,,,,,,,,,,,,,,,,,,,,,,,,,,,1,7.219552192022093,,,,,,,,,,,,,,,,,,,,070219_p3,001,2019_Jul_02_1332,body_behavioural,3.0.4,59.948993116977924,
5,"Simon turned to face Carina and, while looking at her straight in the eyes, asked, “Would you like to go out to dinner with me?",3,3,None,,,,,,0,5,5,5,,,,,0,13,13,13,,,,,,,,,,,,,,,,,,,,,,,,,,,,,,,9,5.920721143018454,,,,,,,,,,,,,,,,,,,,070219_p3,001,2019_Jul_02_1332,body_behavioural,3.0.4,59.948993116977924,
5,Next Saturday we could tour around Harvard Square and get something to eat.,3,3,None,,,,,,0,5,5,5,,,,,0,14,14,14,,,,,,,,,,,,,,,,,,,,,,,,,,,,,,,1,6.837493714992888,,,,,,,,,,,,,,,,,,,,070219_p3,001,2019_Jul_02_1332,body_behavioural,3.0.4,59.948993116977924,
5,"There are a lot of great places around there, and it’s really nice during the summer.”",3,3,None,,,,,,0,5,5,5,,,,,0,15,15,15,,,,,,,,,,,,,,,,,,,,,,,,,,,,,,,1,3.967555793002248,,,,,,,,,,,,,,,,,,,,070219_p3,001,2019_Jul_02_1332,body_behavioural,3.0.4,59.948993116977924,
5,"Carina smiled, “I’d love to.",3,3,None,,,,,,0,5,5,5,,,,,0,16,16,16,,,,,,,,,,,,,,,,,,,,,,,,,,,,,,,1,1.486408874974586,,,,,,,,,,,,,,,,,,,,070219_p3,001,2019_Jul_02_1332,body_behavioural,3.0.4,59.948993116977924,
5,That sounds great!”,3,3,None,,,,,,0,5,5,5,,,,,0,17,17,17,,,,,,,,,,,,,,,,,,,,,,,,,,,,,,,1,2.6194872750202194,,,,,,,,,,,,,,,,,,,,070219_p3,001,2019_Jul_02_1332,body_behavioural,3.0.4,59.948993116977924,
5,The cashier scanned Carina’s groceries.,4,3,None,,,,,,0,5,5,5,,,,,0,18,18,18,,,,,,,,,,,,,,,,,,,,,,,,,,,,,,,9,11.520990560005885,,,,,,,,,,,,,,,,,,,,070219_p3,001,2019_Jul_02_1332,body_behavioural,3.0.4,59.948993116977924,
5,"Simon lifted up the divider on the conveyor belt and said to the cashier, “Actually, these are together.",4,3,None,,,,,,0,5,5,5,,,,,0,19,19,19,,,,,,,,,,,,,,,,,,,,,,,,,,,,,,,1,2.7534788199700415,,,,,,,,,,,,,,,,,,,,070219_p3,001,2019_Jul_02_1332,body_behavioural,3.0.4,59.948993116977924,
5,"Carina, I’ve got it.",4,3,None,,,,,,0,5,5,5,,,,,0,20,20,20,,,,,,,,,,,,,,,,,,,,,,,,,,,,,,,1,6.670018470031209,,,,,,,,,,,,,,,,,,,,070219_p3,001,2019_Jul_02_1332,body_behavioural,3.0.4,59.948993116977924,
5,This was kind-of a date today.”,4,3,None,,,,,,0,5,5,5,,,,,0,21,21,21,,,,,,,,,,,,,,,,,,,,,,,,,,,,,,,1,2.2030863569816574,,,,,,,,,,,,,,,,,,,,070219_p3,001,2019_Jul_02_1332,body_behavioural,3.0.4,59.948993116977924,
5,Carina blushed and laughed; she thought this was ridiculous but also very sweet. ,4,3,None,,,,,,0,5,5,5,,,,,0,22,22,22,,,,,,,,,,,,,,,,,,,,,,,,,,,,,,,1,3.335596338030882,,,,,,,,,,,,,,,,,,,,070219_p3,001,2019_Jul_02_1332,body_behavioural,3.0.4,59.948993116977924,
5,"The cashier rolled her eyes when they weren’t looking, and she scanned the rest of his items. ",4,3,None,,,,,,0,5,5,5,,,,,0,23,23,23,,,,,,,,,,,,,,,,,,,,,,,,,,,,,,,1,6.203073502983898,,,,,,,,,,,,,,,,,,,,070219_p3,001,2019_Jul_02_1332,body_behavioural,3.0.4,59.948993116977924,
5,"The total came to $52, and he paid with his credit card.",4,3,None,,,,,,0,5,5,5,,,,,0,24,24,24,,,,,,,,,,,,,,,,,,,,,,,,,,,,,,,1,2.385969303024467,,,,,,,,,,,,,,,,,,,,070219_p3,001,2019_Jul_02_1332,body_behavioural,3.0.4,59.948993116977924,
5,"Seeing that it was 4:30 PM on her phone, Carina gasped because she realized she was late for her own barbecue. ",4,4,None,,,,,,0,5,5,5,,,,,0,25,25,25,,,,,,,,,,,,,,,,,,,,,,,,,,,,,,,1,6.869364200974815,,,,,,,,,,,,,,,,,,,,070219_p3,001,2019_Jul_02_1332,body_behavioural,3.0.4,59.948993116977924,
5,Carina thanked Simon and took her groceries and ran. ,4,4,None,,,,,,0,5,5,5,,,,,0,26,26,26,,,,,,,,,,,,,,,,,,,,,,,,,,,,,,,1,1.6196070929872803,,,,,,,,,,,,,,,,,,,,070219_p3,001,2019_Jul_02_1332,body_behavioural,3.0.4,59.948993116977924,
5,"“I hope her guests aren’t hungry,” the cashier remarked.",4,4,None,,,,,,0,5,5,5,,,,,0,27,27,27,,,,,,,,,,,,,,,,,,,,,,,,,,,,,,,9,5.236535219999496,,,,,,,,,,,,,,,,,,,,070219_p3,001,2019_Jul_02_1332,body_behavioural,3.0.4,59.948993116977924,
5,Simon was thoroughly charmed and barely heard the comment as he watched her go. ,4,4,None,,,,,,0,5,5,5,,,,,0,28,28,28,,,,,,,,,,,,,,,,,,,,,,,,,,,,,,,1,9.98706247494556,,,,,,,,,,,,,,,,,,,,070219_p3,001,2019_Jul_02_1332,body_behavioural,3.0.4,59.948993116977924,
5,,,,,,,,,,0,5,5,5,,,,,,,,,,,,,,,,,,,,,,,,,,,,,,,,,,,,,,,,,,,,,,,,,,,,,,,,,,,,070219_p3,001,2019_Jul_02_1332,body_behavioural,3.0.4,59.948993116977924,
6,,,,,,,,,,0,6,6,6,0,0,0,0,,,,,,,,,,,,,,,,,,,,,,,,,space,1.5697840169887058,space,0.552872202009894,space,3.6361713410005905,,,,,,,,,,,,,,,,,,,,,,,,,,070219_p3,001,2019_Jul_02_1332,body_behavioural,3.0.4,59.948993116977924,
6,Mr. Shelton and Mr. Gordon shook hands inside the waiting area of the restaurant: lunch today was about big business. ,1,1,31.0,,,,,,0,6,6,6,,,,,0,0,0,0,,,,,,,,,,,,,,,,,,,,,,,,,,,space,1.3681488779839128,space,1.100663893041201,9,11.220484738005325,,,,,,,,,,,,,,,,,,,,070219_p3,001,2019_Jul_02_1332,body_behavioural,3.0.4,59.948993116977924,
6,They were both in the airplane manufacturing industry.,1,1,None,,,,,,0,6,6,6,,,,,0,1,1,1,,,,,,,,,,,,,,,,,,,,,,,,,,,,,,,1,3.0865074950270355,,,,,,,,,,,,,,,,,,,,070219_p3,001,2019_Jul_02_1332,body_behavioural,3.0.4,59.948993116977924,
6,"Mr. Shelton was the CFO of a larger, well-established company and had been in the aviation business for decades.",1,1,None,,,,,,0,6,6,6,,,,,0,2,2,2,,,,,,,,,,,,,,,,,,,,,,,,,,,,,,,1,7.470779989962466,,,,,,,,,,,,,,,,,,,,070219_p3,001,2019_Jul_02_1332,body_behavioural,3.0.4,59.948993116977924,
6,Mr. Gordon was the CEO of a smaller but technologically-advanced company that was projected to disrupt the airplane manufacturing market. ,1,1,None,,,,,,0,6,6,6,,,,,0,3,3,3,,,,,,,,,,,,,,,,,,,,,,,,,,,,,,,1,6.137292365019675,,,,,,,,,,,,,,,,,,,,070219_p3,001,2019_Jul_02_1332,body_behavioural,3.0.4,59.948993116977924,
6,"They chose to meet at an old steakhouse with dark wood paneling on the floor and ceilings, taxidermy animals on the walls, and a candelabra on every table.",1,1,None,,,,,,0,6,6,6,,,,,0,4,4,4,,,,,,,,,,,,,,,,,,,,,,,,,,,,,,,1,33.83925287303282,,,,,,,,,,,,,,,,,,,,070219_p3,001,2019_Jul_02_1332,body_behavioural,3.0.4,59.948993116977924,
6,The waitress seated them at their table in the back. ,2,1,None,,,,,,0,6,6,6,,,,,0,5,5,5,,,,,,,,,,,,,,,,,,,,,,,,,,,,,,,9,3.0697253340040334,,,,,,,,,,,,,,,,,,,,070219_p3,001,2019_Jul_02_1332,body_behavioural,3.0.4,59.948993116977924,
6,"She brought out the menus, and they briefly chatted about personal happenings. ",2,1,None,,,,,,0,6,6,6,,,,,0,6,6,6,,,,,,,,,,,,,,,,,,,,,,,,,,,,,,,1,3.9368851719773374,,,,,,,,,,,,,,,,,,,,070219_p3,001,2019_Jul_02_1332,body_behavioural,3.0.4,59.948993116977924,
6,"Mr. Gordon took out a picture of his daughter and talked about her recent engagement, and Mr. Gordon mentioned his purchase of a Tesla. ",2,1,None,,,,,,0,6,6,6,,,,,0,7,7,7,,,,,,,,,,,,,,,,,,,,,,,,,,,,,,,1,11.77103567798622,,,,,,,,,,,,,,,,,,,,070219_p3,001,2019_Jul_02_1332,body_behavioural,3.0.4,59.948993116977924,
6,They also looked over the menus which were heavy and covered in felt.,2,1,None,,,,,,0,6,6,6,,,,,0,8,8,8,,,,,,,,,,,,,,,,,,,,,,,,,,,,,,,1,7.33695547003299,,,,,,,,,,,,,,,,,,,,070219_p3,001,2019_Jul_02_1332,body_behavioural,3.0.4,59.948993116977924,
6,Flipping to the back of the menu brought one to a lengthy drink selection.,2,1,None,,,,,,0,6,6,6,,,,,0,9,9,9,,,,,,,,,,,,,,,,,,,,,,,,,,,,,,,1,6.05346369498875,,,,,,,,,,,,,,,,,,,,070219_p3,001,2019_Jul_02_1332,body_behavioural,3.0.4,59.948993116977924,
6,Mr. Shelton got serious and brought the conversation around to business.,2,2,None,,,,,,0,6,6,6,,,,,0,10,10,10,,,,,,,,,,,,,,,,,,,,,,,,,,,,,,,9,4.019872725009918,,,,,,,,,,,,,,,,,,,,070219_p3,001,2019_Jul_02_1332,body_behavioural,3.0.4,59.948993116977924,
6,"“Mr. Gordon, we really admire what you’re doing at your company.",2,2,None,,,,,,0,6,6,6,,,,,0,11,11,11,,,,,,,,,,,,,,,,,,,,,,,,,,,,,,,1,5.769429448002484,,,,,,,,,,,,,,,,,,,,070219_p3,001,2019_Jul_02_1332,body_behavioural,3.0.4,59.948993116977924,
6,We think it’s genius; we want to support your vision and make this tiny company of yours internationally known.,2,2,None,,,,,,0,6,6,6,,,,,0,12,12,12,,,,,,,,,,,,,,,,,,,,,,,,,,,,,,,1,9.303756987967063,,,,,,,,,,,,,,,,,,,,070219_p3,001,2019_Jul_02_1332,body_behavioural,3.0.4,59.948993116977924,
6,"But honestly, your company doesn’t have the resources to reach international markets right now.",2,2,None,,,,,,0,6,6,6,,,,,0,13,13,13,,,,,,,,,,,,,,,,,,,,,,,,,,,,,,,1,5.636042462021578,,,,,,,,,,,,,,,,,,,,070219_p3,001,2019_Jul_02_1332,body_behavioural,3.0.4,59.948993116977924,
6,"Maybe in a few years you could, but by that time, other companies may have already filled your niche.",2,2,None,,,,,,0,6,6,6,,,,,0,14,14,14,,,,,,,,,,,,,,,,,,,,,,,,,,,,,,,1,9.353490197041538,,,,,,,,,,,,,,,,,,,,070219_p3,001,2019_Jul_02_1332,body_behavioural,3.0.4,59.948993116977924,
6,I think we should join forces.”,2,2,None,,,,,,0,6,6,6,,,,,0,15,15,15,,,,,,,,,,,,,,,,,,,,,,,,,,,,,,,1,3.1532012529787607,,,,,,,,,,,,,,,,,,,,070219_p3,001,2019_Jul_02_1332,body_behavioural,3.0.4,59.948993116977924,
6,The waitress arrived and asked if they were ready to order.,3,2,None,,,,,,0,6,6,6,,,,,0,16,16,16,,,,,,,,,,,,,,,,,,,,,,,,,,,,,,,9,6.536907032947056,,,,,,,,,,,,,,,,,,,,070219_p3,001,2019_Jul_02_1332,body_behavioural,3.0.4,59.948993116977924,
6,"Mr. Gordon chose the medium-rare steak and a martini, and Mr. Shelton ordered the veal and a manhattan. ",3,2,None,,,,,,0,6,6,6,,,,,0,17,17,17,,,,,,,,,,,,,,,,,,,,,,,,,,,,,,,1,8.153481154993642,,,,,,,,,,,,,,,,,,,,070219_p3,001,2019_Jul_02_1332,body_behavioural,3.0.4,59.948993116977924,
6,"Then Mr. Shelton continued, “Look, I’ve talked to other members of the board, and we are prepared to offer $600 million to buy your company. ",3,2,None,,,,,,0,6,6,6,,,,,0,18,18,18,,,,,,,,,,,,,,,,,,,,,,,,,,,,,,,1,16.65371388895437,,,,,,,,,,,,,,,,,,,,070219_p3,001,2019_Jul_02_1332,body_behavioural,3.0.4,59.948993116977924,
6,"We'd keep on all of your current employees, and you would join as the director of your company branch.” ",3,2,None,,,,,,0,6,6,6,,,,,0,19,19,19,,,,,,,,,,,,,,,,,,,,,,,,,,,,,,,1,11.535928641969804,,,,,,,,,,,,,,,,,,,,070219_p3,001,2019_Jul_02_1332,body_behavioural,3.0.4,59.948993116977924,
6,"Mr. Gordon looked at Mr. Shelton skeptically for a few moments considering his response until he said, “Mr. Shelton, I think that you make a compelling offer, but there are definitely some disadvantages to attaching our small, streamlined productions to a large company like yours.",3,3,None,,,,,,0,6,6,6,,,,,0,20,20,20,,,,,,,,,,,,,,,,,,,,,,,,,,,,,,,9,11.635526447964367,,,,,,,,,,,,,,,,,,,,070219_p3,001,2019_Jul_02_1332,body_behavioural,3.0.4,59.948993116977924,
6,"We operate in a very different way than a large company, and the kind of administrative complexity that makes the scale of your productions possible would suffocate our business.",3,3,None,,,,,,0,6,6,6,,,,,0,21,21,21,,,,,,,,,,,,,,,,,,,,,,,,,,,,,,,1,21.66919180500554,,,,,,,,,,,,,,,,,,,,070219_p3,001,2019_Jul_02_1332,body_behavioural,3.0.4,59.948993116977924,
6,"With our product, scaling-up doesn’t necessarily make sense.” ",3,3,None,,,,,,0,6,6,6,,,,,0,22,22,22,,,,,,,,,,,,,,,,,,,,,,,,,,,,,,,1,5.569726790999994,,,,,,,,,,,,,,,,,,,,070219_p3,001,2019_Jul_02_1332,body_behavioural,3.0.4,59.948993116977924,
6,Mr. Shelton had expected this response and had come prepared.,3,3,None,,,,,,0,6,6,6,,,,,0,23,23,23,,,,,,,,,,,,,,,,,,,,,,,,,,,,,,,9,4.884387161990162,,,,,,,,,,,,,,,,,,,,070219_p3,001,2019_Jul_02_1332,body_behavioural,3.0.4,59.948993116977924,
6,He began laying out the details of how he had handled similar acquisitions successfully in the past.,3,3,None,,,,,,0,6,6,6,,,,,0,24,24,24,,,,,,,,,,,,,,,,,,,,,,,,,,,,,,,1,5.369620562996715,,,,,,,,,,,,,,,,,,,,070219_p3,001,2019_Jul_02_1332,body_behavioural,3.0.4,59.948993116977924,
6,"He also played out projections of how Mr. Gordon’s company could out-compete their own main competitor in the industry, TechJet, by using the resources of a larger corporation. ",3,3,None,,,,,,0,6,6,6,,,,,0,25,25,25,,,,,,,,,,,,,,,,,,,,,,,,,,,,,,,1,33.75314214499667,,,,,,,,,,,,,,,,,,,,070219_p3,001,2019_Jul_02_1332,body_behavioural,3.0.4,59.948993116977924,
6,"Mr. Gordon was impressed, and they went back and forth hashing out what the company configuration would look like post-merger. ",3,3,None,,,,,,0,6,6,6,,,,,0,26,26,26,,,,,,,,,,,,,,,,,,,,,,,,,,,,,,,1,9.789043036988005,,,,,,,,,,,,,,,,,,,,070219_p3,001,2019_Jul_02_1332,body_behavioural,3.0.4,59.948993116977924,
6,The waitress brought out their food on a large tray.,4,3,None,,,,,,0,6,6,6,,,,,0,27,27,27,,,,,,,,,,,,,,,,,,,,,,,,,,,,,,,9,3.469982741982676,,,,,,,,,,,,,,,,,,,,070219_p3,001,2019_Jul_02_1332,body_behavioural,3.0.4,59.948993116977924,
6,“Oh this looks so good!” Mr. Gordon said. ,4,3,None,,,,,,0,6,6,6,,,,,0,28,28,28,,,,,,,,,,,,,,,,,,,,,,,,,,,,,,,1,1.4702537250122987,,,,,,,,,,,,,,,,,,,,070219_p3,001,2019_Jul_02_1332,body_behavioural,3.0.4,59.948993116977924,
6,“Can I get you anything else?” the waitress asked.,4,3,None,,,,,,0,6,6,6,,,,,0,29,29,29,,,,,,,,,,,,,,,,,,,,,,,,,,,,,,,1,3.9692208289634436,,,,,,,,,,,,,,,,,,,,070219_p3,001,2019_Jul_02_1332,body_behavioural,3.0.4,59.948993116977924,
6,They declined and began to eat. ,4,3,None,,,,,,0,6,6,6,,,,,0,30,30,30,,,,,,,,,,,,,,,,,,,,,,,,,,,,,,,1,1.8026169830118306,,,,,,,,,,,,,,,,,,,,070219_p3,001,2019_Jul_02_1332,body_behavioural,3.0.4,59.948993116977924,
6,The meal was subpar- they both found the meat to be overcooked and dry. ,4,3,None,,,,,,0,6,6,6,,,,,0,31,31,31,,,,,,,,,,,,,,,,,,,,,,,,,,,,,,,1,7.486879884963855,,,,,,,,,,,,,,,,,,,,070219_p3,001,2019_Jul_02_1332,body_behavioural,3.0.4,59.948993116977924,
6,"Mr. Gordon, after taking a contemplative bite and swallowing, said, “Mr. Shelton, I think we have a deal. ",4,4,None,,,,,,0,6,6,6,,,,,0,32,32,32,,,,,,,,,,,,,,,,,,,,,,,,,,,,,,,1,10.154040055000223,,,,,,,,,,,,,,,,,,,,070219_p3,001,2019_Jul_02_1332,body_behavioural,3.0.4,59.948993116977924,
6,"If you can guarantee that I can still have the final say in all the work done by my team, I think this could be beneficial for both of us.",4,4,None,,,,,,0,6,6,6,,,,,0,33,33,33,,,,,,,,,,,,,,,,,,,,,,,,,,,,,,,9,9.670002566999756,,,,,,,,,,,,,,,,,,,,070219_p3,001,2019_Jul_02_1332,body_behavioural,3.0.4,59.948993116977924,
6,I propose a toast to the merging of our companies.”,4,4,None,,,,,,0,6,6,6,,,,,0,34,34,34,,,,,,,,,,,,,,,,,,,,,,,,,,,,,,,1,6.3874844330130145,,,,,,,,,,,,,,,,,,,,070219_p3,001,2019_Jul_02_1332,body_behavioural,3.0.4,59.948993116977924,
6,Mr. Shelton grinned and lifted his martini to clink glasses.,4,4,None,,,,,,0,6,6,6,,,,,0,35,35,35,,,,,,,,,,,,,,,,,,,,,,,,,,,,,,,1,4.703292193997186,,,,,,,,,,,,,,,,,,,,070219_p3,001,2019_Jul_02_1332,body_behavioural,3.0.4,59.948993116977924,
6,"He said, “Cheers to a lifelong partnership and to the growth of our company.” ",4,4,None,,,,,,0,6,6,6,,,,,0,36,36,36,,,,,,,,,,,,,,,,,,,,,,,,,,,,,,,1,2.303050582006108,,,,,,,,,,,,,,,,,,,,070219_p3,001,2019_Jul_02_1332,body_behavioural,3.0.4,59.948993116977924,
6,,,,,,,,,,0,6,6,6,,,,,,,,,,,,,,,,,,,,,,,,,,,,,,,,,,,,,,,,,,,,,,,,,,,,,,,,,,,,070219_p3,001,2019_Jul_02_1332,body_behavioural,3.0.4,59.948993116977924,
7,,,,,,,,,,0,7,7,7,0,0,0,0,,,,,,,,,,,,,,,,,,,,,,,,,space,0.835840106010437,space,0.5703178700059652,space,0.5871089469874278,,,,,,,,,,,,,,,,,,,,,,,,,,070219_p3,001,2019_Jul_02_1332,body_behavioural,3.0.4,59.948993116977924,
7,"Charlie saw Alma as they walked into class, and he motioned for her to come sit in the back next to him because they had a deal to discuss.",1,1,34.0,,,,,,0,7,7,7,,,,,0,0,0,0,,,,,,,,,,,,,,,,,,,,,,,,,,,space,1.3034212780185044,space,1.6530616920208558,9,16.237736574024893,,,,,,,,,,,,,,,,,,,,070219_p3,001,2019_Jul_02_1332,body_behavioural,3.0.4,59.948993116977924,
7,Charlie and Alma were both history majors with entrepreneurial bents.,1,1,None,,,,,,0,7,7,7,,,,,0,1,1,1,,,,,,,,,,,,,,,,,,,,,,,,,,,,,,,1,4.520230140013155,,,,,,,,,,,,,,,,,,,,070219_p3,001,2019_Jul_02_1332,body_behavioural,3.0.4,59.948993116977924,
7,They were also both very busy and happened to be in the same class.,1,1,None,,,,,,0,7,7,7,,,,,0,2,2,2,,,,,,,,,,,,,,,,,,,,,,,,,,,,,,,1,4.836750442977063,,,,,,,,,,,,,,,,,,,,070219_p3,001,2019_Jul_02_1332,body_behavioural,3.0.4,59.948993116977924,
7,"After talking at a party, Charlie had discovered that Alma was looking for financing for her web development company of which she was the founder and CEO.",1,1,None,,,,,,0,7,7,7,,,,,0,3,3,3,,,,,,,,,,,,,,,,,,,,,,,,,,,,,,,1,24.571354577958118,,,,,,,,,,,,,,,,,,,,070219_p3,001,2019_Jul_02_1332,body_behavioural,3.0.4,59.948993116977924,
7,"It was serendipitous because he was an investment analyst for a student finance group on campus, and he had just been talking with other members of the group about making a new investment. ",1,1,None,,,,,,0,7,7,7,,,,,0,4,4,4,,,,,,,,,,,,,,,,,,,,,,,,,,,,,,,1,11.58768549200613,,,,,,,,,,,,,,,,,,,,070219_p3,001,2019_Jul_02_1332,body_behavioural,3.0.4,59.948993116977924,
7,"His financial group had come to a decision that morning about Alma’s startup, and he didn't want to wait until after class to discuss the proposal with her. ",1,1,None,,,,,,0,7,7,7,,,,,0,5,5,5,,,,,,,,,,,,,,,,,,,,,,,,,,,,,,,1,12.820301378960721,,,,,,,,,,,,,,,,,,,,070219_p3,001,2019_Jul_02_1332,body_behavioural,3.0.4,59.948993116977924,
7,The class was in a medium-sized auditorium which was brightly lit and very modern-looking. ,1,1,None,,,,,,0,7,7,7,,,,,0,6,6,6,,,,,,,,,,,,,,,,,,,,,,,,,,,,,,,1,6.469549679954071,,,,,,,,,,,,,,,,,,,,070219_p3,001,2019_Jul_02_1332,body_behavioural,3.0.4,59.948993116977924,
7,There were three projector screens in the front and each row of the audience which had a table with power outlets and USB ports. ,1,1,None,,,,,,0,7,7,7,,,,,0,7,7,7,,,,,,,,,,,,,,,,,,,,,,,,,,,,,,,9,9.303632680035662,,,,,,,,,,,,,,,,,,,,070219_p3,001,2019_Jul_02_1332,body_behavioural,3.0.4,59.948993116977924,
7,"“Here we are at Lecture Seven of Archaeology of Rome,” said the professor. ",2,1,None,,,,,,0,7,7,7,,,,,0,8,8,8,,,,,,,,,,,,,,,,,,,,,,,,,,,,,,,9,17.50434934196528,,,,,,,,,,,,,,,,,,,,070219_p3,001,2019_Jul_02_1332,body_behavioural,3.0.4,59.948993116977924,
7,"“The topic for today is Augustus, an incredibly important influence in Roman architecture.” ",2,1,None,,,,,,0,7,7,7,,,,,0,9,9,9,,,,,,,,,,,,,,,,,,,,,,,,,,,,,,,1,11.321052053011954,,,,,,,,,,,,,,,,,,,,070219_p3,001,2019_Jul_02_1332,body_behavioural,3.0.4,59.948993116977924,
7,She went into some recap of the last lecture.,2,1,None,,,,,,0,7,7,7,,,,,0,10,10,10,,,,,,,,,,,,,,,,,,,,,,,,,,,,,,,1,2.153418839967344,,,,,,,,,,,,,,,,,,,,070219_p3,001,2019_Jul_02_1332,body_behavioural,3.0.4,59.948993116977924,
7,"Charlie turned to Alma and said, “Okay, so I’ve been thinking about your startup, and I have talked about it with my fellow investors.",2,2,None,,,,,,0,7,7,7,,,,,0,11,11,11,,,,,,,,,,,,,,,,,,,,,,,,,,,,,,,9,8.617402630043216,,,,,,,,,,,,,,,,,,,,070219_p3,001,2019_Jul_02_1332,body_behavioural,3.0.4,59.948993116977924,
7,We’d like to invest half of what you originally suggested.,2,2,None,,,,,,0,7,7,7,,,,,0,12,12,12,,,,,,,,,,,,,,,,,,,,,,,,,,,,,,,1,3.5534138469956815,,,,,,,,,,,,,,,,,,,,070219_p3,001,2019_Jul_02_1332,body_behavioural,3.0.4,59.948993116977924,
7,"So we propose we start with wiring you $28,000.",2,2,None,,,,,,0,7,7,7,,,,,0,13,13,13,,,,,,,,,,,,,,,,,,,,,,,,,,,,,,,1,7.551146527985111,,,,,,,,,,,,,,,,,,,,070219_p3,001,2019_Jul_02_1332,body_behavioural,3.0.4,59.948993116977924,
7,We would see how the company does and then invest the other half.” ,2,2,None,,,,,,0,7,7,7,,,,,0,14,14,14,,,,,,,,,,,,,,,,,,,,,,,,,,,,,,,1,1.5859324640478007,,,,,,,,,,,,,,,,,,,,070219_p3,001,2019_Jul_02_1332,body_behavioural,3.0.4,59.948993116977924,
7,"The professor said, “The senate had conferred upon him the title of Augustus, the sacred and revered one, the restorer of traditional values, the city’s new religious leader, the restorer of temples. ",3,2,None,,,,,,0,7,7,7,,,,,0,15,15,15,,,,,,,,,,,,,,,,,,,,,,,,,,,,,,,9,18.670407155004796,,,,,,,,,,,,,,,,,,,,070219_p3,001,2019_Jul_02_1332,body_behavioural,3.0.4,59.948993116977924,
7,"Augustus also sought to beautify Rome, make it into a new Athens, and dispel the criticisms of Rome as disorganized and ugly.”",3,2,None,,,,,,0,7,7,7,,,,,0,16,16,16,,,,,,,,,,,,,,,,,,,,,,,,,,,,,,,1,9.287510137015488,,,,,,,,,,,,,,,,,,,,070219_p3,001,2019_Jul_02_1332,body_behavioural,3.0.4,59.948993116977924,
7,"Alma turned to Charlie and offered her rebuttal, “I don’t know about that.",3,3,None,,,,,,0,7,7,7,,,,,0,17,17,17,,,,,,,,,,,,,,,,,,,,,,,,,,,,,,,1,4.153737979999278,,,,,,,,,,,,,,,,,,,,070219_p3,001,2019_Jul_02_1332,body_behavioural,3.0.4,59.948993116977924,
7,It’s not going to be possible to implement our ideas effectively unless the project is fully funded. ,3,3,None,,,,,,0,7,7,7,,,,,0,18,18,18,,,,,,,,,,,,,,,,,,,,,,,,,,,,,,,9,4.735945540014654,,,,,,,,,,,,,,,,,,,,070219_p3,001,2019_Jul_02_1332,body_behavioural,3.0.4,59.948993116977924,
7,"We would have to find other investors like your competitor on campus, Churchill Capital Group, and that would set us back in our timeline. ",3,3,None,,,,,,0,7,7,7,,,,,0,19,19,19,,,,,,,,,,,,,,,,,,,,,,,,,,,,,,,1,13.786469595972449,,,,,,,,,,,,,,,,,,,,070219_p3,001,2019_Jul_02_1332,body_behavioural,3.0.4,59.948993116977924,
7,"Our profit projections assumed we'd be starting relatively soon, not months down the line.” ",3,3,None,,,,,,0,7,7,7,,,,,0,20,20,20,,,,,,,,,,,,,,,,,,,,,,,,,,,,,,,1,8.06952523702057,,,,,,,,,,,,,,,,,,,,070219_p3,001,2019_Jul_02_1332,body_behavioural,3.0.4,59.948993116977924,
7,They whispered back and forth during the entire class working out a compromise. ,3,3,None,,,,,,0,7,7,7,,,,,0,21,21,21,,,,,,,,,,,,,,,,,,,,,,,,,,,,,,,1,4.5034141830401495,,,,,,,,,,,,,,,,,,,,070219_p3,001,2019_Jul_02_1332,body_behavioural,3.0.4,59.948993116977924,
7,The professor dismissed the students with a reminder that the midterm paper was due on Thursday and that they should email their papers to the TA.,4,3,None,,,,,,0,7,7,7,,,,,0,22,22,22,,,,,,,,,,,,,,,,,,,,,,,,,,,,,,,9,8.186538315028884,,,,,,,,,,,,,,,,,,,,070219_p3,001,2019_Jul_02_1332,body_behavioural,3.0.4,59.948993116977924,
7,"Everyone, except Charlie and Alma, packed up their things and headed out of the lecture hall. ",4,3,None,,,,,,0,7,7,7,,,,,0,23,23,23,,,,,,,,,,,,,,,,,,,,,,,,,,,,,,,1,3.3694294699816965,,,,,,,,,,,,,,,,,,,,070219_p3,001,2019_Jul_02_1332,body_behavioural,3.0.4,59.948993116977924,
7,"“Alright, so we’ll have the $30,000 wired to you by tomorrow,” Charlie said. ",4,4,None,,,,,,0,7,7,7,,,,,0,24,24,24,,,,,,,,,,,,,,,,,,,,,,,,,,,,,,,1,3.403006714012008,,,,,,,,,,,,,,,,,,,,070219_p3,001,2019_Jul_02_1332,body_behavioural,3.0.4,59.948993116977924,
7,"This wasn't ideal for Charlie, but Alma had refused to budge, and his investment group had told him they were willing to pay the full amount if necessary. ",4,4,None,,,,,,0,7,7,7,,,,,0,25,25,25,,,,,,,,,,,,,,,,,,,,,,,,,,,,,,,1,9.253664016956463,,,,,,,,,,,,,,,,,,,,070219_p3,001,2019_Jul_02_1332,body_behavioural,3.0.4,59.948993116977924,
7,They got up and hugged in confirmation of the deal and made plans to sign the official paperwork the next day. ,4,4,None,,,,,,0,7,7,7,,,,,0,26,26,26,,,,,,,,,,,,,,,,,,,,,,,,,,,,,,,1,5.302932643971872,,,,,,,,,,,,,,,,,,,,070219_p3,001,2019_Jul_02_1332,body_behavioural,3.0.4,59.948993116977924,
7,,,,,,,,,,0,7,7,7,,,,,,,,,,,,,,,,,,,,,,,,,,,,,,,,,,,,,,,,,,,,,,,,,,,,,,,,,,,,070219_p3,001,2019_Jul_02_1332,body_behavioural,3.0.4,59.948993116977924,
,,,,,,,,,,,,,,,,,,,,,,,,,,,,,,,,,,,,,,,,,,,,,,,,,,,,,,2633.635751055961,space,1.1530108739971183,,,,,,,,,,,,,,,,,070219_p3,001,2019_Jul_02_1332,body_behavioural,3.0.4,59.948993116977924,
,,,,,,,,,"In this next part of the experiment, please recall each story to the best of your ability.",,,,,,,,,,,,,0,0,0,0,,,,,,,,,,,,,,,,,,,,,,,,,,,,,,,,space,4.553296619968023,,,,,,,,,,,,,,,070219_p3,001,2019_Jul_02_1332,body_behavioural,3.0.4,59.948993116977924,
,,,,,,,,,"You will be presented with the story title, names, the images, and a blank text box for each story.",,,,,,,,,,,,,0,1,1,1,,,,,,,,,,,,,,,,,,,,,,,,,,,,,,,,space,1.6531352699967101,,,,,,,,,,,,,,,070219_p3,001,2019_Jul_02_1332,body_behavioural,3.0.4,59.948993116977924,
,,,,,,,,,Describe the story indicated with as many details as you can remember in the space provided. ,,,,,,,,,,,,,0,2,2,2,,,,,,,,,,,,,,,,,,,,,,,,,,,,,,,,space,6.702995964966249,,,,,,,,,,,,,,,070219_p3,001,2019_Jul_02_1332,body_behavioural,3.0.4,59.948993116977924,
,,,,,,,,,"When you are finished recalling one story, to move onto the next one, press the ‘return’ key. ",,,,,,,,,,,,,0,3,3,3,,,,,,,,,,,,,,,,,,,,,,,,,,,,,,,,space,5.786243651993573,,,,,,,,,,,,,,,070219_p3,001,2019_Jul_02_1332,body_behavioural,3.0.4,59.948993116977924,
,,,,,,,,,There is a 5 minute time limit to make your response. ,,,,,,,,,,,,,0,4,4,4,,,,,,,,,,,,,,,,,,,,,,,,,,,,,,,,space,8.170146751974244,,,,,,,,,,,,,,,070219_p3,001,2019_Jul_02_1332,body_behavioural,3.0.4,59.948993116977924,
,,,,,,,,,Please note that you will not be able to capitalize any letters except for the first letter of your answer. This will not effect the scoring of your recall answer.,,,,,,,,,,,,,0,5,5,5,,,,,,,,,,,,,,,,,,,,,,,,,,,,,,,,space,10.121193742961623,,,,,,,,,,,,,,,070219_p3,001,2019_Jul_02_1332,body_behavioural,3.0.4,59.948993116977924,
0,,,,,,,,,,,,,,,,,,,,,,,,,,0,0,0,0,,,,,,,,,,,,,,,,,,,,,,,,,,,,,,space,2.8705067050177604,,,,,,,,,,,,,070219_p3,001,2019_Jul_02_1332,body_behavioural,3.0.4,59.948993116977924,
1,,,,,,,,,,,,,,,,,,,,,,,,,,0,1,1,1,,,,,,,,,,,,,,,,,,,,,,,,,,,,,,space,8.018182780011557,,,,,,,,,,,,,070219_p3,001,2019_Jul_02_1332,body_behavioural,3.0.4,59.948993116977924,
2,,,,,,,,,,,,,,,,,,,,,,,,,,0,2,2,2,,,,,,,,,,,,,,,,,,,,,,,,,,,,,,space,5.587407568003982,,,,,,,,,,,,,070219_p3,001,2019_Jul_02_1332,body_behavioural,3.0.4,59.948993116977924,
3,,,,,,,,,,,,,,,,,,,,,,,,,,0,3,3,3,,,,,,,,,,,,,,,,,,,,,,,,,,,,,,space,7.203568710014224,,,,,,,,,,,,,070219_p3,001,2019_Jul_02_1332,body_behavioural,3.0.4,59.948993116977924,
4,,,,,,,,,,,,,,,,,,,,,,,,,,0,4,4,4,,,,,,,,,,,,,,,,,,,,,,,,,,,,,,space,14.26834399200743,"Alex and chloe go in to a supermarket on the day before thankgiving. the supermarket entrance was bright with sunshine pouring in through the glass and thanksgiving posters abround. alex appeared unsettles since he was planning to proposed to chloe today. they went into the supermarket and got pumpkin puree and craberry sause. chloe noticed alex discomfort but decided not to ask since she thought he would tell his feelings when he is ready. they went to lane number 3 out of 5 in total. alex checked his ring again and said i don't know when chloe asks what else they want to buy. alex proposed and people and they friend waiting at the exit was looking a taking pictures, and chloe said yes and they hugged. ",,,,,,,,,,,,070219_p3,001,2019_Jul_02_1332,body_behavioural,3.0.4,59.948993116977924,
5,,,,,,,,,,,,,,,,,,,,,,,,,,0,5,5,5,,,,,,,,,,,,,,,,,,,,,,,,,,,,,,space,1.2859200829989277,"Simon and carina were shopping at a supermarket that looked like a warehouse. they went into each other since they were both trying to get the same piece of meat for a barbeque. they were shy to break off a conversation with stranger, but simon began by jaking that the meat is cute, carina agreed. simon took up a piece of chicken next to the meat and said it could a younger brother and carina followed the joked and said unlucky brothers. simon and carina when to lane 5 of 8 of them. and simon paid for all of the groceries of 57 dollors with his credit cards. carina was shy but happy, and the cashier rolled her eyes and dais satirely they hopefully carina will not be late for the barbeque. simon invited carina to hang out around harvard square and carina agreed",,,,,,,,,,,,070219_p3,001,2019_Jul_02_1332,body_behavioural,3.0.4,59.948993116977924,
6,,,,,,,,,,,,,,,,,,,,,,,,,,0,6,6,6,,,,,,,,,,,,,,,,,,,,,,,,,,,,,,space,1.3364948080270551,,,,,,,,,,,,,070219_p3,001,2019_Jul_02_1332,body_behavioural,3.0.4,59.948993116977924,
7,,,,,,,,,,,,,,,,,,,,,,,,,,0,7,7,7,,,,,,,,,,,,,,,,,,,,,,,,,,,,,,space,5.803367507993244,,,,,,,,,,,,,070219_p3,001,2019_Jul_02_1332,body_behavioural,3.0.4,59.948993116977924,
,,,,,,,,,,,,,,,,,,,,,,,,,,,,,,,,,,,,,,,,,,,,,,,,,,,,,,,,,,,,,,5108.988169029995,space,1.5530650150030851,,,,,,,,,070219_p3,001,2019_Jul_02_1332,body_behavioural,3.0.4,59.948993116977924,
,,,,,,,,,"In this last part of the experiment, please answer 8 questions about each story.",,,,,,,,,,,,,,,,,,,,,0,0,0,0,,,,,,,,,,,,,,,,,,,,,,,,,,,,,,,,space,4.070088932989165,,,,,,,070219_p3,001,2019_Jul_02_1332,body_behavioural,3.0.4,59.948993116977924,
,,,,,,,,,Some of the questions are not related to the perspective you were asked to assume.,,,,,,,,,,,,,,,,,,,,,0,1,1,1,,,,,,,,,,,,,,,,,,,,,,,,,,,,,,,,space,14.438348104944453,,,,,,,070219_p3,001,2019_Jul_02_1332,body_behavioural,3.0.4,59.948993116977924,
,,,,,,,,,"We realize that we did not tell you to think of these questions during the story, but please do your best to answer them.",,,,,,,,,,,,,,,,,,,,,0,2,2,2,,,,,,,,,,,,,,,,,,,,,,,,,,,,,,,,space,5.353443010011688,,,,,,,070219_p3,001,2019_Jul_02_1332,body_behavioural,3.0.4,59.948993116977924,
,,,,,,,,,"When you have finished typing your answer, hit ‘return’ to submit your answer and move onto the next question. ",,,,,,,,,,,,,,,,,,,,,0,3,3,3,,,,,,,,,,,,,,,,,,,,,,,,,,,,,,,,space,5.003406294970773,,,,,,,070219_p3,001,2019_Jul_02_1332,body_behavioural,3.0.4,59.948993116977924,
,,,,,,,,,,,,,,,,,,,,,,,,,,,,,,,,,,,,,,,,,,,,,,,,,,,,,,,,,,,,,A specific topic of ancient philosphy.,,,,,,space,0.7030480109970085,Very big with seats both in front and back.,non-primed first,Ancient philosophy .,A specific topic of ancient philosphy.,,,,,,,
