count,storyText,locationEvent,socialEvent,story,locationEventSize,socialEventSize,instructText,trials.thisRepN,trials.thisTrialN,trials.thisN,trials.thisIndex,trials_7.thisRepN,trials_7.thisTrialN,trials_7.thisN,trials_7.thisIndex,trials_2.thisRepN,trials_2.thisTrialN,trials_2.thisN,trials_2.thisIndex,trials_3.thisRepN,trials_3.thisTrialN,trials_3.thisN,trials_3.thisIndex,trials_4.thisRepN,trials_4.thisTrialN,trials_4.thisN,trials_4.thisIndex,trials_5.thisRepN,trials_5.thisTrialN,trials_5.thisN,trials_5.thisIndex,trials_6.thisRepN,trials_6.thisTrialN,trials_6.thisN,trials_6.thisIndex,trials_8.thisRepN,trials_8.thisTrialN,trials_8.thisN,trials_8.thisIndex,order of stories,order of perspectives,participant 2 order - stories,participant 2 order  - schemas types,key_resp_8.keys,key_resp_8.rt,key_resp_5.keys,key_resp_5.rt,key_resp_7.keys,key_resp_7.rt,key_resp_15.keys,key_resp_15.rt,key_resp_14.keys,key_resp_14.rt,story_presses.keys,story_presses.rt,story time,key_resp_6.keys,key_resp_6.rt,key_resp_2.keys,key_resp_2.rt,key_resp_10.keys,key_resp_10.rt,recall,recall time,key_resp_12.keys,key_resp_12.rt,key_resp_3.keys,key_resp_3.rt,key_resp_11.keys,key_resp_11.rt,question1_answer,order of question,question2_answer,question3_answer,question4_answer,question5_answer,question6_answer,question7_answer,question8_answer,questions time,key_resp_13.keys,key_resp_13.rt,participant,session,date,expName,psychopyVersion,frameRate,
0,,,,,,,,0,0,0,0,0,0,0,0,,,,,,,,,,,,,,,,,,,,,,,,,[43 34 24 21 13 42 31 12 22 44 14 33 11 41 23 32],"['Location' 'Location' 'Social' 'Location' 'Social' 'Social' 'Social'
 'Location' 'Location' 'Location' 'Social' 'Location' 'Location' 'Social'
 'Social' 'Social']",[22 44 14 33 11 41 23 32],"['Location' 'Location' 'Social' 'Location' 'Location' 'Social' 'Social'
 'Social']",space,16.334994180011563,space,1.369314777024556,space,2.036568845040165,,,,,,,,,,,,,,,,,,,,,,,,,,,,,,,,,,070219_p1,001,2019_Jul_02_0951,body_behavioural,3.0.4,59.97046275834233,
0,"Carina and Simon, both distracted in thought, nearly ran into each other as they walked into the grocery store. ",1,1,43.0,,,,0,0,0,0,,,,,0,0,0,0,,,,,,,,,,,,,,,,,,,,,,,,,,,,,,,space,1.6197472710045986,space,2.587214074039366,9,16.25446050101891,,,,,,,,,,,,,,,,,,,,,,,,,,,,070219_p1,001,2019_Jul_02_0951,body_behavioural,3.0.4,59.97046275834233,
0,She almost dropped the keys she was holding. ,1,1,None,,,,0,0,0,0,,,,,0,1,1,1,,,,,,,,,,,,,,,,,,,,,,,,,,,,,,,,,,,1,3.186009467986878,,,,,,,,,,,,,,,,,,,,,,,,,,,,070219_p1,001,2019_Jul_02_0951,body_behavioural,3.0.4,59.97046275834233,
0,"The store they had entered looked like a warehouse, with high, black ceilings, industrial lights, and large packages of food. ",1,1,None,,,,0,0,0,0,,,,,0,2,2,2,,,,,,,,,,,,,,,,,,,,,,,,,,,,,,,,,,,9,18.30182996497024,,,,,,,,,,,,,,,,,,,,,,,,,,,,070219_p1,001,2019_Jul_02_0951,body_behavioural,3.0.4,59.97046275834233,
0,"In the meat section, Carina and Simon were looking over the same cuts of meat, because they were both preparing for barbecues.",2,1,None,,,,0,0,0,0,,,,,0,3,3,3,,,,,,,,,,,,,,,,,,,,,,,,,,,,,,,,,,,1,5.55334322003182,,,,,,,,,,,,,,,,,,,,,,,,,,,,070219_p1,001,2019_Jul_02_0951,body_behavioural,3.0.4,59.97046275834233,
0,"Simon had wanted to talk to Carina, and Carina had wanted to say something to Simon, but they felt embarrassed striking up a conversation with a stranger.",2,1,None,,,,0,0,0,0,,,,,0,4,4,4,,,,,,,,,,,,,,,,,,,,,,,,,,,,,,,,,,,1,8.202980951988138,,,,,,,,,,,,,,,,,,,,,,,,,,,,070219_p1,001,2019_Jul_02_0951,body_behavioural,3.0.4,59.97046275834233,
0,"Carina mustered the courage, turned to Simon and, pointing at a Cornish hen, asked, “Isn’t this meat cute?”",2,2,None,,,,0,0,0,0,,,,,0,5,5,5,,,,,,,,,,,,,,,,,,,,,,,,,,,,,,,,,,,1,5.3533113049925305,,,,,,,,,,,,,,,,,,,,,,,,,,,,070219_p1,001,2019_Jul_02_0951,body_behavioural,3.0.4,59.97046275834233,
0,"He laughed, and said, “It is very cute.",2,2,None,,,,0,0,0,0,,,,,0,6,6,6,,,,,,,,,,,,,,,,,,,,,,,,,,,,,,,,,,,1,1.419915027974639,,,,,,,,,,,,,,,,,,,,,,,,,,,,070219_p1,001,2019_Jul_02_0951,body_behavioural,3.0.4,59.97046275834233,
0,"Probably the younger brother of this guy,” and he picked up a regular-sized chicken.",2,2,None,,,,0,0,0,0,,,,,0,7,7,7,,,,,,,,,,,,,,,,,,,,,,,,,,,,,,,,,,,1,3.6532854299875908,,,,,,,,,,,,,,,,,,,,,,,,,,,,070219_p1,001,2019_Jul_02_0951,body_behavioural,3.0.4,59.97046275834233,
0,"“Unlucky family,” she responded as she shook her head. ",2,2,None,,,,0,0,0,0,,,,,0,8,8,8,,,,,,,,,,,,,,,,,,,,,,,,,,,,,,,,,,,1,2.0365022600162774,,,,,,,,,,,,,,,,,,,,,,,,,,,,070219_p1,001,2019_Jul_02_0951,body_behavioural,3.0.4,59.97046275834233,
0,They chatted as they picked out a few last-minute groceries.,2,2,None,,,,0,0,0,0,,,,,0,9,9,9,,,,,,,,,,,,,,,,,,,,,,,,,,,,,,,,,,,1,2.434742279991042,,,,,,,,,,,,,,,,,,,,,,,,,,,,070219_p1,001,2019_Jul_02_0951,body_behavioural,3.0.4,59.97046275834233,
0,"Simon helped Carina select the best ribs and his personal favorite barbecue sauce, and she helped him choose red peppers and spices for a vegetable kabob she recommended.",2,2,None,,,,0,0,0,0,,,,,0,10,10,10,,,,,,,,,,,,,,,,,,,,,,,,,,,,,,,,,,,1,4.770109275006689,,,,,,,,,,,,,,,,,,,,,,,,,,,,070219_p1,001,2019_Jul_02_0951,body_behavioural,3.0.4,59.97046275834233,
0,"In the checkout area, there were three lines open, and they went to the one labeled “8.”",3,2,None,,,,0,0,0,0,,,,,0,11,11,11,,,,,,,,,,,,,,,,,,,,,,,,,,,,,,,,,,,9,7.853354342048988,,,,,,,,,,,,,,,,,,,,,,,,,,,,070219_p1,001,2019_Jul_02_0951,body_behavioural,3.0.4,59.97046275834233,
0,"Carina and Simon made jokes about the magazine covers while waiting in line, and they were laughing so hard their stomachs hurt. ",3,2,None,,,,0,0,0,0,,,,,0,12,12,12,,,,,,,,,,,,,,,,,,,,,,,,,,,,,,,,,,,1,4.886779708031099,,,,,,,,,,,,,,,,,,,,,,,,,,,,070219_p1,001,2019_Jul_02_0951,body_behavioural,3.0.4,59.97046275834233,
0,"Simon turned to face Carina and, while looking at her straight in the eyes, asked, “Would you like to go out to dinner with me?",3,3,None,,,,0,0,0,0,,,,,0,13,13,13,,,,,,,,,,,,,,,,,,,,,,,,,,,,,,,,,,,1,5.119881233025808,,,,,,,,,,,,,,,,,,,,,,,,,,,,070219_p1,001,2019_Jul_02_0951,body_behavioural,3.0.4,59.97046275834233,
0,Next Saturday we could tour around Harvard Square and get something to eat.,3,3,None,,,,0,0,0,0,,,,,0,14,14,14,,,,,,,,,,,,,,,,,,,,,,,,,,,,,,,,,,,1,3.7175005699973553,,,,,,,,,,,,,,,,,,,,,,,,,,,,070219_p1,001,2019_Jul_02_0951,body_behavioural,3.0.4,59.97046275834233,
0,"There are a lot of great places around there, and it’s really nice during the summer.”",3,3,None,,,,0,0,0,0,,,,,0,15,15,15,,,,,,,,,,,,,,,,,,,,,,,,,,,,,,,,,,,1,2.7870017269742675,,,,,,,,,,,,,,,,,,,,,,,,,,,,070219_p1,001,2019_Jul_02_0951,body_behavioural,3.0.4,59.97046275834233,
0,"Carina smiled, “I’d love to.",3,3,None,,,,0,0,0,0,,,,,0,16,16,16,,,,,,,,,,,,,,,,,,,,,,,,,,,,,,,,,,,1,2.2696755170472898,,,,,,,,,,,,,,,,,,,,,,,,,,,,070219_p1,001,2019_Jul_02_0951,body_behavioural,3.0.4,59.97046275834233,
0,That sounds great!”,3,3,None,,,,0,0,0,0,,,,,0,17,17,17,,,,,,,,,,,,,,,,,,,,,,,,,,,,,,,,,,,1,1.1028906829888,,,,,,,,,,,,,,,,,,,,,,,,,,,,070219_p1,001,2019_Jul_02_0951,body_behavioural,3.0.4,59.97046275834233,
0,The cashier scanned Carina’s groceries.,4,3,None,,,,0,0,0,0,,,,,0,18,18,18,,,,,,,,,,,,,,,,,,,,,,,,,,,,,,,,,,,9,2.069809674983844,,,,,,,,,,,,,,,,,,,,,,,,,,,,070219_p1,001,2019_Jul_02_0951,body_behavioural,3.0.4,59.97046275834233,
0,"Simon lifted up the divider on the conveyor belt and said to the cashier, “Actually, these are together.",4,3,None,,,,0,0,0,0,,,,,0,19,19,19,,,,,,,,,,,,,,,,,,,,,,,,,,,,,,,,,,,1,5.486670777958352,,,,,,,,,,,,,,,,,,,,,,,,,,,,070219_p1,001,2019_Jul_02_0951,body_behavioural,3.0.4,59.97046275834233,
0,"Carina, I’ve got it.",4,3,None,,,,0,0,0,0,,,,,0,20,20,20,,,,,,,,,,,,,,,,,,,,,,,,,,,,,,,,,,,1,2.286470563034527,,,,,,,,,,,,,,,,,,,,,,,,,,,,070219_p1,001,2019_Jul_02_0951,body_behavioural,3.0.4,59.97046275834233,
0,This was kind-of a date today.”,4,3,None,,,,0,0,0,0,,,,,0,21,21,21,,,,,,,,,,,,,,,,,,,,,,,,,,,,,,,,,,,1,2.003106999967713,,,,,,,,,,,,,,,,,,,,,,,,,,,,070219_p1,001,2019_Jul_02_0951,body_behavioural,3.0.4,59.97046275834233,
0,Carina blushed and laughed; she thought this was ridiculous but also very sweet. ,4,3,None,,,,0,0,0,0,,,,,0,22,22,22,,,,,,,,,,,,,,,,,,,,,,,,,,,,,,,,,,,1,3.8042406890308484,,,,,,,,,,,,,,,,,,,,,,,,,,,,070219_p1,001,2019_Jul_02_0951,body_behavioural,3.0.4,59.97046275834233,
0,"The cashier rolled her eyes when they weren’t looking, and she scanned the rest of his items. ",4,3,None,,,,0,0,0,0,,,,,0,23,23,23,,,,,,,,,,,,,,,,,,,,,,,,,,,,,,,,,,,1,3.569783274026122,,,,,,,,,,,,,,,,,,,,,,,,,,,,070219_p1,001,2019_Jul_02_0951,body_behavioural,3.0.4,59.97046275834233,
0,"The total came to $52, and he paid with his credit card.",4,3,None,,,,0,0,0,0,,,,,0,24,24,24,,,,,,,,,,,,,,,,,,,,,,,,,,,,,,,,,,,1,2.053109458007384,,,,,,,,,,,,,,,,,,,,,,,,,,,,070219_p1,001,2019_Jul_02_0951,body_behavioural,3.0.4,59.97046275834233,
0,"Seeing that it was 4:30 PM on her phone, Carina gasped because she realized she was late for her own barbecue. ",4,4,None,,,,0,0,0,0,,,,,0,25,25,25,,,,,,,,,,,,,,,,,,,,,,,,,,,,,,,,,,,9,5.7363605329883285,,,,,,,,,,,,,,,,,,,,,,,,,,,,070219_p1,001,2019_Jul_02_0951,body_behavioural,3.0.4,59.97046275834233,
0,Carina thanked Simon and took her groceries and ran. ,4,4,None,,,,0,0,0,0,,,,,0,26,26,26,,,,,,,,,,,,,,,,,,,,,,,,,,,,,,,,,,,1,2.052794062998146,,,,,,,,,,,,,,,,,,,,,,,,,,,,070219_p1,001,2019_Jul_02_0951,body_behavioural,3.0.4,59.97046275834233,
0,"“I hope her guests aren’t hungry,” the cashier remarked.",4,4,None,,,,0,0,0,0,,,,,0,27,27,27,,,,,,,,,,,,,,,,,,,,,,,,,,,,,,,,,,,1,5.851032476988621,,,,,,,,,,,,,,,,,,,,,,,,,,,,070219_p1,001,2019_Jul_02_0951,body_behavioural,3.0.4,59.97046275834233,
0,Simon was thoroughly charmed and barely heard the comment as he watched her go. ,4,4,None,,,,0,0,0,0,,,,,0,28,28,28,,,,,,,,,,,,,,,,,,,,,,,,,,,,,,,,,,,1,4.419747948006261,,,,,,,,,,,,,,,,,,,,,,,,,,,,070219_p1,001,2019_Jul_02_0951,body_behavioural,3.0.4,59.97046275834233,
0,,,,,,,,0,0,0,0,,,,,,,,,,,,,,,,,,,,,,,,,,,,,,,,,,,,,,,,,,,,,,,,,,,,,,,,,,,,,,,,,,,,,,,,070219_p1,001,2019_Jul_02_0951,body_behavioural,3.0.4,59.97046275834233,
1,,,,,,,,0,1,1,1,0,0,0,0,,,,,,,,,,,,,,,,,,,,,,,,,,,,,space,1.9363942730124108,space,2.6697314030025154,space,0.8339913269737735,,,,,,,,,,,,,,,,,,,,,,,,,,,,,,,,,,070219_p1,001,2019_Jul_02_0951,body_behavioural,3.0.4,59.97046275834233,
1,"Charlie saw Alma as they walked into class, and he motioned for her to come sit in the back next to him because they had a deal to discuss.",1,1,34.0,,,,0,1,1,1,,,,,0,0,0,0,,,,,,,,,,,,,,,,,,,,,,,,,,,,,,,space,1.3191352300345898,space,1.0696423629997298,9,12.703858121996745,,,,,,,,,,,,,,,,,,,,,,,,,,,,070219_p1,001,2019_Jul_02_0951,body_behavioural,3.0.4,59.97046275834233,
1,Charlie and Alma were both history majors with entrepreneurial bents.,1,1,None,,,,0,1,1,1,,,,,0,1,1,1,,,,,,,,,,,,,,,,,,,,,,,,,,,,,,,,,,,9,5.603440253005829,,,,,,,,,,,,,,,,,,,,,,,,,,,,070219_p1,001,2019_Jul_02_0951,body_behavioural,3.0.4,59.97046275834233,
1,They were also both very busy and happened to be in the same class.,1,1,None,,,,0,1,1,1,,,,,0,2,2,2,,,,,,,,,,,,,,,,,,,,,,,,,,,,,,,,,,,1,5.570176981971599,,,,,,,,,,,,,,,,,,,,,,,,,,,,070219_p1,001,2019_Jul_02_0951,body_behavioural,3.0.4,59.97046275834233,
1,"After talking at a party, Charlie had discovered that Alma was looking for financing for her web development company of which she was the founder and CEO.",1,1,None,,,,0,1,1,1,,,,,0,3,3,3,,,,,,,,,,,,,,,,,,,,,,,,,,,,,,,,,,,1,7.066450642014388,,,,,,,,,,,,,,,,,,,,,,,,,,,,070219_p1,001,2019_Jul_02_0951,body_behavioural,3.0.4,59.97046275834233,
1,"It was serendipitous because he was an investment analyst for a student finance group on campus, and he had just been talking with other members of the group about making a new investment. ",1,1,None,,,,0,1,1,1,,,,,0,4,4,4,,,,,,,,,,,,,,,,,,,,,,,,,,,,,,,,,,,1,2.902796968992334,,,,,,,,,,,,,,,,,,,,,,,,,,,,070219_p1,001,2019_Jul_02_0951,body_behavioural,3.0.4,59.97046275834233,
1,"His financial group had come to a decision that morning about Alma’s startup, and he didn't want to wait until after class to discuss the proposal with her. ",1,1,None,,,,0,1,1,1,,,,,0,5,5,5,,,,,,,,,,,,,,,,,,,,,,,,,,,,,,,,,,,1,2.6864688000059687,,,,,,,,,,,,,,,,,,,,,,,,,,,,070219_p1,001,2019_Jul_02_0951,body_behavioural,3.0.4,59.97046275834233,
1,The class was in a medium-sized auditorium which was brightly lit and very modern-looking. ,1,1,None,,,,0,1,1,1,,,,,0,6,6,6,,,,,,,,,,,,,,,,,,,,,,,,,,,,,,,,,,,9,1.8865310460096225,,,,,,,,,,,,,,,,,,,,,,,,,,,,070219_p1,001,2019_Jul_02_0951,body_behavioural,3.0.4,59.97046275834233,
1,There were three projector screens in the front and each row of the audience which had a table with power outlets and USB ports. ,1,1,None,,,,0,1,1,1,,,,,0,7,7,7,,,,,,,,,,,,,,,,,,,,,,,,,,,,,,,,,,,1,1.552448940987233,,,,,,,,,,,,,,,,,,,,,,,,,,,,070219_p1,001,2019_Jul_02_0951,body_behavioural,3.0.4,59.97046275834233,
1,"“Here we are at Lecture Seven of Archaeology of Rome,” said the professor. ",2,1,None,,,,0,1,1,1,,,,,0,8,8,8,,,,,,,,,,,,,,,,,,,,,,,,,,,,,,,,,,,1,2.2529243630124256,,,,,,,,,,,,,,,,,,,,,,,,,,,,070219_p1,001,2019_Jul_02_0951,body_behavioural,3.0.4,59.97046275834233,
1,"“The topic for today is Augustus, an incredibly important influence in Roman architecture.” ",2,1,None,,,,0,1,1,1,,,,,0,9,9,9,,,,,,,,,,,,,,,,,,,,,,,,,,,,,,,,,,,1,1.0027998890145682,,,,,,,,,,,,,,,,,,,,,,,,,,,,070219_p1,001,2019_Jul_02_0951,body_behavioural,3.0.4,59.97046275834233,
1,She went into some recap of the last lecture.,2,1,None,,,,0,1,1,1,,,,,0,10,10,10,,,,,,,,,,,,,,,,,,,,,,,,,,,,,,,,,,,1,1.4030264060129412,,,,,,,,,,,,,,,,,,,,,,,,,,,,070219_p1,001,2019_Jul_02_0951,body_behavioural,3.0.4,59.97046275834233,
1,"Charlie turned to Alma and said, “Okay, so I’ve been thinking about your startup, and I have talked about it with my fellow investors.",2,2,None,,,,0,1,1,1,,,,,0,11,11,11,,,,,,,,,,,,,,,,,,,,,,,,,,,,,,,,,,,9,3.753749521973077,,,,,,,,,,,,,,,,,,,,,,,,,,,,070219_p1,001,2019_Jul_02_0951,body_behavioural,3.0.4,59.97046275834233,
1,We’d like to invest half of what you originally suggested.,2,2,None,,,,0,1,1,1,,,,,0,12,12,12,,,,,,,,,,,,,,,,,,,,,,,,,,,,,,,,,,,1,2.4691210300079547,,,,,,,,,,,,,,,,,,,,,,,,,,,,070219_p1,001,2019_Jul_02_0951,body_behavioural,3.0.4,59.97046275834233,
1,"So we propose we start with wiring you $28,000.",2,2,None,,,,0,1,1,1,,,,,0,13,13,13,,,,,,,,,,,,,,,,,,,,,,,,,,,,,,,,,,,1,1.1529986570239998,,,,,,,,,,,,,,,,,,,,,,,,,,,,070219_p1,001,2019_Jul_02_0951,body_behavioural,3.0.4,59.97046275834233,
1,We would see how the company does and then invest the other half.” ,2,2,None,,,,0,1,1,1,,,,,0,14,14,14,,,,,,,,,,,,,,,,,,,,,,,,,,,,,,,,,,,1,1.9031523650046438,,,,,,,,,,,,,,,,,,,,,,,,,,,,070219_p1,001,2019_Jul_02_0951,body_behavioural,3.0.4,59.97046275834233,
1,"The professor said, “The senate had conferred upon him the title of Augustus, the sacred and revered one, the restorer of traditional values, the city’s new religious leader, the restorer of temples. ",3,2,None,,,,0,1,1,1,,,,,0,15,15,15,,,,,,,,,,,,,,,,,,,,,,,,,,,,,,,,,,,9,1.9005844200146385,,,,,,,,,,,,,,,,,,,,,,,,,,,,070219_p1,001,2019_Jul_02_0951,body_behavioural,3.0.4,59.97046275834233,
1,"Augustus also sought to beautify Rome, make it into a new Athens, and dispel the criticisms of Rome as disorganized and ugly.”",3,2,None,,,,0,1,1,1,,,,,0,16,16,16,,,,,,,,,,,,,,,,,,,,,,,,,,,,,,,,,,,1,2.6028035290073603,,,,,,,,,,,,,,,,,,,,,,,,,,,,070219_p1,001,2019_Jul_02_0951,body_behavioural,3.0.4,59.97046275834233,
1,"Alma turned to Charlie and offered her rebuttal, “I don’t know about that.",3,3,None,,,,0,1,1,1,,,,,0,17,17,17,,,,,,,,,,,,,,,,,,,,,,,,,,,,,,,,,,,9,3.8692828649654984,,,,,,,,,,,,,,,,,,,,,,,,,,,,070219_p1,001,2019_Jul_02_0951,body_behavioural,3.0.4,59.97046275834233,
1,It’s not going to be possible to implement our ideas effectively unless the project is fully funded. ,3,3,None,,,,0,1,1,1,,,,,0,18,18,18,,,,,,,,,,,,,,,,,,,,,,,,,,,,,,,,,,,1,2.603192713984754,,,,,,,,,,,,,,,,,,,,,,,,,,,,070219_p1,001,2019_Jul_02_0951,body_behavioural,3.0.4,59.97046275834233,
1,"We would have to find other investors like your competitor on campus, Churchill Capital Group, and that would set us back in our timeline. ",3,3,None,,,,0,1,1,1,,,,,0,19,19,19,,,,,,,,,,,,,,,,,,,,,,,,,,,,,,,,,,,1,1.2861536569544114,,,,,,,,,,,,,,,,,,,,,,,,,,,,070219_p1,001,2019_Jul_02_0951,body_behavioural,3.0.4,59.97046275834233,
1,"Our profit projections assumed we'd be starting relatively soon, not months down the line.” ",3,3,None,,,,0,1,1,1,,,,,0,20,20,20,,,,,,,,,,,,,,,,,,,,,,,,,,,,,,,,,,,1,1.0529616679996252,,,,,,,,,,,,,,,,,,,,,,,,,,,,070219_p1,001,2019_Jul_02_0951,body_behavioural,3.0.4,59.97046275834233,
1,They whispered back and forth during the entire class working out a compromise. ,3,3,None,,,,0,1,1,1,,,,,0,21,21,21,,,,,,,,,,,,,,,,,,,,,,,,,,,,,,,,,,,1,1.3193269009934738,,,,,,,,,,,,,,,,,,,,,,,,,,,,070219_p1,001,2019_Jul_02_0951,body_behavioural,3.0.4,59.97046275834233,
1,The professor dismissed the students with a reminder that the midterm paper was due on Thursday and that they should email their papers to the TA.,4,3,None,,,,0,1,1,1,,,,,0,22,22,22,,,,,,,,,,,,,,,,,,,,,,,,,,,,,,,,,,,9,3.253205219982192,,,,,,,,,,,,,,,,,,,,,,,,,,,,070219_p1,001,2019_Jul_02_0951,body_behavioural,3.0.4,59.97046275834233,
1,"Everyone, except Charlie and Alma, packed up their things and headed out of the lecture hall. ",4,3,None,,,,0,1,1,1,,,,,0,23,23,23,,,,,,,,,,,,,,,,,,,,,,,,,,,,,,,,,,,1,3.5869745049858466,,,,,,,,,,,,,,,,,,,,,,,,,,,,070219_p1,001,2019_Jul_02_0951,body_behavioural,3.0.4,59.97046275834233,
1,"“Alright, so we’ll have the $30,000 wired to you by tomorrow,” Charlie said. ",4,4,None,,,,0,1,1,1,,,,,0,24,24,24,,,,,,,,,,,,,,,,,,,,,,,,,,,,,,,,,,,1,1.7844395430292934,,,,,,,,,,,,,,,,,,,,,,,,,,,,070219_p1,001,2019_Jul_02_0951,body_behavioural,3.0.4,59.97046275834233,
1,"This wasn't ideal for Charlie, but Alma had refused to budge, and his investment group had told him they were willing to pay the full amount if necessary. ",4,4,None,,,,0,1,1,1,,,,,0,25,25,25,,,,,,,,,,,,,,,,,,,,,,,,,,,,,,,,,,,1,2.7528237840160728,,,,,,,,,,,,,,,,,,,,,,,,,,,,070219_p1,001,2019_Jul_02_0951,body_behavioural,3.0.4,59.97046275834233,
1,They got up and hugged in confirmation of the deal and made plans to sign the official paperwork the next day. ,4,4,None,,,,0,1,1,1,,,,,0,26,26,26,,,,,,,,,,,,,,,,,,,,,,,,,,,,,,,,,,,1,3.720423760008998,,,,,,,,,,,,,,,,,,,,,,,,,,,,070219_p1,001,2019_Jul_02_0951,body_behavioural,3.0.4,59.97046275834233,
1,,,,,,,,0,1,1,1,,,,,,,,,,,,,,,,,,,,,,,,,,,,,,,,,,,,,,,,,,,,,,,,,,,,,,,,,,,,,,,,,,,,,,,,070219_p1,001,2019_Jul_02_0951,body_behavioural,3.0.4,59.97046275834233,
2,,,,,,,,0,2,2,2,0,0,0,0,,,,,,,,,,,,,,,,,,,,,,,,,,,,,space,1.0177143369801342,space,0.8527979470090941,space,0.5692649350385182,,,,,,,,,,,,,,,,,,,,,,,,,,,,,,,,,,070219_p1,001,2019_Jul_02_0951,body_behavioural,3.0.4,59.97046275834233,
2,"Lana walked into lecture holding hands with her boyfriend, Aaron, who was trying to contain his excitement about proposing to Lana in this class.",1,1,24.0,,,,0,2,2,2,,,,,0,0,0,0,,,,,,,,,,,,,,,,,,,,,,,,,,,,,,,space,1.2364429079461843,space,0.8858712560031563,9,1.5373325970140286,,,,,,,,,,,,,,,,,,,,,,,,,,,,070219_p1,001,2019_Jul_02_0951,body_behavioural,3.0.4,59.97046275834233,
2,"Lana was lost in thought, puzzling over an integral on her problem set for another class.",1,1,None,,,,0,2,2,2,,,,,0,1,1,1,,,,,,,,,,,,,,,,,,,,,,,,,,,,,,,,,,,1,2.6698385479976423,,,,,,,,,,,,,,,,,,,,,,,,,,,,070219_p1,001,2019_Jul_02_0951,body_behavioural,3.0.4,59.97046275834233,
2,"The lecture hall they had entered was the fanciest one at Princeton, with chandeliers, high ceilings, wood floors, and a large projector screen where chalkboards used to be. ",1,1,None,,,,0,2,2,2,,,,,0,2,2,2,,,,,,,,,,,,,,,,,,,,,,,,,,,,,,,,,,,1,7.33750671002781,,,,,,,,,,,,,,,,,,,,,,,,,,,,070219_p1,001,2019_Jul_02_0951,body_behavioural,3.0.4,59.97046275834233,
2,Aaron and Lana had met when they first started dating three years ago in freshman year.,1,1,None,,,,0,2,2,2,,,,,0,3,3,3,,,,,,,,,,,,,,,,,,,,,,,,,,,,,,,,,,,9,2.28704176802421,,,,,,,,,,,,,,,,,,,,,,,,,,,,070219_p1,001,2019_Jul_02_0951,body_behavioural,3.0.4,59.97046275834233,
2,They coincidentally had another class together in this same lecture hall. ,1,1,None,,,,0,2,2,2,,,,,0,4,4,4,,,,,,,,,,,,,,,,,,,,,,,,,,,,,,,,,,,1,2.019821038004011,,,,,,,,,,,,,,,,,,,,,,,,,,,,070219_p1,001,2019_Jul_02_0951,body_behavioural,3.0.4,59.97046275834233,
2,The professor caught Aaron's eye as he walked up to the front of the classroom and gave him a wink before the lecture began. ,1,1,None,,,,0,2,2,2,,,,,0,5,5,5,,,,,,,,,,,,,,,,,,,,,,,,,,,,,,,,,,,1,8.083871434966568,,,,,,,,,,,,,,,,,,,,,,,,,,,,070219_p1,001,2019_Jul_02_0951,body_behavioural,3.0.4,59.97046275834233,
2,Aaron flashed him a half-smile and nodded. ,1,1,None,,,,0,2,2,2,,,,,0,6,6,6,,,,,,,,,,,,,,,,,,,,,,,,,,,,,,,,,,,1,1.5704713580198586,,,,,,,,,,,,,,,,,,,,,,,,,,,,070219_p1,001,2019_Jul_02_0951,body_behavioural,3.0.4,59.97046275834233,
2,"The professor cleared his throat and said,“Alright, good afternoon, everyone!",2,1,None,,,,0,2,2,2,,,,,0,7,7,7,,,,,,,,,,,,,,,,,,,,,,,,,,,,,,,,,,,1,2.3027640420477837,,,,,,,,,,,,,,,,,,,,,,,,,,,,070219_p1,001,2019_Jul_02_0951,body_behavioural,3.0.4,59.97046275834233,
2,Welcome to another week of Introduction to Chemistry,2,1,None,,,,0,2,2,2,,,,,0,8,8,8,,,,,,,,,,,,,,,,,,,,,,,,,,,,,,,,,,,1,1.636958888033405,,,,,,,,,,,,,,,,,,,,,,,,,,,,070219_p1,001,2019_Jul_02_0951,body_behavioural,3.0.4,59.97046275834233,
2,This week the topic is ions.,2,1,None,,,,0,2,2,2,,,,,0,9,9,9,,,,,,,,,,,,,,,,,,,,,,,,,,,,,,,,,,,1,1.8530783919850364,,,,,,,,,,,,,,,,,,,,,,,,,,,,070219_p1,001,2019_Jul_02_0951,body_behavioural,3.0.4,59.97046275834233,
2,"Now, let me get my computer set up, and while I do that, does anyone want to tell me what makes elements definitionally distinct from one another.”",2,1,None,,,,0,2,2,2,,,,,0,10,10,10,,,,,,,,,,,,,,,,,,,,,,,,,,,,,,,,,,,1,4.303234789986163,,,,,,,,,,,,,,,,,,,,,,,,,,,,070219_p1,001,2019_Jul_02_0951,body_behavioural,3.0.4,59.97046275834233,
2,Lana pulled out the problem set she was thinking about as Aaron unzipped the small pocket in his backpack and pulled out the ring.,2,2,None,,,,0,2,2,2,,,,,0,11,11,11,,,,,,,,,,,,,,,,,,,,,,,,,,,,,,,,,,,1,10.62093128298875,,,,,,,,,,,,,,,,,,,,,,,,,,,,070219_p1,001,2019_Jul_02_0951,body_behavioural,3.0.4,59.97046275834233,
2,"Turning away from her, he looked it over yet again. ",2,2,None,,,,0,2,2,2,,,,,0,12,12,12,,,,,,,,,,,,,,,,,,,,,,,,,,,,,,,,,,,1,3.769879508006852,,,,,,,,,,,,,,,,,,,,,,,,,,,,070219_p1,001,2019_Jul_02_0951,body_behavioural,3.0.4,59.97046275834233,
2,"Instead of one large diamond, there were 5 red diamonds embedded in a thick band. ",2,2,None,,,,0,2,2,2,,,,,0,13,13,13,,,,,,,,,,,,,,,,,,,,,,,,,,,,,,,,,,,1,7.970860093017109,,,,,,,,,,,,,,,,,,,,,,,,,,,,070219_p1,001,2019_Jul_02_0951,body_behavioural,3.0.4,59.97046275834233,
2,He knew Lana would like this because her style was more avant-garde than traditional.,2,2,None,,,,0,2,2,2,,,,,0,14,14,14,,,,,,,,,,,,,,,,,,,,,,,,,,,,,,,,,,,1,4.869773996004369,,,,,,,,,,,,,,,,,,,,,,,,,,,,070219_p1,001,2019_Jul_02_0951,body_behavioural,3.0.4,59.97046275834233,
2,"The professor said, “Remember, class, that the number of protons determines the identity of the element. ",3,2,None,,,,0,2,2,2,,,,,0,15,15,15,,,,,,,,,,,,,,,,,,,,,,,,,,,,,,,,,,,9,2.636286709981505,,,,,,,,,,,,,,,,,,,,,,,,,,,,070219_p1,001,2019_Jul_02_0951,body_behavioural,3.0.4,59.97046275834233,
2,"So for example, all atoms of sodium have 11 protons in the nucleus. ",3,2,None,,,,0,2,2,2,,,,,0,16,16,16,,,,,,,,,,,,,,,,,,,,,,,,,,,,,,,,,,,1,1.4862451680237427,,,,,,,,,,,,,,,,,,,,,,,,,,,,070219_p1,001,2019_Jul_02_0951,body_behavioural,3.0.4,59.97046275834233,
2,"And if you look on the periodic table, the atomic number for sodium, the symbol is Na, is eleven.",3,2,None,,,,0,2,2,2,,,,,0,17,17,17,,,,,,,,,,,,,,,,,,,,,,,,,,,,,,,,,,,1,2.0365848979563452,,,,,,,,,,,,,,,,,,,,,,,,,,,,070219_p1,001,2019_Jul_02_0951,body_behavioural,3.0.4,59.97046275834233,
2,"An ion retains the same number of protons despite losing electrons, and therefore keeps the same identity in the periodic table. ",3,2,None,,,,0,2,2,2,,,,,0,18,18,18,,,,,,,,,,,,,,,,,,,,,,,,,,,,,,,,,,,1,0.6530895779724233,,,,,,,,,,,,,,,,,,,,,,,,,,,,070219_p1,001,2019_Jul_02_0951,body_behavioural,3.0.4,59.97046275834233,
2,Lana and Aaron tried to take notes during the lecture.,3,2,None,,,,0,2,2,2,,,,,0,19,19,19,,,,,,,,,,,,,,,,,,,,,,,,,,,,,,,,,,,1,8.853633382997941,,,,,,,,,,,,,,,,,,,,,,,,,,,,070219_p1,001,2019_Jul_02_0951,body_behavioural,3.0.4,59.97046275834233,
2,"Right after talking about how two ions bond into one stable molecule by covalent bonds, the professor stopped the lecture, gave another wink to Aaron, and asked Lana to come to the front of the class to do a demonstration. ",3,3,None,,,,0,2,2,2,,,,,0,20,20,20,,,,,,,,,,,,,,,,,,,,,,,,,,,,,,,,,,,9,12.437802840024233,,,,,,,,,,,,,,,,,,,,,,,,,,,,070219_p1,001,2019_Jul_02_0951,body_behavioural,3.0.4,59.97046275834233,
2,"She walked to the front of the class confused, and the professor asked her to stand in the middle of the stage.",3,3,None,,,,0,2,2,2,,,,,0,21,21,21,,,,,,,,,,,,,,,,,,,,,,,,,,,,,,,,,,,1,5.569964160036761,,,,,,,,,,,,,,,,,,,,,,,,,,,,070219_p1,001,2019_Jul_02_0951,body_behavioural,3.0.4,59.97046275834233,
2,"Then Aaron walked up and, taking Lana’s hand, got down on one knee. ",3,3,None,,,,0,2,2,2,,,,,0,22,22,22,,,,,,,,,,,,,,,,,,,,,,,,,,,,,,,,,,,1,4.003276634961367,,,,,,,,,,,,,,,,,,,,,,,,,,,,070219_p1,001,2019_Jul_02_0951,body_behavioural,3.0.4,59.97046275834233,
2,The professor quickly switched to the last slide on the powerpoint which was a photo collage Aaron had sent him of pictures of Aaron and Lana. ,3,3,None,,,,0,2,2,2,,,,,0,23,23,23,,,,,,,,,,,,,,,,,,,,,,,,,,,,,,,,,,,1,4.753717367013451,,,,,,,,,,,,,,,,,,,,,,,,,,,,070219_p1,001,2019_Jul_02_0951,body_behavioural,3.0.4,59.97046275834233,
2,"“It's time for us to make a bond of our own, Lana.”",3,3,None,,,,0,2,2,2,,,,,0,24,24,24,,,,,,,,,,,,,,,,,,,,,,,,,,,,,,,,,,,1,6.217628740007058,,,,,,,,,,,,,,,,,,,,,,,,,,,,070219_p1,001,2019_Jul_02_0951,body_behavioural,3.0.4,59.97046275834233,
2,He opened the small notebook he had in his hand and the ring was sitting on the page. ,3,3,None,,,,0,2,2,2,,,,,0,25,25,25,,,,,,,,,,,,,,,,,,,,,,,,,,,,,,,,,,,1,3.286550377961248,,,,,,,,,,,,,,,,,,,,,,,,,,,,070219_p1,001,2019_Jul_02_0951,body_behavioural,3.0.4,59.97046275834233,
2,“Will you marry me?” ,3,3,None,,,,0,2,2,2,,,,,0,26,26,26,,,,,,,,,,,,,,,,,,,,,,,,,,,,,,,,,,,1,1.6508707100292668,,,,,,,,,,,,,,,,,,,,,,,,,,,,070219_p1,001,2019_Jul_02_0951,body_behavioural,3.0.4,59.97046275834233,
2,"Lana had put her hand over her mouth and tears were streaming down her face, but finally, she said, “Yes!”",3,4,None,,,,0,2,2,2,,,,,0,27,27,27,,,,,,,,,,,,,,,,,,,,,,,,,,,,,,,,,,,1,3.3842182920197956,,,,,,,,,,,,,,,,,,,,,,,,,,,,070219_p1,001,2019_Jul_02_0951,body_behavioural,3.0.4,59.97046275834233,
2,"Aaron put the ring on her finger, and they hugged while the whole class applauded and cheered. ",3,4,None,,,,0,2,2,2,,,,,0,28,28,28,,,,,,,,,,,,,,,,,,,,,,,,,,,,,,,,,,,1,2.5194291270454414,,,,,,,,,,,,,,,,,,,,,,,,,,,,070219_p1,001,2019_Jul_02_0951,body_behavioural,3.0.4,59.97046275834233,
2,"Their friends, who had been secretly waiting outside, came into the class and embraced both of them.",3,4,None,,,,0,2,2,2,,,,,0,29,29,29,,,,,,,,,,,,,,,,,,,,,,,,,,,,,,,,,,,1,3.052978675987106,,,,,,,,,,,,,,,,,,,,,,,,,,,,070219_p1,001,2019_Jul_02_0951,body_behavioural,3.0.4,59.97046275834233,
2,The professor gave Aaron a celebratory handshake.,3,4,None,,,,0,2,2,2,,,,,0,30,30,30,,,,,,,,,,,,,,,,,,,,,,,,,,,,,,,,,,,1,1.33686697302619,,,,,,,,,,,,,,,,,,,,,,,,,,,,070219_p1,001,2019_Jul_02_0951,body_behavioural,3.0.4,59.97046275834233,
2,"They made their way back to their seats, and Lana pulled out her phone to text her sister",3,4,None,,,,0,2,2,2,,,,,0,31,31,31,,,,,,,,,,,,,,,,,,,,,,,,,,,,,,,,,,,1,2.5032145540462807,,,,,,,,,,,,,,,,,,,,,,,,,,,,070219_p1,001,2019_Jul_02_0951,body_behavioural,3.0.4,59.97046275834233,
2,"The professor dismissed the class, saying, “That was enough excitement for today!",4,4,None,,,,0,2,2,2,,,,,0,32,32,32,,,,,,,,,,,,,,,,,,,,,,,,,,,,,,,,,,,1,3.537336920038797,,,,,,,,,,,,,,,,,,,,,,,,,,,,070219_p1,001,2019_Jul_02_0951,body_behavioural,3.0.4,59.97046275834233,
2,Don’t forget there’s a midterm exam next week on Monday on the material covered in the first 4 weeks of the semester.,4,4,None,,,,0,2,2,2,,,,,0,33,33,33,,,,,,,,,,,,,,,,,,,,,,,,,,,,,,,,,,,1,2.31745462998515,,,,,,,,,,,,,,,,,,,,,,,,,,,,070219_p1,001,2019_Jul_02_0951,body_behavioural,3.0.4,59.97046275834233,
2,"As everyone was packing up their notebooks and leaving, Lana and Aaron were surrounded by their friends eager to get a glimpse of the ring and congratulate them. ",4,4,None,,,,0,2,2,2,,,,,0,34,34,34,,,,,,,,,,,,,,,,,,,,,,,,,,,,,,,,,,,9,2.517271124990657,,,,,,,,,,,,,,,,,,,,,,,,,,,,070219_p1,001,2019_Jul_02_0951,body_behavioural,3.0.4,59.97046275834233,
2,,,,,,,,0,2,2,2,,,,,,,,,,,,,,,,,,,,,,,,,,,,,,,,,,,,,,,,,,,,,,,,,,,,,,,,,,,,,,,,,,,,,,,,070219_p1,001,2019_Jul_02_0951,body_behavioural,3.0.4,59.97046275834233,
3,,,,,,,,0,3,3,3,0,0,0,0,,,,,,,,,,,,,,,,,,,,,,,,,,,,,space,1.4201108220149763,space,0.7358314649900422,space,0.48627148399828,,,,,,,,,,,,,,,,,,,,,,,,,,,,,,,,,,070219_p1,001,2019_Jul_02_0951,body_behavioural,3.0.4,59.97046275834233,
3,"Alvira and Senna walked into the restaurant hand in sweaty hand with quite different expectations for the night because Senna, after 5 years of dating, was going to propose, and Alvira had no idea.",1,1,21.0,None,None,,0,3,3,3,,,,,0,0,0,0,,,,,,,,,,,,,,,,,,,,,,,,,,,,,,,space,0.8029002029797994,space,0.9697904799832031,9,11.520501749997493,,,,,,,,,,,,,,,,,,,,,,,,,,,,070219_p1,001,2019_Jul_02_0951,body_behavioural,3.0.4,59.97046275834233,
3,"He took a deep breath, trying to calm his nerves as worst case scenarios ran through his mind. ",1,1,None,None,None,,0,3,3,3,,,,,0,1,1,1,,,,,,,,,,,,,,,,,,,,,,,,,,,,,,,,,,,1,2.6676485359785147,,,,,,,,,,,,,,,,,,,,,,,,,,,,070219_p1,001,2019_Jul_02_0951,body_behavioural,3.0.4,59.97046275834233,
3,The restaurant was on the beach and had floor-to-ceiling arched windows that framed an incredible view of the Pacific Ocean.,1,1,None,None,None,,0,3,3,3,,,,,0,2,2,2,,,,,,,,,,,,,,,,,,,,,,,,,,,,,,,,,,,9,2.554896545014344,,,,,,,,,,,,,,,,,,,,,,,,,,,,070219_p1,001,2019_Jul_02_0951,body_behavioural,3.0.4,59.97046275834233,
3,"Besides the view, the restaurant itself was beautiful- crystal chandeliers hung from the high ceiling above small tables covered with white table cloths.
",1,1,None,None,None,,0,3,3,3,,,,,0,3,3,3,,,,,,,,,,,,,,,,,,,,,,,,,,,,,,,,,,,1,2.8365279550198466,,,,,,,,,,,,,,,,,,,,,,,,,,,,070219_p1,001,2019_Jul_02_0951,body_behavioural,3.0.4,59.97046275834233,
3,This was surely one of the best restaurants on the West Coast.,1,1,None,None,None,,0,3,3,3,,,,,0,4,4,4,,,,,,,,,,,,,,,,,,,,,,,,,,,,,,,,,,,1,1.6697354529751465,,,,,,,,,,,,,,,,,,,,,,,,,,,,070219_p1,001,2019_Jul_02_0951,body_behavioural,3.0.4,59.97046275834233,
3,"After Senna gave his name to the host, who discretely winked at Senna, they were seated at a table right by the window. ",2,1,None,7.0,None,,0,3,3,3,,,,,0,5,5,5,,,,,,,,,,,,,,,,,,,,,,,,,,,,,,,,,,,9,1.6840675279963762,,,,,,,,,,,,,,,,,,,,,,,,,,,,070219_p1,001,2019_Jul_02_0951,body_behavioural,3.0.4,59.97046275834233,
3,The waiter brought out some very small menus.,2,1,None,None,9.0,,0,3,3,3,,,,,0,6,6,6,,,,,,,,,,,,,,,,,,,,,,,,,,,,,,,,,,,1,1.3698042840114795,,,,,,,,,,,,,,,,,,,,,,,,,,,,070219_p1,001,2019_Jul_02_0951,body_behavioural,3.0.4,59.97046275834233,
3,"They consisted of a short list of the head chef's carefully selected daily dishes written in a loopy, cursive font unadorned by any mention of prices.",2,1,None,None,None,,0,3,3,3,,,,,0,7,7,7,,,,,,,,,,,,,,,,,,,,,,,,,,,,,,,,,,,9,1.5363510000170209,,,,,,,,,,,,,,,,,,,,,,,,,,,,070219_p1,001,2019_Jul_02_0951,body_behavioural,3.0.4,59.97046275834233,
3,"Senna got nervous about the ring, and he slipped off to the bathroom to check to make sure it looked alright.",2,2,None,None,None,,0,3,3,3,,,,,0,8,8,8,,,,,,,,,,,,,,,,,,,,,,,,,,,,,,,,,,,1,2.9365417300141416,,,,,,,,,,,,,,,,,,,,,,,,,,,,070219_p1,001,2019_Jul_02_0951,body_behavioural,3.0.4,59.97046275834233,
3,The ring contained three canary yellow diamonds that had been in his grandmother’s wedding ring. ,2,2,None,None,None,,0,3,3,3,,,,,0,9,9,9,,,,,,,,,,,,,,,,,,,,,,,,,,,,,,,,,,,1,2.350814078003168,,,,,,,,,,,,,,,,,,,,,,,,,,,,070219_p1,001,2019_Jul_02_0951,body_behavioural,3.0.4,59.97046275834233,
3,"After Senna had gotten back to the table, the waiter appeared at their table to take their order.",3,2,None,None,None,,0,3,3,3,,,,,0,10,10,10,,,,,,,,,,,,,,,,,,,,,,,,,,,,,,,,,,,9,5.386601572972722,,,,,,,,,,,,,,,,,,,,,,,,,,,,070219_p1,001,2019_Jul_02_0951,body_behavioural,3.0.4,59.97046275834233,
3,"Senna ordered the oysters with garlic-parmesan sauce, and Alvira ordered the sauteed sea scallops with caramelized apples. ",3,2,None,None,None,,0,3,3,3,,,,,0,11,11,11,,,,,,,,,,,,,,,,,,,,,,,,,,,,,,,,,,,1,1.7506753170164302,,,,,,,,,,,,,,,,,,,,,,,,,,,,070219_p1,001,2019_Jul_02_0951,body_behavioural,3.0.4,59.97046275834233,
3,"“Excellent choices,” the waiter said, and he left.",3,2,None,None,None,,0,3,3,3,,,,,0,12,12,12,,,,,,,,,,,,,,,,,,,,,,,,,,,,,,,,,,,1,1.4530595780233853,,,,,,,,,,,,,,,,,,,,,,,,,,,,070219_p1,001,2019_Jul_02_0951,body_behavioural,3.0.4,59.97046275834233,
3,"“What a beautiful place, Senna. ",3,2,None,None,None,,0,3,3,3,,,,,0,13,13,13,,,,,,,,,,,,,,,,,,,,,,,,,,,,,,,,,,,1,2.2030453630140983,,,,,,,,,,,,,,,,,,,,,,,,,,,,070219_p1,001,2019_Jul_02_0951,body_behavioural,3.0.4,59.97046275834233,
3,"This is too much just to celebrate the first tomatoes I grew in the garden- really, this is absurd,” Alvira said.",3,2,None,None,None,,0,3,3,3,,,,,0,14,14,14,,,,,,,,,,,,,,,,,,,,,,,,,,,,,,,,,,,1,3.8696670799981803,,,,,,,,,,,,,,,,,,,,,,,,,,,,070219_p1,001,2019_Jul_02_0951,body_behavioural,3.0.4,59.97046275834233,
3,"Senna laughed and said, “No, those were really the best tomatoes I’ve ever had. ",3,2,None,None,None,,0,3,3,3,,,,,0,15,15,15,,,,,,,,,,,,,,,,,,,,,,,,,,,,,,,,,,,1,2.7033031469909474,,,,,,,,,,,,,,,,,,,,,,,,,,,,070219_p1,001,2019_Jul_02_0951,body_behavioural,3.0.4,59.97046275834233,
3,We had to celebrate.” ,3,2,None,None,None,,0,3,3,3,,,,,0,16,16,16,,,,,,,,,,,,,,,,,,,,,,,,,,,,,,,,,,,1,0.9025632219854742,,,,,,,,,,,,,,,,,,,,,,,,,,,,070219_p1,001,2019_Jul_02_0951,body_behavioural,3.0.4,59.97046275834233,
3,"They talked and laughed as the sun sank below the horizon, lighting up the sky and water, and slowly the glow from the windows was replaced by the chandeliers.",3,2,None,8.0,None,,0,3,3,3,,,,,0,17,17,17,,,,,,,,,,,,,,,,,,,,,,,,,,,,,,,,,,,9,2.952970220008865,,,,,,,,,,,,,,,,,,,,,,,,,,,,070219_p1,001,2019_Jul_02_0951,body_behavioural,3.0.4,59.97046275834233,
3,The waiter returned with their dishes.,4,2,None,None,None,,0,3,3,3,,,,,0,18,18,18,,,,,,,,,,,,,,,,,,,,,,,,,,,,,,,,,,,1,0.9006461700191721,,,,,,,,,,,,,,,,,,,,,,,,,,,,070219_p1,001,2019_Jul_02_0951,body_behavioural,3.0.4,59.97046275834233,
3,"Everything was even more delicious than they had expected, especially the oysters, which Senna said tasted like the ocean. ",4,2,None,None,None,,0,3,3,3,,,,,0,19,19,19,,,,,,,,,,,,,,,,,,,,,,,,,,,,,,,,,,,1,3.5364796870271675,,,,,,,,,,,,,,,,,,,,,,,,,,,,070219_p1,001,2019_Jul_02_0951,body_behavioural,3.0.4,59.97046275834233,
3,"As they were eating, Senna recounted to Alvira how they had met, and he told her in many words how much he loved her and what he loved about her, almost tearing up at moments. ",4,2,None,None,None,,0,3,3,3,,,,,0,20,20,20,,,,,,,,,,,,,,,,,,,,,,,,,,,,,,,,,,,1,7.186835068045184,,,,,,,,,,,,,,,,,,,,,,,,,,,,070219_p1,001,2019_Jul_02_0951,body_behavioural,3.0.4,59.97046275834233,
3,"When they had finished eating, Senna nodded at the waiter who had been watching attentively, and he quickly strode over to place a small, elegant cake topped with the ring in front of Alvira. ",4,3,None,None,None,,0,3,3,3,,,,,0,21,21,21,,,,,,,,,,,,,,,,,,,,,,,,,,,,,,,,,,,1,7.469583039986901,,,,,,,,,,,,,,,,,,,,,,,,,,,,070219_p1,001,2019_Jul_02_0951,body_behavioural,3.0.4,59.97046275834233,
3,Her eyes widened in shock when she realized what she was looking at.,4,3,None,None,None,,0,3,3,3,,,,,0,22,22,22,,,,,,,,,,,,,,,,,,,,,,,,,,,,,,,,,,,1,5.303883571992628,,,,,,,,,,,,,,,,,,,,,,,,,,,,070219_p1,001,2019_Jul_02_0951,body_behavioural,3.0.4,59.97046275834233,
3,"Senna got down on one knee and said,“Alvira, will you marry me? ",4,3,None,None,None,,0,3,3,3,,,,,0,23,23,23,,,,,,,,,,,,,,,,,,,,,,,,,,,,,,,,,,,1,3.2703995869960636,,,,,,,,,,,,,,,,,,,,,,,,,,,,070219_p1,001,2019_Jul_02_0951,body_behavioural,3.0.4,59.97046275834233,
3,"I love you, and I will never stop loving you.” ",4,3,None,None,None,,0,3,3,3,,,,,0,24,24,24,,,,,,,,,,,,,,,,,,,,,,,,,,,,,,,,,,,1,1.3667389699839987,,,,,,,,,,,,,,,,,,,,,,,,,,,,070219_p1,001,2019_Jul_02_0951,body_behavioural,3.0.4,59.97046275834233,
3,"After a few moments with everyone turned and looking at Elvira in expectation, she exclaimed, “Yes, of course, yes!”",4,4,None,None,None,,0,3,3,3,,,,,0,25,25,25,,,,,,,,,,,,,,,,,,,,,,,,,,,,,,,,,,,1,3.220553661987651,,,,,,,,,,,,,,,,,,,,,,,,,,,,070219_p1,001,2019_Jul_02_0951,body_behavioural,3.0.4,59.97046275834233,
3,She hugged Senna with tears flowing down her cheeks. ,4,4,None,None,None,,0,3,3,3,,,,,0,26,26,26,,,,,,,,,,,,,,,,,,,,,,,,,,,,,,,,,,,1,0.8369914149516262,,,,,,,,,,,,,,,,,,,,,,,,,,,,070219_p1,001,2019_Jul_02_0951,body_behavioural,3.0.4,59.97046275834233,
3,"The other guests exploded in applause, and the waiter returned with a bottle of champagne and popped it.",4,4,None,None,None,,0,3,3,3,,,,,0,27,27,27,,,,,,,,,,,,,,,,,,,,,,,,,,,,,,,,,,,1,1.8173890420002863,,,,,,,,,,,,,,,,,,,,,,,,,,,,070219_p1,001,2019_Jul_02_0951,body_behavioural,3.0.4,59.97046275834233,
3,"Senna slipped the ring onto Alvira’s finger, and she held up her hand to admire it.",4,4,None,None,None,,0,3,3,3,,,,,0,28,28,28,,,,,,,,,,,,,,,,,,,,,,,,,,,,,,,,,,,1,1.203249366953969,,,,,,,,,,,,,,,,,,,,,,,,,,,,070219_p1,001,2019_Jul_02_0951,body_behavioural,3.0.4,59.97046275834233,
3,“I need to text my dad and tell him!” she sang. ,4,4,None,None,None,,0,3,3,3,,,,,0,29,29,29,,,,,,,,,,,,,,,,,,,,,,,,,,,,,,,,,,,1,1.3695236830390058,,,,,,,,,,,,,,,,,,,,,,,,,,,,070219_p1,001,2019_Jul_02_0951,body_behavioural,3.0.4,59.97046275834233,
3,The whole restaurant proceeded in cheers with them to celebrate the joyous occasion.  ,4,4,None,None,None,,0,3,3,3,,,,,0,30,30,30,,,,,,,,,,,,,,,,,,,,,,,,,,,,,,,,,,,1,1.870536610018462,,,,,,,,,,,,,,,,,,,,,,,,,,,,070219_p1,001,2019_Jul_02_0951,body_behavioural,3.0.4,59.97046275834233,
3,,,,,,,,0,3,3,3,,,,,,,,,,,,,,,,,,,,,,,,,,,,,,,,,,,,,,,,,,,,,,,,,,,,,,,,,,,,,,,,,,,,,,,,070219_p1,001,2019_Jul_02_0951,body_behavioural,3.0.4,59.97046275834233,
4,,,,,,,,0,4,4,4,0,0,0,0,,,,,,,,,,,,,,,,,,,,,,,,,,,,,space,0.9702335100155324,space,0.6529951720149256,space,0.48598512599710375,,,,,,,,,,,,,,,,,,,,,,,,,,,,,,,,,,070219_p1,001,2019_Jul_02_0951,body_behavioural,3.0.4,59.97046275834233,
4,The grocery store was not the place Emmanuella and Liam wanted to be at the moment considering that they had been fighting to the point where Emmanuella was thinking of breaking up with Liam.,1,1,13.0,,,,0,4,4,4,,,,,0,0,0,0,,,,,,,,,,,,,,,,,,,,,,,,,,,,,,,space,0.8006119169876911,space,0.750663906976115,9,10.604054140043445,,,,,,,,,,,,,,,,,,,,,,,,,,,,070219_p1,001,2019_Jul_02_0951,body_behavioural,3.0.4,59.97046275834233,
4,Emmanuella had been thinking of breaking up with Liam for the past 5 months.,1,1,None,,,,0,4,4,4,,,,,0,1,1,1,,,,,,,,,,,,,,,,,,,,,,,,,,,,,,,,,,,1,3.069885487027932,,,,,,,,,,,,,,,,,,,,,,,,,,,,070219_p1,001,2019_Jul_02_0951,body_behavioural,3.0.4,59.97046275834233,
4,"Despite the current tension, they had to go grocery shopping because they were hosting a dinner party for friends that evening and had little at home with which to cook. ",1,1,None,,,,0,4,4,4,,,,,0,2,2,2,,,,,,,,,,,,,,,,,,,,,,,,,,,,,,,,,,,1,6.21939820505213,,,,,,,,,,,,,,,,,,,,,,,,,,,,070219_p1,001,2019_Jul_02_0951,body_behavioural,3.0.4,59.97046275834233,
4,"The grocery store smelled like lavender upon entering and was dimly lit with pine shelves in the entrance and obscure, organic products displayed on them.",1,1,None,,,,0,4,4,4,,,,,0,3,3,3,,,,,,,,,,,,,,,,,,,,,,,,,,,,,,,,,,,9,1.9202989529585466,,,,,,,,,,,,,,,,,,,,,,,,,,,,070219_p1,001,2019_Jul_02_0951,body_behavioural,3.0.4,59.97046275834233,
4,"In the pasta section, Emmanuella grabbed a few boxes of bow-tie pasta.",2,1,None,,,,0,4,4,4,,,,,0,4,4,4,,,,,,,,,,,,,,,,,,,,,,,,,,,,,,,,,,,1,1.6530172280035913,,,,,,,,,,,,,,,,,,,,,,,,,,,,070219_p1,001,2019_Jul_02_0951,body_behavioural,3.0.4,59.97046275834233,
4,"“I guess we are having a pasta dish tonight,” Liam said.",2,1,None,,,,0,4,4,4,,,,,0,5,5,5,,,,,,,,,,,,,,,,,,,,,,,,,,,,,,,,,,,1,1.8180027999915183,,,,,,,,,,,,,,,,,,,,,,,,,,,,070219_p1,001,2019_Jul_02_0951,body_behavioural,3.0.4,59.97046275834233,
4,"Emmanuella looked back at him and said, “Well if you were going to actually help cook, I would be fine with something else.”",2,1,None,,,,0,4,4,4,,,,,0,6,6,6,,,,,,,,,,,,,,,,,,,,,,,,,,,,,,,,,,,1,4.053354592004325,,,,,,,,,,,,,,,,,,,,,,,,,,,,070219_p1,001,2019_Jul_02_0951,body_behavioural,3.0.4,59.97046275834233,
4,"Liam sighed, and finally said, “You know- you don’t want me to help.",2,1,None,,,,0,4,4,4,,,,,0,7,7,7,,,,,,,,,,,,,,,,,,,,,,,,,,,,,,,,,,,1,3.9341944420011714,,,,,,,,,,,,,,,,,,,,,,,,,,,,070219_p1,001,2019_Jul_02_0951,body_behavioural,3.0.4,59.97046275834233,
4,"I try to, but it seems like I always get in the way!” ",2,1,None,,,,0,4,4,4,,,,,0,8,8,8,,,,,,,,,,,,,,,,,,,,,,,,,,,,,,,,,,,1,2.069562641030643,,,,,,,,,,,,,,,,,,,,,,,,,,,,070219_p1,001,2019_Jul_02_0951,body_behavioural,3.0.4,59.97046275834233,
4,Emmanuella shook her head and dropped the pasta boxes in the basket she was holding.,2,1,None,,,,0,4,4,4,,,,,0,9,9,9,,,,,,,,,,,,,,,,,,,,,,,,,,,,,,,,,,,1,2.6860638899961486,,,,,,,,,,,,,,,,,,,,,,,,,,,,070219_p1,001,2019_Jul_02_0951,body_behavioural,3.0.4,59.97046275834233,
4," “Like you even try,” she mumbled to herself. ",2,1,None,,,,0,4,4,4,,,,,0,10,10,10,,,,,,,,,,,,,,,,,,,,,,,,,,,,,,,,,,,1,2.0031185299740173,,,,,,,,,,,,,,,,,,,,,,,,,,,,070219_p1,001,2019_Jul_02_0951,body_behavioural,3.0.4,59.97046275834233,
4,She continued down the aisle and studied a jar of vodka sauce and a can of olives before putting them in the basket as well. ,2,1,None,,,,0,4,4,4,,,,,0,11,11,11,,,,,,,,,,,,,,,,,,,,,,,,,,,,,,,,,,,1,6.704342353972606,,,,,,,,,,,,,,,,,,,,,,,,,,,,070219_p1,001,2019_Jul_02_0951,body_behavioural,3.0.4,59.97046275834233,
4,"Emmanuella suddenly wrinkled her eyebrows, turned to Liam, and said, “I want to break up since I’m tired of the constant fighting. ",2,2,None,,,,0,4,4,4,,,,,0,12,12,12,,,,,,,,,,,,,,,,,,,,,,,,,,,,,,,,,,,9,3.9039207329624332,,,,,,,,,,,,,,,,,,,,,,,,,,,,070219_p1,001,2019_Jul_02_0951,body_behavioural,3.0.4,59.97046275834233,
4,"I was going to wait until after this horribly-timed dinner party tonight to talk about this, but I might as well say it now.",2,2,None,,,,0,4,4,4,,,,,0,13,13,13,,,,,,,,,,,,,,,,,,,,,,,,,,,,,,,,,,,1,3.9699456529924646,,,,,,,,,,,,,,,,,,,,,,,,,,,,070219_p1,001,2019_Jul_02_0951,body_behavioural,3.0.4,59.97046275834233,
4,"I feel like when we try to do anything anymore it ends up unpleasant for the stupidest reasons, and I am just past trying to work things out.”",2,2,None,,,,0,4,4,4,,,,,0,14,14,14,,,,,,,,,,,,,,,,,,,,,,,,,,,,,,,,,,,1,4.685864651983138,,,,,,,,,,,,,,,,,,,,,,,,,,,,070219_p1,001,2019_Jul_02_0951,body_behavioural,3.0.4,59.97046275834233,
4,Liam was nodding automatically.,2,2,None,,,,0,4,4,4,,,,,0,15,15,15,,,,,,,,,,,,,,,,,,,,,,,,,,,,,,,,,,,1,2.4860647519817576,,,,,,,,,,,,,,,,,,,,,,,,,,,,070219_p1,001,2019_Jul_02_0951,body_behavioural,3.0.4,59.97046275834233,
4,"In the checkout area, there was only one station open, Station 2, but it was not very crowded.",3,2,None,,,,0,4,4,4,,,,,0,16,16,16,,,,,,,,,,,,,,,,,,,,,,,,,,,,,,,,,,,9,1.8204179729800671,,,,,,,,,,,,,,,,,,,,,,,,,,,,070219_p1,001,2019_Jul_02_0951,body_behavioural,3.0.4,59.97046275834233,
4,They got in line.,3,2,None,,,,0,4,4,4,,,,,0,17,17,17,,,,,,,,,,,,,,,,,,,,,,,,,,,,,,,,,,,1,0.9356870620395057,,,,,,,,,,,,,,,,,,,,,,,,,,,,070219_p1,001,2019_Jul_02_0951,body_behavioural,3.0.4,59.97046275834233,
4,"Liam gazed in the direction of the magazines, but his eyes were glazed over as he was working things out in his head while Emmanuella scrutinized the pasta sauce again. ",3,2,None,,,,0,4,4,4,,,,,0,18,18,18,,,,,,,,,,,,,,,,,,,,,,,,,,,,,,,,,,,1,6.769763774005696,,,,,,,,,,,,,,,,,,,,,,,,,,,,070219_p1,001,2019_Jul_02_0951,body_behavioural,3.0.4,59.97046275834233,
4,"After a few minutes of thinking, Liam recollected himself, turned to her, and sighed, “Yes, I think the same thing.",3,3,None,,,,0,4,4,4,,,,,0,19,19,19,,,,,,,,,,,,,,,,,,,,,,,,,,,,,,,,,,,1,4.470518285001162,,,,,,,,,,,,,,,,,,,,,,,,,,,,070219_p1,001,2019_Jul_02_0951,body_behavioural,3.0.4,59.97046275834233,
4,I think we should break up because we could definitely be happier with other people.” ,3,3,None,,,,0,4,4,4,,,,,0,20,20,20,,,,,,,,,,,,,,,,,,,,,,,,,,,,,,,,,,,1,4.519535856030416,,,,,,,,,,,,,,,,,,,,,,,,,,,,070219_p1,001,2019_Jul_02_0951,body_behavioural,3.0.4,59.97046275834233,
4,Emmanuella nodded as she listened. ,3,3,None,,,,0,4,4,4,,,,,0,21,21,21,,,,,,,,,,,,,,,,,,,,,,,,,,,,,,,,,,,1,1.102751997008454,,,,,,,,,,,,,,,,,,,,,,,,,,,,070219_p1,001,2019_Jul_02_0951,body_behavioural,3.0.4,59.97046275834233,
4,The cashier scanned their groceries.,4,3,None,,,,0,4,4,4,,,,,0,22,22,22,,,,,,,,,,,,,,,,,,,,,,,,,,,,,,,,,,,9,2.253255990042817,,,,,,,,,,,,,,,,,,,,,,,,,,,,070219_p1,001,2019_Jul_02_0951,body_behavioural,3.0.4,59.97046275834233,
4,"The cost came to $30, and Emmanuella paid with her credit card.",4,3,None,,,,0,4,4,4,,,,,0,23,23,23,,,,,,,,,,,,,,,,,,,,,,,,,,,,,,,,,,,1,1.8857941320165992,,,,,,,,,,,,,,,,,,,,,,,,,,,,070219_p1,001,2019_Jul_02_0951,body_behavioural,3.0.4,59.97046275834233,
4,"She asked Liam politely to take the bags, and he obliged, following her toward the exit. ",4,3,None,,,,0,4,4,4,,,,,0,24,24,24,,,,,,,,,,,,,,,,,,,,,,,,,,,,,,,,,,,1,2.9028672149870545,,,,,,,,,,,,,,,,,,,,,,,,,,,,070219_p1,001,2019_Jul_02_0951,body_behavioural,3.0.4,59.97046275834233,
4,"Filled with a sudden wave of sadness, Emmanuella said, “Liam, I think we are making the right decision- this is good.”",4,4,None,,,,0,4,4,4,,,,,0,25,25,25,,,,,,,,,,,,,,,,,,,,,,,,,,,,,,,,,,,1,5.4369992520078085,,,,,,,,,,,,,,,,,,,,,,,,,,,,070219_p1,001,2019_Jul_02_0951,body_behavioural,3.0.4,59.97046275834233,
4,"“I agree,” he said, relieved at the hope he was entertaining that they had just gotten through their last fight. ",4,4,None,,,,0,4,4,4,,,,,0,26,26,26,,,,,,,,,,,,,,,,,,,,,,,,,,,,,,,,,,,1,6.270876898022834,,,,,,,,,,,,,,,,,,,,,,,,,,,,070219_p1,001,2019_Jul_02_0951,body_behavioural,3.0.4,59.97046275834233,
4,"“I think we can still host this dinner tonight, as long as you're still on board,” Emmanuella said.",4,4,None,,,,0,4,4,4,,,,,0,27,27,27,,,,,,,,,,,,,,,,,,,,,,,,,,,,,,,,,,,1,3.236077989975456,,,,,,,,,,,,,,,,,,,,,,,,,,,,070219_p1,001,2019_Jul_02_0951,body_behavioural,3.0.4,59.97046275834233,
4,"Liam nodded, “Yes, let’s just not tell anyone we’ve broken up tonight.” ",4,4,None,,,,0,4,4,4,,,,,0,28,28,28,,,,,,,,,,,,,,,,,,,,,,,,,,,,,,,,,,,1,2.0526270879781805,,,,,,,,,,,,,,,,,,,,,,,,,,,,070219_p1,001,2019_Jul_02_0951,body_behavioural,3.0.4,59.97046275834233,
4,"Emmanuella laughed, “Whoever leaks it loses their right to the cat.”",4,4,None,,,,0,4,4,4,,,,,0,29,29,29,,,,,,,,,,,,,,,,,,,,,,,,,,,,,,,,,,,1,4.102971846994478,,,,,,,,,,,,,,,,,,,,,,,,,,,,070219_p1,001,2019_Jul_02_0951,body_behavioural,3.0.4,59.97046275834233,
4,"Liam chuckled and responded, “Hey!",4,4,None,,,,0,4,4,4,,,,,0,30,30,30,,,,,,,,,,,,,,,,,,,,,,,,,,,,,,,,,,,1,1.7178264679969288,,,,,,,,,,,,,,,,,,,,,,,,,,,,070219_p1,001,2019_Jul_02_0951,body_behavioural,3.0.4,59.97046275834233,
4,Luna is mine and I want her back.”,4,4,None,,,,0,4,4,4,,,,,0,31,31,31,,,,,,,,,,,,,,,,,,,,,,,,,,,,,,,,,,,1,2.6031205699546263,,,,,,,,,,,,,,,,,,,,,,,,,,,,070219_p1,001,2019_Jul_02_0951,body_behavioural,3.0.4,59.97046275834233,
4,"Emmanuella rolled her eyes, knowing the cat would be a whole other issue to sort out later.
",4,4,None,,,,0,4,4,4,,,,,0,32,32,32,,,,,,,,,,,,,,,,,,,,,,,,,,,,,,,,,,,1,3.2532642529695295,,,,,,,,,,,,,,,,,,,,,,,,,,,,070219_p1,001,2019_Jul_02_0951,body_behavioural,3.0.4,59.97046275834233,
4,,,,,,,,0,4,4,4,,,,,,,,,,,,,,,,,,,,,,,,,,,,,,,,,,,,,,,,,,,,,,,,,,,,,,,,,,,,,,,,,,,,,,,,070219_p1,001,2019_Jul_02_0951,body_behavioural,3.0.4,59.97046275834233,
5,,,,,,,,0,5,5,5,0,0,0,0,,,,,,,,,,,,,,,,,,,,,,,,,,,,,space,0.9529885750380345,space,0.8364084020140581,space,0.5194074639584869,,,,,,,,,,,,,,,,,,,,,,,,,,,,,,,,,,070219_p1,001,2019_Jul_02_0951,body_behavioural,3.0.4,59.97046275834233,
5,David saw Anna for the first time when she burst into the airport frazzled with her half-zipped bag skidding behind her.,1,1,42.0,,,,0,5,5,5,,,,,0,0,0,0,,,,,,,,,,,,,,,,,,,,,,,,,,,,,,,space,1.519455788016785,space,0.7362543920171447,9,5.7509872750379145,,,,,,,,,,,,,,,,,,,,,,,,,,,,070219_p1,001,2019_Jul_02_0951,body_behavioural,3.0.4,59.97046275834233,
5,"He had three hours until his flight and had been reading a book on the laptop he was holding in the entrance to the airport, but she had only 35 minutes and was hoping to spend as little time in the entrance as possible. ",1,1,None,,,,0,5,5,5,,,,,0,1,1,1,,,,,,,,,,,,,,,,,,,,,,,,,,,,,,,,,,,1,8.37050578999333,,,,,,,,,,,,,,,,,,,,,,,,,,,,070219_p1,001,2019_Jul_02_0951,body_behavioural,3.0.4,59.97046275834233,
5,"Anna, a few strides into the airport, suddenly realized to her dismay that her shoes were untied, so she hunched over to tie them.",1,1,None,,,,0,5,5,5,,,,,0,2,2,2,,,,,,,,,,,,,,,,,,,,,,,,,,,,,,,,,,,9,4.936594373022672,,,,,,,,,,,,,,,,,,,,,,,,,,,,070219_p1,001,2019_Jul_02_0951,body_behavioural,3.0.4,59.97046275834233,
5,"David, who had been intrigued by Anna, observed that someone with a tall cart of luggage was heading straight for where she was kneeling and that both her and the person driving the cart were oblivious to the impending collision. ",1,1,None,,,,0,5,5,5,,,,,0,3,3,3,,,,,,,,,,,,,,,,,,,,,,,,,,,,,,,,,,,1,6.036274403042626,,,,,,,,,,,,,,,,,,,,,,,,,,,,070219_p1,001,2019_Jul_02_0951,body_behavioural,3.0.4,59.97046275834233,
5,"After a few moment of deliberation, David decided to intervene, and he ran in front of the cart pushing her out of the way just in the nick of time, and they tumbled on the airport floor. ",1,2,None,,,,0,5,5,5,,,,,0,4,4,4,,,,,,,,,,,,,,,,,,,,,,,,,,,,,,,,,,,1,7.469556064985227,,,,,,,,,,,,,,,,,,,,,,,,,,,,070219_p1,001,2019_Jul_02_0951,body_behavioural,3.0.4,59.97046275834233,
5,"Anna, bewildered, looked up and saw the cart pass by and then looked at David. ",1,2,None,,,,0,5,5,5,,,,,0,5,5,5,,,,,,,,,,,,,,,,,,,,,,,,,,,,,,,,,,,1,4.98482850601431,,,,,,,,,,,,,,,,,,,,,,,,,,,,070219_p1,001,2019_Jul_02_0951,body_behavioural,3.0.4,59.97046275834233,
5,"He flashed a smile and asked, “Were you ever a gymnast?",1,2,None,,,,0,5,5,5,,,,,0,6,6,6,,,,,,,,,,,,,,,,,,,,,,,,,,,,,,,,,,,1,2.6527855430031195,,,,,,,,,,,,,,,,,,,,,,,,,,,,070219_p1,001,2019_Jul_02_0951,body_behavioural,3.0.4,59.97046275834233,
5,Because that was a nice tumble.”,1,2,None,,,,0,5,5,5,,,,,0,7,7,7,,,,,,,,,,,,,,,,,,,,,,,,,,,,,,,,,,,1,3.220399273035582,,,,,,,,,,,,,,,,,,,,,,,,,,,,070219_p1,001,2019_Jul_02_0951,body_behavioural,3.0.4,59.97046275834233,
5,"She managed a chuckle and said, “Actually, yes, but I’d say that deserved a score of zero.",1,2,None,,,,0,5,5,5,,,,,0,8,8,8,,,,,,,,,,,,,,,,,,,,,,,,,,,,,,,,,,,1,2.236849147011526,,,,,,,,,,,,,,,,,,,,,,,,,,,,070219_p1,001,2019_Jul_02_0951,body_behavioural,3.0.4,59.97046275834233,
5,Maybe a ‘1’ at least for your effort. ,1,2,None,,,,0,5,5,5,,,,,0,9,9,9,,,,,,,,,,,,,,,,,,,,,,,,,,,,,,,,,,,1,1.3863649730337784,,,,,,,,,,,,,,,,,,,,,,,,,,,,070219_p1,001,2019_Jul_02_0951,body_behavioural,3.0.4,59.97046275834233,
5,Wow- I almost got smooshed by that cart.”,1,2,None,,,,0,5,5,5,,,,,0,10,10,10,,,,,,,,,,,,,,,,,,,,,,,,,,,,,,,,,,,1,1.734060857037548,,,,,,,,,,,,,,,,,,,,,,,,,,,,070219_p1,001,2019_Jul_02_0951,body_behavioural,3.0.4,59.97046275834233,
5,Her head was still spinning as she stared at the handsome stranger who had saved her. ,1,2,None,,,,0,5,5,5,,,,,0,11,11,11,,,,,,,,,,,,,,,,,,,,,,,,,,,,,,,,,,,1,4.819994995021261,,,,,,,,,,,,,,,,,,,,,,,,,,,,070219_p1,001,2019_Jul_02_0951,body_behavioural,3.0.4,59.97046275834233,
5,David helped her up and had to keep holding on to her arms to steady her even once they were standing.,1,2,None,,,,0,5,5,5,,,,,0,12,12,12,,,,,,,,,,,,,,,,,,,,,,,,,,,,,,,,,,,1,4.35337528702803,,,,,,,,,,,,,,,,,,,,,,,,,,,,070219_p1,001,2019_Jul_02_0951,body_behavioural,3.0.4,59.97046275834233,
5,"“I’m really late for my flight,” she said. ",1,2,None,,,,0,5,5,5,,,,,0,13,13,13,,,,,,,,,,,,,,,,,,,,,,,,,,,,,,,,,,,1,1.916742357017938,,,,,,,,,,,,,,,,,,,,,,,,,,,,070219_p1,001,2019_Jul_02_0951,body_behavioural,3.0.4,59.97046275834233,
5,"“Don't worry,” said David, "let me help you get to your gate." ",1,2,None,,,,0,5,5,5,,,,,0,14,14,14,,,,,,,,,,,,,,,,,,,,,,,,,,,,,,,,,,,1,2.6202789539820515,,,,,,,,,,,,,,,,,,,,,,,,,,,,070219_p1,001,2019_Jul_02_0951,body_behavioural,3.0.4,59.97046275834233,
5,He waved off her half-hearted protests. ,1,2,None,,,,0,5,5,5,,,,,0,15,15,15,,,,,,,,,,,,,,,,,,,,,,,,,,,,,,,,,,,1,3.786426442966331,,,,,,,,,,,,,,,,,,,,,,,,,,,,070219_p1,001,2019_Jul_02_0951,body_behavioural,3.0.4,59.97046275834233,
5,“Really- I have plenty of time and nothing better to do.” he said. ,1,2,None,,,,0,5,5,5,,,,,0,16,16,16,,,,,,,,,,,,,,,,,,,,,,,,,,,,,,,,,,,1,2.8372430420131423,,,,,,,,,,,,,,,,,,,,,,,,,,,,070219_p1,001,2019_Jul_02_0951,body_behavioural,3.0.4,59.97046275834233,
5,"At security, the line was not long, but, since Anna’s flight departure was close at hand, the security guard allowed them to go to the front of the line.",2,2,None,,,,0,5,5,5,,,,,0,17,17,17,,,,,,,,,,,,,,,,,,,,,,,,,,,,,,,,,,,9,6.052936823980417,,,,,,,,,,,,,,,,,,,,,,,,,,,,070219_p1,001,2019_Jul_02_0951,body_behavioural,3.0.4,59.97046275834233,
5,"They had to wait however, because there was a strange malfunction of the metal detector. ",2,2,None,,,,0,5,5,5,,,,,0,18,18,18,,,,,,,,,,,,,,,,,,,,,,,,,,,,,,,,,,,1,4.303242965019308,,,,,,,,,,,,,,,,,,,,,,,,,,,,070219_p1,001,2019_Jul_02_0951,body_behavioural,3.0.4,59.97046275834233,
5,"In this span of time, they managed to find out that they had gone to the same high school and that Anna had graduated 3 years before David. ",2,2,None,,,,0,5,5,5,,,,,0,19,19,19,,,,,,,,,,,,,,,,,,,,,,,,,,,,,,,,,,,9,8.203563395014498,,,,,,,,,,,,,,,,,,,,,,,,,,,,070219_p1,001,2019_Jul_02_0951,body_behavioural,3.0.4,59.97046275834233,
5,They hurriedly took off their shoes and coats.,2,2,None,,,,0,5,5,5,,,,,0,20,20,20,,,,,,,,,,,,,,,,,,,,,,,,,,,,,,,,,,,9,5.436617768020369,,,,,,,,,,,,,,,,,,,,,,,,,,,,070219_p1,001,2019_Jul_02_0951,body_behavioural,3.0.4,59.97046275834233,
5,"Anna placed her purse and suitcase on the conveyor belt, and David put his backpack on the conveyor belt as well, with his laptop in a separate bin. ",2,2,None,,,,0,5,5,5,,,,,0,21,21,21,,,,,,,,,,,,,,,,,,,,,,,,,,,,,,,,,,,1,1.4189281619619578,,,,,,,,,,,,,,,,,,,,,,,,,,,,070219_p1,001,2019_Jul_02_0951,body_behavioural,3.0.4,59.97046275834233,
5,Both of them went through the metal detector without any problems. ,2,2,None,,,,0,5,5,5,,,,,0,22,22,22,,,,,,,,,,,,,,,,,,,,,,,,,,,,,,,,,,,1,1.6846910770400427,,,,,,,,,,,,,,,,,,,,,,,,,,,,070219_p1,001,2019_Jul_02_0951,body_behavioural,3.0.4,59.97046275834233,
5,"As they were rushing to put their shoes and coats on, they shared when they were coming back. ",2,2,None,,,,0,5,5,5,,,,,0,23,23,23,,,,,,,,,,,,,,,,,,,,,,,,,,,,,,,,,,,1,2.4008188630104996,,,,,,,,,,,,,,,,,,,,,,,,,,,,070219_p1,001,2019_Jul_02_0951,body_behavioural,3.0.4,59.97046275834233,
5,"In a moment of boldness, David asked, “When we're back in town next Tuesday, is there any chance you'd want to get dinner?",2,3,None,,,,0,5,5,5,,,,,0,24,24,24,,,,,,,,,,,,,,,,,,,,,,,,,,,,,,,,,,,1,5.903562233026605,,,,,,,,,,,,,,,,,,,,,,,,,,,,070219_p1,001,2019_Jul_02_0951,body_behavioural,3.0.4,59.97046275834233,
5,"I know we just met, but when life throws a luggage cart at you it seems like we should listen. “",2,3,None,,,,0,5,5,5,,,,,0,25,25,25,,,,,,,,,,,,,,,,,,,,,,,,,,,,,,,,,,,1,2.5032601099810563,,,,,,,,,,,,,,,,,,,,,,,,,,,,070219_p1,001,2019_Jul_02_0951,body_behavioural,3.0.4,59.97046275834233,
5,"She stopped packing, and said with a smile, “Yes I would love that.”",2,3,None,,,,0,5,5,5,,,,,0,26,26,26,,,,,,,,,,,,,,,,,,,,,,,,,,,,,,,,,,,1,1.2533993019605987,,,,,,,,,,,,,,,,,,,,,,,,,,,,070219_p1,001,2019_Jul_02_0951,body_behavioural,3.0.4,59.97046275834233,
5,"On the concourse, they were running to get to Anna’s gate, J37, which was at the end of the terminal. ",3,3,None,,,,0,5,5,5,,,,,0,27,27,27,,,,,,,,,,,,,,,,,,,,,,,,,,,,,,,,,,,9,3.4027787930099294,,,,,,,,,,,,,,,,,,,,,,,,,,,,070219_p1,001,2019_Jul_02_0951,body_behavioural,3.0.4,59.97046275834233,
5,"David took her suitcase, grabbed her hand, and weaved crowd of people.",3,3,None,,,,0,5,5,5,,,,,0,28,28,28,,,,,,,,,,,,,,,,,,,,,,,,,,,,,,,,,,,1,1.5198133750236593,,,,,,,,,,,,,,,,,,,,,,,,,,,,070219_p1,001,2019_Jul_02_0951,body_behavioural,3.0.4,59.97046275834233,
5,People passing them were giving them funny looks because Anna appeared so bewildered on account of David’s help.,3,3,None,,,,0,5,5,5,,,,,0,29,29,29,,,,,,,,,,,,,,,,,,,,,,,,,,,,,,,,,,,1,3.9198696889798157,,,,,,,,,,,,,,,,,,,,,,,,,,,,070219_p1,001,2019_Jul_02_0951,body_behavioural,3.0.4,59.97046275834233,
5,"Before getting to the gate, explaining that she would sprint the rest of the way, Anna fished out a crumpled business card from her pocket and handed it to David, who handed her the suitcase.",3,4,None,,,,0,5,5,5,,,,,0,30,30,30,,,,,,,,,,,,,,,,,,,,,,,,,,,,,,,,,,,1,8.35337281198008,,,,,,,,,,,,,,,,,,,,,,,,,,,,070219_p1,001,2019_Jul_02_0951,body_behavioural,3.0.4,59.97046275834233,
5,"She gave him one last embarrassed smile, thanked him, and hurried away.",3,4,None,,,,0,5,5,5,,,,,0,31,31,31,,,,,,,,,,,,,,,,,,,,,,,,,,,,,,,,,,,1,2.253083182964474,,,,,,,,,,,,,,,,,,,,,,,,,,,,070219_p1,001,2019_Jul_02_0951,body_behavioural,3.0.4,59.97046275834233,
5,"David looked at his watch which read 10:55 AM, 5 minutes before her flight was supposed to leave. ",3,4,None,,,,0,5,5,5,,,,,0,32,32,32,,,,,,,,,,,,,,,,,,,,,,,,,,,,,,,,,,,1,3.6028689119848423,,,,,,,,,,,,,,,,,,,,,,,,,,,,070219_p1,001,2019_Jul_02_0951,body_behavioural,3.0.4,59.97046275834233,
5,"At the gate, Anna waved to the flight attendant who motioned for her to hurry, and she boarded the plane. ",4,4,None,,,,0,5,5,5,,,,,0,33,33,33,,,,,,,,,,,,,,,,,,,,,,,,,,,,,,,,,,,1,3.0865005500381812,,,,,,,,,,,,,,,,,,,,,,,,,,,,070219_p1,001,2019_Jul_02_0951,body_behavioural,3.0.4,59.97046275834233,
5,"She slid into her window seat, 7D, in business class, and barely containing her glee, she hugged the plastic-wrapped blanket. ",4,4,None,,,,0,5,5,5,,,,,0,34,34,34,,,,,,,,,,,,,,,,,,,,,,,,,,,,,,,,,,,9,7.81945305300178,,,,,,,,,,,,,,,,,,,,,,,,,,,,070219_p1,001,2019_Jul_02_0951,body_behavioural,3.0.4,59.97046275834233,
5,"She was thankful that she had not only made it onto the plane in time, but also that she had been clumsy enough to forget to tie her shoes.",4,4,None,,,,0,5,5,5,,,,,0,35,35,35,,,,,,,,,,,,,,,,,,,,,,,,,,,,,,,,,,,1,5.153339278011117,,,,,,,,,,,,,,,,,,,,,,,,,,,,070219_p1,001,2019_Jul_02_0951,body_behavioural,3.0.4,59.97046275834233,
5,,,,,,,,0,5,5,5,,,,,,,,,,,,,,,,,,,,,,,,,,,,,,,,,,,,,,,,,,,,,,,,,,,,,,,,,,,,,,,,,,,,,,,,070219_p1,001,2019_Jul_02_0951,body_behavioural,3.0.4,59.97046275834233,
6,,,,,,,,0,6,6,6,0,0,0,0,,,,,,,,,,,,,,,,,,,,,,,,,,,,,space,1.0857903079595417,space,0.5855772049981169,space,0.5529660820029676,,,,,,,,,,,,,,,,,,,,,,,,,,,,,,,,,,070219_p1,001,2019_Jul_02_0951,body_behavioural,3.0.4,59.97046275834233,
6,Mr. Shelton and Mr. Gordon shook hands inside the waiting area of the restaurant: lunch today was about big business. ,1,1,31.0,,,,0,6,6,6,,,,,0,0,0,0,,,,,,,,,,,,,,,,,,,,,,,,,,,,,,,space,1.420697565015871,space,0.3868642000015825,9,6.153906947991345,,,,,,,,,,,,,,,,,,,,,,,,,,,,070219_p1,001,2019_Jul_02_0951,body_behavioural,3.0.4,59.97046275834233,
6,They were both in the airplane manufacturing industry.,1,1,None,,,,0,6,6,6,,,,,0,1,1,1,,,,,,,,,,,,,,,,,,,,,,,,,,,,,,,,,,,1,3.7204152679769322,,,,,,,,,,,,,,,,,,,,,,,,,,,,070219_p1,001,2019_Jul_02_0951,body_behavioural,3.0.4,59.97046275834233,
6,"Mr. Shelton was the CFO of a larger, well-established company and had been in the aviation business for decades.",1,1,None,,,,0,6,6,6,,,,,0,2,2,2,,,,,,,,,,,,,,,,,,,,,,,,,,,,,,,,,,,1,1.6834622220485471,,,,,,,,,,,,,,,,,,,,,,,,,,,,070219_p1,001,2019_Jul_02_0951,body_behavioural,3.0.4,59.97046275834233,
6,Mr. Gordon was the CEO of a smaller but technologically-advanced company that was projected to disrupt the airplane manufacturing market. ,1,1,None,,,,0,6,6,6,,,,,0,3,3,3,,,,,,,,,,,,,,,,,,,,,,,,,,,,,,,,,,,1,1.1690291250124574,,,,,,,,,,,,,,,,,,,,,,,,,,,,070219_p1,001,2019_Jul_02_0951,body_behavioural,3.0.4,59.97046275834233,
6,"They chose to meet at an old steakhouse with dark wood paneling on the floor and ceilings, taxidermy animals on the walls, and a candelabra on every table.",1,1,None,,,,0,6,6,6,,,,,0,4,4,4,,,,,,,,,,,,,,,,,,,,,,,,,,,,,,,,,,,1,5.086524905986153,,,,,,,,,,,,,,,,,,,,,,,,,,,,070219_p1,001,2019_Jul_02_0951,body_behavioural,3.0.4,59.97046275834233,
6,The waitress seated them at their table in the back. ,2,1,None,,,,0,6,6,6,,,,,0,5,5,5,,,,,,,,,,,,,,,,,,,,,,,,,,,,,,,,,,,1,1.9698849939741194,,,,,,,,,,,,,,,,,,,,,,,,,,,,070219_p1,001,2019_Jul_02_0951,body_behavioural,3.0.4,59.97046275834233,
6,"She brought out the menus, and they briefly chatted about personal happenings. ",2,1,None,,,,0,6,6,6,,,,,0,6,6,6,,,,,,,,,,,,,,,,,,,,,,,,,,,,,,,,,,,1,1.302741440013051,,,,,,,,,,,,,,,,,,,,,,,,,,,,070219_p1,001,2019_Jul_02_0951,body_behavioural,3.0.4,59.97046275834233,
6,"Mr. Gordon took out a picture of his daughter and talked about her recent engagement, and Mr. Gordon mentioned his purchase of a Tesla. ",2,1,None,,,,0,6,6,6,,,,,0,7,7,7,,,,,,,,,,,,,,,,,,,,,,,,,,,,,,,,,,,1,3.719927333004307,,,,,,,,,,,,,,,,,,,,,,,,,,,,070219_p1,001,2019_Jul_02_0951,body_behavioural,3.0.4,59.97046275834233,
6,They also looked over the menus which were heavy and covered in felt.,2,1,None,,,,0,6,6,6,,,,,0,8,8,8,,,,,,,,,,,,,,,,,,,,,,,,,,,,,,,,,,,1,3.035854419984389,,,,,,,,,,,,,,,,,,,,,,,,,,,,070219_p1,001,2019_Jul_02_0951,body_behavioural,3.0.4,59.97046275834233,
6,Flipping to the back of the menu brought one to a lengthy drink selection.,2,1,None,,,,0,6,6,6,,,,,0,9,9,9,,,,,,,,,,,,,,,,,,,,,,,,,,,,,,,,,,,1,2.485977858013939,,,,,,,,,,,,,,,,,,,,,,,,,,,,070219_p1,001,2019_Jul_02_0951,body_behavioural,3.0.4,59.97046275834233,
6,Mr. Shelton got serious and brought the conversation around to business.,2,2,None,,,,0,6,6,6,,,,,0,10,10,10,,,,,,,,,,,,,,,,,,,,,,,,,,,,,,,,,,,1,2.5359409150551073,,,,,,,,,,,,,,,,,,,,,,,,,,,,070219_p1,001,2019_Jul_02_0951,body_behavioural,3.0.4,59.97046275834233,
6,"“Mr. Gordon, we really admire what you’re doing at your company.",2,2,None,,,,0,6,6,6,,,,,0,11,11,11,,,,,,,,,,,,,,,,,,,,,,,,,,,,,,,,,,,9,3.036055803007912,,,,,,,,,,,,,,,,,,,,,,,,,,,,070219_p1,001,2019_Jul_02_0951,body_behavioural,3.0.4,59.97046275834233,
6,We think it’s genius; we want to support your vision and make this tiny company of yours internationally known.,2,2,None,,,,0,6,6,6,,,,,0,12,12,12,,,,,,,,,,,,,,,,,,,,,,,,,,,,,,,,,,,1,1.0692849199986085,,,,,,,,,,,,,,,,,,,,,,,,,,,,070219_p1,001,2019_Jul_02_0951,body_behavioural,3.0.4,59.97046275834233,
6,"But honestly, your company doesn’t have the resources to reach international markets right now.",2,2,None,,,,0,6,6,6,,,,,0,13,13,13,,,,,,,,,,,,,,,,,,,,,,,,,,,,,,,,,,,1,2.2699290770106018,,,,,,,,,,,,,,,,,,,,,,,,,,,,070219_p1,001,2019_Jul_02_0951,body_behavioural,3.0.4,59.97046275834233,
6,"Maybe in a few years you could, but by that time, other companies may have already filled your niche.",2,2,None,,,,0,6,6,6,,,,,0,14,14,14,,,,,,,,,,,,,,,,,,,,,,,,,,,,,,,,,,,1,1.1030742700095288,,,,,,,,,,,,,,,,,,,,,,,,,,,,070219_p1,001,2019_Jul_02_0951,body_behavioural,3.0.4,59.97046275834233,
6,I think we should join forces.”,2,2,None,,,,0,6,6,6,,,,,0,15,15,15,,,,,,,,,,,,,,,,,,,,,,,,,,,,,,,,,,,1,1.1030853519914672,,,,,,,,,,,,,,,,,,,,,,,,,,,,070219_p1,001,2019_Jul_02_0951,body_behavioural,3.0.4,59.97046275834233,
6,The waitress arrived and asked if they were ready to order.,3,2,None,,,,0,6,6,6,,,,,0,16,16,16,,,,,,,,,,,,,,,,,,,,,,,,,,,,,,,,,,,1,7.937575617979746,,,,,,,,,,,,,,,,,,,,,,,,,,,,070219_p1,001,2019_Jul_02_0951,body_behavioural,3.0.4,59.97046275834233,
6,"Mr. Gordon chose the medium-rare steak and a martini, and Mr. Shelton ordered the veal and a manhattan. ",3,2,None,,,,0,6,6,6,,,,,0,17,17,17,,,,,,,,,,,,,,,,,,,,,,,,,,,,,,,,,,,1,1.869297077995725,,,,,,,,,,,,,,,,,,,,,,,,,,,,070219_p1,001,2019_Jul_02_0951,body_behavioural,3.0.4,59.97046275834233,
6,"Then Mr. Shelton continued, “Look, I’ve talked to other members of the board, and we are prepared to offer $600 million to buy your company. ",3,2,None,,,,0,6,6,6,,,,,0,18,18,18,,,,,,,,,,,,,,,,,,,,,,,,,,,,,,,,,,,1,2.53602244600188,,,,,,,,,,,,,,,,,,,,,,,,,,,,070219_p1,001,2019_Jul_02_0951,body_behavioural,3.0.4,59.97046275834233,
6,"We'd keep on all of your current employees, and you would join as the director of your company branch.” ",3,2,None,,,,0,6,6,6,,,,,0,19,19,19,,,,,,,,,,,,,,,,,,,,,,,,,,,,,,,,,,,1,1.2026786539936438,,,,,,,,,,,,,,,,,,,,,,,,,,,,070219_p1,001,2019_Jul_02_0951,body_behavioural,3.0.4,59.97046275834233,
6,"Mr. Gordon looked at Mr. Shelton skeptically for a few moments considering his response until he said, “Mr. Shelton, I think that you make a compelling offer, but there are definitely some disadvantages to attaching our small, streamlined productions to a large company like yours.",3,3,None,,,,0,6,6,6,,,,,0,20,20,20,,,,,,,,,,,,,,,,,,,,,,,,,,,,,,,,,,,1,7.520191173010971,,,,,,,,,,,,,,,,,,,,,,,,,,,,070219_p1,001,2019_Jul_02_0951,body_behavioural,3.0.4,59.97046275834233,
6,"We operate in a very different way than a large company, and the kind of administrative complexity that makes the scale of your productions possible would suffocate our business.",3,3,None,,,,0,6,6,6,,,,,0,21,21,21,,,,,,,,,,,,,,,,,,,,,,,,,,,,,,,,,,,1,2.6365061429678462,,,,,,,,,,,,,,,,,,,,,,,,,,,,070219_p1,001,2019_Jul_02_0951,body_behavioural,3.0.4,59.97046275834233,
6,"With our product, scaling-up doesn’t necessarily make sense.” ",3,3,None,,,,0,6,6,6,,,,,0,22,22,22,,,,,,,,,,,,,,,,,,,,,,,,,,,,,,,,,,,1,1.152536500012502,,,,,,,,,,,,,,,,,,,,,,,,,,,,070219_p1,001,2019_Jul_02_0951,body_behavioural,3.0.4,59.97046275834233,
6,Mr. Shelton had expected this response and had come prepared.,3,3,None,,,,0,6,6,6,,,,,0,23,23,23,,,,,,,,,,,,,,,,,,,,,,,,,,,,,,,,,,,1,2.4030870279530063,,,,,,,,,,,,,,,,,,,,,,,,,,,,070219_p1,001,2019_Jul_02_0951,body_behavioural,3.0.4,59.97046275834233,
6,He began laying out the details of how he had handled similar acquisitions successfully in the past.,3,3,None,,,,0,6,6,6,,,,,0,24,24,24,,,,,,,,,,,,,,,,,,,,,,,,,,,,,,,,,,,1,2.785763831983786,,,,,,,,,,,,,,,,,,,,,,,,,,,,070219_p1,001,2019_Jul_02_0951,body_behavioural,3.0.4,59.97046275834233,
6,"He also played out projections of how Mr. Gordon’s company could out-compete their own main competitor in the industry, TechJet, by using the resources of a larger corporation. ",3,3,None,,,,0,6,6,6,,,,,0,25,25,25,,,,,,,,,,,,,,,,,,,,,,,,,,,,,,,,,,,1,2.3361506960354745,,,,,,,,,,,,,,,,,,,,,,,,,,,,070219_p1,001,2019_Jul_02_0951,body_behavioural,3.0.4,59.97046275834233,
6,"Mr. Gordon was impressed, and they went back and forth hashing out what the company configuration would look like post-merger. ",3,3,None,,,,0,6,6,6,,,,,0,26,26,26,,,,,,,,,,,,,,,,,,,,,,,,,,,,,,,,,,,1,3.3842055579880252,,,,,,,,,,,,,,,,,,,,,,,,,,,,070219_p1,001,2019_Jul_02_0951,body_behavioural,3.0.4,59.97046275834233,
6,The waitress brought out their food on a large tray.,4,3,None,,,,0,6,6,6,,,,,0,27,27,27,,,,,,,,,,,,,,,,,,,,,,,,,,,,,,,,,,,1,1.7364414649782702,,,,,,,,,,,,,,,,,,,,,,,,,,,,070219_p1,001,2019_Jul_02_0951,body_behavioural,3.0.4,59.97046275834233,
6,“Oh this looks so good!” Mr. Gordon said. ,4,3,None,,,,0,6,6,6,,,,,0,28,28,28,,,,,,,,,,,,,,,,,,,,,,,,,,,,,,,,,,,1,1.7862758580013178,,,,,,,,,,,,,,,,,,,,,,,,,,,,070219_p1,001,2019_Jul_02_0951,body_behavioural,3.0.4,59.97046275834233,
6,“Can I get you anything else?” the waitress asked.,4,3,None,,,,0,6,6,6,,,,,0,29,29,29,,,,,,,,,,,,,,,,,,,,,,,,,,,,,,,,,,,1,2.020142812980339,,,,,,,,,,,,,,,,,,,,,,,,,,,,070219_p1,001,2019_Jul_02_0951,body_behavioural,3.0.4,59.97046275834233,
6,They declined and began to eat. ,4,3,None,,,,0,6,6,6,,,,,0,30,30,30,,,,,,,,,,,,,,,,,,,,,,,,,,,,,,,,,,,1,1.3530459169996902,,,,,,,,,,,,,,,,,,,,,,,,,,,,070219_p1,001,2019_Jul_02_0951,body_behavioural,3.0.4,59.97046275834233,
6,The meal was subpar- they both found the meat to be overcooked and dry. ,4,3,None,,,,0,6,6,6,,,,,0,31,31,31,,,,,,,,,,,,,,,,,,,,,,,,,,,,,,,,,,,1,4.000907775014639,,,,,,,,,,,,,,,,,,,,,,,,,,,,070219_p1,001,2019_Jul_02_0951,body_behavioural,3.0.4,59.97046275834233,
6,"Mr. Gordon, after taking a contemplative bite and swallowing, said, “Mr. Shelton, I think we have a deal. ",4,4,None,,,,0,6,6,6,,,,,0,32,32,32,,,,,,,,,,,,,,,,,,,,,,,,,,,,,,,,,,,1,4.087210690020584,,,,,,,,,,,,,,,,,,,,,,,,,,,,070219_p1,001,2019_Jul_02_0951,body_behavioural,3.0.4,59.97046275834233,
6,"If you can guarantee that I can still have the final say in all the work done by my team, I think this could be beneficial for both of us.",4,4,None,,,,0,6,6,6,,,,,0,33,33,33,,,,,,,,,,,,,,,,,,,,,,,,,,,,,,,,,,,1,4.986718475993257,,,,,,,,,,,,,,,,,,,,,,,,,,,,070219_p1,001,2019_Jul_02_0951,body_behavioural,3.0.4,59.97046275834233,
6,I propose a toast to the merging of our companies.”,4,4,None,,,,0,6,6,6,,,,,0,34,34,34,,,,,,,,,,,,,,,,,,,,,,,,,,,,,,,,,,,1,1.3530160470400006,,,,,,,,,,,,,,,,,,,,,,,,,,,,070219_p1,001,2019_Jul_02_0951,body_behavioural,3.0.4,59.97046275834233,
6,Mr. Shelton grinned and lifted his martini to clink glasses.,4,4,None,,,,0,6,6,6,,,,,0,35,35,35,,,,,,,,,,,,,,,,,,,,,,,,,,,,,,,,,,,1,1.4697257379884832,,,,,,,,,,,,,,,,,,,,,,,,,,,,070219_p1,001,2019_Jul_02_0951,body_behavioural,3.0.4,59.97046275834233,
6,"He said, “Cheers to a lifelong partnership and to the growth of our company.” ",4,4,None,,,,0,6,6,6,,,,,0,36,36,36,,,,,,,,,,,,,,,,,,,,,,,,,,,,,,,,,,,1,1.8872754229814745,,,,,,,,,,,,,,,,,,,,,,,,,,,,070219_p1,001,2019_Jul_02_0951,body_behavioural,3.0.4,59.97046275834233,
6,,,,,,,,0,6,6,6,,,,,,,,,,,,,,,,,,,,,,,,,,,,,,,,,,,,,,,,,,,,,,,,,,,,,,,,,,,,,,,,,,,,,,,,070219_p1,001,2019_Jul_02_0951,body_behavioural,3.0.4,59.97046275834233,
7,,,,,,,,0,7,7,7,0,0,0,0,,,,,,,,,,,,,,,,,,,,,,,,,,,,,space,0.8702475620084442,space,2.1370079000480473,space,1.903024377010297,,,,,,,,,,,,,,,,,,,,,,,,,,,,,,,,,,070219_p1,001,2019_Jul_02_0951,body_behavioural,3.0.4,59.97046275834233,
7,"It didn’t help the situation that Calvin and Jessie were running late to the airport, since Jessie had already been fuming at Calvin and preparing to end the relationship with him.",1,1,12.0,,,,0,7,7,7,,,,,0,0,0,0,,,,,,,,,,,,,,,,,,,,,,,,,,,,,,,space,0.9868400699924678,space,1.3196794420364313,9,11.204173278994858,,,,,,,,,,,,,,,,,,,,,,,,,,,,070219_p1,001,2019_Jul_02_0951,body_behavioural,3.0.4,59.97046275834233,
7,"Upon arriving at their terminal, they only had 45 minutes until their international flight would depart from Jamaica for the US.",1,1,None,,,,0,7,7,7,,,,,0,1,1,1,,,,,,,,,,,,,,,,,,,,,,,,,,,,,,,,,,,1,4.986114021972753,,,,,,,,,,,,,,,,,,,,,,,,,,,,070219_p1,001,2019_Jul_02_0951,body_behavioural,3.0.4,59.97046275834233,
7,"It had been a tough vacation, which was planned well before Jessie began to think of breaking up with Calvin 6 weeks ago.  ",1,1,None,,,,0,7,7,7,,,,,0,2,2,2,,,,,,,,,,,,,,,,,,,,,,,,,,,,,,,,,,,1,7.336172465002164,,,,,,,,,,,,,,,,,,,,,,,,,,,,070219_p1,001,2019_Jul_02_0951,body_behavioural,3.0.4,59.97046275834233,
7,"Calvin knew that Jessie was upset, but wasn't sure what to do besides attempt to carry on as normal.",1,1,None,,,,0,7,7,7,,,,,0,3,3,3,,,,,,,,,,,,,,,,,,,,,,,,,,,,,,,,,,,1,5.403526949987281,,,,,,,,,,,,,,,,,,,,,,,,,,,,070219_p1,001,2019_Jul_02_0951,body_behavioural,3.0.4,59.97046275834233,
7,"The security line was very short, and once the online boarding passes were scanned, they put their bags on the conveyor belt.",2,1,None,,,,0,7,7,7,,,,,0,4,4,4,,,,,,,,,,,,,,,,,,,,,,,,,,,,,,,,,,,9,4.15325011004461,,,,,,,,,,,,,,,,,,,,,,,,,,,,070219_p1,001,2019_Jul_02_0951,body_behavioural,3.0.4,59.97046275834233,
7,Calvin also took off his belt and watch.,2,1,None,,,,0,7,7,7,,,,,0,5,5,5,,,,,,,,,,,,,,,,,,,,,,,,,,,,,,,,,,,1,1.9031694500008598,,,,,,,,,,,,,,,,,,,,,,,,,,,,070219_p1,001,2019_Jul_02_0951,body_behavioural,3.0.4,59.97046275834233,
7,"There was a short halt in security proceedings so that the security guards could change shifts, but, once everything was back in order, they were ushered quickly through the metal detector. ",2,1,None,,,,0,7,7,7,,,,,0,6,6,6,,,,,,,,,,,,,,,,,,,,,,,,,,,,,,,,,,,1,7.134504999965429,,,,,,,,,,,,,,,,,,,,,,,,,,,,070219_p1,001,2019_Jul_02_0951,body_behavioural,3.0.4,59.97046275834233,
7,"“The infrastructure of this airport is really quite poor," said Calvin as they waited for their bags to emerge from the x-ray machine.",2,1,None,,,,0,7,7,7,,,,,0,7,7,7,,,,,,,,,,,,,,,,,,,,,,,,,,,,,,,,,,,1,4.470623507048003,,,,,,,,,,,,,,,,,,,,,,,,,,,,070219_p1,001,2019_Jul_02_0951,body_behavioural,3.0.4,59.97046275834233,
7,“I could've hidden something in my shoes easily.” ,2,1,None,,,,0,7,7,7,,,,,0,8,8,8,,,,,,,,,,,,,,,,,,,,,,,,,,,,,,,,,,,1,2.3027619519853033,,,,,,,,,,,,,,,,,,,,,,,,,,,,070219_p1,001,2019_Jul_02_0951,body_behavioural,3.0.4,59.97046275834233,
7,"Jessie, exasperated, scowled at the conveyor belt.",2,1,None,,,,0,7,7,7,,,,,0,9,9,9,,,,,,,,,,,,,,,,,,,,,,,,,,,,,,,,,,,1,2.2006103720050305,,,,,,,,,,,,,,,,,,,,,,,,,,,,070219_p1,001,2019_Jul_02_0951,body_behavioural,3.0.4,59.97046275834233,
7,“What?” he asked.,2,1,None,,,,0,7,7,7,,,,,0,10,10,10,,,,,,,,,,,,,,,,,,,,,,,,,,,,,,,,,,,1,0.9368304689996876,,,,,,,,,,,,,,,,,,,,,,,,,,,,070219_p1,001,2019_Jul_02_0951,body_behavioural,3.0.4,59.97046275834233,
7,"Balling up her fists and turning to him angrily, she said, “Calvin, I really don’t think I can do this anymore because I don’t think our personalities are compatible. ",2,2,None,,,,0,7,7,7,,,,,0,11,11,11,,,,,,,,,,,,,,,,,,,,,,,,,,,,,,,,,,,1,6.03752260201145,,,,,,,,,,,,,,,,,,,,,,,,,,,,070219_p1,001,2019_Jul_02_0951,body_behavioural,3.0.4,59.97046275834233,
7,I think it’s best that once we get to the States we part ways for good.” ,2,2,None,,,,0,7,7,7,,,,,0,12,12,12,,,,,,,,,,,,,,,,,,,,,,,,,,,,,,,,,,,1,3.6848795849946328,,,,,,,,,,,,,,,,,,,,,,,,,,,,070219_p1,001,2019_Jul_02_0951,body_behavioural,3.0.4,59.97046275834233,
7,Calvin said nothing as he grabbed his bag and walked down the concourse.,3,2,None,,,,0,7,7,7,,,,,0,13,13,13,,,,,,,,,,,,,,,,,,,,,,,,,,,,,,,,,,,1,4.287295754998922,,,,,,,,,,,,,,,,,,,,,,,,,,,,070219_p1,001,2019_Jul_02_0951,body_behavioural,3.0.4,59.97046275834233,
7,Jessie trailed behind him as they hurried their way quickly toward gate A28.,3,2,None,,,,0,7,7,7,,,,,0,14,14,14,,,,,,,,,,,,,,,,,,,,,,,,,,,,,,,,,,,1,4.369929195032455,,,,,,,,,,,,,,,,,,,,,,,,,,,,070219_p1,001,2019_Jul_02_0951,body_behavioural,3.0.4,59.97046275834233,
7,“So now you have nothing to say?” Jessie said. ,3,2,None,,,,0,7,7,7,,,,,0,15,15,15,,,,,,,,,,,,,,,,,,,,,,,,,,,,,,,,,,,1,1.3507934480439872,,,,,,,,,,,,,,,,,,,,,,,,,,,,070219_p1,001,2019_Jul_02_0951,body_behavioural,3.0.4,59.97046275834233,
7,"Calvin didn't answer, gritting his teeth and staring straight ahead. ",3,2,None,,,,0,7,7,7,,,,,0,16,16,16,,,,,,,,,,,,,,,,,,,,,,,,,,,,,,,,,,,1,3.670672421983909,,,,,,,,,,,,,,,,,,,,,,,,,,,,070219_p1,001,2019_Jul_02_0951,body_behavioural,3.0.4,59.97046275834233,
7,"He was very frustrated that he felt he had been trying to appease Jessie for the entirety of the vacation, and it seemed to be completed unappreciated. ",3,2,None,,,,0,7,7,7,,,,,0,17,17,17,,,,,,,,,,,,,,,,,,,,,,,,,,,,,,,,,,,1,6.220680681988597,,,,,,,,,,,,,,,,,,,,,,,,,,,,070219_p1,001,2019_Jul_02_0951,body_behavioural,3.0.4,59.97046275834233,
7,"Their silence was punctuated only by the rapid, rhythmic clacking of their suitcase wheels over the tile floor as they continued power-walking through the terminal. ",3,2,None,,,,0,7,7,7,,,,,0,18,18,18,,,,,,,,,,,,,,,,,,,,,,,,,,,,,,,,,,,1,6.203474113019183,,,,,,,,,,,,,,,,,,,,,,,,,,,,070219_p1,001,2019_Jul_02_0951,body_behavioural,3.0.4,59.97046275834233,
7,"Calvin finally turned to address her as they continued walking: “Jessie, this makes perfect sense. ",3,3,None,,,,0,7,7,7,,,,,0,19,19,19,,,,,,,,,,,,,,,,,,,,,,,,,,,,,,,,,,,1,2.403170739999041,,,,,,,,,,,,,,,,,,,,,,,,,,,,070219_p1,001,2019_Jul_02_0951,body_behavioural,3.0.4,59.97046275834233,
7,"If you feel this way, then I think we should break up because I don’t want to keep boring you.",3,3,None,,,,0,7,7,7,,,,,0,20,20,20,,,,,,,,,,,,,,,,,,,,,,,,,,,,,,,,,,,1,5.619220551976468,,,,,,,,,,,,,,,,,,,,,,,,,,,,070219_p1,001,2019_Jul_02_0951,body_behavioural,3.0.4,59.97046275834233,
7,"I agree, let’s part ways once we make it back.",3,3,None,,,,0,7,7,7,,,,,0,21,21,21,,,,,,,,,,,,,,,,,,,,,,,,,,,,,,,,,,,1,1.4370589430327527,,,,,,,,,,,,,,,,,,,,,,,,,,,,070219_p1,001,2019_Jul_02_0951,body_behavioural,3.0.4,59.97046275834233,
7,You should’ve spoken up about my apparent intolerability before you decided to plan this vacation.”,3,3,None,,,,0,7,7,7,,,,,0,22,22,22,,,,,,,,,,,,,,,,,,,,,,,,,,,,,,,,,,,1,3.6199067670386285,,,,,,,,,,,,,,,,,,,,,,,,,,,,070219_p1,001,2019_Jul_02_0951,body_behavioural,3.0.4,59.97046275834233,
7,"He was very hurt, even though he didn’t want to show it. ",3,3,None,,,,0,7,7,7,,,,,0,23,23,23,,,,,,,,,,,,,,,,,,,,,,,,,,,,,,,,,,,1,2.4373964780243114,,,,,,,,,,,,,,,,,,,,,,,,,,,,070219_p1,001,2019_Jul_02_0951,body_behavioural,3.0.4,59.97046275834233,
7,"Having made it to their gate, they scanned their tickets, and the annoyed flight attendant shooed them onto the jet bridge and then closed the plane door behind them.",4,3,None,,,,0,7,7,7,,,,,0,24,24,24,,,,,,,,,,,,,,,,,,,,,,,,,,,,,,,,,,,1,5.253166750015225,,,,,,,,,,,,,,,,,,,,,,,,,,,,070219_p1,001,2019_Jul_02_0951,body_behavioural,3.0.4,59.97046275834233,
7,"Luckily, they had forgotten to arrange seats next to each other on the flight back.",4,3,None,,,,0,7,7,7,,,,,0,25,25,25,,,,,,,,,,,,,,,,,,,,,,,,,,,,,,,,,,,1,4.1543163059977815,,,,,,,,,,,,,,,,,,,,,,,,,,,,070219_p1,001,2019_Jul_02_0951,body_behavioural,3.0.4,59.97046275834233,
7,"They were both in economy, but Jessie was headed for seat 33A while Calvin's seat was 33F. ",4,3,None,,,,0,7,7,7,,,,,0,26,26,26,,,,,,,,,,,,,,,,,,,,,,,,,,,,,,,,,,,1,5.55338723998284,,,,,,,,,,,,,,,,,,,,,,,,,,,,070219_p1,001,2019_Jul_02_0951,body_behavioural,3.0.4,59.97046275834233,
7,"Before Jessie sat down, she took a deep breath, calmed her emotions, and then awkwardly shook Calvin’s hand, mumbling, “Have a nice flight. ",4,4,None,,,,0,7,7,7,,,,,0,27,27,27,,,,,,,,,,,,,,,,,,,,,,,,,,,,,,,,,,,1,8.9864835269982,,,,,,,,,,,,,,,,,,,,,,,,,,,,070219_p1,001,2019_Jul_02_0951,body_behavioural,3.0.4,59.97046275834233,
7,"Oh, and when you get a chance, could you send me back all the philosophy books I lent you?”",4,4,None,,,,0,7,7,7,,,,,0,28,28,28,,,,,,,,,,,,,,,,,,,,,,,,,,,,,,,,,,,1,4.2857995349913836,,,,,,,,,,,,,,,,,,,,,,,,,,,,070219_p1,001,2019_Jul_02_0951,body_behavioural,3.0.4,59.97046275834233,
7,He laughed in disbelief and walked to his window seat three rows back to get ready for takeoff.,4,4,None,,,,0,7,7,7,,,,,0,29,29,29,,,,,,,,,,,,,,,,,,,,,,,,,,,,,,,,,,,1,5.219489315000828,,,,,,,,,,,,,,,,,,,,,,,,,,,,070219_p1,001,2019_Jul_02_0951,body_behavioural,3.0.4,59.97046275834233,
7,Both were upset but glad that they would have this flight in solitude.,4,4,None,,,,0,7,7,7,,,,,0,30,30,30,,,,,,,,,,,,,,,,,,,,,,,,,,,,,,,,,,,1,2.4531714629847556,,,,,,,,,,,,,,,,,,,,,,,,,,,,070219_p1,001,2019_Jul_02_0951,body_behavioural,3.0.4,59.97046275834233,
7,,,,,,,,0,7,7,7,,,,,,,,,,,,,,,,,,,,,,,,,,,,,,,,,,,,,,,,,,,,,,,,,,,,,,,,,,,,,,,,,,,,,,,,070219_p1,001,2019_Jul_02_0951,body_behavioural,3.0.4,59.97046275834233,
,,,,,,,,,,,,,,,,,,,,,,,,,,,,,,,,,,,,,,,,,,,,,,,,,,,,,,,,1225.729146595986,space,0.7363335380214266,,,,,,,,,,,,,,,,,,,,,,,,,070219_p1,001,2019_Jul_02_0951,body_behavioural,3.0.4,59.97046275834233,
,,,,,,,"In this next part of the experiment, please recall each story to the best of your ability.",,,,,,,,,,,,,0,0,0,0,,,,,,,,,,,,,,,,,,,,,,,,,,,,,,,,,,,,space,4.920245484972838,,,,,,,,,,,,,,,,,,,,,,,070219_p1,001,2019_Jul_02_0951,body_behavioural,3.0.4,59.97046275834233,
,,,,,,,"You will be presented with the story title, names, the images, and a blank text box for each story.",,,,,,,,,,,,,0,1,1,1,,,,,,,,,,,,,,,,,,,,,,,,,,,,,,,,,,,,space,3.7341835550032556,,,,,,,,,,,,,,,,,,,,,,,070219_p1,001,2019_Jul_02_0951,body_behavioural,3.0.4,59.97046275834233,
,,,,,,,Describe the story indicated with as many details as you can remember in the space provided. ,,,,,,,,,,,,,0,2,2,2,,,,,,,,,,,,,,,,,,,,,,,,,,,,,,,,,,,,space,2.8203813859727234,,,,,,,,,,,,,,,,,,,,,,,070219_p1,001,2019_Jul_02_0951,body_behavioural,3.0.4,59.97046275834233,
,,,,,,,"When you are finished recalling one story, to move onto the next one, press the ‘return’ key. ",,,,,,,,,,,,,0,3,3,3,,,,,,,,,,,,,,,,,,,,,,,,,,,,,,,,,,,,space,4.969898986048065,,,,,,,,,,,,,,,,,,,,,,,070219_p1,001,2019_Jul_02_0951,body_behavioural,3.0.4,59.97046275834233,
,,,,,,,There is a 5 minute time limit to make your response. ,,,,,,,,,,,,,0,4,4,4,,,,,,,,,,,,,,,,,,,,,,,,,,,,,,,,,,,,space,2.3361963370116428,,,,,,,,,,,,,,,,,,,,,,,070219_p1,001,2019_Jul_02_0951,body_behavioural,3.0.4,59.97046275834233,
,,,,,,,Please note that you will not be able to capitalize any letters except for the first letter of your answer. This will not effect the scoring of your recall answer.,,,,,,,,,,,,,0,5,5,5,,,,,,,,,,,,,,,,,,,,,,,,,,,,,,,,,,,,space,7.136765050992835,,,,,,,,,,,,,,,,,,,,,,,070219_p1,001,2019_Jul_02_0951,body_behavioural,3.0.4,59.97046275834233,
0,,,,,,,,,,,,,,,,,,,,,,,,0,0,0,0,,,,,,,,,,,,,,,,,,,,,,,,,,,,,,,,,,space,1.0865000350167975,They met at a grocery store. they were at the meat section when they started to flirt with each other. they continued flirting when they got in line. simon paid for carina's groceries then she had to race off to prepped for her guests for the bbq she was hosting. both agreed to see each other again.,,,,,,,,,,,,,,,,,,,,070219_p1,001,2019_Jul_02_0951,body_behavioural,3.0.4,59.97046275834233,
1,,,,,,,,,,,,,,,,,,,,,,,,0,1,1,1,,,,,,,,,,,,,,,,,,,,,,,,,,,,,,,,,,space,1.1529998580226675,"Both are web developers who had the same class and needed to collaborate to make something work. throughout the whole lecture, they went back and forth on what this deal would entail in a way that would benefit both parties. at the end of the conversation, they hugged and agreed and made plans to meet again to sign the official paperwork.",,,,,,,,,,,,,,,,,,,,070219_p1,001,2019_Jul_02_0951,body_behavioural,3.0.4,59.97046275834233,
2,,,,,,,,,,,,,,,,,,,,,,,,0,2,2,2,,,,,,,,,,,,,,,,,,,,,,,,,,,,,,,,,,space,1.0033925939933397,Aaron and lana had been dating for awhile. they had the same class together. aaron reached out to the professor and told her of his plans to proposed to lana in class. she was agreed to be apart of it. the professor winked at aaraon when it was time. he looked at the ring once more. it was not a traditional ring but with red stones around a band as that was lana's style. the professor called lana to the front for a demonstration. aaron followed up and told her i want to make a bond with you too. will you marry me. she said yes and was crying. the class cheered. the friends from the hallway came into the class. the professor was proud.,,,,,,,,,,,,,,,,,,,,070219_p1,001,2019_Jul_02_0951,body_behavioural,3.0.4,59.97046275834233,
3,,,,,,,,,,,,,,,,,,,,,,,,0,3,3,3,,,,,,,,,,,,,,,,,,,,,,,,,,,,,,,,,,space,1.853697523009032,"Senna and alvira been together for a while. they are at a fancy restaruant. she thinks it's to celebrate her totamtoe garden but it's really an opportunity for senna to proposed to alvira. throughout the whole dinner, senna spoke of his love for alvira then got the waiter to bring everything over and proposed. alvira gladly said yes. the other folks in the restaraunt applaud.",,,,,,,,,,,,,,,,,,,,070219_p1,001,2019_Jul_02_0951,body_behavioural,3.0.4,59.97046275834233,
4,,,,,,,,,,,,,,,,,,,,,,,,0,4,4,4,,,,,,,,,,,,,,,,,,,,,,,,,,,,,,,,,,space,3.8174857560079545,"Emma and liam been fighting. they were both grocery store shopping because they both were hosting a dinner party for friends,oddly. emma grabbed pasta and such and liam was like oh so we eating pasta huh. emma was like well yes, since you not about to help me out. liam is like when i do, i just seem to get in the way. while they grabbed the remaining items and got into line, it was decided that they needed to break up. both were in agreement. they decided to continue with the dinner party and not tell their guests about the break up. at the end, we are shown that there would be a fight over who keeps the cat.",,,,,,,,,,,,,,,,,,,,070219_p1,001,2019_Jul_02_0951,body_behavioural,3.0.4,59.97046275834233,
5,,,,,,,,,,,,,,,,,,,,,,,,0,5,5,5,,,,,,,,,,,,,,,,,,,,,,,,,,,,,,,,,,space,4.386957585986238,"The scene is the aiport. anna shoe laces were untied. she bent down to tie them, unaware that there was a cart racing her way. david saved anna and make a lame joke. love at first sight. anna was like im running late for my flight. david is like oh let me help you. they get through security and race for the gate. in that, they find out they went to the same high school and agreed to meet up again. anna gave david her business card as she entered the jetway. ",,,,,,,,,,,,,,,,,,,,070219_p1,001,2019_Jul_02_0951,body_behavioural,3.0.4,59.97046275834233,
6,,,,,,,,,,,,,,,,,,,,,,,,0,6,6,6,,,,,,,,,,,,,,,,,,,,,,,,,,,,,,,,,,space,1.0694926799624227,They're at a restaraunt trying to broker a deal. mr. g has a big company who is trying to merge with mr. s small company. they order their food and begin eating and conluding the meal was subpar. they went back and forth on talk about the advantages and disadvantages of this merge. it ended with an agreement to merge and a toast. ,,,,,,,,,,,,,,,,,,,,070219_p1,001,2019_Jul_02_0951,body_behavioural,3.0.4,59.97046275834233,
7,,,,,,,,,,,,,,,,,,,,,,,,0,7,7,7,,,,,,,,,,,,,,,,,,,,,,,,,,,,,,,,,,space,0.9197388250031509,"Calvin and jessie were having problems in their relationship and going on this vacation to jamaica did not help. while they were going through typical airport stuff and boarding, it was decided to break up. calvin was hurt but did not want to show it. jessie wanted her books back. luckily they didnt have to sit next to each other on the plan. calvin felt unappreciated. ",,,,,,,,,,,,,,,,,,,,070219_p1,001,2019_Jul_02_0951,body_behavioural,3.0.4,59.97046275834233,
,,,,,,,,,,,,,,,,,,,,,,,,,,,,,,,,,,,,,,,,,,,,,,,,,,,,,,,,,,,,,,,,2115.487994997995,space,1.5509308869950473,,,,,,,,,,,,,,,,,070219_p1,001,2019_Jul_02_0951,body_behavioural,3.0.4,59.97046275834233,
,,,,,,,"In this last part of the experiment, please answer 8 questions about each story.",,,,,,,,,,,,,,,,,,,,,0,0,0,0,,,,,,,,,,,,,,,,,,,,,,,,,,,,,,,,,,,,space,6.418439842003863,,,,,,,,,,,,,,,070219_p1,001,2019_Jul_02_0951,body_behavioural,3.0.4,59.97046275834233,
,,,,,,,Some of the questions are not related to the perspective you were asked to assume.,,,,,,,,,,,,,,,,,,,,,0,1,1,1,,,,,,,,,,,,,,,,,,,,,,,,,,,,,,,,,,,,space,3.2546797950053588,,,,,,,,,,,,,,,070219_p1,001,2019_Jul_02_0951,body_behavioural,3.0.4,59.97046275834233,
,,,,,,,"We realize that we did not tell you to think of these questions during the story, but please do your best to answer them.",,,,,,,,,,,,,,,,,,,,,0,2,2,2,,,,,,,,,,,,,,,,,,,,,,,,,,,,,,,,,,,,space,4.837296429963317,,,,,,,,,,,,,,,070219_p1,001,2019_Jul_02_0951,body_behavioural,3.0.4,59.97046275834233,
,,,,,,,"When you have finished typing your answer, hit ‘return’ to submit your answer and move onto the next question. ",,,,,,,,,,,,,,,,,,,,,0,3,3,3,,,,,,,,,,,,,,,,,,,,,,,,,,,,,,,,,,,,space,3.70317645202158,,,,,,,,,,,,,,,070219_p1,001,2019_Jul_02_0951,body_behavioural,3.0.4,59.97046275834233,
0,,,,,,,,,,,,,,,,,,,,,,,,,,,,,,,,0,0,0,0,,,,,,,,,,,,,,,,,,,,,,,,,,,,60 credit card,,,,,,space,2.2528176509658806,Meat,non-primed first,This looks like a baby chicken,Tuesday for a dinner date,430,Busy,Meat and other items for a bbq,They step into the same ones,60 credit card,,,,070219_p1,001,2019_Jul_02_0951,body_behavioural,3.0.4,59.97046275834233,
1,,,,,,,,,,,,,,,,,,,,,,,,,,,,,,,,0,1,1,1,,,,,,,,,,,,,,,,,,,,,,,,,,,,Hug,,,,,,space,2.319844049983658,Average ,primed first,I do not recall,I do not recall,Midterm next class,Web developers,50k,I do not recall,Hug,,,,070219_p1,001,2019_Jul_02_0951,body_behavioural,3.0.4,59.97046275834233,
2,,,,,,,,,,,,,,,,,,,,,,,,,,,,,,,,0,2,2,2,,,,,,,,,,,,,,,,,,,,,,,,,,,,Midterm next class,,,,,,space,1.2508690350223333,8,primed first,Red 6,Notebook,Dad,Average,Bonds science,Create bonds,Midterm next class,,,,070219_p1,001,2019_Jul_02_0951,body_behavioural,3.0.4,59.97046275834233,
3,,,,,,,,,,,,,,,,,,,,,,,,,,,,,,,,0,3,3,3,,,,,,,,,,,,,,,,,,,,,,,,,,,,Dad,,,,,,space,1.6030833280528896,High ceilings,primed first,I do not recall,I do not recall,They love it,4,1 white,Ring box,Dad,,,,070219_p1,001,2019_Jul_02_0951,body_behavioural,3.0.4,59.97046275834233,
4,,,,,,,,,,,,,,,,,,,,,,,,,,,,,,,,0,4,4,4,,,,,,,,,,,,,,,,,,,,,,,,,,,,Cat,,,,,,space,0.9860175140202045,Busy,non-primed first,Pasta and such,3,30 credit card,A while,The personalities clash,Yes and he believes they are not compatible as well,Cat,,,,070219_p1,001,2019_Jul_02_0951,body_behavioural,3.0.4,59.97046275834233,
5,,,,,,,,,,,,,,,,,,,,,,,,,,,,,,,,0,5,5,5,,,,,,,,,,,,,,,,,,,,,,,,,,,,1055,,,,,,space,2.002836952044163,Anna has a short window; david has a lot of time,non-primed first,Items on the belt,Far end of the terminal,Business class,Her hands,You didn't see that cart coming for you,Tuesday,1055,,,,070219_p1,001,2019_Jul_02_0951,body_behavioural,3.0.4,59.97046275834233,
6,,,,,,,,,,,,,,,,,,,,,,,,,,,,,,,,0,6,6,6,,,,,,,,,,,,,,,,,,,,,,,,,,,,Toast,,,,,,space,0.9530501120025292,Fancy,non-primed first,Covered in felt,Steak,They think it's subpar,Ceos of their perspective companies,A decent amount,I do not recall,Toast,,,,070219_p1,001,2019_Jul_02_0951,body_behavioural,3.0.4,59.97046275834233,
7,,,,,,,,,,,,,,,,,,,,,,,,,,,,,,,,0,7,7,7,,,,,,,,,,,,,,,,,,,,,,,,,,,,Books,,,,,,space,0.7363712270162068,Not long,primed first,I do not recall,Towards the end of the terminal,Main cabin 33a 33f,Long before the vacation,Incompatible personalities,"It didnt seem so at first but he agreed to separate upon return to the states; he thinks he did a lot to please her especially during the vacation but he's like oh since im boring or whatever, bye.",Books,,,,070219_p1,001,2019_Jul_02_0951,body_behavioural,3.0.4,59.97046275834233,
,,,,,,,,,,,,,,,,,,,,,,,,,,,,,,,,,,,,,,,,,,,,,,,,,,,,,,,,,,,,,,,,,,,,,,,,,,,,,,,,2646.2407769869897,space,1.1356811649748124,070219_p1,001,2019_Jul_02_0951,body_behavioural,3.0.4,59.97046275834233,
,,,,,,,,,,,,,,,,,,,,,,,,,,,,,,,,,,,,0,0,0,0,,,,,,,,,,,,,,,,,,,,,,,,,,,,,,,,,,,,,,,,,,,,070219_p1,001,2019_Jul_02_0951,body_behavioural,3.0.4,59.97046275834233,
,,,,,,,,,,,,,,,,,,,,,,,,,,,,,,,,,,,,1,0,1,0,,,,,,,,,,,,,,,,,,,,,,,,,,,,,,,,,,,,,,,,,,,,070219_p1,001,2019_Jul_02_0951,body_behavioural,3.0.4,59.97046275834233,
,,,,,,,,,,,,,,,,,,,,,,,,,,,,,,,,,,,,2,0,2,0,,,,,,,,,,,,,,,,,,,,,,,,,,,,,,,,,,,,,,,,,,,,070219_p1,001,2019_Jul_02_0951,body_behavioural,3.0.4,59.97046275834233,
,,,,,,,,,,,,,,,,,,,,,,,,,,,,,,,,,,,,3,0,3,0,,,,,,,,,,,,,,,,,,,,,,,,,,,,,,,,,,,,,,,,,,,,070219_p1,001,2019_Jul_02_0951,body_behavioural,3.0.4,59.97046275834233,
,,,,,,,,,,,,,,,,,,,,,,,,,,,,,,,,,,,,4,0,4,0,,,,,,,,,,,,,,,,,,,,,,,,,,,,,,,,,,,,,,,,,,,,070219_p1,001,2019_Jul_02_0951,body_behavioural,3.0.4,59.97046275834233,
