instruct_text,this_pic,rolePic,job,instruct_text2,Q1,Q2,Q3,Q4,D1,D2,roleName,instructText,trials_2.thisRepN,trials_2.thisTrialN,trials_2.thisN,trials_2.thisIndex,trials_4.thisRepN,trials_4.thisTrialN,trials_4.thisN,trials_4.thisIndex,loop3.thisRepN,loop3.thisTrialN,loop3.thisN,loop3.thisIndex,trials_3.thisRepN,trials_3.thisTrialN,trials_3.thisN,trials_3.thisIndex,trials.thisRepN,trials.thisTrialN,trials.thisN,trials.thisIndex,trials_5.thisRepN,trials_5.thisTrialN,trials_5.thisN,trials_5.thisIndex,trials_7.thisRepN,trials_7.thisTrialN,trials_7.thisN,trials_7.thisIndex,trials_8.thisRepN,trials_8.thisTrialN,trials_8.thisN,trials_8.thisIndex,key_resp_8.keys,key_resp_8.rt,key_resp_2.keys,key_resp_2.rt,key_resp_6.keys,key_resp_6.rt,key_resp_14.keys,key_resp_14.rt,key_resp_10.keys,key_resp_10.rt,key_resp_11.keys,key_resp_11.rt,key_resp_12.keys,key_resp_12.rt,key_resp_13.keys,key_resp_13.rt,key_resp_4.keys,key_resp_4.rt,key_resp_3.keys,key_resp_3.rt,key_resp_5.keys,key_resp_5.rt,participant,session,date,expName,psychopyVersion,frameRate,
Welcome to the Job Simulator Task!,instructions_photos/pixel.png,,,,,,,,,,,,0,0,0,0,,,,,,,,,,,,,,,,,,,,,,,,,,,,,space,0.43463286799988055,,,,,,,,,,,,,,,,,,,,,0,001,2019_Feb_20_1126,part1_subjective_segmentation,3.0.4,59.92986108699876,
"In this task, you'll be assuming various perspectives of jobs while reading stories. ",None,,,,,,,,,,,,0,1,1,1,,,,,,,,,,,,,,,,,,,,,,,,,,,,,space,0.11796518500023012,,,,,,,,,,,,,,,,,,,,,0,001,2019_Feb_20_1126,part1_subjective_segmentation,3.0.4,59.92986108699876,
"First, you’ll be introduced to the perspectives of 8 different jobs. ",instructions_photos/i1.png,,,,,,,,,,,,0,2,2,2,,,,,,,,,,,,,,,,,,,,,,,,,,,,,space,0.15360742800021399,,,,,,,,,,,,,,,,,,,,,0,001,2019_Feb_20_1126,part1_subjective_segmentation,3.0.4,59.92986108699876,
"For example, you may be asked to take on the perspective of a Restaurant Critic while you read a story that takes place in a restaurant. ",jobphotos/restaurant_critic.jpg,,,,,,,,,,,,0,3,3,3,,,,,,,,,,,,,,,,,,,,,,,,,,,,,space,0.06975758799990217,,,,,,,,,,,,,,,,,,,,,0,001,2019_Feb_20_1126,part1_subjective_segmentation,3.0.4,59.92986108699876,
"You’ll learn 4 questions associated with each perspective, and you’ll use these to interrogate the stories while assuming that perspective. ",instructions_photos/i2.png,,,,,,,,,,,,0,4,4,4,,,,,,,,,,,,,,,,,,,,,,,,,,,,,None,,,,,,,,,,,,,,,,,,,,,,0,001,2019_Feb_20_1126,part1_subjective_segmentation,3.0.4,59.92986108699876,
,,jobphotos/couples.jpeg,"Couples Therapist
",,,,,,,,,,,,,,0,0,0,7,,,,,,,,,,,,,,,,,,,,,,,,,,,space,0.5841224350001539,,,,,,,,,,,,,,,,,,,0,001,2019_Feb_20_1126,part1_subjective_segmentation,3.0.4,59.92986108699876,
,,jobphotos/dean.jpg,Dean of Academic Studies,,,,,,,,,,,,,,0,1,1,6,,,,,,,,,,,,,,,,,,,,,,,,,,,None,,,,,,,,,,,,,,,,,,,,0,001,2019_Feb_20_1126,part1_subjective_segmentation,3.0.4,59.92986108699876,
You’ll become acquainted with these perspectives more in the following pre-task quizzes where you’ll learn the questions associated with each perspective. ,,,,(press space to continue),,,,,,,,,,,,,,,,,0,0,0,0,,,,,,,,,,,,,,,,,,,,,,,,,space,0.7006182270001773,,,,,,,,,,,,,,,,,0,001,2019_Feb_20_1126,part1_subjective_segmentation,3.0.4,59.92986108699876,
You’ll first go through all four questions for each perspective. ,,,,None,,,,,,,,,,,,,,,,,0,1,1,1,,,,,,,,,,,,,,,,,,,,,,,,,None,,,,,,,,,,,,,,,,,,0,001,2019_Feb_20_1126,part1_subjective_segmentation,3.0.4,59.92986108699876,
,,jobphotos/restaurant_critic.jpg,,,How is the restaurant decorated?,What are the menus like?,"What do the clients order?
",How do the clients like the food?,How old is the waiter?,What meal is being served?,Restaurant Critic,,,,,,,,,,,,,,0,0,0,1,0,0,0,0,,,,,,,,,,,,,,,,,,,space,0.8007325920002586,space,1.5530602149997321,space,0.40172103900022194,space,0.2203738500002146,space,0.18639639000002717,space,0.9025747629998477,,,,,0,001,2019_Feb_20_1126,part1_subjective_segmentation,3.0.4,59.92986108699876,
,,jobphotos/restaurant_critic.jpg,,,How is the restaurant decorated?,What are the menus like?,"What do the clients order?
",How do the clients like the food?,How old is the waiter?,What meal is being served?,Restaurant Critic,,,,,,,,,,,,,,0,0,0,1,,,,,,,,,,,,,,,,,,,,,,,,,,,,,,,,,,,,,,,0,001,2019_Feb_20_1126,part1_subjective_segmentation,3.0.4,59.92986108699876,
,,jobphotos/business_reporter.jpg,,,What industry are the business people in?,What is being negotiated and how much money is at stake?,What is the response to the proposed deal?,What comes about from the business proposal?,Is the deal fair?,How long does it take to make the deal?,Business Reporter,,,,,,,,,,,,,,,,,,,,,,0,0,0,0,0,0,0,0,,,,,,,,,,,,,,,,,,,,,,,space,0.8530692250001266,,,0,001,2019_Feb_20_1126,part1_subjective_segmentation,3.0.4,59.92986108699876,
,,jobphotos/business_reporter.jpg,,,What industry are the business people in?,What is being negotiated and how much money is at stake?,What is the response to the proposed deal?,What comes about from the business proposal?,Is the deal fair?,How long does it take to make the deal?,Business Reporter,,,,,,,,,,,,,,,,,,,,,,0,0,0,0,,,,,,,,,,,,,,,,,,,,,,,,,,,,,,,0,001,2019_Feb_20_1126,part1_subjective_segmentation,3.0.4,59.92986108699876,
,,,,,,,,,,,,Good job! You’ve finished the pre-task quizzes. ,,,,,,,,,,,,,,,,,,,,,,,,,,,,,0,0,0,0,,,,,,,,,,,,,,,,,,,,,space,0.16979200500009028,0,001,2019_Feb_20_1126,part1_subjective_segmentation,3.0.4,59.92986108699876,
,,,,,,,,,,,,You are about to begin the main task of reading the stories. ,,,,,,,,,,,,,,,,,,,,,,,,,,,,,0,1,1,1,,,,,,,,,,,,,,,,,,,,,space,18.520972557000277,0,001,2019_Feb_20_1126,part1_subjective_segmentation,3.0.4,59.92986108699876,
,,,,,,,,,,,,"The stories will presented to you sentence by sentence, so you’ll read each sentence in the story individually. ",,,,,,,,,,,,,,,,,,,,,,,,,,,,,0,2,2,2,,,,,,,,,,,,,,,,,,,,,space,4.136290956999801,0,001,2019_Feb_20_1126,part1_subjective_segmentation,3.0.4,59.92986108699876,
,,,,,,,,,,,,"Before reading each story, you’ll be assigned a perspective and then given a quiz like the ones you just took for that perspective.",,,,,,,,,,,,,,,,,,,,,,,,,,,,,0,3,3,3,,,,,,,,,,,,,,,,,,,,,space,2.7198359130002245,0,001,2019_Feb_20_1126,part1_subjective_segmentation,3.0.4,59.92986108699876,
,,,,,,,,,,,,"When you’ve finished the quiz, you’ll begin reading the story, sentence by sentence. ",,,,,,,,,,,,,,,,,,,,,,,,,,,,,0,4,4,4,,,,,,,,,,,,,,,,,,,,,space,1.903087945000152,0,001,2019_Feb_20_1126,part1_subjective_segmentation,3.0.4,59.92986108699876,
,,,,,,,,,,,,"While reading the stories, you will additionally have to make a judgement about each sentence in order to advance to the next sentence. ",,,,,,,,,,,,,,,,,,,,,,,,,,,,,0,5,5,5,,,,,,,,,,,,,,,,,,,,,space,7.136857052000323,0,001,2019_Feb_20_1126,part1_subjective_segmentation,3.0.4,59.92986108699876,
,,,,,,,,,,,,Some people feel that the stories have natural “parts”: we want you to make a judgement about when you think the story has transitioned from one “part” to another. ,,,,,,,,,,,,,,,,,,,,,,,,,,,,,0,6,6,6,,,,,,,,,,,,,,,,,,,,,space,78.92487679499982,0,001,2019_Feb_20_1126,part1_subjective_segmentation,3.0.4,59.92986108699876,
,,,,,,,,,,,,You will press “9” if you think the sentence you are reading has ended the previous “part” and has begun a new “part” of the story. ,,,,,,,,,,,,,,,,,,,,,,,,,,,,,0,7,7,7,,,,,,,,,,,,,,,,,,,,,space,9.070305572000052,0,001,2019_Feb_20_1126,part1_subjective_segmentation,3.0.4,59.92986108699876,
