count,storyText,locationEvent,socialEvent,trials.thisRepN,trials.thisTrialN,trials.thisN,trials.thisIndex,trials_7.thisRepN,trials_7.thisTrialN,trials_7.thisN,trials_7.thisIndex,trials_2.thisRepN,trials_2.thisTrialN,trials_2.thisN,trials_2.thisIndex,order of stories,order of perspectives,participant 2 order - stories,participant 2 order  - schemas types,key_resp_8.keys,key_resp_8.rt,key_resp_5.keys,key_resp_5.rt,key_resp_7.keys,key_resp_7.rt,story_presses.keys,story_presses.rt,participant,session,date,expName,psychopyVersion,frameRate,
0,,,,0,0,0,0,0,0,0,0,,,,,[22 33 32 44 41 11 23 14 13 43 21 42 31 24 12 34],"['Social' 'Social' 'Location' 'Location' 'Social' 'Location' 'Location'
 'Social' 'Social' 'Location' 'Social' 'Social' 'Location' 'Location'
 'Location' 'Social']",[13 43 21 42 31 24 12 34],"['Social' 'Location' 'Social' 'Social' 'Location' 'Location' 'Location'
 'Social']",space,1.1218398949999937,space,0.3178540079999266,space,0.40320200500002557,,,111,001,2019_Feb_25_1630,body_behavioural,3.0.4,60.030673873445785,
0,"Sven and Isabel walked hurriedly from the cab into the Barcelona Airport after an incredible weekend with Isabel’s family, which had wiped away any doubts Sven had had about his decision to propose. ",1,1,0,0,0,0,,,,,0,0,0,0,,,,,,,,,,,1,1.117600580000044,111,001,2019_Feb_25_1630,body_behavioural,3.0.4,60.030673873445785,
0,"They were a little pressed for time, with only a little over an hour until their flight would take off to go back to the US, but they already had their online boarding passes and no checked luggage. ",1,1,0,0,0,0,,,,,0,1,1,1,,,,,,,,,,,9,0.05300921000002745,111,001,2019_Feb_25_1630,body_behavioural,3.0.4,60.030673873445785,
0,"When Isabel stopped to rummage through her purse looking for her phone, Sven turned his back to her and took the velvet box out of his backpack, opening it to look at the ring he bought her.",1,2,0,0,0,0,,,,,0,2,2,2,,,,,,,,,,,1,0.07032943499996236,111,001,2019_Feb_25_1630,body_behavioural,3.0.4,60.030673873445785,
0,"He had received her parents’ blessing during the trip, and he was almost giddy with excitement. ",1,2,0,0,0,0,,,,,0,3,3,3,,,,,,,,,,,9,0.03670138500001485,111,001,2019_Feb_25_1630,body_behavioural,3.0.4,60.030673873445785,
0,"He tilted the ring backward and forward, despite having already studied it daily since he had purchased it a few weeks ago. ",1,2,0,0,0,0,,,,,0,4,4,4,,,,,,,,,,,1,0.05289846700009093,111,001,2019_Feb_25_1630,body_behavioural,3.0.4,60.030673873445785,
0,"It was a simple design, with a clear, white diamond on a thin silver band.",1,2,0,0,0,0,,,,,0,5,5,5,,,,,,,,,,,9,0.0540418900000077,111,001,2019_Feb_25_1630,body_behavioural,3.0.4,60.030673873445785,
0,"“Sven, let’s go! ” Isabel said. ",1,2,0,0,0,0,,,,,0,6,6,6,,,,,,,,,,,1,0.0877602550000347,111,001,2019_Feb_25_1630,body_behavioural,3.0.4,60.030673873445785,
0,Sven discretely closed the box and put it in his pocket.,1,2,0,0,0,0,,,,,0,7,7,7,,,,,,,,,,,9,0.0032048869999243834,111,001,2019_Feb_25_1630,body_behavioural,3.0.4,60.030673873445785,
0," They entered the security line, weaving through the roped walkways to the front. ",2,2,0,0,0,0,,,,,0,8,8,8,,,,,,,,,,,1,0.053002109999965796,111,001,2019_Feb_25_1630,body_behavioural,3.0.4,60.030673873445785,
0,"When they were up, Isabel realized her laptop was buried somewhere in her duffle bag. ",2,2,0,0,0,0,,,,,0,9,9,9,,,,,,,,,,,9,0.05371025499994175,111,001,2019_Feb_25_1630,body_behavioural,3.0.4,60.030673873445785,
0,Sven had to hold the growing mound of objects she pulled from her bag until she unearthed the laptop.,2,2,0,0,0,0,,,,,0,10,10,10,,,,,,,,,,,1,0.15274295000006077,111,001,2019_Feb_25_1630,body_behavioural,3.0.4,60.030673873445785,
0,She set it into a bin and then had to unstrap her leather boots and put everything else into the bins.,2,2,0,0,0,0,,,,,0,11,11,11,,,,,,,,,,,9,0.05066001500006223,111,001,2019_Feb_25_1630,body_behavioural,3.0.4,60.030673873445785,
0,"Finally, she relieved Sven of his holding duties, and he hurriedly deposited his own backpack on the belt as the people behind them glared without shame. ",2,2,0,0,0,0,,,,,0,12,12,12,,,,,,,,,,,1,0.053103809999925033,111,001,2019_Feb_25_1630,body_behavioural,3.0.4,60.030673873445785,
0,"Sven went into the millimeter wave scanner after Isabel, put his hands up, and the metal bars whirled around him.",2,2,0,0,0,0,,,,,0,13,13,13,,,,,,,,,,,9,0.03674888800003373,111,001,2019_Feb_25_1630,body_behavioural,3.0.4,60.030673873445785,
0,"“Sir, please step to the side.",2,2,0,0,0,0,,,,,0,14,14,14,,,,,,,,,,,1,0.06942449199993916,111,001,2019_Feb_25_1630,body_behavioural,3.0.4,60.030673873445785,
0,"You need to empty your pockets,” the security guard said.",2,2,0,0,0,0,,,,,0,15,15,15,,,,,,,,,,,9,0.03659972800005562,111,001,2019_Feb_25_1630,body_behavioural,3.0.4,60.030673873445785,
0,"With a sinking feeling Sven realized the mistake he had made forgetting to put the ring back in his bag, as Isabel and the guard both looked at him expectantly.",2,2,0,0,0,0,,,,,0,16,16,16,,,,,,,,,,,1,0.053223389999971005,111,001,2019_Feb_25_1630,body_behavioural,3.0.4,60.030673873445785,
0,"Sven,  deciding he would make the best of the situation, grabbed Isabel's hand as he reached into his pocket.",2,2,0,0,0,0,,,,,0,17,17,17,,,,,,,,,,,1,0.11992924200001198,111,001,2019_Feb_25_1630,body_behavioural,3.0.4,60.030673873445785,
0,"He got down on one knee and, giggling slightly at her confused look, said, “Isabel, this isn't quite how I'd planned this, but - will you marry me?”",2,3,0,0,0,0,,,,,0,18,18,18,,,,,,,,,,,1,0.08655214500004149,111,001,2019_Feb_25_1630,body_behavioural,3.0.4,60.030673873445785,
0,The security guard gasped.,2,3,0,0,0,0,,,,,0,19,19,19,,,,,,,,,,,1,0.1192542249999633,111,001,2019_Feb_25_1630,body_behavioural,3.0.4,60.030673873445785,
0,All the people who were putting their shoes back on and gathering their belongings stopped what they were doing and walked closer to the couple.,2,3,0,0,0,0,,,,,0,20,20,20,,,,,,,,,,,9,0.1360041650000312,111,001,2019_Feb_25_1630,body_behavioural,3.0.4,60.030673873445785,
0,"Isabel was astonished, and far too shy to respond in front of the backup of passengers waiting behind them.",2,3,0,0,0,0,,,,,0,21,21,21,,,,,,,,,,,1,0.0865454199999931,111,001,2019_Feb_25_1630,body_behavioural,3.0.4,60.030673873445785,
0,"She attempted to stammer a response as she frantically grabbed her and Sven’s shoes, leaving Sven to retrieve their bags.",2,3,0,0,0,0,,,,,0,22,22,22,,,,,,,,,,,1,0.08819417499989868,111,001,2019_Feb_25_1630,body_behavioural,3.0.4,60.030673873445785,
0,"Both of them slipping in their socked feet, she fled onto the concourse with Sven trying to catch up behind her.",3,3,0,0,0,0,,,,,0,23,23,23,,,,,,,,,,,1,0.08849787199994807,111,001,2019_Feb_25_1630,body_behavioural,3.0.4,60.030673873445785,
0,"Everyone in the terminal was looking at them with confusion as Sven, holding the bags in one hand and the open ring box in the other, finally caught up to her.",3,3,0,0,0,0,,,,,0,24,24,24,,,,,,,,,,,9,0.07148279500006538,111,001,2019_Feb_25_1630,body_behavioural,3.0.4,60.030673873445785,
0,“Isabel?”,3,3,0,0,0,0,,,,,0,25,25,25,,,,,,,,,,,1,0.10509197299995776,111,001,2019_Feb_25_1630,body_behavioural,3.0.4,60.030673873445785,
0,"He watched her face as she turned, trying to read her expression.",3,3,0,0,0,0,,,,,0,26,26,26,,,,,,,,,,,9,0.08789302200000293,111,001,2019_Feb_25_1630,body_behavioural,3.0.4,60.030673873445785,
0,"Her eyes were wide, but she was smiling as she hyperventilated, “Of course yes, Sven, yes!” ",3,4,0,0,0,0,,,,,0,27,27,27,,,,,,,,,,,9,0.06981648199996471,111,001,2019_Feb_25_1630,body_behavioural,3.0.4,60.030673873445785,
0,"They dropped their belongings and hugged, and Sven slipped the ring onto Isabel’s finger. ",3,4,0,0,0,0,,,,,0,28,28,28,,,,,,,,,,,1,0.10540167499993913,111,001,2019_Feb_25_1630,body_behavioural,3.0.4,60.030673873445785,
0,"After getting their shoes back on, they practically skipped to the gate, filled with joy.",3,4,0,0,0,0,,,,,0,29,29,29,,,,,,,,,,,1,0.0865828150000425,111,001,2019_Feb_25_1630,body_behavioural,3.0.4,60.030673873445785,
0,Sven high-fived a confused shoe-shine attendant as they passed.,3,4,0,0,0,0,,,,,0,30,30,30,,,,,,,,,,,1,0.10323636800001168,111,001,2019_Feb_25_1630,body_behavioural,3.0.4,60.030673873445785,
0,"They sat down outside their gate, having actually made good time, until the attendant called for passengers.",3,4,0,0,0,0,,,,,0,31,31,31,,,,,,,,,,,9,0.13405258700004197,111,001,2019_Feb_25_1630,body_behavioural,3.0.4,60.030673873445785,
0,"They boarded, sitting together in first class, and had a glass of champagne to celebrate the departure into their new life together.",4,4,0,0,0,0,,,,,0,32,32,32,,,,,,,,,,,1,0.0864500399999315,111,001,2019_Feb_25_1630,body_behavioural,3.0.4,60.030673873445785,
0,"Some of their neighboring passengers who had witnessed the proposal congratulated them, and a woman next to them showed them that she had been live-tweeting the whole event and that it was already going viral online.",4,4,0,0,0,0,,,,,0,33,33,33,,,,,,,,,,,1,0.15262566199999128,111,001,2019_Feb_25_1630,body_behavioural,3.0.4,60.030673873445785,
0,"Isabel slid down in her seat with her hands over her face, both embarrassed and overjoyed at the same time.
",4,4,0,0,0,0,,,,,0,34,34,34,,,,,,,,,,,1,0.10284696499991242,111,001,2019_Feb_25_1630,body_behavioural,3.0.4,60.030673873445785,
0,,,,0,0,0,0,,,,,,,,,,,,,,,,,,,,,111,001,2019_Feb_25_1630,body_behavioural,3.0.4,60.030673873445785,
1,,,,0,1,1,1,0,0,0,0,,,,,,,,,space,0.7191881670000839,space,0.4029427799999894,space,0.5340226299999813,,,111,001,2019_Feb_25_1630,body_behavioural,3.0.4,60.030673873445785,
1,"Ms. Bianchi and Ms. Morrison walked into the grocery store at the same time, and, after a moment of mutual recognition, greeted each other and shook hands.",1,1,0,1,1,1,,,,,0,0,0,0,,,,,,,,,,,1,1.8198454050000237,111,001,2019_Feb_25_1630,body_behavioural,3.0.4,60.030673873445785,
1,"“Thank you again for inviting me here to discuss my business proposal,” said Ms. Bianchi, “And it’s a pleasure to be out of the office.” ",1,1,0,1,1,1,,,,,0,1,1,1,,,,,,,,,,,9,0.03628373300000476,111,001,2019_Feb_25_1630,body_behavioural,3.0.4,60.030673873445785,
1,"As a salesperson for an Italian cheese company that was trying to expand its outreach to more mainstream grocery stores, this meeting could be a big break for her.",1,1,0,1,1,1,,,,,0,2,2,2,,,,,,,,,,,9,0.10298119300000508,111,001,2019_Feb_25_1630,body_behavioural,3.0.4,60.030673873445785,
1,"Her sales target, Ms. Morrison,  who had a reputation for being a bit quirky, was a corporate buyer for a large chain grocery store. ",1,1,0,1,1,1,,,,,0,3,3,3,,,,,,,,,,,1,0.003843033000066498,111,001,2019_Feb_25_1630,body_behavioural,3.0.4,60.030673873445785,
1,"She was known for doing things unconventionally: for example, she said that she liked to make deals with suppliers in the place where the products were sold- “to keep their minds focused on what’s important.” ",1,1,0,1,1,1,,,,,0,4,4,4,,,,,,,,,,,9,0.20291933500004689,111,001,2019_Feb_25_1630,body_behavioural,3.0.4,60.030673873445785,
1,"They chatted a little in the front of the grocery store, which was surrounded by pumpkins and halloween decorations set up in special displays for the holiday season.",1,1,0,1,1,1,,,,,0,5,5,5,,,,,,,,,,,1,0.16738643200005754,111,001,2019_Feb_25_1630,body_behavioural,3.0.4,60.030673873445785,
1,"Ms. Bianchi and Ms. Morrison walked to the cheese section, and Ms. Morrison picked up a block of parmesan.",2,1,0,1,1,1,,,,,0,6,6,6,,,,,,,,,,,9,0.06981972299990957,111,001,2019_Feb_25_1630,body_behavioural,3.0.4,60.030673873445785,
1,“We have quite a selection here.,2,1,0,1,1,1,,,,,0,7,7,7,,,,,,,,,,,1,0.13631729799999448,111,001,2019_Feb_25_1630,body_behavioural,3.0.4,60.030673873445785,
1,I don’t know that it needs an additional section for more gourmet cheeses.” ,2,1,0,1,1,1,,,,,0,8,8,8,,,,,,,,,,,9,0.017365475000019615,111,001,2019_Feb_25_1630,body_behavioural,3.0.4,60.030673873445785,
1,"Ms. Bianchi's confidence faltered for a minute at this remark, but then she launched into her prepared pitch.",2,1,0,1,1,1,,,,,0,9,9,9,,,,,,,,,,,1,0.13607973500006665,111,001,2019_Feb_25_1630,body_behavioural,3.0.4,60.030673873445785,
1," “Ms. Morrison, I think you would agree that selling food is more than just providing variety, but also about providing the highest quality.",2,2,0,1,1,1,,,,,0,10,10,10,,,,,,,,,,,9,0.1528786349999791,111,001,2019_Feb_25_1630,body_behavioural,3.0.4,60.030673873445785,
1,"You don’t have cheeses made in America that are like ours, it is true.",2,2,0,1,1,1,,,,,0,11,11,11,,,,,,,,,,,1,0.11960283199994137,111,001,2019_Feb_25_1630,body_behavioural,3.0.4,60.030673873445785,
1,Your store could be providing American consumers with a dimension in taste that they've never known before with our product.,2,2,0,1,1,1,,,,,0,12,12,12,,,,,,,,,,,1,0.21975056299993412,111,001,2019_Feb_25_1630,body_behavioural,3.0.4,60.030673873445785,
1,"I propose that you give it a shot, buy $1000 worth of cheese products for a few stores, and see how the sales increase not only in our cheeses but also in products related to cheeses: crackers, jams, olives. ",2,2,0,1,1,1,,,,,0,13,13,13,,,,,,,,,,,9,0.036737239999979465,111,001,2019_Feb_25_1630,body_behavioural,3.0.4,60.030673873445785,
1,"The availability of a finer product leads to the appreciation of the product, and your consumers will start to consume in a new, more profitable way.”",2,2,0,1,1,1,,,,,0,14,14,14,,,,,,,,,,,1,0.08641090300000087,111,001,2019_Feb_25_1630,body_behavioural,3.0.4,60.030673873445785,
1,"Ms. Bianchi picked up a box of crackers by the cheese section, and said, “Here, I will buy these, and we can try some of our cheeses that I've brought with me.”",2,2,0,1,1,1,,,,,0,15,15,15,,,,,,,,,,,9,0.13597322500004339,111,001,2019_Feb_25_1630,body_behavioural,3.0.4,60.030673873445785,
1,"Ms. Morrison, who was thinking, nodded in agreement and said, “That sounds like a great idea.",2,2,0,1,1,1,,,,,0,16,16,16,,,,,,,,,,,1,0.003053324999996221,111,001,2019_Feb_25_1630,body_behavioural,3.0.4,60.030673873445785,
1,"Let’s head to check out, and those crackers are on me.” ",2,2,0,1,1,1,,,,,0,17,17,17,,,,,,,,,,,9,0.06963026000005357,111,001,2019_Feb_25_1630,body_behavioural,3.0.4,60.030673873445785,
1,They walked over to the checkout area.,3,2,0,1,1,1,,,,,0,18,18,18,,,,,,,,,,,1,0.10317083500001445,111,001,2019_Feb_25_1630,body_behavioural,3.0.4,60.030673873445785,
1,"There was a very long line, and it was very busy in the checkout area as people were stocking up for Halloween parties and trick-or-treating. ",3,2,0,1,1,1,,,,,0,19,19,19,,,,,,,,,,,9,0.15356219000000237,111,001,2019_Feb_25_1630,body_behavioural,3.0.4,60.030673873445785,
1,"Since they had almost a 10 minute wait in line, Ms. Bianchi handed a sheet with printed graphs to Ms. Morrison the increase in profits that several other stores had seen after starting to carry their products.",3,2,0,1,1,1,,,,,0,20,20,20,,,,,,,,,,,9,0.10286340200002542,111,001,2019_Feb_25_1630,body_behavioural,3.0.4,60.030673873445785,
1,"Eventually, Ms. Morrison replied, “You know what, I think you've convinced me that this could work. ",3,3,0,1,1,1,,,,,0,21,21,21,,,,,,,,,,,9,0.11963867500003289,111,001,2019_Feb_25_1630,body_behavioural,3.0.4,60.030673873445785,
1,We've been trying to find a way to add a little European cachet to our stores.,3,3,0,1,1,1,,,,,0,22,22,22,,,,,,,,,,,1,0.06968506500004423,111,001,2019_Feb_25_1630,body_behavioural,3.0.4,60.030673873445785,
1,There's still a problem though - I'm worried we'll be paying out the nose for the import taxes.,3,3,0,1,1,1,,,,,0,23,23,23,,,,,,,,,,,9,0.13643138299994462,111,001,2019_Feb_25_1630,body_behavioural,3.0.4,60.030673873445785,
1,Is that the case?",3,3,0,1,1,1,,,,,0,24,24,24,,,,,,,,,,,9,0.15308075000007193,111,001,2019_Feb_25_1630,body_behavioural,3.0.4,60.030673873445785,
1,"It was Ms. Morrison’s turn to checkout, and the two businesswomen continued to talk back and forth as she did so. ",4,3,0,1,1,1,,,,,0,25,25,25,,,,,,,,,,,1,0.0037725750000845437,111,001,2019_Feb_25_1630,body_behavioural,3.0.4,60.030673873445785,
1,"The cashier scanned the crackers, and Ms. Bianchi watched in amusement as Ms. Morrison paid the $6 price entirely in quarters from a wallet bulging with change.",4,3,0,1,1,1,,,,,0,26,26,26,,,,,,,,,,,9,0.08643819500002792,111,001,2019_Feb_25_1630,body_behavioural,3.0.4,60.030673873445785,
1,"They shortly came to an agreement and would have enough cheese shipments, $5000 worth, to different stores to qualify for a subsidized import tax. ",4,4,0,1,1,1,,,,,0,27,27,27,,,,,,,,,,,1,0.035997454999915135,111,001,2019_Feb_25_1630,body_behavioural,3.0.4,60.030673873445785,
1,"Ms. Bianchi retrieved some of her samples from her car, and they toasted their new deal with crackers topped with fresh mozzarella. ",4,4,0,1,1,1,,,,,0,28,28,28,,,,,,,,,,,9,0.01973626200003764,111,001,2019_Feb_25_1630,body_behavioural,3.0.4,60.030673873445785,
1,,,,0,1,1,1,,,,,,,,,,,,,,,,,,,,,111,001,2019_Feb_25_1630,body_behavioural,3.0.4,60.030673873445785,
2,,,,0,2,2,2,0,0,0,0,,,,,,,,,space,0.8028198700000075,space,0.2360565779999888,space,0.4194885769999246,,,111,001,2019_Feb_25_1630,body_behavioural,3.0.4,60.030673873445785,
