count,storyText,trials.thisRepN,trials.thisTrialN,trials.thisN,trials.thisIndex,trials_2.thisRepN,trials_2.thisTrialN,trials_2.thisN,trials_2.thisIndex,order of stories,order of perspectives,key_resp_3.keys,key_resp_3.rt,key_resp_2.keys,key_resp_2.rt,participant,session,date,expName,frameRate,
0,41,0,0,0,0,0,0,0,0,[41 24 33 21 13 44 12 32 34 11 14 23 31 22 42 43],"['Location' 'Location' 'Social' 'Social' 'Location' 'Social' 'Social'
 'Location' 'Social' 'Social' 'Location' 'Location' 'Location' 'Social'
 'Location' 'Social']",space,27.92877374996897,space,8.437414749991149,18,001,2019_Jan_03_1142,body_updated,60.00181831341805,
0,Restaurant Meet Cute,0,0,0,0,0,1,1,1,,,,,space,4.101802153978497,18,001,2019_Jan_03_1142,body_updated,60.00181831341805,
0,,0,0,0,0,,,,,,,,,,,18,001,2019_Jan_03_1142,body_updated,60.00181831341805,
1,24,0,1,1,1,0,0,0,0,,,space,3.141659796005115,space,7.37334843899589,18,001,2019_Jan_03_1142,body_updated,60.00181831341805,
1,Attending a Lecture Proposal,0,1,1,1,0,1,1,1,,,,,space,2.9025727279949933,18,001,2019_Jan_03_1142,body_updated,60.00181831341805,
1,,0,1,1,1,,,,,,,,,,,18,001,2019_Jan_03_1142,body_updated,60.00181831341805,
2,33,0,2,2,2,0,0,0,0,,,space,3.9868291380116716,space,7.25348174397368,18,001,2019_Jan_03_1142,body_updated,60.00181831341805,
2,Grocery Shopping Business Deal,0,2,2,2,0,1,1,1,,,,,space,4.502705013030209,18,001,2019_Jan_03_1142,body_updated,60.00181831341805,
2,,0,2,2,2,,,,,,,,,,,18,001,2019_Jan_03_1142,body_updated,60.00181831341805,
3,21,0,3,3,3,0,0,0,0,,,space,5.286712493048981,space,8.573717583087273,18,001,2019_Jan_03_1142,body_updated,60.00181831341805,
3,Restaurant Proposal,0,3,3,3,0,1,1,1,,,,,space,5.386818717001006,18,001,2019_Jan_03_1142,body_updated,60.00181831341805,
3,,0,3,3,3,,,,,,,,,,,18,001,2019_Jan_03_1142,body_updated,60.00181831341805,
4,13,0,4,4,4,0,0,0,0,,,space,6.218435155926272,space,11.022800871985964,18,001,2019_Jan_03_1142,body_updated,60.00181831341805,
4,Grocery Shopping Breakup,0,4,4,4,0,1,1,1,,,,,space,100.11655552894808,18,001,2019_Jan_03_1142,body_updated,60.00181831341805,
4,,0,4,4,4,,,,,,,,,,,18,001,2019_Jan_03_1142,body_updated,60.00181831341805,
5,44,0,5,5,5,0,0,0,0,,,space,8.036547826952301,space,13.363125981064513,18,001,2019_Jan_03_1142,body_updated,60.00181831341805,
5,Attending a Lecture Meet Cute,0,5,5,5,0,1,1,1,,,,,space,6.170020744088106,18,001,2019_Jan_03_1142,body_updated,60.00181831341805,
5,,0,5,5,5,,,,,,,,,,,18,001,2019_Jan_03_1142,body_updated,60.00181831341805,
6,12,0,6,6,6,0,0,0,0,,,space,8.670943356934004,space,7.6361015510046855,18,001,2019_Jan_03_1142,body_updated,60.00181831341805,
6,Airport Breakup,0,6,6,6,0,1,1,1,,,,,space,6.253551398054697,18,001,2019_Jan_03_1142,body_updated,60.00181831341805,
6,,0,6,6,6,,,,,,,,,,,18,001,2019_Jan_03_1142,body_updated,60.00181831341805,
7,32,0,7,7,7,0,0,0,0,,,space,5.020095502957702,space,19.640751254046336,18,001,2019_Jan_03_1142,body_updated,60.00181831341805,
7,Airport Business Deal,0,7,7,7,0,1,1,1,,,,,space,3.1016688289819285,18,001,2019_Jan_03_1142,body_updated,60.00181831341805,
7,,0,7,7,7,,,,,,,,,,,18,001,2019_Jan_03_1142,body_updated,60.00181831341805,
8,34,0,8,8,8,0,0,0,0,,,space,3.2863644619937986,space,7.904392174910754,18,001,2019_Jan_03_1142,body_updated,60.00181831341805,
8,Attending a Lecture Business Deal,0,8,8,8,0,1,1,1,,,,,space,3.2690516670700163,18,001,2019_Jan_03_1142,body_updated,60.00181831341805,
8,,0,8,8,8,,,,,,,,,,,18,001,2019_Jan_03_1142,body_updated,60.00181831341805,
9,11,0,9,9,9,0,0,0,0,,,space,6.0369562529958785,space,8.470692949951626,18,001,2019_Jan_03_1142,body_updated,60.00181831341805,
9,Restaurant- Breakup,0,9,9,9,0,1,1,1,,,,,space,2.636158294044435,18,001,2019_Jan_03_1142,body_updated,60.00181831341805,
9,,0,9,9,9,,,,,,,,,,,18,001,2019_Jan_03_1142,body_updated,60.00181831341805,
10,14,0,10,10,10,0,0,0,0,,,space,8.454145038034767,space,7.742741841939278,18,001,2019_Jan_03_1142,body_updated,60.00181831341805,
10,Attending a Lecture Breakup,0,10,10,10,0,1,1,1,,,,,space,2.752287342911586,18,001,2019_Jan_03_1142,body_updated,60.00181831341805,
10,,0,10,10,10,,,,,,,,,,,18,001,2019_Jan_03_1142,body_updated,60.00181831341805,
11,23,0,11,11,11,0,0,0,0,,,space,8.521161779994145,space,7.92397855501622,18,001,2019_Jan_03_1142,body_updated,60.00181831341805,
11,Grocery shopping Proposal,0,11,11,11,0,1,1,1,,,,,space,3.53496382094454,18,001,2019_Jan_03_1142,body_updated,60.00181831341805,
11,,0,11,11,11,,,,,,,,,,,18,001,2019_Jan_03_1142,body_updated,60.00181831341805,
12,31,0,12,12,12,0,0,0,0,,,space,3.4195816250285134,space,6.937759094987996,18,001,2019_Jan_03_1142,body_updated,60.00181831341805,
12,Restaurant Business Deal,0,12,12,12,0,1,1,1,,,,,space,10.437446209019981,18,001,2019_Jan_03_1142,body_updated,60.00181831341805,
12,,0,12,12,12,,,,,,,,,,,18,001,2019_Jan_03_1142,body_updated,60.00181831341805,
13,22,0,13,13,13,0,0,0,0,,,space,3.9683424149407074,space,7.671368582989089,18,001,2019_Jan_03_1142,body_updated,60.00181831341805,
13,Airport Proposal,0,13,13,13,0,1,1,1,,,,,space,3.752685692976229,18,001,2019_Jan_03_1142,body_updated,60.00181831341805,
13,,0,13,13,13,,,,,,,,,,,18,001,2019_Jan_03_1142,body_updated,60.00181831341805,
14,42,0,14,14,14,0,0,0,0,,,space,5.320094204042107,space,6.887193629983813,18,001,2019_Jan_03_1142,body_updated,60.00181831341805,
14,Airport Meet Cute,0,14,14,14,0,1,1,1,,,,,space,2.770557384006679,18,001,2019_Jan_03_1142,body_updated,60.00181831341805,
14,,0,14,14,14,,,,,,,,,,,18,001,2019_Jan_03_1142,body_updated,60.00181831341805,
15,43,0,15,15,15,0,0,0,0,,,space,5.853619858971797,space,6.786530653014779,18,001,2019_Jan_03_1142,body_updated,60.00181831341805,
15,Grocery Shopping Meet Cute,0,15,15,15,0,1,1,1,,,,,space,3.102213208912872,18,001,2019_Jan_03_1142,body_updated,60.00181831341805,
15,,0,15,15,15,,,,,,,,,,,18,001,2019_Jan_03_1142,body_updated,60.00181831341805,
