instruct_text,instruct_text2,Q1,Q2,Q3,Q4,D1,D2,roleName,rolePic,trials_2.thisRepN,trials_2.thisTrialN,trials_2.thisN,trials_2.thisIndex,trials_3.thisRepN,trials_3.thisTrialN,trials_3.thisN,trials_3.thisIndex,trials.thisRepN,trials.thisTrialN,trials.thisN,trials.thisIndex,key_resp_6.keys,key_resp_6.rt,key_resp_10.keys,key_resp_10.rt,key_resp_11.keys,key_resp_11.rt,key_resp_12.keys,key_resp_12.rt,key_resp_13.keys,key_resp_13.rt,participant,session,date,expName,frameRate,
Welcome to the Job Simulator Task!,(press the space bar to continue),,,,,,,,,0,0,0,0,,,,,,,,,space,0.752069570007734,,,,,,,,,1,001,2018_Nov_12_1255,part1,59.97623920903469,
"In this task, you will read 16 stories. During each one you will simulate having one job.
",None,,,,,,,,,0,1,1,1,,,,,,,,,space,1.3191745700023603,,,,,,,,,1,001,2018_Nov_12_1255,part1,59.97623920903469,
This job will be assigned to you before each story. ,None,,,,,,,,,0,2,2,2,,,,,,,,,space,0.8185812089941464,,,,,,,,,1,001,2018_Nov_12_1255,part1,59.97623920903469,
"While reading each story, you should imagine yourself as having that job. ",None,,,,,,,,,0,3,3,3,,,,,,,,,space,1.085209232987836,,,,,,,,,1,001,2018_Nov_12_1255,part1,59.97623920903469,
There are 8 possible jobs you could be asked to simulate.,None,,,,,,,,,0,4,4,4,,,,,,,,,space,2.11981624897453,,,,,,,,,1,001,2018_Nov_12_1255,part1,59.97623920903469,
"In addition, your task will be to answer job-related questions.
",None,,,,,,,,,0,5,5,5,,,,,,,,,space,1.6009009839908686,,,,,,,,,1,001,2018_Nov_12_1255,part1,59.97623920903469,
There are four question per job.,None,,,,,,,,,0,6,6,6,,,,,,,,,space,0.7841390429821331,,,,,,,,,1,001,2018_Nov_12_1255,part1,59.97623920903469,
You will have to try to memorize these questions and then remember your answers to the questions.,None,,,,,,,,,0,7,7,7,,,,,,,,,space,4.769988179003121,,,,,,,,,1,001,2018_Nov_12_1255,part1,59.97623920903469,
You will be asked about the answers to these questions at end of the experiment. ,None,,,,,,,,,0,8,8,8,,,,,,,,,space,3.285488997003995,,,,,,,,,1,001,2018_Nov_12_1255,part1,59.97623920903469,
"In order to help you memorize the questions, there will be a short quiz on them before the actual task begins.",None,,,,,,,,,0,9,9,9,,,,,,,,,space,10.520029147010064,,,,,,,,,1,001,2018_Nov_12_1255,part1,59.97623920903469,
"In addition, before each story, there will be a reminder of what these questions are.  ",None,,,,,,,,,0,10,10,10,,,,,,,,,space,2.2181973959959578,,,,,,,,,1,001,2018_Nov_12_1255,part1,59.97623920903469,
Press the space bar to begin learning the jobs and the questions for each one.,None,,,,,,,,,0,11,11,11,,,,,,,,,space,2.384281710983487,,,,,,,,,1,001,2018_Nov_12_1255,part1,59.97623920903469,
,,"Who notices who first and why do they notice the other?
","How does the couple start talking?
","Which of the people proposes going on an actual date and what do they propose?
","Who leaves first and why do they have to go?
",Is the couple going to get married?,Who shows more interest?,Matchmaker,matchmaker.jpg,,,,,0,0,0,2,0,0,0,0,,,space,0.218736838985933,space,0.7690550830157008,space,0.6178167409962043,space,0.5345740900083911,1,001,2018_Nov_12_1255,part1,59.97623920903469,
