count,storyText,locationEvent,socialEvent,trials.thisRepN,trials.thisTrialN,trials.thisN,trials.thisIndex,trials_7.thisRepN,trials_7.thisTrialN,trials_7.thisN,trials_7.thisIndex,trials_2.thisRepN,trials_2.thisTrialN,trials_2.thisN,trials_2.thisIndex,order of stories,order of perspectives,participant 2 order - stories,participant 2 order  - schemas types,key_resp_8.keys,key_resp_8.rt,key_resp_5.keys,key_resp_5.rt,key_resp_7.keys,key_resp_7.rt,story_presses.keys,story_presses.rt,participant,session,date,expName,psychopyVersion,frameRate,
0,,,,0,0,0,0,0,0,0,0,,,,,[31 12 22 23 34 13 41 44 42 24 11 33 21 14 32 43],"['Location' 'Location' 'Social' 'Location' 'Social' 'Social' 'Social'
 'Location' 'Location' 'Social' 'Social' 'Location' 'Location' 'Location'
 'Social' 'Social']",[42 24 11 33 21 14 32 43],"['Location' 'Social' 'Social' 'Location' 'Location' 'Location' 'Social'
 'Social']",space,0.3173051869998744,space,0.40305293500000516,space,0.4196401369999876,,,98,001,2019_Feb_25_1641,body_behavioural,3.0.4,60.21039692300398,
0,Mr. Shelton and Mr. Gordon shook hands inside the foyer of the restaurant: lunch today was about big business. ,1,1,0,0,0,0,,,,,0,0,0,0,,,,,,,,,,,1,0.9507399670001178,98,001,2019_Feb_25_1641,body_behavioural,3.0.4,60.21039692300398,
0,Mr. Shelton and Mr. Gordon both were CEOs of airplane manufacturing companies.,1,1,0,0,0,0,,,,,0,1,1,1,,,,,,,,,,,1,0.10303103999990526,98,001,2019_Feb_25_1641,body_behavioural,3.0.4,60.21039692300398,
0,"Mr. Shelton was in charge of a larger, well-established company and had been in the aviation business for decades, whereas Mr. Gordon led a smaller but technologically-advanced company that was projected to disrupt the airplane manufacturing market. ",1,1,0,0,0,0,,,,,0,2,2,2,,,,,,,,,,,1,0.08632923000004666,98,001,2019_Feb_25_1641,body_behavioural,3.0.4,60.21039692300398,
0,"The restaurant they chose to meet at was old and fancy with high ceilings, dark wood paneling, and crystal chandeliers.",1,1,0,0,0,0,,,,,0,3,3,3,,,,,,,,,,,1,0.08601143300006697,98,001,2019_Feb_25_1641,body_behavioural,3.0.4,60.21039692300398,
0,"The waitress led them to their table in the back, and they settled into a private table in the corner by the fireplace. ",2,1,0,0,0,0,,,,,0,4,4,4,,,,,,,,,,,1,0.0840041649998966,98,001,2019_Feb_25_1641,body_behavioural,3.0.4,60.21039692300398,
0,The waitress brought out the menus and they broke the ice with some small talk.,2,1,0,0,0,0,,,,,0,5,5,5,,,,,,,,,,,1,0.07015464000005522,98,001,2019_Feb_25_1641,body_behavioural,3.0.4,60.21039692300398,
0,"Mr. Gordon took out a picture of his daughter and talked about her recent engagement, and Mr. Gordon boasted about his purchase of a Tesla. ",2,1,0,0,0,0,,,,,0,6,6,6,,,,,,,,,,,1,0.08590182500006449,98,001,2019_Feb_25_1641,body_behavioural,3.0.4,60.21039692300398,
0,"They looked at the menus as well, which were full of Italian classics like Carbonara and Tiramisu, and in the back section of the menu was a lengthy drink selection.",2,1,0,0,0,0,,,,,0,7,7,7,,,,,,,,,,,1,0.27025336999986393,98,001,2019_Feb_25_1641,body_behavioural,3.0.4,60.21039692300398,
0,"After awhile, Mr. Shelton brought the conversation around to business.",2,2,0,0,0,0,,,,,0,8,8,8,,,,,,,,,,,1,0.10281620000000657,98,001,2019_Feb_25_1641,body_behavioural,3.0.4,60.21039692300398,
0,"“Mr. Gordon, we really admire what you’re doing at your company.",2,2,0,0,0,0,,,,,0,9,9,9,,,,,,,,,,,1,0.08605848499996682,98,001,2019_Feb_25_1641,body_behavioural,3.0.4,60.21039692300398,
0,We think it’s genius; we want to support your vision and make this tiny company of yours internationally known.,2,2,0,0,0,0,,,,,0,10,10,10,,,,,,,,,,,1,0.10313171200004945,98,001,2019_Feb_25_1641,body_behavioural,3.0.4,60.21039692300398,
0,"But honestly, your company doesn’t have the resources to reach international markets right now, maybe in a few years you could, but by that time, other companies may have already filled your niche.",2,2,0,0,0,0,,,,,0,11,11,11,,,,,,,,,,,1,0.07018040999992081,98,001,2019_Feb_25_1641,body_behavioural,3.0.4,60.21039692300398,
0,I think we should join forces.”,2,2,0,0,0,0,,,,,0,12,12,12,,,,,,,,,,,1,0.10289921499997945,98,001,2019_Feb_25_1641,body_behavioural,3.0.4,60.21039692300398,
0,The waitress came up to them and asked if they were ready to order.,3,2,0,0,0,0,,,,,0,13,13,13,,,,,,,,,,,1,0.11997139699997206,98,001,2019_Feb_25_1641,body_behavioural,3.0.4,60.21039692300398,
0,"Mr. Gordon ordered a medium-rare steak and martini, and Mr. Shelton ordered veal and a manhattan. ",3,2,0,0,0,0,,,,,0,14,14,14,,,,,,,,,,,1,0.10320798999987346,98,001,2019_Feb_25_1641,body_behavioural,3.0.4,60.21039692300398,
0,"Then Mr. Shelton continued, “Look, I’ve talked to other members of the board, and we are prepared to offer $600 million to buy your company. ",3,2,0,0,0,0,,,,,0,15,15,15,,,,,,,,,,,1,0.08644770999990214,98,001,2019_Feb_25_1641,body_behavioural,3.0.4,60.21039692300398,
0,"We'd keep on all of your current employees, and you would join as the director of your company branch.” ",3,2,0,0,0,0,,,,,0,16,16,16,,,,,,,,,,,1,0.05373583499999768,98,001,2019_Feb_25_1641,body_behavioural,3.0.4,60.21039692300398,
0,Mr. Gordon sat looking at Mr. Shelton for a few moments considering his response. ,3,2,0,0,0,0,,,,,0,17,17,17,,,,,,,,,,,1,0.20072879999997895,98,001,2019_Feb_25_1641,body_behavioural,3.0.4,60.21039692300398,
0,He looked at Mr. Shelton skeptically.,3,2,0,0,0,0,,,,,0,18,18,18,,,,,,,,,,,1,0.13338469499990424,98,001,2019_Feb_25_1641,body_behavioural,3.0.4,60.21039692300398,
0,"He said, “Mr. Shelton, I think that you make a compelling offer, but there are definitely some disadvantages to attaching our small, streamlined productions to a large company like yours.",3,3,0,0,0,0,,,,,0,19,19,19,,,,,,,,,,,1,0.11931376500001534,98,001,2019_Feb_25_1641,body_behavioural,3.0.4,60.21039692300398,
0,"We operate in a very different way than a large company, and the kind of administrative complexity that makes the scale of your productions possible would suffocate our business.",3,3,0,0,0,0,,,,,0,20,20,20,,,,,,,,,,,1,0.0694441650000499,98,001,2019_Feb_25_1641,body_behavioural,3.0.4,60.21039692300398,
0,"With our product, scaling-up doesn’t necessarily make sense.” ",3,3,0,0,0,0,,,,,0,21,21,21,,,,,,,,,,,1,0.11942261000012877,98,001,2019_Feb_25_1641,body_behavioural,3.0.4,60.21039692300398,
0,Mr. Shelton had expected this response and had come prepared.,3,3,0,0,0,0,,,,,0,22,22,22,,,,,,,,,,,1,0.11987289500007137,98,001,2019_Feb_25_1641,body_behavioural,3.0.4,60.21039692300398,
0,He began laying out the details of how he had handled similar acquisitions successfully in the past.,3,3,0,0,0,0,,,,,0,23,23,23,,,,,,,,,,,1,0.05281806199991479,98,001,2019_Feb_25_1641,body_behavioural,3.0.4,60.21039692300398,
0,"Mr. Gordon was impressed, and they went back and forth hashing out what the company configuration would look like post-merger. ",3,3,0,0,0,0,,,,,0,24,24,24,,,,,,,,,,,9,1.0196676669997942,98,001,2019_Feb_25_1641,body_behavioural,3.0.4,60.21039692300398,
0,"The waitress brought the food out, interrupting their animated conversation.",4,3,0,0,0,0,,,,,0,25,25,25,,,,,,,,,,,9,0.15311279000002287,98,001,2019_Feb_25_1641,body_behavioural,3.0.4,60.21039692300398,
0,“Oh this looks so good!” Mr. Gordon said. ,4,3,0,0,0,0,,,,,0,26,26,26,,,,,,,,,,,9,0.1030564200000299,98,001,2019_Feb_25_1641,body_behavioural,3.0.4,60.21039692300398,
0, “Can I get you anything else?” the waitress asked.,4,3,0,0,0,0,,,,,0,27,27,27,,,,,,,,,,,9,0.13633656999991217,98,001,2019_Feb_25_1641,body_behavioural,3.0.4,60.21039692300398,
0,They declined and continued to talk.,4,3,0,0,0,0,,,,,0,28,28,28,,,,,,,,,,,1,0.10311486500017963,98,001,2019_Feb_25_1641,body_behavioural,3.0.4,60.21039692300398,
0,"The meal lived up to the reputation of the restaurant, which was known for having the best cuts of meat in the area.",4,3,0,0,0,0,,,,,0,29,29,29,,,,,,,,,,,9,0.08625049700003729,98,001,2019_Feb_25_1641,body_behavioural,3.0.4,60.21039692300398,
0,"Mr. Gordon, after taking a contemplative bite of his food, said, “Mr. Shelton, I think we have a deal. ",4,4,0,0,0,0,,,,,0,30,30,30,,,,,,,,,,,1,0.08596510500001386,98,001,2019_Feb_25_1641,body_behavioural,3.0.4,60.21039692300398,
0,"If you can guarantee that I can still have the final say in the all the work done by my team, I think this could be beneficial for both of us.",4,4,0,0,0,0,,,,,0,31,31,31,,,,,,,,,,,9,0.036352517000068474,98,001,2019_Feb_25_1641,body_behavioural,3.0.4,60.21039692300398,
0,I propose a toast to the merging of our companies.”,4,4,0,0,0,0,,,,,0,32,32,32,,,,,,,,,,,1,0.05292457999985345,98,001,2019_Feb_25_1641,body_behavioural,3.0.4,60.21039692300398,
0,Mr. Shelton grinned and lifted his martini to clink glasses.,4,4,0,0,0,0,,,,,0,33,33,33,,,,,,,,,,,9,0.08604386499996508,98,001,2019_Feb_25_1641,body_behavioural,3.0.4,60.21039692300398,
0,"He said, “Cheers to a lifelong partnership and to the growth of your company.” ",4,4,0,0,0,0,,,,,0,34,34,34,,,,,,,,,,,1,0.08647617500014348,98,001,2019_Feb_25_1641,body_behavioural,3.0.4,60.21039692300398,
0,,,,0,0,0,0,,,,,,,,,,,,,,,,,,,,,98,001,2019_Feb_25_1641,body_behavioural,3.0.4,60.21039692300398,
1,,,,0,1,1,1,0,0,0,0,,,,,,,,,space,0.7196611720000874,space,0.26969890999998825,space,0.40278762000002644,,,98,001,2019_Feb_25_1641,body_behavioural,3.0.4,60.21039692300398,
1,"It didn’t help the situation that Calvin and Jessie were running late to the airport, since Jessie had already been fuming at Calvin and preparing to end things with him.",1,1,0,1,1,1,,,,,0,0,0,0,,,,,,,,,,,1,0.8528578870000274,98,001,2019_Feb_25_1641,body_behavioural,3.0.4,60.21039692300398,
1,"Upon arriving, they had only 45 minutes until their international flight would depart from Jamaica for the US.",1,1,0,1,1,1,,,,,0,1,1,1,,,,,,,,,,,9,0.31957270499992774,98,001,2019_Feb_25_1641,body_behavioural,3.0.4,60.21039692300398,
1,It had been a tough vacation for them.,1,1,0,1,1,1,,,,,0,2,2,2,,,,,,,,,,,1,0.08624711500010562,98,001,2019_Feb_25_1641,body_behavioural,3.0.4,60.21039692300398,
1,"Jessie had really had it with Calvin’s constant ramblings about the same excruciatingly boring golfing and work stories, which he insisted on repeating to her regardless of how little interest she showed.",1,1,0,1,1,1,,,,,0,3,3,3,,,,,,,,,,,9,0.07004876499991042,98,001,2019_Feb_25_1641,body_behavioural,3.0.4,60.21039692300398,
1,"Calvin knew that Jessie was upset, but wasn't sure what to do besides attempting to carry on as normal and tell stories that took up the silence. ",1,1,0,1,1,1,,,,,0,4,4,4,,,,,,,,,,,1,0.036262849999957325,98,001,2019_Feb_25_1641,body_behavioural,3.0.4,60.21039692300398,
1,"The security line was luckily very short, and once the online boarding passes were scanned they were ushered quickly through the metal detector, not having to take off their shoes or remove the liquids from their bags.",2,1,0,1,1,1,,,,,0,5,5,5,,,,,,,,,,,9,0.019423791999997775,98,001,2019_Feb_25_1641,body_behavioural,3.0.4,60.21039692300398,
1,"“The infrastructure of this airport is really quite poor," said Calvin as they waited for their bags to emerge from the x-ray machine.",2,1,0,1,1,1,,,,,0,6,6,6,,,,,,,,,,,1,0.16962104200001704,98,001,2019_Feb_25_1641,body_behavioural,3.0.4,60.21039692300398,
1,“I really could've hidden something in my shoes quite easily.” ,2,1,0,1,1,1,,,,,0,7,7,7,,,,,,,,,,,9,0.002952501999970991,98,001,2019_Feb_25_1641,body_behavioural,3.0.4,60.21039692300398,
1,"Jessie, exasperated at his need to broadcast his every inner thought, scowled at the conveyor belt.",2,1,0,1,1,1,,,,,0,8,8,8,,,,,,,,,,,1,0.05257710199998655,98,001,2019_Feb_25_1641,body_behavioural,3.0.4,60.21039692300398,
1,"“What?”, he asked.",2,1,0,1,1,1,,,,,0,9,9,9,,,,,,,,,,,1,0.11925343200005045,98,001,2019_Feb_25_1641,body_behavioural,3.0.4,60.21039692300398,
1,She balled up her fists and turned to face him.,2,1,0,1,1,1,,,,,0,10,10,10,,,,,,,,,,,1,0.13798137500020857,98,001,2019_Feb_25_1641,body_behavioural,3.0.4,60.21039692300398,
1,"“Calvin, I really don’t think I can do this anymore.",2,2,0,1,1,1,,,,,0,11,11,11,,,,,,,,,,,1,0.06929271500007417,98,001,2019_Feb_25_1641,body_behavioural,3.0.4,60.21039692300398,
1,I think it’s best that once we get to the States we part ways for good.” ,2,2,0,1,1,1,,,,,0,12,12,12,,,,,,,,,,,1,0.10477234500012855,98,001,2019_Feb_25_1641,body_behavioural,3.0.4,60.21039692300398,
1,Calvin said nothing as he grabbed his bag and quickly walked away.,2,2,0,1,1,1,,,,,0,13,13,13,,,,,,,,,,,9,0.08852624999985892,98,001,2019_Feb_25_1641,body_behavioural,3.0.4,60.21039692300398,
1,"Jessie trailed behind him as they made their way quickly toward their gate, shouting at his back in hopes of getting a response.",3,2,0,1,1,1,,,,,0,14,14,14,,,,,,,,,,,1,0.05298616699997183,98,001,2019_Feb_25_1641,body_behavioural,3.0.4,60.21039692300398,
1,“So now you have nothing to say?,3,2,0,1,1,1,,,,,0,15,15,15,,,,,,,,,,,9,0.12162989199987351,98,001,2019_Feb_25_1641,body_behavioural,3.0.4,60.21039692300398,
1,"Every time we talk, you are just looking for a way to steer the conversation back into your stories.”",3,2,0,1,1,1,,,,,0,16,16,16,,,,,,,,,,,1,0.08591188000013972,98,001,2019_Feb_25_1641,body_behavioural,3.0.4,60.21039692300398,
1,"Calvin didn't slow his pace, gritting his teeth and staring straight ahead. ",3,2,0,1,1,1,,,,,0,17,17,17,,,,,,,,,,,1,0.10276859000009608,98,001,2019_Feb_25_1641,body_behavioural,3.0.4,60.21039692300398,
1,He was very frustrated that he had been trying to appease Jessie this whole time and this was how she responded. ,3,2,0,1,1,1,,,,,0,18,18,18,,,,,,,,,,,1,0.06947228500007441,98,001,2019_Feb_25_1641,body_behavioural,3.0.4,60.21039692300398,
1,The silence was punctuated only by the rapid rhythmic clacking of their suitcase wheels over the tile floor as they continued power-walking through the terminal. ,3,2,0,1,1,1,,,,,0,19,19,19,,,,,,,,,,,1,0.08655682000016895,98,001,2019_Feb_25_1641,body_behavioural,3.0.4,60.21039692300398,
1,"“Well?” Jessie said, and Calvin finally turned to her.",3,2,0,1,1,1,,,,,0,20,20,20,,,,,,,,,,,1,0.08627383499992902,98,001,2019_Feb_25_1641,body_behavioural,3.0.4,60.21039692300398,
1,"“Well, Jessie, this makes perfect sense. ",3,3,0,1,1,1,,,,,0,21,21,21,,,,,,,,,,,1,0.10290351499997996,98,001,2019_Feb_25_1641,body_behavioural,3.0.4,60.21039692300398,
1,"If you feel this way, then I don’t want to keep boring you, and I agree, let’s part ways once we make it back.",3,3,0,1,1,1,,,,,0,22,22,22,,,,,,,,,,,1,0.23637867200000073,98,001,2019_Feb_25_1641,body_behavioural,3.0.4,60.21039692300398,
1,You should’ve spoken up about my apparent intolerability before you decided to plan this vacation.”,3,3,0,1,1,1,,,,,0,23,23,23,,,,,,,,,,,1,0.10314539999990302,98,001,2019_Feb_25_1641,body_behavioural,3.0.4,60.21039692300398,
1,"He was clearly hurt, but thought it was pointless to argue. ",3,3,0,1,1,1,,,,,0,24,24,24,,,,,,,,,,,1,0.1216273000000001,98,001,2019_Feb_25_1641,body_behavioural,3.0.4,60.21039692300398,
1,"They finally made it to the gate, just as they heard the final call for passengers boarding their flight.",3,3,0,1,1,1,,,,,0,25,25,25,,,,,,,,,,,9,0.0862431700002162,98,001,2019_Feb_25_1641,body_behavioural,3.0.4,60.21039692300398,
1,"They scanned their tickets, and the annoyed flight attendant shooed them onto the jet bridge and then closed the door behind them.",4,3,0,1,1,1,,,,,0,26,26,26,,,,,,,,,,,1,0.10297677499988822,98,001,2019_Feb_25_1641,body_behavioural,3.0.4,60.21039692300398,
1,"Luckily, they had forgotten to arrange seats next to each other on the flight back.",4,3,0,1,1,1,,,,,0,27,27,27,,,,,,,,,,,9,0.07155653500012704,98,001,2019_Feb_25_1641,body_behavioural,3.0.4,60.21039692300398,
1,"They both had first-class tickets, but Jessie was headed for seat 1B while Calvin's seat was 4F. ",4,3,0,1,1,1,,,,,0,28,28,28,,,,,,,,,,,1,0.10484933500015359,98,001,2019_Feb_25_1641,body_behavioural,3.0.4,60.21039692300398,
1,"Before Jessie sat down, she took a deep breath and then awkwardly shook Calvin’s hand, mumbling, “Well, have a nice flight.” ",4,4,0,1,1,1,,,,,0,29,29,29,,,,,,,,,,,9,0.15292052700010572,98,001,2019_Feb_25_1641,body_behavioural,3.0.4,60.21039692300398,
1,He laughed in disbelief and walked to his window seat three rows back to get ready for takeoff.,4,4,0,1,1,1,,,,,0,30,30,30,,,,,,,,,,,9,0.08845397000004596,98,001,2019_Feb_25_1641,body_behavioural,3.0.4,60.21039692300398,
1,Both were upset but glad that they would have this flight to mull things over and recenter. ,4,4,0,1,1,1,,,,,0,31,31,31,,,,,,,,,,,1,0.10063545299999532,98,001,2019_Feb_25_1641,body_behavioural,3.0.4,60.21039692300398,
1,,,,0,1,1,1,,,,,,,,,,,,,,,,,,,,,98,001,2019_Feb_25_1641,body_behavioural,3.0.4,60.21039692300398,
2,,,,0,2,2,2,0,0,0,0,,,,,,,,,space,0.6362539899998865,space,0.3696094300000823,space,0.3863760320000438,,,98,001,2019_Feb_25_1641,body_behavioural,3.0.4,60.21039692300398,
2,"Sven and Isabel walked hurriedly from the cab into the Barcelona Airport after an incredible weekend with Isabel’s family, which had wiped away any doubts Sven had had about his decision to propose. ",1,1,0,2,2,2,,,,,0,0,0,0,,,,,,,,,,,1,0.6839949250002064,98,001,2019_Feb_25_1641,body_behavioural,3.0.4,60.21039692300398,
2,"They were a little pressed for time, with only a little over an hour until their flight would take off to go back to the US, but they already had their online boarding passes and no checked luggage. ",1,1,0,2,2,2,,,,,0,1,1,1,,,,,,,,,,,9,0.0860811970001123,98,001,2019_Feb_25_1641,body_behavioural,3.0.4,60.21039692300398,
2,"When Isabel stopped to rummage through her purse looking for her phone, Sven turned his back to her and took the velvet box out of his backpack, opening it to look at the ring he bought her.",1,2,0,2,2,2,,,,,0,2,2,2,,,,,,,,,,,1,0.0873443400000724,98,001,2019_Feb_25_1641,body_behavioural,3.0.4,60.21039692300398,
2,"He had received her parents’ blessing during the trip, and he was almost giddy with excitement. ",1,2,0,2,2,2,,,,,0,3,3,3,,,,,,,,,,,9,0.08661778500004402,98,001,2019_Feb_25_1641,body_behavioural,3.0.4,60.21039692300398,
2,"He tilted the ring backward and forward, despite having already studied it daily since he had purchased it a few weeks ago. ",1,2,0,2,2,2,,,,,0,4,4,4,,,,,,,,,,,1,0.03656605499986654,98,001,2019_Feb_25_1641,body_behavioural,3.0.4,60.21039692300398,
2,"It was a simple design, with a clear, white diamond on a thin silver band.",1,2,0,2,2,2,,,,,0,5,5,5,,,,,,,,,,,9,0.03632982199997059,98,001,2019_Feb_25_1641,body_behavioural,3.0.4,60.21039692300398,
2,"“Sven, let’s go! ” Isabel said. ",1,2,0,2,2,2,,,,,0,6,6,6,,,,,,,,,,,1,0.0695957800000997,98,001,2019_Feb_25_1641,body_behavioural,3.0.4,60.21039692300398,
2,Sven discretely closed the box and put it in his pocket.,1,2,0,2,2,2,,,,,0,7,7,7,,,,,,,,,,,1,0.10306920499988337,98,001,2019_Feb_25_1641,body_behavioural,3.0.4,60.21039692300398,
2," They entered the security line, weaving through the roped walkways to the front. ",2,2,0,2,2,2,,,,,0,8,8,8,,,,,,,,,,,1,0.10266045700018367,98,001,2019_Feb_25_1641,body_behavioural,3.0.4,60.21039692300398,
2,"When they were up, Isabel realized her laptop was buried somewhere in her duffle bag. ",2,2,0,2,2,2,,,,,0,9,9,9,,,,,,,,,,,9,0.11992614699988735,98,001,2019_Feb_25_1641,body_behavioural,3.0.4,60.21039692300398,
2,Sven had to hold the growing mound of objects she pulled from her bag until she unearthed the laptop.,2,2,0,2,2,2,,,,,0,10,10,10,,,,,,,,,,,1,0.10513582500016128,98,001,2019_Feb_25_1641,body_behavioural,3.0.4,60.21039692300398,
2,She set it into a bin and then had to unstrap her leather boots and put everything else into the bins.,2,2,0,2,2,2,,,,,0,11,11,11,,,,,,,,,,,9,0.15270640500011723,98,001,2019_Feb_25_1641,body_behavioural,3.0.4,60.21039692300398,
2,"Finally, she relieved Sven of his holding duties, and he hurriedly deposited his own backpack on the belt as the people behind them glared without shame. ",2,2,0,2,2,2,,,,,0,12,12,12,,,,,,,,,,,1,0.103014284999972,98,001,2019_Feb_25_1641,body_behavioural,3.0.4,60.21039692300398,
2,"Sven went into the millimeter wave scanner after Isabel, put his hands up, and the metal bars whirled around him.",2,2,0,2,2,2,,,,,0,13,13,13,,,,,,,,,,,9,0.11963425699991603,98,001,2019_Feb_25_1641,body_behavioural,3.0.4,60.21039692300398,
2,"“Sir, please step to the side.",2,2,0,2,2,2,,,,,0,14,14,14,,,,,,,,,,,1,0.06980008699997597,98,001,2019_Feb_25_1641,body_behavioural,3.0.4,60.21039692300398,
2,"You need to empty your pockets,” the security guard said.",2,2,0,2,2,2,,,,,0,15,15,15,,,,,,,,,,,1,0.10314672699996663,98,001,2019_Feb_25_1641,body_behavioural,3.0.4,60.21039692300398,
2,"With a sinking feeling Sven realized the mistake he had made forgetting to put the ring back in his bag, as Isabel and the guard both looked at him expectantly.",2,2,0,2,2,2,,,,,0,16,16,16,,,,,,,,,,,1,0.08814416300015182,98,001,2019_Feb_25_1641,body_behavioural,3.0.4,60.21039692300398,
2,"Sven,  deciding he would make the best of the situation, grabbed Isabel's hand as he reached into his pocket.",2,2,0,2,2,2,,,,,0,17,17,17,,,,,,,,,,,1,0.06997828499993375,98,001,2019_Feb_25_1641,body_behavioural,3.0.4,60.21039692300398,
2,"He got down on one knee and, giggling slightly at her confused look, said, “Isabel, this isn't quite how I'd planned this, but - will you marry me?”",2,3,0,2,2,2,,,,,0,18,18,18,,,,,,,,,,,1,0.08796159799999259,98,001,2019_Feb_25_1641,body_behavioural,3.0.4,60.21039692300398,
2,The security guard gasped.,2,3,0,2,2,2,,,,,0,19,19,19,,,,,,,,,,,1,0.0862088369999583,98,001,2019_Feb_25_1641,body_behavioural,3.0.4,60.21039692300398,
2,All the people who were putting their shoes back on and gathering their belongings stopped what they were doing and walked closer to the couple.,2,3,0,2,2,2,,,,,0,20,20,20,,,,,,,,,,,9,0.08654942499993012,98,001,2019_Feb_25_1641,body_behavioural,3.0.4,60.21039692300398,
2,"Isabel was astonished, and far too shy to respond in front of the backup of passengers waiting behind them.",2,3,0,2,2,2,,,,,0,21,21,21,,,,,,,,,,,1,0.0696962419999636,98,001,2019_Feb_25_1641,body_behavioural,3.0.4,60.21039692300398,
2,"She attempted to stammer a response as she frantically grabbed her and Sven’s shoes, leaving Sven to retrieve their bags.",2,3,0,2,2,2,,,,,0,22,22,22,,,,,,,,,,,1,0.1196047449998332,98,001,2019_Feb_25_1641,body_behavioural,3.0.4,60.21039692300398,
2,"Both of them slipping in their socked feet, she fled onto the concourse with Sven trying to catch up behind her.",3,3,0,2,2,2,,,,,0,23,23,23,,,,,,,,,,,9,0.07038270199996077,98,001,2019_Feb_25_1641,body_behavioural,3.0.4,60.21039692300398,
2,"Everyone in the terminal was looking at them with confusion as Sven, holding the bags in one hand and the open ring box in the other, finally caught up to her.",3,3,0,2,2,2,,,,,0,24,24,24,,,,,,,,,,,1,0.08631310500004474,98,001,2019_Feb_25_1641,body_behavioural,3.0.4,60.21039692300398,
2,“Isabel?”,3,3,0,2,2,2,,,,,0,25,25,25,,,,,,,,,,,9,0.11976436000009016,98,001,2019_Feb_25_1641,body_behavioural,3.0.4,60.21039692300398,
2,"He watched her face as she turned, trying to read her expression.",3,3,0,2,2,2,,,,,0,26,26,26,,,,,,,,,,,9,0.05262937699990289,98,001,2019_Feb_25_1641,body_behavioural,3.0.4,60.21039692300398,
2,"Her eyes were wide, but she was smiling as she hyperventilated, “Of course yes, Sven, yes!” ",3,4,0,2,2,2,,,,,0,27,27,27,,,,,,,,,,,9,0.18597210499979155,98,001,2019_Feb_25_1641,body_behavioural,3.0.4,60.21039692300398,
2,"They dropped their belongings and hugged, and Sven slipped the ring onto Isabel’s finger. ",3,4,0,2,2,2,,,,,0,28,28,28,,,,,,,,,,,9,0.10284120500000427,98,001,2019_Feb_25_1641,body_behavioural,3.0.4,60.21039692300398,
2,"After getting their shoes back on, they practically skipped to the gate, filled with joy.",3,4,0,2,2,2,,,,,0,29,29,29,,,,,,,,,,,1,0.06980286500015609,98,001,2019_Feb_25_1641,body_behavioural,3.0.4,60.21039692300398,
2,Sven high-fived a confused shoe-shine attendant as they passed.,3,4,0,2,2,2,,,,,0,30,30,30,,,,,,,,,,,1,0.10268395699995381,98,001,2019_Feb_25_1641,body_behavioural,3.0.4,60.21039692300398,
2,"They sat down outside their gate, having actually made good time, until the attendant called for passengers.",3,4,0,2,2,2,,,,,0,31,31,31,,,,,,,,,,,1,0.10289956699989489,98,001,2019_Feb_25_1641,body_behavioural,3.0.4,60.21039692300398,
2,"They boarded, sitting together in first class, and had a glass of champagne to celebrate the departure into their new life together.",4,4,0,2,2,2,,,,,0,32,32,32,,,,,,,,,,,1,0.08635819500000252,98,001,2019_Feb_25_1641,body_behavioural,3.0.4,60.21039692300398,
2,"Some of their neighboring passengers who had witnessed the proposal congratulated them, and a woman next to them showed them that she had been live-tweeting the whole event and that it was already going viral online.",4,4,0,2,2,2,,,,,0,33,33,33,,,,,,,,,,,9,0.11979515999996693,98,001,2019_Feb_25_1641,body_behavioural,3.0.4,60.21039692300398,
2,"Isabel slid down in her seat with her hands over her face, both embarrassed and overjoyed at the same time.
",4,4,0,2,2,2,,,,,0,34,34,34,,,,,,,,,,,9,0.10304109000003336,98,001,2019_Feb_25_1641,body_behavioural,3.0.4,60.21039692300398,
2,,,,0,2,2,2,,,,,,,,,,,,,,,,,,,,,98,001,2019_Feb_25_1641,body_behavioural,3.0.4,60.21039692300398,
,,,,,,,,,,,,,,,,,,,,space,1.036329947000013,space,0.3692538099999183,space,0.46730849699997634,,,,,,,,,
