count,storyText,instructText,trials.thisRepN,trials.thisTrialN,trials.thisN,trials.thisIndex,trials_2.thisRepN,trials_2.thisTrialN,trials_2.thisN,trials_2.thisIndex,trials_3.thisRepN,trials_3.thisTrialN,trials_3.thisN,trials_3.thisIndex,trials_4.thisRepN,trials_4.thisTrialN,trials_4.thisN,trials_4.thisIndex,trials_5.thisRepN,trials_5.thisTrialN,trials_5.thisN,trials_5.thisIndex,trials_6.thisRepN,trials_6.thisTrialN,trials_6.thisN,trials_6.thisIndex,order of stories,order of perspectives,story_presses.keys,story_presses.rt,key_resp_2.keys,key_resp_2.rt,recall,key_resp_3.keys,key_resp_3.rt,key_resp_4.keys,key_resp_4.rt,participant,session,date,expName,frameRate,
0,31,,0,0,0,0,0,0,0,0,,,,,,,,,,,,,,,,,[31 14 41 42 13 32 23 24 21 44 12 34 33 43 22 11],"['Location' 'Location' 'Social' 'Location' 'Social' 'Social' 'Location'
 'Social' 'Location' 'Location' 'Location' 'Social' 'Location' 'Social'
 'Social' 'Social']",1,1.385178940021433,,,,,,,,,001,2019_Jan_15_1210,body_behavioural,60.353796748869094,
0,Restaurant Business Deal,,0,0,0,0,0,1,1,1,,,,,,,,,,,,,,,,,,,1,0.5853835479356349,,,,,,,,,001,2019_Jan_15_1210,body_behavioural,60.353796748869094,
0,,,0,0,0,0,,,,,,,,,,,,,,,,,,,,,,,,,,,,,,,,,001,2019_Jan_15_1210,body_behavioural,60.353796748869094,
1,14,,0,1,1,1,0,0,0,0,,,,,,,,,,,,,,,,,,,1,0.4686558579560369,,,,,,,,,001,2019_Jan_15_1210,body_behavioural,60.353796748869094,
1,Attending a Lecture Breakup,,0,1,1,1,0,1,1,1,,,,,,,,,,,,,,,,,,,1,0.30190982401836663,,,,,,,,,001,2019_Jan_15_1210,body_behavioural,60.353796748869094,
1,,,0,1,1,1,,,,,,,,,,,,,,,,,,,,,,,,,,,,,,,,,001,2019_Jan_15_1210,body_behavioural,60.353796748869094,
2,41,,0,2,2,2,0,0,0,0,,,,,,,,,,,,,,,,,,,1,0.35132451995741576,,,,,,,,,001,2019_Jan_15_1210,body_behavioural,60.353796748869094,
2,Restaurant Meet Cute,,0,2,2,2,0,1,1,1,,,,,,,,,,,,,,,,,,,1,0.2684366829926148,,,,,,,,,001,2019_Jan_15_1210,body_behavioural,60.353796748869094,
2,,,0,2,2,2,,,,,,,,,,,,,,,,,,,,,,,,,,,,,,,,,001,2019_Jan_15_1210,body_behavioural,60.353796748869094,
3,42,,0,3,3,3,0,0,0,0,,,,,,,,,,,,,,,,,,,1,0.3517298480728641,,,,,,,,,001,2019_Jan_15_1210,body_behavioural,60.353796748869094,
3,Airport Meet Cute,,0,3,3,3,0,1,1,1,,,,,,,,,,,,,,,,,,,1,0.20178674801718444,,,,,,,,,001,2019_Jan_15_1210,body_behavioural,60.353796748869094,
3,,,0,3,3,3,,,,,,,,,,,,,,,,,,,,,,,,,,,,,,,,,001,2019_Jan_15_1210,body_behavioural,60.353796748869094,
4,13,,0,4,4,4,0,0,0,0,,,,,,,,,,,,,,,,,,,1,0.3847680799663067,,,,,,,,,001,2019_Jan_15_1210,body_behavioural,60.353796748869094,
4,Grocery Shopping Breakup,,0,4,4,4,0,1,1,1,,,,,,,,,,,,,,,,,,,1,0.21913347695954144,,,,,,,,,001,2019_Jan_15_1210,body_behavioural,60.353796748869094,
4,,,0,4,4,4,,,,,,,,,,,,,,,,,,,,,,,,,,,,,,,,,001,2019_Jan_15_1210,body_behavioural,60.353796748869094,
5,32,,0,5,5,5,0,0,0,0,,,,,,,,,,,,,,,,,,,1,0.3520447020418942,,,,,,,,,001,2019_Jan_15_1210,body_behavioural,60.353796748869094,
5,Airport Business Deal,,0,5,5,5,0,1,1,1,,,,,,,,,,,,,,,,,,,1,0.20166329096537083,,,,,,,,,001,2019_Jan_15_1210,body_behavioural,60.353796748869094,
5,,,0,5,5,5,,,,,,,,,,,,,,,,,,,,,,,,,,,,,,,,,001,2019_Jan_15_1210,body_behavioural,60.353796748869094,
6,23,,0,6,6,6,0,0,0,0,,,,,,,,,,,,,,,,,,,1,0.3177871040534228,,,,,,,,,001,2019_Jan_15_1210,body_behavioural,60.353796748869094,
6,Grocery shopping Proposal,,0,6,6,6,0,1,1,1,,,,,,,,,,,,,,,,,,,1,0.21954423806164414,,,,,,,,,001,2019_Jan_15_1210,body_behavioural,60.353796748869094,
6,,,0,6,6,6,,,,,,,,,,,,,,,,,,,,,,,,,,,,,,,,,001,2019_Jan_15_1210,body_behavioural,60.353796748869094,
7,24,,0,7,7,7,0,0,0,0,,,,,,,,,,,,,,,,,,,1,0.41824489005375654,,,,,,,,,001,2019_Jan_15_1210,body_behavioural,60.353796748869094,
7,Attending a Lecture Proposal,,0,7,7,7,0,1,1,1,,,,,,,,,,,,,,,,,,,1,0.18371666606981307,,,,,,,,,001,2019_Jan_15_1210,body_behavioural,60.353796748869094,
7,,,0,7,7,7,,,,,,,,,,,,,,,,,,,,,,,,,,,,,,,,,001,2019_Jan_15_1210,body_behavioural,60.353796748869094,
8,21,,0,8,8,8,0,0,0,0,,,,,,,,,,,,,,,,,,,1,0.2846665099496022,,,,,,,,,001,2019_Jan_15_1210,body_behavioural,60.353796748869094,
8,Restaurant Proposal,,0,8,8,8,0,1,1,1,,,,,,,,,,,,,,,,,,,1,0.20188713097013533,,,,,,,,,001,2019_Jan_15_1210,body_behavioural,60.353796748869094,
8,,,0,8,8,8,,,,,,,,,,,,,,,,,,,,,,,,,,,,,,,,,001,2019_Jan_15_1210,body_behavioural,60.353796748869094,
9,44,,0,9,9,9,0,0,0,0,,,,,,,,,,,,,,,,,,,1,0.2844423520145938,,,,,,,,,001,2019_Jan_15_1210,body_behavioural,60.353796748869094,
9,Attending a Lecture Meet Cute,,0,9,9,9,0,1,1,1,,,,,,,,,,,,,,,,,,,1,0.1853160070022568,,,,,,,,,001,2019_Jan_15_1210,body_behavioural,60.353796748869094,
9,,,0,9,9,9,,,,,,,,,,,,,,,,,,,,,,,,,,,,,,,,,001,2019_Jan_15_1210,body_behavioural,60.353796748869094,
10,12,,0,10,10,10,0,0,0,0,,,,,,,,,,,,,,,,,,,1,0.2851013180334121,,,,,,,,,001,2019_Jan_15_1210,body_behavioural,60.353796748869094,
10,Airport Breakup,,0,10,10,10,0,1,1,1,,,,,,,,,,,,,,,,,,,1,0.20273506094235927,,,,,,,,,001,2019_Jan_15_1210,body_behavioural,60.353796748869094,
10,,,0,10,10,10,,,,,,,,,,,,,,,,,,,,,,,,,,,,,,,,,001,2019_Jan_15_1210,body_behavioural,60.353796748869094,
11,34,,0,11,11,11,0,0,0,0,,,,,,,,,,,,,,,,,,,1,0.26753193396143615,,,,,,,,,001,2019_Jan_15_1210,body_behavioural,60.353796748869094,
11,Attending a Lecture Business Deal,,0,11,11,11,0,1,1,1,,,,,,,,,,,,,,,,,,,1,0.21776418795343488,,,,,,,,,001,2019_Jan_15_1210,body_behavioural,60.353796748869094,
11,,,0,11,11,11,,,,,,,,,,,,,,,,,,,,,,,,,,,,,,,,,001,2019_Jan_15_1210,body_behavioural,60.353796748869094,
12,33,,0,12,12,12,0,0,0,0,,,,,,,,,,,,,,,,,,,1,0.33491781796328723,,,,,,,,,001,2019_Jan_15_1210,body_behavioural,60.353796748869094,
12,Grocery Shopping Business Deal,,0,12,12,12,0,1,1,1,,,,,,,,,,,,,,,,,,,1,0.21834706608206034,,,,,,,,,001,2019_Jan_15_1210,body_behavioural,60.353796748869094,
12,,,0,12,12,12,,,,,,,,,,,,,,,,,,,,,,,,,,,,,,,,,001,2019_Jan_15_1210,body_behavioural,60.353796748869094,
13,43,,0,13,13,13,0,0,0,0,,,,,,,,,,,,,,,,,,,1,0.28558655898086727,,,,,,,,,001,2019_Jan_15_1210,body_behavioural,60.353796748869094,
13,Grocery Shopping Meet Cute,,0,13,13,13,0,1,1,1,,,,,,,,,,,,,,,,,,,1,0.21833057096228004,,,,,,,,,001,2019_Jan_15_1210,body_behavioural,60.353796748869094,
13,,,0,13,13,13,,,,,,,,,,,,,,,,,,,,,,,,,,,,,,,,,001,2019_Jan_15_1210,body_behavioural,60.353796748869094,
14,22,,0,14,14,14,0,0,0,0,,,,,,,,,,,,,,,,,,,1,0.23515192000195384,,,,,,,,,001,2019_Jan_15_1210,body_behavioural,60.353796748869094,
14,Airport Proposal,,0,14,14,14,0,1,1,1,,,,,,,,,,,,,,,,,,,1,0.2177193689858541,,,,,,,,,001,2019_Jan_15_1210,body_behavioural,60.353796748869094,
14,,,0,14,14,14,,,,,,,,,,,,,,,,,,,,,,,,,,,,,,,,,001,2019_Jan_15_1210,body_behavioural,60.353796748869094,
15,11,,0,15,15,15,0,0,0,0,,,,,,,,,,,,,,,,,,,1,0.2510313290404156,,,,,,,,,001,2019_Jan_15_1210,body_behavioural,60.353796748869094,
15,Restaurant- Breakup,,0,15,15,15,0,1,1,1,,,,,,,,,,,,,,,,,,,1,0.21902473003137857,,,,,,,,,001,2019_Jan_15_1210,body_behavioural,60.353796748869094,
15,,,0,15,15,15,,,,,,,,,,,,,,,,,,,,,,,,,,,,,,,,,001,2019_Jan_15_1210,body_behavioural,60.353796748869094,
,,The next task in the experiment is to recall each story to the best of your ability.,,,,,,,,,0,0,0,0,,,,,,,,,,,,,,,,,space,0.2690981790656224,,,,,,,001,2019_Jan_15_1210,body_behavioural,60.353796748869094,
,,"You will be presented with the story title, names, the images, and a blank text box for each story.",,,,,,,,,0,1,1,1,,,,,,,,,,,,,,,,,space,0.5187341580167413,,,,,,,001,2019_Jan_15_1210,body_behavioural,60.353796748869094,
,,Describe the story with as many details as you can remember in the space provided. ,,,,,,,,,0,2,2,2,,,,,,,,,,,,,,,,,space,0.4016790200257674,,,,,,,001,2019_Jan_15_1210,body_behavioural,60.353796748869094,
,,"When you are finished recalling one story, to move onto the next one hit ‘return’. ",,,,,,,,,0,3,3,3,,,,,,,,,,,,,,,,,space,0.3685446500312537,,,,,,,001,2019_Jan_15_1210,body_behavioural,60.353796748869094,
,,There is no time limit for your responses. ,,,,,,,,,0,4,4,4,,,,,,,,,,,,,,,,,space,0.4031759010395035,,,,,,,001,2019_Jan_15_1210,body_behavioural,60.353796748869094,
0,,,,,,,,,,,,,,,0,0,0,0,,,,,,,,,,,,,,,They were in a restaurant and were eating alot of food.,,,,,,001,2019_Jan_15_1210,body_behavioural,60.353796748869094,
1,,,,,,,,,,,,,,,0,1,1,1,,,,,,,,,,,,,,,Theres was something fisht. she brokeu up with him.,,,,,,001,2019_Jan_15_1210,body_behavioural,60.353796748869094,
2,,,,,,,,,,,,,,,0,2,2,2,,,,,,,,,,,,,,,There was somthing very simply about the daouing,,,,,,001,2019_Jan_15_1210,body_behavioural,60.353796748869094,
3,,,,,,,,,,,,,,,0,3,3,3,,,,,,,,,,,,,,,Severely n,,,,,,001,2019_Jan_15_1210,body_behavioural,60.353796748869094,
4,,,,,,,,,,,,,,,0,4,4,4,,,,,,,,,,,,,,,Fok they are going craz,,,,,,001,2019_Jan_15_1210,body_behavioural,60.353796748869094,
5,,,,,,,,,,,,,,,0,5,5,5,,,,,,,,,,,,,,,Thekkwooo busines ,,,,,,001,2019_Jan_15_1210,body_behavioural,60.353796748869094,
6,,,,,,,,,,,,,,,0,6,6,6,,,,,,,,,,,,,,,Yay happy hapyengagemnet,,,,,,001,2019_Jan_15_1210,body_behavioural,60.353796748869094,
7,,,,,,,,,,,,,,,0,7,7,7,,,,,,,,,,,,,,,Palying,,,,,,001,2019_Jan_15_1210,body_behavioural,60.353796748869094,
8,,,,,,,,,,,,,,,0,8,8,8,,,,,,,,,,,,,,,Jskljf,,,,,,001,2019_Jan_15_1210,body_behavioural,60.353796748869094,
9,,,,,,,,,,,,,,,0,9,9,9,,,,,,,,,,,,,,,Lkjs df,,,,,,001,2019_Jan_15_1210,body_behavioural,60.353796748869094,
10,,,,,,,,,,,,,,,0,10,10,10,,,,,,,,,,,,,,,,,,,,,001,2019_Jan_15_1210,body_behavioural,60.353796748869094,
11,,,,,,,,,,,,,,,0,11,11,11,,,,,,,,,,,,,,,Kljlksdfkjl kjf kjdf kjf . they had a buisness proposal and they were in a lecture about aristotle and thery were not paying attention. they were making a business deal about an internet cou,,,,,,001,2019_Jan_15_1210,body_behavioural,60.353796748869094,
12,,,,,,,,,,,,,,,0,12,12,12,,,,,,,,,,,,,,,,,,,,,001,2019_Jan_15_1210,body_behavioural,60.353796748869094,
13,,,,,,,,,,,,,,,0,13,13,13,,,,,,,,,,,,,,,,,,,,,001,2019_Jan_15_1210,body_behavioural,60.353796748869094,
14,,,,,,,,,,,,,,,0,14,14,14,,,,,,,,,,,,,,,,,,,,,001,2019_Jan_15_1210,body_behavioural,60.353796748869094,
15,,,,,,,,,,,,,,,0,15,15,15,,,,,,,,,,,,,,,,,,,,,001,2019_Jan_15_1210,body_behavioural,60.353796748869094,
,,The next part of the task is to answer specific questions about each story.,,,,,,,,,,,,,,,,,0,0,0,0,,,,,,,,,,,,space,2.7866142069688067,,,,001,2019_Jan_15_1210,body_behavioural,60.353796748869094,
,,The next part of the task is to answer specific questions about each story.,,,,,,,,,,,,,,,,,0,0,0,0,,,,,,,,,,,,,,,,,001,2019_Jan_15_1210,body_behavioural,60.353796748869094,
,,Hit enter to submit your answer and move onto the next question. ,,,,,,,,,,,,,,,,,0,1,1,1,,,,,,,,,,,,space,1.434320784988813,,,,001,2019_Jan_15_1210,body_behavioural,60.353796748869094,
,,Hit enter to submit your answer and move onto the next question. ,,,,,,,,,,,,,,,,,0,1,1,1,,,,,,,,,,,,,,,,,001,2019_Jan_15_1210,body_behavioural,60.353796748869094,
,,,,,,,,,,,,,,,,,,,,,,,,,,,,,,,,,,,,space,1.1522050900384784,,,,,,
