count,storyText,trials.thisRepN,trials.thisTrialN,trials.thisN,trials.thisIndex,trials_2.thisRepN,trials_2.thisTrialN,trials_2.thisN,trials_2.thisIndex,order of stories,order of perspectives,key_resp_3.keys,key_resp_3.rt,story_presses.keys,story_presses.rt,participant,session,date,expName,frameRate,
0,24,0,0,0,0,0,0,0,0,[24 42 31 22 13 11 44 33 21 34 12 14 43 32 41 23],"['Location' 'Location' 'Social' 'Social' 'Social' 'Location' 'Social'
 'Location' 'Social' 'Location' 'Location' 'Social' 'Social' 'Social'
 'Location' 'Location']",space,2.339743944001384,1,6.086310753948055,,001,2019_Jan_04_1301,body_updated,59.94766806485327,
0,Attending a Lecture Proposal,0,0,0,0,0,1,1,1,,,,,9,0.7862841020105407,,001,2019_Jan_04_1301,body_updated,59.94766806485327,
0,,0,0,0,0,,,,,,,,,,,,001,2019_Jan_04_1301,body_updated,59.94766806485327,
1,42,0,1,1,1,0,0,0,0,,,space,1.0517549799988046,1,0.4020482710329816,,001,2019_Jan_04_1301,body_updated,59.94766806485327,
1,Airport Meet Cute,0,1,1,1,0,1,1,1,,,,,9,0.7006478561088443,,001,2019_Jan_04_1301,body_updated,59.94766806485327,
1,,0,1,1,1,,,,,,,,,,,,001,2019_Jan_04_1301,body_updated,59.94766806485327,
2,31,0,2,2,2,0,0,0,0,,,space,0.8352713939966634,9,0.5338907539844513,,001,2019_Jan_04_1301,body_updated,59.94766806485327,
2,Restaurant Business Deal,0,2,2,2,0,1,1,1,,,,,9,0.518111162004061,,001,2019_Jan_04_1301,body_updated,59.94766806485327,
2,,0,2,2,2,,,,,,,,,,,,001,2019_Jan_04_1301,body_updated,59.94766806485327,
3,22,0,3,3,3,0,0,0,0,,,space,0.7362359350081533,9,0.6520504649961367,,001,2019_Jan_04_1301,body_updated,59.94766806485327,
3,Airport Proposal,0,3,3,3,0,1,1,1,,,,,9,0.15205329796299338,,001,2019_Jan_04_1301,body_updated,59.94766806485327,
3,,0,3,3,3,,,,,,,,,,,,001,2019_Jan_04_1301,body_updated,59.94766806485327,
4,13,0,4,4,4,0,0,0,0,,,space,0.6510304909897968,9,0.26736347808036953,,001,2019_Jan_04_1301,body_updated,59.94766806485327,
4,Grocery Shopping Breakup,0,4,4,4,0,1,1,1,,,,,9,0.13448840589262545,,001,2019_Jan_04_1301,body_updated,59.94766806485327,
4,,0,4,4,4,,,,,,,,,,,,001,2019_Jan_04_1301,body_updated,59.94766806485327,
5,11,0,5,5,5,0,0,0,0,,,space,0.4858327161055058,9,0.3361541150370613,,001,2019_Jan_04_1301,body_updated,59.94766806485327,
5,Restaurant- Breakup,0,5,5,5,0,1,1,1,,,,,9,0.23538539605215192,,001,2019_Jan_04_1301,body_updated,59.94766806485327,
5,,0,5,5,5,,,,,,,,,,,,001,2019_Jan_04_1301,body_updated,59.94766806485327,
6,44,0,6,6,6,0,0,0,0,,,space,0.3181345579214394,9,0.1843419080832973,,001,2019_Jan_04_1301,body_updated,59.94766806485327,
6,Attending a Lecture Meet Cute,0,6,6,6,0,1,1,1,,,,,9,0.15230908303055912,,001,2019_Jan_04_1301,body_updated,59.94766806485327,
6,,0,6,6,6,,,,,,,,,,,,001,2019_Jan_04_1301,body_updated,59.94766806485327,
7,33,0,7,7,7,0,0,0,0,,,space,0.36816830199677497,9,0.18497487506829202,,001,2019_Jan_04_1301,body_updated,59.94766806485327,
7,Grocery Shopping Business Deal,0,7,7,7,0,1,1,1,,,,,9,0.16797611105721444,,001,2019_Jan_04_1301,body_updated,59.94766806485327,
7,,0,7,7,7,,,,,,,,,,,,001,2019_Jan_04_1301,body_updated,59.94766806485327,
8,21,0,8,8,8,0,0,0,0,,,space,0.3179466330911964,9,0.1675851090112701,,001,2019_Jan_04_1301,body_updated,59.94766806485327,
8,Restaurant Proposal,0,8,8,8,0,1,1,1,,,,,9,0.134811456897296,,001,2019_Jan_04_1301,body_updated,59.94766806485327,
8,,0,8,8,8,,,,,,,,,,,,001,2019_Jan_04_1301,body_updated,59.94766806485327,
9,34,0,9,9,9,0,0,0,0,,,space,0.30150539602618665,9,0.1684733850415796,,001,2019_Jan_04_1301,body_updated,59.94766806485327,
9,Attending a Lecture Business Deal,0,9,9,9,0,1,1,1,,,,,1,0.16698714497033507,,001,2019_Jan_04_1301,body_updated,59.94766806485327,
9,,0,9,9,9,,,,,,,,,,,,001,2019_Jan_04_1301,body_updated,59.94766806485327,
10,12,0,10,10,10,0,0,0,0,,,space,0.45033477793913335,1,0.2179425050271675,,001,2019_Jan_04_1301,body_updated,59.94766806485327,
10,Airport Breakup,0,10,10,10,0,1,1,1,,,,,1,0.16816724091768265,,001,2019_Jan_04_1301,body_updated,59.94766806485327,
10,,0,10,10,10,,,,,,,,,,,,001,2019_Jan_04_1301,body_updated,59.94766806485327,
11,14,0,11,11,11,0,0,0,0,,,space,0.35142081801313907,1,0.12496513908263296,,001,2019_Jan_04_1301,body_updated,59.94766806485327,
11,Attending a Lecture Breakup,0,11,11,11,0,1,1,1,,,,,1,0.1685866400366649,,001,2019_Jan_04_1301,body_updated,59.94766806485327,
11,,0,11,11,11,,,,,,,,,,,,001,2019_Jan_04_1301,body_updated,59.94766806485327,
12,43,0,12,12,12,0,0,0,0,,,space,1.1018492840230465,1,0.43462681502569467,,001,2019_Jan_04_1301,body_updated,59.94766806485327,
12,Grocery Shopping Meet Cute,0,12,12,12,0,1,1,1,,,,,9,0.11732113698963076,,001,2019_Jan_04_1301,body_updated,59.94766806485327,
12,,0,12,12,12,,,,,,,,,,,,001,2019_Jan_04_1301,body_updated,59.94766806485327,
13,32,0,13,13,13,0,0,0,0,,,space,0.3177486229687929,1,0.2514266249490902,,001,2019_Jan_04_1301,body_updated,59.94766806485327,
13,Airport Business Deal,0,13,13,13,0,1,1,1,,,,,9,0.08565214101690799,,001,2019_Jan_04_1301,body_updated,59.94766806485327,
13,,0,13,13,13,,,,,,,,,,,,001,2019_Jan_04_1301,body_updated,59.94766806485327,
14,41,0,14,14,14,0,0,0,0,,,space,0.3682380560785532,1,0.41713154199533165,,001,2019_Jan_04_1301,body_updated,59.94766806485327,
14,Restaurant Meet Cute,0,14,14,14,0,1,1,1,,,,,9,0.06750759005080909,,001,2019_Jan_04_1301,body_updated,59.94766806485327,
14,,0,14,14,14,,,,,,,,,,,,001,2019_Jan_04_1301,body_updated,59.94766806485327,
15,23,0,15,15,15,0,0,0,0,,,space,0.4182205650722608,1,0.38619660993572325,,001,2019_Jan_04_1301,body_updated,59.94766806485327,
15,Grocery shopping Proposal,0,15,15,15,0,1,1,1,,,,,9,0.10205335507635027,,001,2019_Jan_04_1301,body_updated,59.94766806485327,
15,,0,15,15,15,,,,,,,,,,,,001,2019_Jan_04_1301,body_updated,59.94766806485327,
