count,storyText,instructText,trials.thisRepN,trials.thisTrialN,trials.thisN,trials.thisIndex,trials_2.thisRepN,trials_2.thisTrialN,trials_2.thisN,trials_2.thisIndex,trials_3.thisRepN,trials_3.thisTrialN,trials_3.thisN,trials_3.thisIndex,order of stories,order of perspectives,key_resp_3.keys,key_resp_3.rt,story_presses.keys,story_presses.rt,key_resp_2.keys,key_resp_2.rt,participant,session,date,expName,frameRate,
0,31,,0,0,0,0,0,0,0,0,,,,,[31 33 24 44 13 42 11 22 41 34 43 23 32 14 12 21],"['Location' 'Social' 'Location' 'Social' 'Location' 'Location' 'Social'
 'Social' 'Social' 'Location' 'Location' 'Social' 'Social' 'Social'
 'Location' 'Location']",space,0.7199323850218207,1,3.568829160067253,,,,001,2019_Jan_04_1448,body_behavioural,60.16638291673902,
0,Restaurant Business Deal,,0,0,0,0,0,1,1,1,,,,,,,,,1,0.35174214793369174,,,,001,2019_Jan_04_1448,body_behavioural,60.16638291673902,
0,,,0,0,0,0,,,,,,,,,,,,,,,,,,001,2019_Jan_04_1448,body_behavioural,60.16638291673902,
1,33,,0,1,1,1,0,0,0,0,,,,,,,space,0.3020960959838703,1,0.26826852397061884,,,,001,2019_Jan_04_1448,body_behavioural,60.16638291673902,
1,Grocery Shopping Business Deal,,0,1,1,1,0,1,1,1,,,,,,,,,1,0.1684017610969022,,,,001,2019_Jan_04_1448,body_behavioural,60.16638291673902,
1,,,0,1,1,1,,,,,,,,,,,,,,,,,,001,2019_Jan_04_1448,body_behavioural,60.16638291673902,
2,24,,0,2,2,2,0,0,0,0,,,,,,,space,0.21817951404955238,1,0.20050371706020087,,,,001,2019_Jan_04_1448,body_behavioural,60.16638291673902,
2,Attending a Lecture Proposal,,0,2,2,2,0,1,1,1,,,,,,,,,1,0.4019643709762022,,,,001,2019_Jan_04_1448,body_behavioural,60.16638291673902,
2,,,0,2,2,2,,,,,,,,,,,,,,,,,,001,2019_Jan_04_1448,body_behavioural,60.16638291673902,
3,44,,0,3,3,3,0,0,0,0,,,,,,,space,0.28576682403218,1,0.30079961789306253,,,,001,2019_Jan_04_1448,body_behavioural,60.16638291673902,
3,Attending a Lecture Meet Cute,,0,3,3,3,0,1,1,1,,,,,,,,,1,0.1856073880335316,,,,001,2019_Jan_04_1448,body_behavioural,60.16638291673902,
3,,,0,3,3,3,,,,,,,,,,,,,,,,,,001,2019_Jan_04_1448,body_behavioural,60.16638291673902,
4,13,,0,4,4,4,0,0,0,0,,,,,,,space,0.2680580399464816,1,0.23523977305740118,,,,001,2019_Jan_04_1448,body_behavioural,60.16638291673902,
4,Grocery Shopping Breakup,,0,4,4,4,0,1,1,1,,,,,,,,,1,0.2008628649637103,,,,001,2019_Jan_04_1448,body_behavioural,60.16638291673902,
4,,,0,4,4,4,,,,,,,,,,,,,,,,,,001,2019_Jan_04_1448,body_behavioural,60.16638291673902,
5,42,,0,5,5,5,0,0,0,0,,,,,,,space,0.25110952788963914,1,0.2017039880156517,,,,001,2019_Jan_04_1448,body_behavioural,60.16638291673902,
5,Airport Meet Cute,,0,5,5,5,0,1,1,1,,,,,,,,,1,0.20088386593852192,,,,001,2019_Jan_04_1448,body_behavioural,60.16638291673902,
5,,,0,5,5,5,,,,,,,,,,,,,,,,,,001,2019_Jan_04_1448,body_behavioural,60.16638291673902,
6,11,,0,6,6,6,0,0,0,0,,,,,,,space,0.40221052593551576,1,0.11911889701150358,,,,001,2019_Jan_04_1448,body_behavioural,60.16638291673902,
6,Restaurant- Breakup,,0,6,6,6,0,1,1,1,,,,,,,,,1,0.285897652967833,,,,001,2019_Jan_04_1448,body_behavioural,60.16638291673902,
6,,,0,6,6,6,,,,,,,,,,,,,,,,,,001,2019_Jan_04_1448,body_behavioural,60.16638291673902,
7,22,,0,7,7,7,0,0,0,0,,,,,,,space,0.23575158196035773,1,0.1351136949378997,,,,001,2019_Jan_04_1448,body_behavioural,60.16638291673902,
7,Airport Proposal,,0,7,7,7,0,1,1,1,,,,,,,,,1,0.2184711149893701,,,,001,2019_Jan_04_1448,body_behavioural,60.16638291673902,
7,,,0,7,7,7,,,,,,,,,,,,,,,,,,001,2019_Jan_04_1448,body_behavioural,60.16638291673902,
8,41,,0,8,8,8,0,0,0,0,,,,,,,space,0.21990481799002737,1,0.16831764299422503,,,,001,2019_Jan_04_1448,body_behavioural,60.16638291673902,
8,Restaurant Meet Cute,,0,8,8,8,0,1,1,1,,,,,,,,,1,0.20061682199593633,,,,001,2019_Jan_04_1448,body_behavioural,60.16638291673902,
8,,,0,8,8,8,,,,,,,,,,,,,,,,,,001,2019_Jan_04_1448,body_behavioural,60.16638291673902,
9,34,,0,9,9,9,0,0,0,0,,,,,,,space,0.20100657001603395,1,0.1349529849831015,,,,001,2019_Jan_04_1448,body_behavioural,60.16638291673902,
9,Attending a Lecture Business Deal,,0,9,9,9,0,1,1,1,,,,,,,,,1,0.23515676008537412,,,,001,2019_Jan_04_1448,body_behavioural,60.16638291673902,
9,,,0,9,9,9,,,,,,,,,,,,,,,,,,001,2019_Jan_04_1448,body_behavioural,60.16638291673902,
10,43,,0,10,10,10,0,0,0,0,,,,,,,space,0.20157429901883006,1,0.10434504901058972,,,,001,2019_Jan_04_1448,body_behavioural,60.16638291673902,
10,Grocery Shopping Meet Cute,,0,10,10,10,0,1,1,1,,,,,,,,,1,0.36856331198941916,,,,001,2019_Jan_04_1448,body_behavioural,60.16638291673902,
10,,,0,10,10,10,,,,,,,,,,,,,,,,,,001,2019_Jan_04_1448,body_behavioural,60.16638291673902,
11,23,,0,11,11,11,0,0,0,0,,,,,,,space,0.4520748950308189,1,0.2188369520008564,,,,001,2019_Jan_04_1448,body_behavioural,60.16638291673902,
11,Grocery shopping Proposal,,0,11,11,11,0,1,1,1,,,,,,,,,1,0.1694233639864251,,,,001,2019_Jan_04_1448,body_behavioural,60.16638291673902,
11,,,0,11,11,11,,,,,,,,,,,,,,,,,,001,2019_Jan_04_1448,body_behavioural,60.16638291673902,
12,32,,0,12,12,12,0,0,0,0,,,,,,,space,0.20189825596753508,1,0.3194401359651238,,,,001,2019_Jan_04_1448,body_behavioural,60.16638291673902,
12,Airport Business Deal,,0,12,12,12,0,1,1,1,,,,,,,,,1,0.06866463797632605,,,,001,2019_Jan_04_1448,body_behavioural,60.16638291673902,
12,,,0,12,12,12,,,,,,,,,,,,,,,,,,001,2019_Jan_04_1448,body_behavioural,60.16638291673902,
13,14,,0,13,13,13,0,0,0,0,,,,,,,space,0.2682270919904113,1,0.20068805490154773,,,,001,2019_Jan_04_1448,body_behavioural,60.16638291673902,
13,Attending a Lecture Breakup,,0,13,13,13,0,1,1,1,,,,,,,,,1,0.1679788159672171,,,,001,2019_Jan_04_1448,body_behavioural,60.16638291673902,
13,,,0,13,13,13,,,,,,,,,,,,,,,,,,001,2019_Jan_04_1448,body_behavioural,60.16638291673902,
14,12,,0,14,14,14,0,0,0,0,,,,,,,space,0.4683081980329007,1,0.1856872980715707,,,,001,2019_Jan_04_1448,body_behavioural,60.16638291673902,
14,Airport Breakup,,0,14,14,14,0,1,1,1,,,,,,,,,1,0.20220273698214442,,,,001,2019_Jan_04_1448,body_behavioural,60.16638291673902,
14,,,0,14,14,14,,,,,,,,,,,,,,,,,,001,2019_Jan_04_1448,body_behavioural,60.16638291673902,
15,21,,0,15,15,15,0,0,0,0,,,,,,,space,0.3682484730379656,1,0.1689834640128538,,,,001,2019_Jan_04_1448,body_behavioural,60.16638291673902,
15,Restaurant Proposal,,0,15,15,15,0,1,1,1,,,,,,,,,1,0.21816201391629875,,,,001,2019_Jan_04_1448,body_behavioural,60.16638291673902,
15,,,0,15,15,15,,,,,,,,,,,,,,,,,,001,2019_Jan_04_1448,body_behavioural,60.16638291673902,
,,The next part of the experiment is to recall each story to the best of your ability.,,,,,,,,,0,0,0,0,,,,,,,space,0.23500227101612836,,001,2019_Jan_04_1448,body_behavioural,60.16638291673902,
,,"You will be presented with the story title, names, the images, and a blank text box for each story.",,,,,,,,,0,1,1,1,,,,,,,space,5.120186600019224,,001,2019_Jan_04_1448,body_behavioural,60.16638291673902,
,,"Write as much as you can remember about each story. Try to include everything, even if it seems trivial.",,,,,,,,,0,2,2,2,,,,,,,space,2.3351662050699815,,001,2019_Jan_04_1448,body_behavioural,60.16638291673902,
,,"When you are finished recalling one story, to move onto the next one hit ‘tab’. ",,,,,,,,,0,3,3,3,,,,,,,space,3.6865426489384845,,001,2019_Jan_04_1448,body_behavioural,60.16638291673902,
,,There is no time limit for your responses. ,,,,,,,,,0,4,4,4,,,,,,,space,1.5178416519192979,,001,2019_Jan_04_1448,body_behavioural,60.16638291673902,
