Q1,Q2,Q3,Q4,D1,D2,roleName,rolePic,trials_3.thisRepN,trials_3.thisTrialN,trials_3.thisN,trials_3.thisIndex,trials.thisRepN,trials.thisTrialN,trials.thisN,trials.thisIndex,key_resp_10.keys,key_resp_10.rt,key_resp_11.keys,key_resp_11.rt,key_resp_12.keys,key_resp_12.rt,key_resp_13.keys,key_resp_13.rt,participant,session,date,expName,frameRate,
Who notices who first? Why/how?,"How does the couple start talking?
","Which of the people proposes going on an actual date? What do they propose?
","Who leaves first and why do they have to go?
",Is the couple going to get married?,Who shows more interest?,Matchmaker,matchmaker.jpg,0,0,0,2,0,0,0,0,space,1.5193965439975727,space,0.33583084397832863,space,3.6040307020011824,space,1.634564120991854,,001,2018_Nov_12_1046,part1,59.68237707243743,
Who notices who first? Why/how?,"How does the couple start talking?
","Which of the people proposes going on an actual date? What do they propose?
","Who leaves first and why do they have to go?
",Is the couple going to get married?,Who shows more interest?,Matchmaker,matchmaker.jpg,0,0,0,2,1,0,1,0,space,1.0356612549803685,space,0.4175997670099605,space,0.6521181979915127,space,0.6351674890029244,,001,2018_Nov_12_1046,part1,59.68237707243743,
Who notices who first? Why/how?,"How does the couple start talking?
","Which of the people proposes going on an actual date? What do they propose?
","Who leaves first and why do they have to go?
",Is the couple going to get married?,Who shows more interest?,Matchmaker,matchmaker.jpg,0,0,0,2,,,,,,,,,,,,,,001,2018_Nov_12_1046,part1,59.68237707243743,
"When the clients arrive at the airport, how much time do they have to go through?
","What do the clients have do at security to comply with the security check?
","How do the clients feel when they are  walking to the gates?
",Where does each client sit on the plane?,Are the security guides friendly or rude?,Are the airport restrooms clean?,Airport Customer Experience Manager,acem.jpg,0,1,1,4,0,0,0,0,space,6.605122818000382,space,0.5181857309944462,space,0.6681974420207553,space,1.2519607490103226,,001,2018_Nov_12_1046,part1,59.68237707243743,
"When the clients arrive at the airport, how much time do they have to go through?
","What do the clients have do at security to comply with the security check?
","How do the clients feel when they are  walking to the gates?
",Where does each client sit on the plane?,Are the security guides friendly or rude?,Are the airport restrooms clean?,Airport Customer Experience Manager,acem.jpg,0,1,1,4,1,0,1,0,space,1.301970092987176,space,0.6020914079854265,space,0.6010905269940849,space,0.5846283459977712,,001,2018_Nov_12_1046,part1,59.68237707243743,
