count,storyText,locationEvent,socialEvent,locationEventSize,socialEventSize,instructText,trials.thisRepN,trials.thisTrialN,trials.thisN,trials.thisIndex,trials_7.thisRepN,trials_7.thisTrialN,trials_7.thisN,trials_7.thisIndex,trials_2.thisRepN,trials_2.thisTrialN,trials_2.thisN,trials_2.thisIndex,trials_3.thisRepN,trials_3.thisTrialN,trials_3.thisN,trials_3.thisIndex,order of stories,order of perspectives,from whom,key_resp_8.keys,key_resp_8.rt,key_resp_5.keys,key_resp_5.rt,key_resp_7.keys,key_resp_7.rt,story_presses.keys,story_presses.rt,story time,key_resp_6.keys,key_resp_6.rt,key_resp_2.keys,key_resp_2.rt,participant,session,date,expName,psychopyVersion,frameRate,
0,,,,,,,0,0,0,0,0,0,0,0,,,,,,,,,[14 43 23 34 31 11 42 22],"['Social' 'Location' 'Social' 'Location' 'Social' 'Location' 'Social'
 'Location']",02202020,space,0.6371197449998363,space,0.35289392300001055,space,1.5196461649998128,,,,,,,,mango,001,2019_Feb_21_1209,body_behavioural,3.0.4,60.151735640456984,
0,,,,,,,0,0,0,0,1,0,1,0,,,,,,,,,,,,,,,,space,0.63628189200017,,,,,,,,mango,001,2019_Feb_21_1209,body_behavioural,3.0.4,60.151735640456984,
0,,,,,,,0,0,0,0,2,0,2,0,,,,,,,,,,,,,,,,space,0.45254972999964593,,,,,,,,mango,001,2019_Feb_21_1209,body_behavioural,3.0.4,60.151735640456984,
0,"Maria walked into lecture beside Henry, and she was mentally rehearsing what she should say to break up with him.",1,1,,,,0,0,0,0,,,,,0,0,0,0,,,,,,,,,,,,,,1,1.0701124219999656,,,,,,mango,001,2019_Feb_21_1209,body_behavioural,3.0.4,60.151735640456984,
0,"She had been putting it off with a growing sense of dread, and now this lecture was the last chance before she had to leave campus. ",1,1,,,,0,0,0,0,,,,,0,1,1,1,,,,,,,,,,,,,,9,0.05333924600017781,,,,,,mango,001,2019_Feb_21_1209,body_behavioural,3.0.4,60.151735640456984,
0,"The lecture hall was large, with a stage for the lecturer in the front of the room, and tiered seats that stretched up in 15 stacked rows. ",1,1,,,,0,0,0,0,,,,,0,2,2,2,,,,,,,,,,,,,,1,0.05280292399993414,,,,,,mango,001,2019_Feb_21_1209,body_behavioural,3.0.4,60.151735640456984,
0,"The clock struck 3 pm, and Maria and Henry slid into neighboring seats near the back of the room.",1,1,,,,0,0,0,0,,,,,0,3,3,3,,,,,,,,,,,,,,9,0.019140165999942838,,,,,,mango,001,2019_Feb_21_1209,body_behavioural,3.0.4,60.151735640456984,
0,"“Good afternoon, everybody,” said the professor, fiddling to connect his laptop with the projector.",2,1,,,,0,0,0,0,,,,,0,4,4,4,,,,,,,,,,,,,,1,0.03519722400005776,,,,,,mango,001,2019_Feb_21_1209,body_behavioural,3.0.4,60.151735640456984,
0,“Welcome to week 4 of Intro to Ancient Philosophy. ,2,1,,,,0,0,0,0,,,,,0,5,5,5,,,,,,,,,,,,,,9,0.020171034999748372,,,,,,mango,001,2019_Feb_21_1209,body_behavioural,3.0.4,60.151735640456984,
0,Today we are going to continue our lecture on Aristotelian Philosophy.”,2,1,,,,0,0,0,0,,,,,0,6,6,6,,,,,,,,,,,,,,1,0.068008732999715,,,,,,mango,001,2019_Feb_21_1209,body_behavioural,3.0.4,60.151735640456984,
0,Everyone in class pulled out their notebooks and settled in their seats as the slides appeared on the large front screens.,2,1,,,,0,0,0,0,,,,,0,7,7,7,,,,,,,,,,,,,,9,0.10308916999974826,,,,,,mango,001,2019_Feb_21_1209,body_behavioural,3.0.4,60.151735640456984,
0,"“Henry,” Maria whispered.",2,1,,,,0,0,0,0,,,,,0,8,8,8,,,,,,,,,,,,,,9,0.11699911300001986,,,,,,mango,001,2019_Feb_21_1209,body_behavioural,3.0.4,60.151735640456984,
0,"“Hmm?” he replied, distracted.",2,1,,,,0,0,0,0,,,,,0,9,9,9,,,,,,,,,,,,,,1,0.035448351000013645,,,,,,mango,001,2019_Feb_21_1209,body_behavioural,3.0.4,60.151735640456984,
0,"“Henry, I need to tell you something really important, and I don’t know when else I’ll have a chance to do it,” she said.",2,1,,,,0,0,0,0,,,,,0,10,10,10,,,,,,,,,,,,,,9,0.136521127999913,,,,,,mango,001,2019_Feb_21_1209,body_behavioural,3.0.4,60.151735640456984,
0,"“Okay, what's up?”, he said, tilting his head close to her. ",2,1,,,,0,0,0,0,,,,,0,11,11,11,,,,,,,,,,,,,,1,0.01880725299997721,,,,,,mango,001,2019_Feb_21_1209,body_behavioural,3.0.4,60.151735640456984,
0," “Henry, I don’t think I can do long distance.",2,2,,,,0,0,0,0,,,,,0,12,12,12,,,,,,,,,,,,,,9,0.050180676999843854,,,,,,mango,001,2019_Feb_21_1209,body_behavioural,3.0.4,60.151735640456984,
0,"I think what we have here is great, but I think it will be really hard when we are so far apart for such an extended period.",2,2,,,,0,0,0,0,,,,,0,13,13,13,,,,,,,,,,,,,,1,0.0525801449998653,,,,,,mango,001,2019_Feb_21_1209,body_behavioural,3.0.4,60.151735640456984,
0,"I’m sorry I’m telling you now in lecture, but I'm out of time, and it’s taken me awhile to come to this decision.",2,2,,,,0,0,0,0,,,,,0,14,14,14,,,,,,,,,,,,,,9,0.13646923300029812,,,,,,mango,001,2019_Feb_21_1209,body_behavioural,3.0.4,60.151735640456984,
0,"I really think this is best, and who knows what will happen when I get back from my study abroad.” ",2,2,,,,0,0,0,0,,,,,0,15,15,15,,,,,,,,,,,,,,9,0.10314396000012493,,,,,,mango,001,2019_Feb_21_1209,body_behavioural,3.0.4,60.151735640456984,
0,"While Henry tried to think of what to say, he and Maria stared unlistening at the professor as he started the lecture, “First we will talk about Aristotle’s work, The Categories, which is about the kinds, or categories, of things that there are.",3,2,,,,0,0,0,0,,,,,0,16,16,16,,,,,,,,,,,,,,1,0.03461486199967112,,,,,,mango,001,2019_Feb_21_1209,body_behavioural,3.0.4,60.151735640456984,
0,"In fact, our term category comes from this Aristotelian context.” ",3,2,,,,0,0,0,0,,,,,0,17,17,17,,,,,,,,,,,,,,9,0.03655038800025068,,,,,,mango,001,2019_Feb_21_1209,body_behavioural,3.0.4,60.151735640456984,
0,"Henry felt horrible, like the wind had just been knocked out of him.",3,2,,,,0,0,0,0,,,,,0,18,18,18,,,,,,,,,,,,,,1,0.16736787699983324,,,,,,mango,001,2019_Feb_21_1209,body_behavioural,3.0.4,60.151735640456984,
0,"A few tears started to fall down his cheeks as he whispered back, “Maria, I think we can make it work.",3,3,,,,0,0,0,0,,,,,0,19,19,19,,,,,,,,,,,,,,9,0.00311900999986392,,,,,,mango,001,2019_Feb_21_1209,body_behavioural,3.0.4,60.151735640456984,
0,I’ll come visit you.,3,3,,,,0,0,0,0,,,,,0,20,20,20,,,,,,,,,,,,,,9,0.1365052179999111,,,,,,mango,001,2019_Feb_21_1209,body_behavioural,3.0.4,60.151735640456984,
0,It will be fine.,3,3,,,,0,0,0,0,,,,,0,21,21,21,,,,,,,,,,,,,,None,,,,,,,mango,001,2019_Feb_21_1209,body_behavioural,3.0.4,60.151735640456984,
0,,,,,,,0,0,0,0,,,,,,,,,,,,,,,,,,,,,,,,,,,,,mango,001,2019_Feb_21_1209,body_behavioural,3.0.4,60.151735640456984,
1,,,,,,,0,1,1,1,0,0,0,0,,,,,,,,,,,,space,0.43535627399978694,space,0.30297283699974287,space,0.5361407519999375,,,,,,,,mango,001,2019_Feb_21_1209,body_behavioural,3.0.4,60.151735640456984,
1,"Simon and Carina noticed each other as they walked into the grocery store at the same time, their carts nearly colliding as they squeezed into the entrance.",1,1,,,,0,1,1,1,,,,,0,0,0,0,,,,,,,,,,,,,,None,,,,,,,mango,001,2019_Feb_21_1209,body_behavioural,3.0.4,60.151735640456984,
1,,,,,,,0,1,1,1,,,,,,,,,,,,,,,,,,,,,,,,,,,,,mango,001,2019_Feb_21_1209,body_behavioural,3.0.4,60.151735640456984,
2,,,,,,,0,2,2,2,0,0,0,0,,,,,,,,,,,,space,0.40301248200012196,space,0.4027404849998675,space,0.436675545000071,,,,,,,,mango,001,2019_Feb_21_1209,body_behavioural,3.0.4,60.151735640456984,
2,"Alex was a distracted, sweaty mess as he walked into the grocery store with Chloe; he was hoping that she wouldn't suspect that he was about to propose.",1,1,,,,0,2,2,2,,,,,0,0,0,0,,,,,,,,,,,,,,None,,,,,,,mango,001,2019_Feb_21_1209,body_behavioural,3.0.4,60.151735640456984,
2,,,,,,,0,2,2,2,,,,,,,,,,,,,,,,,,,,,,,,,,,,,mango,001,2019_Feb_21_1209,body_behavioural,3.0.4,60.151735640456984,
3,,,,,,,0,3,3,3,0,0,0,0,,,,,,,,,,,,space,0.5357395159999214,space,0.35254298000018025,space,0.353147017000083,,,,,,,,mango,001,2019_Feb_21_1209,body_behavioural,3.0.4,60.151735640456984,
3,Charlie saw Alma as they walked into class and he motioned for her to come sit in the back next to him: they had business to discuss.,1,1,,,,0,3,3,3,,,,,0,0,0,0,,,,,,,,,,,,,,None,,,,,,,mango,001,2019_Feb_21_1209,body_behavioural,3.0.4,60.151735640456984,
3,,,,,,,0,3,3,3,,,,,,,,,,,,,,,,,,,,,,,,,,,,,mango,001,2019_Feb_21_1209,body_behavioural,3.0.4,60.151735640456984,
4,,,,,,,0,4,4,4,0,0,0,0,,,,,,,,,,,,space,0.33633633499994176,space,0.4030175530001543,space,0.5532374599997638,,,,,,,,mango,001,2019_Feb_21_1209,body_behavioural,3.0.4,60.151735640456984,
4,Mr. Shelton and Mr. Gordon shook hands inside the foyer of the restaurant: lunch today was about big business. ,1,1,,,,0,4,4,4,,,,,0,0,0,0,,,,,,,,,,,,,,None,,,,,,,mango,001,2019_Feb_21_1209,body_behavioural,3.0.4,60.151735640456984,
4,,,,,,,0,4,4,4,,,,,,,,,,,,,,,,,,,,,,,,,,,,,mango,001,2019_Feb_21_1209,body_behavioural,3.0.4,60.151735640456984,
5,,,,,,,0,5,5,5,0,0,0,0,,,,,,,,,,,,space,0.4030744900001082,space,0.30220522399986294,space,0.7526832879998437,,,,,,,,mango,001,2019_Feb_21_1209,body_behavioural,3.0.4,60.151735640456984,
5,"Thomas, dreading the conversation he was about to have, got to Annika’s Finer Diner early.",1,1,None,None,,0,5,5,5,,,,,0,0,0,0,,,,,,,,,,,,,,None,,,,,,,mango,001,2019_Feb_21_1209,body_behavioural,3.0.4,60.151735640456984,
5,,,,,,,0,5,5,5,,,,,,,,,,,,,,,,,,,,,,,,,,,,,mango,001,2019_Feb_21_1209,body_behavioural,3.0.4,60.151735640456984,
6,,,,,,,0,6,6,6,0,0,0,0,,,,,,,,,,,,space,0.21975580299977082,space,0.43472859600024094,space,0.21921768499987593,,,,,,,,mango,001,2019_Feb_21_1209,body_behavioural,3.0.4,60.151735640456984,
6,David saw Anna for the first time when she burst into the airport with her bag skidding behind her half-zipped. ,1,1,,,,0,6,6,6,,,,,0,0,0,0,,,,,,,,,,,,,,None,,,,,,,mango,001,2019_Feb_21_1209,body_behavioural,3.0.4,60.151735640456984,
6,,,,,,,0,6,6,6,,,,,,,,,,,,,,,,,,,,,,,,,,,,,mango,001,2019_Feb_21_1209,body_behavioural,3.0.4,60.151735640456984,
,,,,,,,,,,,,,,,,,,,,,,,,,,,,,,,,,,37.10378738700001,space,0.2366434420000587,,,mango,001,2019_Feb_21_1209,body_behavioural,3.0.4,60.151735640456984,
,,,,,,The next task in the experiment is to recall each story to the best of your ability.,,,,,,,,,,,,,0,0,0,0,,,,,,,,,,,,,,,space,1.452719476999846,mango,001,2019_Feb_21_1209,body_behavioural,3.0.4,60.151735640456984,
,,,,,,"You will be presented with the story title, names, the images, and a blank text box for each story.",,,,,,,,,,,,,0,1,1,1,,,,,,,,,,,,,,,space,0.4194423139997525,mango,001,2019_Feb_21_1209,body_behavioural,3.0.4,60.151735640456984,
