count,storyText,locationEvent,socialEvent,locationEventSize,socialEventSize,instructText,trials.thisRepN,trials.thisTrialN,trials.thisN,trials.thisIndex,trials_7.thisRepN,trials_7.thisTrialN,trials_7.thisN,trials_7.thisIndex,trials_2.thisRepN,trials_2.thisTrialN,trials_2.thisN,trials_2.thisIndex,trials_3.thisRepN,trials_3.thisTrialN,trials_3.thisN,trials_3.thisIndex,trials_4.thisRepN,trials_4.thisTrialN,trials_4.thisN,trials_4.thisIndex,trials_5.thisRepN,trials_5.thisTrialN,trials_5.thisN,trials_5.thisIndex,trials_6.thisRepN,trials_6.thisTrialN,trials_6.thisN,trials_6.thisIndex,order of stories,order of perspectives,second half of x,key_resp_8.keys,key_resp_8.rt,key_resp_5.keys,key_resp_5.rt,key_resp_7.keys,key_resp_7.rt,key_resp_14.keys,key_resp_14.rt,story_presses.keys,story time,key_resp_6.keys,key_resp_6.rt,key_resp_2.keys,key_resp_2.rt,key_resp_10.keys,key_resp_10.rt,recall,recall time,key_resp_12.keys,key_resp_12.rt,key_resp_3.keys,key_resp_3.rt,key_resp_11.keys,key_resp_11.rt,question1_answer,order of question,question2_answer,question3_answer,question4_answer,question5_answer,question6_answer,question7_answer,question8_answer,participant,session,date,expName,psychopyVersion,frameRate,
0,,,,,,,0,0,0,0,0,0,0,0,,,,,,,,,,,,,,,,,,,,,[12 43 41 34 32 21 14 23],"['Location' 'Social' 'Location' 'Location' 'Social' 'Social' 'Social'
 'Location']",091019,space,0.7883960880003542,space,0.35068043000001126,space,0.9363158599999224,,,,,,,,,,,,,,,,,,,,,,,,,,,,SECONDTEST,001,2019_Feb_20_1452,SECONDPART_body_behavioural,3.0.4,60.17724485348932,
0,"It didn’t help the situation that Calvin and Jessie were running late to the airport, since Jessie had already been fuming at Calvin and preparing to end things with him.",1,1,,,,0,0,0,0,,,,,0,0,0,0,,,,,,,,,,,,,,,,,,,,,,,,,,space,4.420383260000108,None,,,,,,,,,,,,,,,,,,,,,,,,,SECONDTEST,001,2019_Feb_20_1452,SECONDPART_body_behavioural,3.0.4,60.17724485348932,
0,,,,,,,0,0,0,0,,,,,,,,,,,,,,,,,,,,,,,,,,,,,,,,,,space,0.5861456170000565,,,,,,,,,,,,,,,,,,,,,,,,,,SECONDTEST,001,2019_Feb_20_1452,SECONDPART_body_behavioural,3.0.4,60.17724485348932,
1,,,,,,,0,1,1,1,0,0,0,0,,,,,,,,,,,,,,,,,,,,,,,,space,1.3034755369999402,space,1.836514155000259,space,0.3697786149996318,,,,,,,,,,,,,,,,,,,,,,,,,,,,SECONDTEST,001,2019_Feb_20_1452,SECONDPART_body_behavioural,3.0.4,60.17724485348932,
1,"Simon and Carina noticed each other as they walked into the grocery store at the same time, their carts nearly colliding as they squeezed into the entrance.",1,1,,,,0,1,1,1,,,,,0,0,0,0,,,,,,,,,,,,,,,,,,,,,,,,,,space,1.2862936900000932,None,,,,,,,,,,,,,,,,,,,,,,,,,SECONDTEST,001,2019_Feb_20_1452,SECONDPART_body_behavioural,3.0.4,60.17724485348932,
1,,,,,,,0,1,1,1,,,,,,,,,,,,,,,,,,,,,,,,,,,,,,,,,,space,0.5036382520002007,,,,,,,,,,,,,,,,,,,,,,,,,,SECONDTEST,001,2019_Feb_20_1452,SECONDPART_body_behavioural,3.0.4,60.17724485348932,
2,,,,,,,0,2,2,2,0,0,0,0,,,,,,,,,,,,,,,,,,,,,,,,space,1.0696313420003207,space,0.4192735149999862,space,0.453428453000015,,,,,,,,,,,,,,,,,,,,,,,,,,,,SECONDTEST,001,2019_Feb_20_1452,SECONDPART_body_behavioural,3.0.4,60.17724485348932,
2,"James noticed Teresa immediately as she walked into the restaurant - or, more accurately as she attempted to walk into the restaurant. ",1,1,,,,0,2,2,2,,,,,0,0,0,0,,,,,,,,,,,,,,,,,,,,,,,,,,space,0.6176921999999649,None,,,,,,,,,,,,,,,,,,,,,,,,,SECONDTEST,001,2019_Feb_20_1452,SECONDPART_body_behavioural,3.0.4,60.17724485348932,
2,,,,,,,0,2,2,2,,,,,,,,,,,,,,,,,,,,,,,,,,,,,,,,,,space,0.6862971729997298,,,,,,,,,,,,,,,,,,,,,,,,,,SECONDTEST,001,2019_Feb_20_1452,SECONDPART_body_behavioural,3.0.4,60.17724485348932,
3,,,,,,,0,3,3,3,0,0,0,0,,,,,,,,,,,,,,,,,,,,,,,,space,1.1499404609999146,space,1.2695918520003033,space,0.6196339749999424,,,,,,,,,,,,,,,,,,,,,,,,,,,,SECONDTEST,001,2019_Feb_20_1452,SECONDPART_body_behavioural,3.0.4,60.17724485348932,
3,Charlie saw Alma as they walked into class and he motioned for her to come sit in the back next to him: they had business to discuss.,1,1,,,,0,3,3,3,,,,,0,0,0,0,,,,,,,,,,,,,,,,,,,,,,,,,,space,1.2363662400002795,None,,,,,,,,,,,,,,,,,,,,,,,,,SECONDTEST,001,2019_Feb_20_1452,SECONDPART_body_behavioural,3.0.4,60.17724485348932,
3,,,,,,,0,3,3,3,,,,,,,,,,,,,,,,,,,,,,,,,,,,,,,,,,space,0.4196529900000314,,,,,,,,,,,,,,,,,,,,,,,,,,SECONDTEST,001,2019_Feb_20_1452,SECONDPART_body_behavioural,3.0.4,60.17724485348932,
4,,,,,,,0,4,4,4,0,0,0,0,,,,,,,,,,,,,,,,,,,,,,,,space,1.0526755099999718,space,1.286281449999933,space,0.6529404899997644,,,,,,,,,,,,,,,,,,,,,,,,,,,,SECONDTEST,001,2019_Feb_20_1452,SECONDPART_body_behavioural,3.0.4,60.17724485348932,
4,"Jeff, hoping that today would be a pivotal day for his new business, had only been waiting inside the doors of the airport for a few minutes when he saw William and eagerly waved him over. ",1,1,,,,0,4,4,4,,,,,0,0,0,0,,,,,,,,,,,,,,,,,,,,,,,,,,space,1.0674275000001217,None,,,,,,,,,,,,,,,,,,,,,,,,,SECONDTEST,001,2019_Feb_20_1452,SECONDPART_body_behavioural,3.0.4,60.17724485348932,
4,,,,,,,0,4,4,4,,,,,,,,,,,,,,,,,,,,,,,,,,,,,,,,,,space,0.3357301500000176,,,,,,,,,,,,,,,,,,,,,,,,,,SECONDTEST,001,2019_Feb_20_1452,SECONDPART_body_behavioural,3.0.4,60.17724485348932,
5,,,,,,,0,5,5,5,0,0,0,0,,,,,,,,,,,,,,,,,,,,,,,,space,0.5361896730000808,space,0.619701812999665,space,0.45213906700018924,,,,,,,,,,,,,,,,,,,,,,,,,,,,SECONDTEST,001,2019_Feb_20_1452,SECONDPART_body_behavioural,3.0.4,60.17724485348932,
5,"Alvira and Senna walked into the restaurant hand in sweaty hand with quite different expectations: Senna was going to propose tonight, and Alvira had no idea.",1,1,None,None,,0,5,5,5,,,,,0,0,0,0,,,,,,,,,,,,,,,,,,,,,,,,,,space,0.6529163400000471,None,,,,,,,,,,,,,,,,,,,,,,,,,SECONDTEST,001,2019_Feb_20_1452,SECONDPART_body_behavioural,3.0.4,60.17724485348932,
5,,,,,,,0,5,5,5,,,,,,,,,,,,,,,,,,,,,,,,,,,,,,,,,,space,0.7024980250002955,,,,,,,,,,,,,,,,,,,,,,,,,,SECONDTEST,001,2019_Feb_20_1452,SECONDPART_body_behavioural,3.0.4,60.17724485348932,
6,,,,,,,0,6,6,6,0,0,0,0,,,,,,,,,,,,,,,,,,,,,,,,space,0.43569944199998645,space,0.47017103300004237,space,0.36955229500017595,,,,,,,,,,,,,,,,,,,,,,,,,,,,SECONDTEST,001,2019_Feb_20_1452,SECONDPART_body_behavioural,3.0.4,60.17724485348932,
6,"Maria walked into lecture beside Henry, and she was mentally rehearsing what she should say to break up with him.",1,1,,,,0,6,6,6,,,,,0,0,0,0,,,,,,,,,,,,,,,,,,,,,,,,,,space,0.6696594150002966,None,,,,,,,,,,,,,,,,,,,,,,,,,SECONDTEST,001,2019_Feb_20_1452,SECONDPART_body_behavioural,3.0.4,60.17724485348932,
6,,,,,,,0,6,6,6,,,,,,,,,,,,,,,,,,,,,,,,,,,,,,,,,,space,0.4364756129998568,,,,,,,,,,,,,,,,,,,,,,,,,,SECONDTEST,001,2019_Feb_20_1452,SECONDPART_body_behavioural,3.0.4,60.17724485348932,
7,,,,,,,0,7,7,7,0,0,0,0,,,,,,,,,,,,,,,,,,,,,,,,space,0.4030661649999274,space,0.602982924999651,space,0.5696086120001382,,,,,,,,,,,,,,,,,,,,,,,,,,,,SECONDTEST,001,2019_Feb_20_1452,SECONDPART_body_behavioural,3.0.4,60.17724485348932,
7,"Alex was a distracted, sweaty mess as he walked into the grocery store with Chloe; he was hoping that she wouldn't suspect that he was about to propose.",1,1,,,,0,7,7,7,,,,,0,0,0,0,,,,,,,,,,,,,,,,,,,,,,,,,,space,0.9192741319998277,None,,,,,,,,,,,,,,,,,,,,,,,,,SECONDTEST,001,2019_Feb_20_1452,SECONDPART_body_behavioural,3.0.4,60.17724485348932,
7,,,,,,,0,7,7,7,,,,,,,,,,,,,,,,,,,,,,,,,,,,,,,,,,space,0.30266946200026723,,,,,,,,,,,,,,,,,,,,,,,,,,SECONDTEST,001,2019_Feb_20_1452,SECONDPART_body_behavioural,3.0.4,60.17724485348932,
,,,,,,,,,,,,,,,,,,,,,,,,,,,,,,,,,,,,,,,,,,,,,,,223.4815624570001,space,0.3864997549999316,,,,,,,,,,,,,,,,,,,,,,SECONDTEST,001,2019_Feb_20_1452,SECONDPART_body_behavioural,3.0.4,60.17724485348932,
,,,,,,The next task in the experiment is to recall each story to the best of your ability.,,,,,,,,,,,,,0,0,0,0,,,,,,,,,,,,,,,,,,,,,,,,,,,,space,0.4506936150000911,,,,,,,,,,,,,,,,,,,,SECONDTEST,001,2019_Feb_20_1452,SECONDPART_body_behavioural,3.0.4,60.17724485348932,
,,,,,,"You will be presented with the story title, names, the images, and a blank text box for each story.",,,,,,,,,,,,,0,1,1,1,,,,,,,,,,,,,,,,,,,,,,,,,,,,space,0.33666331299991725,,,,,,,,,,,,,,,,,,,,SECONDTEST,001,2019_Feb_20_1452,SECONDPART_body_behavioural,3.0.4,60.17724485348932,
,,,,,,Describe the story with as many details as you can remember in the space provided. ,,,,,,,,,,,,,0,2,2,2,,,,,,,,,,,,,,,,,,,,,,,,,,,,space,0.3195162049996725,,,,,,,,,,,,,,,,,,,,SECONDTEST,001,2019_Feb_20_1452,SECONDPART_body_behavioural,3.0.4,60.17724485348932,
,,,,,,"When you are finished recalling one story, to move onto the next one hit ‘return’. ",,,,,,,,,,,,,0,3,3,3,,,,,,,,,,,,,,,,,,,,,,,,,,,,space,0.33653833000016675,,,,,,,,,,,,,,,,,,,,SECONDTEST,001,2019_Feb_20_1452,SECONDPART_body_behavioural,3.0.4,60.17724485348932,
,,,,,,There is a 5 minute time limit to make your response. ,,,,,,,,,,,,,0,4,4,4,,,,,,,,,,,,,,,,,,,,,,,,,,,,space,0.3006522599998789,,,,,,,,,,,,,,,,,,,,SECONDTEST,001,2019_Feb_20_1452,SECONDPART_body_behavioural,3.0.4,60.17724485348932,
0,,,,,,,,,,,,,,,,,,,,,,,0,0,0,0,,,,,,,,,,,,,,,,,,,,,,,,,,space,0.5531414649999533,Jdkjsldkfj,,,,,,,,,,,,,,,,,SECONDTEST,001,2019_Feb_20_1452,SECONDPART_body_behavioural,3.0.4,60.17724485348932,
1,,,,,,,,,,,,,,,,,,,,,,,0,1,1,1,,,,,,,,,,,,,,,,,,,,,,,,,,space,0.9698096319998513,Kdjskld,,,,,,,,,,,,,,,,,SECONDTEST,001,2019_Feb_20_1452,SECONDPART_body_behavioural,3.0.4,60.17724485348932,
2,,,,,,,,,,,,,,,,,,,,,,,0,2,2,2,,,,,,,,,,,,,,,,,,,,,,,,,,space,1.2362847620001958,Dksjf,,,,,,,,,,,,,,,,,SECONDTEST,001,2019_Feb_20_1452,SECONDPART_body_behavioural,3.0.4,60.17724485348932,
3,,,,,,,,,,,,,,,,,,,,,,,0,3,3,3,,,,,,,,,,,,,,,,,,,,,,,,,,space,0.636228994999783,Kjlsdfkjd,,,,,,,,,,,,,,,,,SECONDTEST,001,2019_Feb_20_1452,SECONDPART_body_behavioural,3.0.4,60.17724485348932,
4,,,,,,,,,,,,,,,,,,,,,,,0,4,4,4,,,,,,,,,,,,,,,,,,,,,,,,,,space,0.803704087999904,Lkdjfklsd,,,,,,,,,,,,,,,,,SECONDTEST,001,2019_Feb_20_1452,SECONDPART_body_behavioural,3.0.4,60.17724485348932,
5,,,,,,,,,,,,,,,,,,,,,,,0,5,5,5,,,,,,,,,,,,,,,,,,,,,,,,,,space,0.6868023699998957,Kljfskldj,,,,,,,,,,,,,,,,,SECONDTEST,001,2019_Feb_20_1452,SECONDPART_body_behavioural,3.0.4,60.17724485348932,
6,,,,,,,,,,,,,,,,,,,,,,,0,6,6,6,,,,,,,,,,,,,,,,,,,,,,,,,,space,0.6196514450002724,Kjsldkjs,,,,,,,,,,,,,,,,,SECONDTEST,001,2019_Feb_20_1452,SECONDPART_body_behavioural,3.0.4,60.17724485348932,
7,,,,,,,,,,,,,,,,,,,,,,,0,7,7,7,,,,,,,,,,,,,,,,,,,,,,,,,,space,0.5698603979999461, kjsdlfkjs,,,,,,,,,,,,,,,,,SECONDTEST,001,2019_Feb_20_1452,SECONDPART_body_behavioural,3.0.4,60.17724485348932,
,,,,,,,,,,,,,,,,,,,,,,,,,,,,,,,,,,,,,,,,,,,,,,,,,,,,,,,242.74629737099986,space,0.8187772010001027,,,,,,,,,,,,,,SECONDTEST,001,2019_Feb_20_1452,SECONDPART_body_behavioural,3.0.4,60.17724485348932,
,,,,,,The next part of the task is to answer 8 questions about each story.,,,,,,,,,,,,,,,,,,,,,0,0,0,0,,,,,,,,,,,,,,,,,,,,,,,,,,,,space,0.5698576720001256,,,,,,,,,,,,SECONDTEST,001,2019_Feb_20_1452,SECONDPART_body_behavioural,3.0.4,60.17724485348932,
,,,,,,Some of the questions are not related to the perspective you were asked to assume.,,,,,,,,,,,,,,,,,,,,,0,1,1,1,,,,,,,,,,,,,,,,,,,,,,,,,,,,space,0.4671099150000373,,,,,,,,,,,,SECONDTEST,001,2019_Feb_20_1452,SECONDPART_body_behavioural,3.0.4,60.17724485348932,
,,,,,,"We realize that we did not tell you to think of these questions during the story, but do your best to answer them.",,,,,,,,,,,,,,,,,,,,,0,2,2,2,,,,,,,,,,,,,,,,,,,,,,,,,,,,space,0.31936799200002497,,,,,,,,,,,,SECONDTEST,001,2019_Feb_20_1452,SECONDPART_body_behavioural,3.0.4,60.17724485348932,
,,,,,,"When you have finished typing your answer, hit ‘return’ to submit your answer and move onto the next question. ",,,,,,,,,,,,,,,,,,,,,0,3,3,3,,,,,,,,,,,,,,,,,,,,,,,,,,,,space,0.41958733499996015,,,,,,,,,,,,SECONDTEST,001,2019_Feb_20_1452,SECONDPART_body_behavioural,3.0.4,60.17724485348932,
0,,,,,,,,,,,,,,,,,,,,,,,,,,,,,,,0,0,0,0,,,,,,,,,,,,,,,,,,,,Jkljk,,,,,,space,0.767123669999819,Kj,primed first,Kjkljkl,Jklkj,Lkjlkj,Jlk,Lkjlkj,Jl,Jkljk,SECONDTEST,001,2019_Feb_20_1452,SECONDPART_body_behavioural,3.0.4,60.17724485348932,
1,,,,,,,,,,,,,,,,,,,,,,,,,,,,,,,0,1,1,1,,,,,,,,,,,,,,,,,,,,Lkjl,,,,,,space,0.5699444080000831,Jkljk,primed first,Kjl,Jkl,Jkl,Jkl,Jkl,Jlk,Lkjl,SECONDTEST,001,2019_Feb_20_1452,SECONDPART_body_behavioural,3.0.4,60.17724485348932,
2,,,,,,,,,,,,,,,,,,,,,,,,,,,,,,,0,2,2,2,,,,,,,,,,,,,,,,,,,,Jkl,,,,,,space,0.5521176249999371,J,non-primed first,J,J,J,,Jkls,Jl,Jkl,SECONDTEST,001,2019_Feb_20_1452,SECONDPART_body_behavioural,3.0.4,60.17724485348932,
,,,,,,,,,,,,,,,,,,,,,,,,,,,,,,,,,,,,,,,,,,,,,,,,,,,,,,Fjs,,,,,,space,0.7030296550001367,Sdkfjskdl,non-primed first,Jlskdjf,Jskdl,Jkdsl,Fjs,,,,,,,,,,
