count,storyText,locationEvent,socialEvent,storyEvent,locationEventSize,socialEventSize,instructText,trials.thisRepN,trials.thisTrialN,trials.thisN,trials.thisIndex,trials_7.thisRepN,trials_7.thisTrialN,trials_7.thisN,trials_7.thisIndex,trials_2.thisRepN,trials_2.thisTrialN,trials_2.thisN,trials_2.thisIndex,trials_3.thisRepN,trials_3.thisTrialN,trials_3.thisN,trials_3.thisIndex,trials_4.thisRepN,trials_4.thisTrialN,trials_4.thisN,trials_4.thisIndex,trials_5.thisRepN,trials_5.thisTrialN,trials_5.thisN,trials_5.thisIndex,trials_6.thisRepN,trials_6.thisTrialN,trials_6.thisN,trials_6.thisIndex,order of stories,order of perspectives,participant 2 order - stories,participant 2 order  - schemas types,key_resp_5.keys,key_resp_5.rt,key_resp_7.keys,key_resp_7.rt,story_presses.keys,story_presses.rt,key_resp_2.keys,key_resp_2.rt,recall,key_resp_3.keys,key_resp_3.rt,question1_answer,order of question,question2_answer,question3_answer,question4_answer,question5_answer,question6_answer,question7_answer,question8_answer,key_resp_6.keys,key_resp_6.rt,participant,session,date,expName,frameRate,
0,,,,,,,,0,0,0,0,0,0,0,0,,,,,,,,,,,,,,,,,,,,,[43 12 13 34 24 31 42 21 11 23 22 14 44 32 41 33],"['Location' 'Location' 'Social' 'Location' 'Social' 'Social' 'Social'
 'Location' 'Social' 'Location' 'Social' 'Location' 'Social' 'Location'
 'Location' 'Social']",[11 23 22 14 44 32 41 33],"['Social' 'Location' 'Social' 'Location' 'Social' 'Location' 'Location'
 'Social']",space,50.285016495,space,2.9530028009999967,,,,,,,,,,,,,,,,,,,Tara,001,2019_Feb_05_1329,body_behavioural,60.155123943076184,
0,"Simon and Carina noticed each other as they walked into the grocery store at the same time, their carts nearly colliding as they squeezed into the entrance.",1,1,,,,,0,0,0,0,,,,,0,0,0,0,,,,,,,,,,,,,,,,,,,,,,,,,9,41.36562773099999,,,,,,,,,,,,,,,,,Tara,001,2019_Feb_05_1329,body_behavioural,60.155123943076184,
0,"They were both new to the Boston area, and this was their first time in this store. ",1,1,,,,,0,0,0,0,,,,,0,1,1,1,,,,,,,,,,,,,,,,,,,,,,,,,1,13.520049260000008,,,,,,,,,,,,,,,,,Tara,001,2019_Feb_05_1329,body_behavioural,60.155123943076184,
0,"It kind of looked like a large warehouse, with high unfurnished ceilings, industrial lights, and large packages of food. ",1,1,,,,,0,0,0,0,,,,,0,2,2,2,,,,,,,,,,,,,,,,,,,,,,,,,9,33.09511577699999,,,,,,,,,,,,,,,,,Tara,001,2019_Feb_05_1329,body_behavioural,60.155123943076184,
0,"They went off along separate routes, but soon ended up back together in the meat section. ",2,1,,,,,0,0,0,0,,,,,0,3,3,3,,,,,,,,,,,,,,,,,,,,,,,,,1,15.527063303000006,,,,,,,,,,,,,,,,,Tara,001,2019_Feb_05_1329,body_behavioural,60.155123943076184,
0,"They were both preparing for barbecues, so they were looking over the same cuts of meat. ",2,1,,,,,0,0,0,0,,,,,0,4,4,4,,,,,,,,,,,,,,,,,,,,,,,,,1,11.793978039999985,,,,,,,,,,,,,,,,,Tara,001,2019_Feb_05_1329,body_behavioural,60.155123943076184,
0,"Simon really wanted to talk to Carina, and Carina really wanted to say something to Simon, but they felt embarrassed striking up a conversation with a stranger.",2,1,,,,,0,0,0,0,,,,,0,5,5,5,,,,,,,,,,,,,,,,,,,,,,,,,1,25.192974811,,,,,,,,,,,,,,,,,Tara,001,2019_Feb_05_1329,body_behavioural,60.155123943076184,
0,"Carina suddenly turned to Simon and, pointing at a Cornish hen, asked, “Isn’t this meat cute?”",2,2,,,,,0,0,0,0,,,,,0,6,6,6,,,,,,,,,,,,,,,,,,,,,,,,,1,5.002884525000013,,,,,,,,,,,,,,,,,Tara,001,2019_Feb_05_1329,body_behavioural,60.155123943076184,
0,"He laughed, and said, “It is very cute.",2,2,,,,,0,0,0,0,,,,,0,7,7,7,,,,,,,,,,,,,,,,,,,,,,,,,1,1.9023597510000059,,,,,,,,,,,,,,,,,Tara,001,2019_Feb_05_1329,body_behavioural,60.155123943076184,
0,"Probably the younger brother of this guy,” and he picked up a regular-sized chicken.",2,2,,,,,0,0,0,0,,,,,0,8,8,8,,,,,,,,,,,,,,,,,,,,,,,,,1,4.419515934999993,,,,,,,,,,,,,,,,,Tara,001,2019_Feb_05_1329,body_behavioural,60.155123943076184,
0,"“Unlucky family,” she responded. ",2,2,,,,,0,0,0,0,,,,,0,9,9,9,,,,,,,,,,,,,,,,,,,,,,,,,1,1.717548996000005,,,,,,,,,,,,,,,,,Tara,001,2019_Feb_05_1329,body_behavioural,60.155123943076184,
0,They continued to chat as they picked out their groceries.,2,2,,,,,0,0,0,0,,,,,0,10,10,10,,,,,,,,,,,,,,,,,,,,,,,,,1,4.1361958850000065,,,,,,,,,,,,,,,,,Tara,001,2019_Feb_05_1329,body_behavioural,60.155123943076184,
0,"Simon helped Carina pick out the best ribs and his personal favorite barbeque sauce, and she helped him gather the  peppers, onions, and spices for a vegetable kabob she recommended.",2,2,,,,,0,0,0,0,,,,,0,11,11,11,,,,,,,,,,,,,,,,,,,,,,,,,1,7.620308738999995,,,,,,,,,,,,,,,,,Tara,001,2019_Feb_05_1329,body_behavioural,60.155123943076184,
0,"When they were both finished shopping, they went to the checkout area.",3,2,,,,,0,0,0,0,,,,,0,12,12,12,,,,,,,,,,,,,,,,,,,,,,,,,9,5.336758398000029,,,,,,,,,,,,,,,,,Tara,001,2019_Feb_05_1329,body_behavioural,60.155123943076184,
0,"Simon was disappointed to see that the lines were short, since he had been hoping for an excuse to spend more time with Carina.",3,2,,,,,0,0,0,0,,,,,0,13,13,13,,,,,,,,,,,,,,,,,,,,,,,,,1,7.170293200999993,,,,,,,,,,,,,,,,,Tara,001,2019_Feb_05_1329,body_behavioural,60.155123943076184,
0,"They had real chemistry, and both of them could definitely see a future together despite having just met.",3,2,,,,,0,0,0,0,,,,,0,14,14,14,,,,,,,,,,,,,,,,,,,,,,,,,1,12.172029364000025,,,,,,,,,,,,,,,,,Tara,001,2019_Feb_05_1329,body_behavioural,60.155123943076184,
0,"“So you haven’t been around the city much?”, Simon asked. ",3,2,,,,,0,0,0,0,,,,,0,15,15,15,,,,,,,,,,,,,,,,,,,,,,,,,1,4.403347065999981,,,,,,,,,,,,,,,,,Tara,001,2019_Feb_05_1329,body_behavioural,60.155123943076184,
0,"“No, not really.",3,2,,,,,0,0,0,0,,,,,0,16,16,16,,,,,,,,,,,,,,,,,,,,,,,,,1,1.2336735570000315,,,,,,,,,,,,,,,,,Tara,001,2019_Feb_05_1329,body_behavioural,60.155123943076184,
0,I’ve mainly been working and setting up my apartment.”,3,2,,,,,0,0,0,0,,,,,0,17,17,17,,,,,,,,,,,,,,,,,,,,,,,,,1,6.2188489899999695,,,,,,,,,,,,,,,,,Tara,001,2019_Feb_05_1329,body_behavioural,60.155123943076184,
0,"Simon asked her, “Ok well, if you’d like I could pick you up next weekend, and we could go around Harvard Square and get dinner.",3,3,,,,,0,0,0,0,,,,,0,18,18,18,,,,,,,,,,,,,,,,,,,,,,,,,9,7.119820824000044,,,,,,,,,,,,,,,,,Tara,001,2019_Feb_05_1329,body_behavioural,60.155123943076184,
0,"There are a lot of great places around there, and it’s really nice during the summer.",3,3,,,,,0,0,0,0,,,,,0,19,19,19,,,,,,,,,,,,,,,,,,,,,,,,,1,2.4863456749999955,,,,,,,,,,,,,,,,,Tara,001,2019_Feb_05_1329,body_behavioural,60.155123943076184,
0,The Harvard campus is also beautiful.” ,3,3,,,,,0,0,0,0,,,,,0,20,20,20,,,,,,,,,,,,,,,,,,,,,,,,,1,1.3844784229999618,,,,,,,,,,,,,,,,,Tara,001,2019_Feb_05_1329,body_behavioural,60.155123943076184,
0,"Carina smiled, “I’d love to: that sounds great!”",3,3,,,,,0,0,0,0,,,,,0,21,21,21,,,,,,,,,,,,,,,,,,,,,,,,,1,1.7184600539999906,,,,,,,,,,,,,,,,,Tara,001,2019_Feb_05_1329,body_behavioural,60.155123943076184,
0,"She quickly entered her number in his phone, since they only had to wait a couple minutes in line.",3,3,,,,,0,0,0,0,,,,,0,22,22,22,,,,,,,,,,,,,,,,,,,,,,,,,1,2.8693814270000075,,,,,,,,,,,,,,,,,Tara,001,2019_Feb_05_1329,body_behavioural,60.155123943076184,
0,Then it was her turn to check out with the cashier. ,4,3,,,,,0,0,0,0,,,,,0,23,23,23,,,,,,,,,,,,,,,,,,,,,,,,,9,6.635321487999988,,,,,,,,,,,,,,,,,Tara,001,2019_Feb_05_1329,body_behavioural,60.155123943076184,
0,"Simon, wanting to make a gesture of his affection, lifted up the divider on the conveyor belt and said to the cashier, “Actually these are together.",4,3,,,,,0,0,0,0,,,,,0,24,24,24,,,,,,,,,,,,,,,,,,,,,,,,,1,3.9190123490000133,,,,,,,,,,,,,,,,,Tara,001,2019_Feb_05_1329,body_behavioural,60.155123943076184,
0,"Carina, I’ve got it.",4,3,,,,,0,0,0,0,,,,,0,25,25,25,,,,,,,,,,,,,,,,,,,,,,,,,1,1.5855631130000347,,,,,,,,,,,,,,,,,Tara,001,2019_Feb_05_1329,body_behavioural,60.155123943076184,
0,This was kind-of a date today.”,4,3,,,,,0,0,0,0,,,,,0,26,26,26,,,,,,,,,,,,,,,,,,,,,,,,,1,1.8189923170000384,,,,,,,,,,,,,,,,,Tara,001,2019_Feb_05_1329,body_behavioural,60.155123943076184,
0,Carina blushed and laughed; she thought this was ridiculous but also very sweet. ,4,3,,,,,0,0,0,0,,,,,0,27,27,27,,,,,,,,,,,,,,,,,,,,,,,,,1,2.0189945740000326,,,,,,,,,,,,,,,,,Tara,001,2019_Feb_05_1329,body_behavioural,60.155123943076184,
0,"The cashier rolled her eyes when they weren’t looking, and she scanned the rest of his items. ",4,3,,,,,0,0,0,0,,,,,0,28,28,28,,,,,,,,,,,,,,,,,,,,,,,,,1,3.452368036999985,,,,,,,,,,,,,,,,,Tara,001,2019_Feb_05_1329,body_behavioural,60.155123943076184,
0,"The total came to $120, and he paid with his credit card.",4,3,,,,,0,0,0,0,,,,,0,29,29,29,,,,,,,,,,,,,,,,,,,,,,,,,1,3.436306910999974,,,,,,,,,,,,,,,,,Tara,001,2019_Feb_05_1329,body_behavioural,60.155123943076184,
0,"Carina thanked him, and they took the groceries and walked out.",4,3,,,,,0,0,0,0,,,,,0,30,30,30,,,,,,,,,,,,,,,,,,,,,,,,,1,4.486265875000015,,,,,,,,,,,,,,,,,Tara,001,2019_Feb_05_1329,body_behavioural,60.155123943076184,
0,"As they were walking towards the exit, Carina reluctantly said goodbye since she was running late for the barbeque she was hosting that afternoon.",4,4,,,,,0,0,0,0,,,,,0,31,31,31,,,,,,,,,,,,,,,,,,,,,,,,,9,9.070209094999996,,,,,,,,,,,,,,,,,Tara,001,2019_Feb_05_1329,body_behavioural,60.155123943076184,
0,"They hugged and parted ways, stealing glances at each other as they both walked back to their cars.",4,4,,,,,0,0,0,0,,,,,0,32,32,32,,,,,,,,,,,,,,,,,,,,,,,,,1,3.2360992480000164,,,,,,,,,,,,,,,,,Tara,001,2019_Feb_05_1329,body_behavioural,60.155123943076184,
0,,,,,,,,0,0,0,0,,,,,,,,,,,,,,,,,,,,,,,,,,,,,,,,,,,,,,,,,,,,,,,,,,,Tara,001,2019_Feb_05_1329,body_behavioural,60.155123943076184,
1,,,,,,,,0,1,1,1,0,0,0,0,,,,,,,,,,,,,,,,,,,,,,,,,space,7.187050755999962,space,2.401188334999972,,,,,,,,,,,,,,,,,,,Tara,001,2019_Feb_05_1329,body_behavioural,60.155123943076184,
1,"It didn’t help the situation that Calvin and Jessie were running late to the airport, since Jessie had already been fuming at Calvin and preparing to end things with him.",1,1,,,,,0,1,1,1,,,,,0,0,0,0,,,,,,,,,,,,,,,,,,,,,,,,,9,15.406895909000013,,,,,,,,,,,,,,,,,Tara,001,2019_Feb_05_1329,body_behavioural,60.155123943076184,
1,"Upon arriving, they had only 45 minutes until their international flight would depart from Jamaica for the US.",1,1,,,,,0,1,1,1,,,,,0,1,1,1,,,,,,,,,,,,,,,,,,,,,,,,,9,17.075376818999985,,,,,,,,,,,,,,,,,Tara,001,2019_Feb_05_1329,body_behavioural,60.155123943076184,
1,It had been a tough vacation for them.,1,1,,,,,0,1,1,1,,,,,0,2,2,2,,,,,,,,,,,,,,,,,,,,,,,,,1,3.4703149860000053,,,,,,,,,,,,,,,,,Tara,001,2019_Feb_05_1329,body_behavioural,60.155123943076184,
1,"Jessie had really had it with Calvin’s constant ramblings about the same excruciatingly boring golfing and work stories, which he insisted on repeating to her regardless of how little interest she showed.",1,1,,,,,0,1,1,1,,,,,0,3,3,3,,,,,,,,,,,,,,,,,,,,,,,,,1,8.119683924000014,,,,,,,,,,,,,,,,,Tara,001,2019_Feb_05_1329,body_behavioural,60.155123943076184,
1,"Calvin knew that Jessie was upset, but wasn't sure what to do besides attempting to carry on as normal and tell stories that took up the silence. ",1,1,,,,,0,1,1,1,,,,,0,4,4,4,,,,,,,,,,,,,,,,,,,,,,,,,1,6.921852505999993,,,,,,,,,,,,,,,,,Tara,001,2019_Feb_05_1329,body_behavioural,60.155123943076184,
1,"The security line was luckily very short, and once the online boarding passes were scanned they were ushered quickly through the metal detector, not having to take off their shoes or remove the liquids from their bags.",2,1,,,,,0,1,1,1,,,,,0,5,5,5,,,,,,,,,,,,,,,,,,,,,,,,,9,24.608474815000022,,,,,,,,,,,,,,,,,Tara,001,2019_Feb_05_1329,body_behavioural,60.155123943076184,
1,"“The infrastructure of this airport is really quite poor," said Calvin as they waited for their bags to emerge from the x-ray machine.",2,1,,,,,0,1,1,1,,,,,0,6,6,6,,,,,,,,,,,,,,,,,,,,,,,,,1,4.085946011000033,,,,,,,,,,,,,,,,,Tara,001,2019_Feb_05_1329,body_behavioural,60.155123943076184,
1,“I really could've hidden something in my shoes quite easily.” ,2,1,,,,,0,1,1,1,,,,,0,7,7,7,,,,,,,,,,,,,,,,,,,,,,,,,1,2.019522737999978,,,,,,,,,,,,,,,,,Tara,001,2019_Feb_05_1329,body_behavioural,60.155123943076184,
1,"Jessie, exasperated at his need to broadcast his every inner thought, scowled at the conveyor belt.",2,1,,,,,0,1,1,1,,,,,0,8,8,8,,,,,,,,,,,,,,,,,,,,,,,,,1,3.7221903249999286,,,,,,,,,,,,,,,,,Tara,001,2019_Feb_05_1329,body_behavioural,60.155123943076184,
1,"“What?”, he asked.",2,1,,,,,0,1,1,1,,,,,0,9,9,9,,,,,,,,,,,,,,,,,,,,,,,,,1,1.3519309989999329,,,,,,,,,,,,,,,,,Tara,001,2019_Feb_05_1329,body_behavioural,60.155123943076184,
1,She balled up her fists and turned to face him.,2,1,,,,,0,1,1,1,,,,,0,10,10,10,,,,,,,,,,,,,,,,,,,,,,,,,1,2.185048987000073,,,,,,,,,,,,,,,,,Tara,001,2019_Feb_05_1329,body_behavioural,60.155123943076184,
1,"“Calvin, I really don’t think I can do this anymore.",2,2,,,,,0,1,1,1,,,,,0,11,11,11,,,,,,,,,,,,,,,,,,,,,,,,,9,11.188828818000047,,,,,,,,,,,,,,,,,Tara,001,2019_Feb_05_1329,body_behavioural,60.155123943076184,
1,I think it’s best that once we get to the States we part ways for good.” ,2,2,,,,,0,1,1,1,,,,,0,12,12,12,,,,,,,,,,,,,,,,,,,,,,,,,1,2.302420469000026,,,,,,,,,,,,,,,,,Tara,001,2019_Feb_05_1329,body_behavioural,60.155123943076184,
1,Calvin said nothing as he grabbed his bag and quickly walked away.,2,2,,,,,0,1,1,1,,,,,0,13,13,13,,,,,,,,,,,,,,,,,,,,,,,,,1,2.0356446619999815,,,,,,,,,,,,,,,,,Tara,001,2019_Feb_05_1329,body_behavioural,60.155123943076184,
1,"Jessie trailed behind him as they made their way quickly toward their gate, shouting at his back in hopes of getting a response.",3,2,,,,,0,1,1,1,,,,,0,14,14,14,,,,,,,,,,,,,,,,,,,,,,,,,1,15.640636627999925,,,,,,,,,,,,,,,,,Tara,001,2019_Feb_05_1329,body_behavioural,60.155123943076184,
1,“So now you have nothing to say?,3,2,,,,,0,1,1,1,,,,,0,15,15,15,,,,,,,,,,,,,,,,,,,,,,,,,1,2.0015741419999813,,,,,,,,,,,,,,,,,Tara,001,2019_Feb_05_1329,body_behavioural,60.155123943076184,
1,"Every time we talk, you are just looking for a way to steer the conversation back into your stories.”",3,2,,,,,0,1,1,1,,,,,0,16,16,16,,,,,,,,,,,,,,,,,,,,,,,,,1,3.002731338999979,,,,,,,,,,,,,,,,,Tara,001,2019_Feb_05_1329,body_behavioural,60.155123943076184,
1,"Calvin didn't slow his pace, gritting his teeth and staring straight ahead. ",3,2,,,,,0,1,1,1,,,,,0,17,17,17,,,,,,,,,,,,,,,,,,,,,,,,,1,3.42109653,,,,,,,,,,,,,,,,,Tara,001,2019_Feb_05_1329,body_behavioural,60.155123943076184,
1,He was very frustrated that he had been trying to appease Jessie this whole time and this was how she responded. ,3,2,,,,,0,1,1,1,,,,,0,18,18,18,,,,,,,,,,,,,,,,,,,,,,,,,1,4.252557035999985,,,,,,,,,,,,,,,,,Tara,001,2019_Feb_05_1329,body_behavioural,60.155123943076184,
1,The silence was punctuated only by the rapid rhythmic clacking of their suitcase wheels over the tile floor as they continued power-walking through the terminal. ,3,2,,,,,0,1,1,1,,,,,0,19,19,19,,,,,,,,,,,,,,,,,,,,,,,,,1,7.054730715999995,,,,,,,,,,,,,,,,,Tara,001,2019_Feb_05_1329,body_behavioural,60.155123943076184,
1,"“Well?” Jessie said, and Calvin finally turned to her.",3,2,,,,,0,1,1,1,,,,,0,20,20,20,,,,,,,,,,,,,,,,,,,,,,,,,1,2.2675046570000177,,,,,,,,,,,,,,,,,Tara,001,2019_Feb_05_1329,body_behavioural,60.155123943076184,
1,"“Well, Jessie, this makes perfect sense. ",3,3,,,,,0,1,1,1,,,,,0,21,21,21,,,,,,,,,,,,,,,,,,,,,,,,,1,1.301471226999979,,,,,,,,,,,,,,,,,Tara,001,2019_Feb_05_1329,body_behavioural,60.155123943076184,
1,"If you feel this way, then I don’t want to keep boring you, and I agree, let’s part ways once we make it back.",3,3,,,,,0,1,1,1,,,,,0,22,22,22,,,,,,,,,,,,,,,,,,,,,,,,,1,3.3530343950000088,,,,,,,,,,,,,,,,,Tara,001,2019_Feb_05_1329,body_behavioural,60.155123943076184,
1,You should’ve spoken up about my apparent intolerability before you decided to plan this vacation.”,3,3,,,,,0,1,1,1,,,,,0,23,23,23,,,,,,,,,,,,,,,,,,,,,,,,,1,3.98615397399999,,,,,,,,,,,,,,,,,Tara,001,2019_Feb_05_1329,body_behavioural,60.155123943076184,
1,"He was clearly hurt, but thought it was pointless to argue. ",3,3,,,,,0,1,1,1,,,,,0,24,24,24,,,,,,,,,,,,,,,,,,,,,,,,,1,2.268320982999967,,,,,,,,,,,,,,,,,Tara,001,2019_Feb_05_1329,body_behavioural,60.155123943076184,
1,"They finally made it to the gate, just as they heard the final call for passengers boarding their flight.",3,3,,,,,0,1,1,1,,,,,0,25,25,25,,,,,,,,,,,,,,,,,,,,,,,,,9,5.020068156000093,,,,,,,,,,,,,,,,,Tara,001,2019_Feb_05_1329,body_behavioural,60.155123943076184,
1,"They scanned their tickets, and the annoyed flight attendant shooed them onto the jet bridge and then closed the door behind them.",4,3,,,,,0,1,1,1,,,,,0,26,26,26,,,,,,,,,,,,,,,,,,,,,,,,,1,5.353034070000035,,,,,,,,,,,,,,,,,Tara,001,2019_Feb_05_1329,body_behavioural,60.155123943076184,
1,"Luckily, they had forgotten to arrange seats next to each other on the flight back.",4,3,,,,,0,1,1,1,,,,,0,27,27,27,,,,,,,,,,,,,,,,,,,,,,,,,9,11.17848037500005,,,,,,,,,,,,,,,,,Tara,001,2019_Feb_05_1329,body_behavioural,60.155123943076184,
1,"They both had first-class tickets, but Jessie was headed for seat 1B while Calvin's seat was 4F. ",4,3,,,,,0,1,1,1,,,,,0,28,28,28,,,,,,,,,,,,,,,,,,,,,,,,,1,28.026682246000064,,,,,,,,,,,,,,,,,Tara,001,2019_Feb_05_1329,body_behavioural,60.155123943076184,
1,"Before Jessie sat down, she took a deep breath and then awkwardly shook Calvin’s hand, mumbling, “Well, have a nice flight.” ",4,4,,,,,0,1,1,1,,,,,0,29,29,29,,,,,,,,,,,,,,,,,,,,,,,,,1,3.852894005000053,,,,,,,,,,,,,,,,,Tara,001,2019_Feb_05_1329,body_behavioural,60.155123943076184,
1,He laughed in disbelief and walked to his window seat three rows back to get ready for takeoff.,4,4,,,,,0,1,1,1,,,,,0,30,30,30,,,,,,,,,,,,,,,,,,,,,,,,,1,4.518690793000019,,,,,,,,,,,,,,,,,Tara,001,2019_Feb_05_1329,body_behavioural,60.155123943076184,
1,Both were upset but glad that they would have this flight to mull things over and recenter. ,4,4,,,,,0,1,1,1,,,,,0,31,31,31,,,,,,,,,,,,,,,,,,,,,,,,,1,4.702978831999985,,,,,,,,,,,,,,,,,Tara,001,2019_Feb_05_1329,body_behavioural,60.155123943076184,
1,,,,,,,,0,1,1,1,,,,,,,,,,,,,,,,,,,,,,,,,,,,,,,,,,,,,,,,,,,,,,,,,,,Tara,001,2019_Feb_05_1329,body_behavioural,60.155123943076184,
2,,,,,,,,0,2,2,2,0,0,0,0,,,,,,,,,,,,,,,,,,,,,,,,,space,3.6198781229999213,space,3.8024583750000147,,,,,,,,,,,,,,,,,,,Tara,001,2019_Feb_05_1329,body_behavioural,60.155123943076184,
2,The grocery store was not the place Emmanuella and Liam wanted to be at the moment considering they had been fighting beforehand to the point where Emmanuella was thinking of breaking up with Liam.,1,1,,,,,0,2,2,2,,,,,0,0,0,0,,,,,,,,,,,,,,,,,,,,,,,,,9,9.869902352000054,,,,,,,,,,,,,,,,,Tara,001,2019_Feb_05_1329,body_behavioural,60.155123943076184,
2,"However, they had to go grocery shopping because they were hosting a dinner party for friends that evening and had no groceries. ",1,1,,,,,0,2,2,2,,,,,0,1,1,1,,,,,,,,,,,,,,,,,,,,,,,,,1,5.419093841000063,,,,,,,,,,,,,,,,,Tara,001,2019_Feb_05_1329,body_behavioural,60.155123943076184,
2,The grocery store was dimly lit and had dark wood paneling for all the shelves.,1,1,,,,,0,2,2,2,,,,,0,2,2,2,,,,,,,,,,,,,,,,,,,,,,,,,1,3.269349477999981,,,,,,,,,,,,,,,,,Tara,001,2019_Feb_05_1329,body_behavioural,60.155123943076184,
2,"The store specialized in organic produce and products catering to desires for high-end products, such as imported cheeses and sauces. ",1,1,,,,,0,2,2,2,,,,,0,3,3,3,,,,,,,,,,,,,,,,,,,,,,,,,1,5.018779112000061,,,,,,,,,,,,,,,,,Tara,001,2019_Feb_05_1329,body_behavioural,60.155123943076184,
2,"Emmanuella felt angry as she headed immediately for the pasta section, and Liam trailed behind her. ",2,1,,,,,0,2,2,2,,,,,0,4,4,4,,,,,,,,,,,,,,,,,,,,,,,,,1,6.921027745999936,,,,,,,,,,,,,,,,,Tara,001,2019_Feb_05_1329,body_behavioural,60.155123943076184,
2,Emmanuella selected a few boxes of linguine.,2,1,,,,,0,2,2,2,,,,,0,5,5,5,,,,,,,,,,,,,,,,,,,,,,,,,1,1.5840523209999446,,,,,,,,,,,,,,,,,Tara,001,2019_Feb_05_1329,body_behavioural,60.155123943076184,
2,"“I guess we are having pasta tonight,” Liam said.",2,1,,,,,0,2,2,2,,,,,0,6,6,6,,,,,,,,,,,,,,,,,,,,,,,,,1,1.749459193000007,,,,,,,,,,,,,,,,,Tara,001,2019_Feb_05_1329,body_behavioural,60.155123943076184,
2,"Emmanuella looked back at him and said, “Well if you were going to actually help cook, I would be fine with something else.”",2,1,,,,,0,2,2,2,,,,,0,7,7,7,,,,,,,,,,,,,,,,,,,,,,,,,1,5.604726372999949,,,,,,,,,,,,,,,,,Tara,001,2019_Feb_05_1329,body_behavioural,60.155123943076184,
2,"Liam sighed, and finally said, “You don’t want me to help.",2,1,,,,,0,2,2,2,,,,,0,8,8,8,,,,,,,,,,,,,,,,,,,,,,,,,1,2.552032613999927,,,,,,,,,,,,,,,,,Tara,001,2019_Feb_05_1329,body_behavioural,60.155123943076184,
2,"I try to, but it seems like I always get in the way!” ",2,1,,,,,0,2,2,2,,,,,0,9,9,9,,,,,,,,,,,,,,,,,,,,,,,,,1,2.6196530600000187,,,,,,,,,,,,,,,,,Tara,001,2019_Feb_05_1329,body_behavioural,60.155123943076184,
2,"Emmanuella angrily threw the pasta into the cart, losing her temper.",2,1,,,,,0,2,2,2,,,,,0,10,10,10,,,,,,,,,,,,,,,,,,,,,,,,,1,3.1860245990000067,,,,,,,,,,,,,,,,,Tara,001,2019_Feb_05_1329,body_behavioural,60.155123943076184,
2," “Liam, you don’t even try!",2,1,,,,,0,2,2,2,,,,,0,11,11,11,,,,,,,,,,,,,,,,,,,,,,,,,1,1.8027433559999508,,,,,,,,,,,,,,,,,Tara,001,2019_Feb_05_1329,body_behavioural,60.155123943076184,
2,You know what?,2,1,,,,,0,2,2,2,,,,,0,12,12,12,,,,,,,,,,,,,,,,,,,,,,,,,1,1.616278500999897,,,,,,,,,,,,,,,,,Tara,001,2019_Feb_05_1329,body_behavioural,60.155123943076184,
2,I don’t think I can do this anymore. ,2,2,,,,,0,2,2,2,,,,,0,13,13,13,,,,,,,,,,,,,,,,,,,,,,,,,9,1.6823742430000266,,,,,,,,,,,,,,,,,Tara,001,2019_Feb_05_1329,body_behavioural,60.155123943076184,
2,"I was going to wait until after this unfortunately-timed dinner party tonight to talk about this, but I might as well say it now: I don’t want to be in a relationship with you anymore.",2,2,,,,,0,2,2,2,,,,,0,14,14,14,,,,,,,,,,,,,,,,,,,,,,,,,1,6.270110592000037,,,,,,,,,,,,,,,,,Tara,001,2019_Feb_05_1329,body_behavioural,60.155123943076184,
2," I’m tired of the constant fighting, and I feel like when we try to do anything fun anymore it ends up unpleasant for the stupidest reasons, and I am just past  trying to work things out.”",2,2,,,,,0,2,2,2,,,,,0,15,15,15,,,,,,,,,,,,,,,,,,,,,,,,,1,10.15479402099993,,,,,,,,,,,,,,,,,Tara,001,2019_Feb_05_1329,body_behavioural,60.155123943076184,
2,"Liam refused to look at her as she picked out sauces for the pasta, and then she threw up her hands, saying, “You know what, if this party is still happening we are going to just eat pasta.”",2,2,,,,,0,2,2,2,,,,,0,16,16,16,,,,,,,,,,,,,,,,,,,,,,,,,9,16.422847011000044,,,,,,,,,,,,,,,,,Tara,001,2019_Feb_05_1329,body_behavioural,60.155123943076184,
2,They headed to the checkout area where there was only one station open but it was not crowded at all.,3,2,,,,,0,2,2,2,,,,,0,17,17,17,,,,,,,,,,,,,,,,,,,,,,,,,1,7.123309449000089,,,,,,,,,,,,,,,,,Tara,001,2019_Feb_05_1329,body_behavioural,60.155123943076184,
2,Emmanuella sighed and got in line while Liam pretended to be interested in the magazine racks as he thought. ,3,2,,,,,0,2,2,2,,,,,0,18,18,18,,,,,,,,,,,,,,,,,,,,,,,,,1,4.786314804000085,,,,,,,,,,,,,,,,,Tara,001,2019_Feb_05_1329,body_behavioural,60.155123943076184,
2,"Finally he turned to her and sighed, “Yes, I was thinking the same thing - I think we could definitely be happier with other people.” ",3,3,,,,,0,2,2,2,,,,,0,19,19,19,,,,,,,,,,,,,,,,,,,,,,,,,1,7.20469653400005,,,,,,,,,,,,,,,,,Tara,001,2019_Feb_05_1329,body_behavioural,60.155123943076184,
2,"As if she hadn't heard him, Emmanuella looked at their cart and said, “I'm not sure this will be enough, could you grab another box of pasta?”",3,3,,,,,0,2,2,2,,,,,0,20,20,20,,,,,,,,,,,,,,,,,,,,,,,,,1,12.554588234999983,,,,,,,,,,,,,,,,,Tara,001,2019_Feb_05_1329,body_behavioural,60.155123943076184,
2, Liam scoffed and walked off to quickly get it.,3,3,,,,,0,2,2,2,,,,,0,21,21,21,,,,,,,,,,,,,,,,,,,,,,,,,1,1.7358753190000016,,,,,,,,,,,,,,,,,Tara,001,2019_Feb_05_1329,body_behavioural,60.155123943076184,
2,"As Emmanuella waited in line, she took a moment to compose herself, deciding that there was no reason to continue making a scene in the store. ",3,3,,,,,0,2,2,2,,,,,0,22,22,22,,,,,,,,,,,,,,,,,,,,,,,,,9,10.02123954199999,,,,,,,,,,,,,,,,,Tara,001,2019_Feb_05_1329,body_behavioural,60.155123943076184,
2," Right when Liam came back with the pasta, the cashier started scanning their groceries.",4,3,,,,,0,2,2,2,,,,,0,23,23,23,,,,,,,,,,,,,,,,,,,,,,,,,1,2.9581267400000115,,,,,,,,,,,,,,,,,Tara,001,2019_Feb_05_1329,body_behavioural,60.155123943076184,
2,"The cost came to $30, and Emmanuella paid with her credit card.",4,3,,,,,0,2,2,2,,,,,0,24,24,24,,,,,,,,,,,,,,,,,,,,,,,,,1,4.653621921999957,,,,,,,,,,,,,,,,,Tara,001,2019_Feb_05_1329,body_behavioural,60.155123943076184,
2,"She asked Liam politely to take the bags, and he obliged, following her to toward the exit. ",4,3,,,,,0,2,2,2,,,,,0,25,25,25,,,,,,,,,,,,,,,,,,,,,,,,,1,7.48772266200001,,,,,,,,,,,,,,,,,Tara,001,2019_Feb_05_1329,body_behavioural,60.155123943076184,
2,"“Liam, I think we are making the right decision.",4,4,,,,,0,2,2,2,,,,,0,26,26,26,,,,,,,,,,,,,,,,,,,,,,,,,9,4.5840752990000055,,,,,,,,,,,,,,,,,Tara,001,2019_Feb_05_1329,body_behavioural,60.155123943076184,
2,This is good.” ,4,4,,,,,0,2,2,2,,,,,0,27,27,27,,,,,,,,,,,,,,,,,,,,,,,,,1,1.4183853079999835,,,,,,,,,,,,,,,,,Tara,001,2019_Feb_05_1329,body_behavioural,60.155123943076184,
2,"“I agree,” he said, visibly relieved at the thought that they had gotten through the last fight they would ever need to have.",4,4,,,,,0,2,2,2,,,,,0,28,28,28,,,,,,,,,,,,,,,,,,,,,,,,,1,3.5854072710000082,,,,,,,,,,,,,,,,,Tara,001,2019_Feb_05_1329,body_behavioural,60.155123943076184,
2,"“I think we can still host this dinner tonight, as long as you're still on board,” Emmanuella said.",4,4,,,,,0,2,2,2,,,,,0,29,29,29,,,,,,,,,,,,,,,,,,,,,,,,,1,2.2228052609999622,,,,,,,,,,,,,,,,,Tara,001,2019_Feb_05_1329,body_behavioural,60.155123943076184,
2,"Liam nodded, “Yes, let’s just not tell anyone yet.” ",4,4,,,,,0,2,2,2,,,,,0,30,30,30,,,,,,,,,,,,,,,,,,,,,,,,,1,1.518563988999972,,,,,,,,,,,,,,,,,Tara,001,2019_Feb_05_1329,body_behavioural,60.155123943076184,
2,"Emmanuella laughed, “Whoever leaks it loses their rights to the cat.”",4,4,,,,,0,2,2,2,,,,,0,31,31,31,,,,,,,,,,,,,,,,,,,,,,,,,1,2.5343633940000245,,,,,,,,,,,,,,,,,Tara,001,2019_Feb_05_1329,body_behavioural,60.155123943076184,
2,"Liam rolled his eyes and managed a weak chuckle, knowing the cat would be a whole other issue to sort out later.
",4,4,,,,,0,2,2,2,,,,,0,32,32,32,,,,,,,,,,,,,,,,,,,,,,,,,1,5.951852024999994,,,,,,,,,,,,,,,,,Tara,001,2019_Feb_05_1329,body_behavioural,60.155123943076184,
2,,,,,,,,0,2,2,2,,,,,,,,,,,,,,,,,,,,,,,,,,,,,,,,,,,,,,,,,,,,,,,,,,,Tara,001,2019_Feb_05_1329,body_behavioural,60.155123943076184,
3,,,,,,,,0,3,3,3,0,0,0,0,,,,,,,,,,,,,,,,,,,,,,,,,space,4.236161268000046,space,3.7028349600000183,,,,,,,,,,,,,,,,,,,Tara,001,2019_Feb_05_1329,body_behavioural,60.155123943076184,
3,Charlie saw Alma as they walked into class and he motioned for her to come sit in the back next to him: they had business to discuss.,1,1,,,,,0,3,3,3,,,,,0,0,0,0,,,,,,,,,,,,,,,,,,,,,,,,,9,11.538138555999922,,,,,,,,,,,,,,,,,Tara,001,2019_Feb_05_1329,body_behavioural,60.155123943076184,
3,Charlie and Alma were both economics students with entrepreneurial bents.,1,1,,,,,0,3,3,3,,,,,0,1,1,1,,,,,,,,,,,,,,,,,,,,,,,,,1,7.186099538000008,,,,,,,,,,,,,,,,,Tara,001,2019_Feb_05_1329,body_behavioural,60.155123943076184,
3,They were also both very busy and in the same class.,1,1,,,,,0,3,3,3,,,,,0,2,2,2,,,,,,,,,,,,,,,,,,,,,,,,,1,3.135014955000088,,,,,,,,,,,,,,,,,Tara,001,2019_Feb_05_1329,body_behavioural,60.155123943076184,
3,"After talking at a party, Charlie had discovered that Alma was looking for financing for her web development company.",1,1,,,,,0,3,3,3,,,,,0,3,3,3,,,,,,,,,,,,,,,,,,,,,,,,,9,12.607121429000017,,,,,,,,,,,,,,,,,Tara,001,2019_Feb_05_1329,body_behavioural,60.155123943076184,
3,It was serendipitous because he had been talking with other members of his venture capital group about making an investment. ,1,1,,,,,0,3,3,3,,,,,0,4,4,4,,,,,,,,,,,,,,,,,,,,,,,,,1,7.303051639000046,,,,,,,,,,,,,,,,,Tara,001,2019_Feb_05_1329,body_behavioural,60.155123943076184,
3,"His financial group had come to a decision that morning about Alma’s idea, and he didn't want to wait until after class to discuss the proposal with her. ",1,1,,,,,0,3,3,3,,,,,0,5,5,5,,,,,,,,,,,,,,,,,,,,,,,,,1,8.121973603000015,,,,,,,,,,,,,,,,,Tara,001,2019_Feb_05_1329,body_behavioural,60.155123943076184,
3,"The class was in a large auditorium with small, foldable desks on the side of each cushioned chair. ",1,1,,,,,0,3,3,3,,,,,0,6,6,6,,,,,,,,,,,,,,,,,,,,,,,,,9,13.540660929000069,,,,,,,,,,,,,,,,,Tara,001,2019_Feb_05_1329,body_behavioural,60.155123943076184,
3,"There were large windows on both sides of the hall, and they could see the first flurries of a winter storm starting outside. ",1,1,,,,,0,3,3,3,,,,,0,7,7,7,,,,,,,,,,,,,,,,,,,,,,,,,1,3.185209175999944,,,,,,,,,,,,,,,,,Tara,001,2019_Feb_05_1329,body_behavioural,60.155123943076184,
3,""Here we are at Lecture Seven already in History of the Eternal City," said the professor. ",2,1,,,,,0,3,3,3,,,,,0,8,8,8,,,,,,,,,,,,,,,,,,,,,,,,,1,3.7420123140000214,,,,,,,,,,,,,,,,,Tara,001,2019_Feb_05_1329,body_behavioural,60.155123943076184,
3,""We're going to talk today about the age of the first Roman emperor, Augustus.” ",2,1,,,,,0,3,3,3,,,,,0,9,9,9,,,,,,,,,,,,,,,,,,,,,,,,,1,3.65279736399998,,,,,,,,,,,,,,,,,Tara,001,2019_Feb_05_1329,body_behavioural,60.155123943076184,
3,"She went into some recap of the last lecture, and Charlie took this as an opportunity to start talking to Alma.",2,1,,,,,0,3,3,3,,,,,0,10,10,10,,,,,,,,,,,,,,,,,,,,,,,,,1,5.784306399999991,,,,,,,,,,,,,,,,,Tara,001,2019_Feb_05_1329,body_behavioural,60.155123943076184,
3,"“Okay so I’ve been thinking about your startup idea, and I have talked about it with my fellow investors.",2,2,,,,,0,3,3,3,,,,,0,11,11,11,,,,,,,,,,,,,,,,,,,,,,,,,9,5.052022309999984,,,,,,,,,,,,,,,,,Tara,001,2019_Feb_05_1329,body_behavioural,60.155123943076184,
3,We’d like to invest half of what you originally suggested.,2,2,,,,,0,3,3,3,,,,,0,12,12,12,,,,,,,,,,,,,,,,,,,,,,,,,1,2.8862369910000325,,,,,,,,,,,,,,,,,Tara,001,2019_Feb_05_1329,body_behavioural,60.155123943076184,
3,"Rather than $30,000, we start with $15,000.",2,2,,,,,0,3,3,3,,,,,0,13,13,13,,,,,,,,,,,,,,,,,,,,,,,,,1,2.7856344110000464,,,,,,,,,,,,,,,,,Tara,001,2019_Feb_05_1329,body_behavioural,60.155123943076184,
3,We would see how the company does and then invest the other half later.” ,2,2,,,,,0,3,3,3,,,,,0,14,14,14,,,,,,,,,,,,,,,,,,,,,,,,,1,2.3254872649999925,,,,,,,,,,,,,,,,,Tara,001,2019_Feb_05_1329,body_behavioural,60.155123943076184,
3,"Alma, tapping her pen on her notebook, narrowed her eyes and pursed her lips.",2,2,,,,,0,3,3,3,,,,,0,15,15,15,,,,,,,,,,,,,,,,,,,,,,,,,1,18.32283028500001,,,,,,,,,,,,,,,,,Tara,001,2019_Feb_05_1329,body_behavioural,60.155123943076184,
3,She turned back to the lecture as she considered this.,2,2,,,,,0,3,3,3,,,,,0,16,16,16,,,,,,,,,,,,,,,,,,,,,,,,,1,3.8697574440000153,,,,,,,,,,,,,,,,,Tara,001,2019_Feb_05_1329,body_behavioural,60.155123943076184,
3,"“The senate had conferred upon him the title of Augustus," the professor was saying, "the sacred and revered one, the restorer of traditional values, the city’s new religious leader, the restorer of temples. ",3,2,,,,,0,3,3,3,,,,,0,17,17,17,,,,,,,,,,,,,,,,,,,,,,,,,9,6.837119400000006,,,,,,,,,,,,,,,,,Tara,001,2019_Feb_05_1329,body_behavioural,60.155123943076184,
3,"Augustus also sought to beautify Rome, make it into a new Athens, and dispel the criticisms of Rome as disorganized and ugly.”",3,2,,,,,0,3,3,3,,,,,0,18,18,18,,,,,,,,,,,,,,,,,,,,,,,,,1,5.8046577009999965,,,,,,,,,,,,,,,,,Tara,001,2019_Feb_05_1329,body_behavioural,60.155123943076184,
3,"Alma turned back to Charlie and offered her rebuttal, “I don’t know about that: it’s not going to be possible to implement our ideas effectively unless the project is fully funded. ",3,3,,,,,0,3,3,3,,,,,0,19,19,19,,,,,,,,,,,,,,,,,,,,,,,,,9,5.602767847999985,,,,,,,,,,,,,,,,,Tara,001,2019_Feb_05_1329,body_behavioural,60.155123943076184,
3,We would have to find other investors and that would set us back in our timeline. ,3,3,,,,,0,3,3,3,,,,,0,20,20,20,,,,,,,,,,,,,,,,,,,,,,,,,1,7.992274434000024,,,,,,,,,,,,,,,,,Tara,001,2019_Feb_05_1329,body_behavioural,60.155123943076184,
3,"Our profit projections assumed we'd be starting relatively soon, not months down the line.” ",3,3,,,,,0,3,3,3,,,,,0,21,21,21,,,,,,,,,,,,,,,,,,,,,,,,,1,2.5745604070000354,,,,,,,,,,,,,,,,,Tara,001,2019_Feb_05_1329,body_behavioural,60.155123943076184,
3,They whispered back and forth during the whole class in order to work out a compromise. ,3,3,,,,,0,3,3,3,,,,,0,22,22,22,,,,,,,,,,,,,,,,,,,,,,,,,1,2.639689833000034,,,,,,,,,,,,,,,,,Tara,001,2019_Feb_05_1329,body_behavioural,60.155123943076184,
3,"Finally, the class ended, and the professor dismissed the students with a reminder that the midterm paper was due on Thursday and that they should email their papers to the TA.",4,3,,,,,0,3,3,3,,,,,0,23,23,23,,,,,,,,,,,,,,,,,,,,,,,,,9,47.521874845999946,,,,,,,,,,,,,,,,,Tara,001,2019_Feb_05_1329,body_behavioural,60.155123943076184,
3,"Everyone, except Charlie and Alma, packed up their things and headed out of the lecture hall to get to their next class. ",4,3,,,,,0,3,3,3,,,,,0,24,24,24,,,,,,,,,,,,,,,,,,,,,,,,,1,3.3028352850001284,,,,,,,,,,,,,,,,,Tara,001,2019_Feb_05_1329,body_behavioural,60.155123943076184,
3,"“Alright, so we’ll have the $30,000 wired to you by tomorrow,” Charlie said. ",4,4,,,,,0,3,3,3,,,,,0,25,25,25,,,,,,,,,,,,,,,,,,,,,,,,,9,4.091492764000122,,,,,,,,,,,,,,,,,Tara,001,2019_Feb_05_1329,body_behavioural,60.155123943076184,
3,"This wasn't ideal for Charlie, but Alma had refused to budge, and his investment group had told him they were willing to pay the full amount if necessary. ",4,4,,,,,0,3,3,3,,,,,0,26,26,26,,,,,,,,,,,,,,,,,,,,,,,,,1,5.570598355000129,,,,,,,,,,,,,,,,,Tara,001,2019_Feb_05_1329,body_behavioural,60.155123943076184,
3,"They shook hands, walked out of the now-empty lecture hall, and made plans to sign the official paperwork the next day.",4,4,,,,,0,3,3,3,,,,,0,27,27,27,,,,,,,,,,,,,,,,,,,,,,,,,1,4.168217005000088,,,,,,,,,,,,,,,,,Tara,001,2019_Feb_05_1329,body_behavioural,60.155123943076184,
3,,,,,,,,0,3,3,3,,,,,,,,,,,,,,,,,,,,,,,,,,,,,,,,,,,,,,,,,,,,,,,,,,,Tara,001,2019_Feb_05_1329,body_behavioural,60.155123943076184,
4,,,,,,,,0,4,4,4,0,0,0,0,,,,,,,,,,,,,,,,,,,,,,,,,space,6.754537490000075,space,1.5852222510000047,,,,,,,,,,,,,,,,,,,Tara,001,2019_Feb_05_1329,body_behavioural,60.155123943076184,
4,"Lana walked into lecture holding hands with her boyfriend, Aaron, who was trying to contain his excitement and anticipation for proposing to Lana in this class. ",1,1,,,,,0,4,4,4,,,,,0,0,0,0,,,,,,,,,,,,,,,,,,,,,,,,,9,9.921685871000136,,,,,,,,,,,,,,,,,Tara,001,2019_Feb_05_1329,body_behavioural,60.155123943076184,
4,"Lana was lost in thought, still puzzling over a calculus problem on her problem set due that night.",1,1,,,,,0,4,4,4,,,,,0,1,1,1,,,,,,,,,,,,,,,,,,,,,,,,,1,6.588119975000154,,,,,,,,,,,,,,,,,Tara,001,2019_Feb_05_1329,body_behavioural,60.155123943076184,
4,"The lecture hall was the fanciest one at Princeton, with chandeliers, high ceilings, wood floors and double-decker chalkboards.",1,1,,,,,0,4,4,4,,,,,0,2,2,2,,,,,,,,,,,,,,,,,,,,,,,,,1,9.403345725000008,,,,,,,,,,,,,,,,,Tara,001,2019_Feb_05_1329,body_behavioural,60.155123943076184,
4,"This is where Aaron and Lana had met two years ago during an economics class, and now they were back together in the same lecture hall for their Chemistry class. ",1,1,,,,,0,4,4,4,,,,,0,3,3,3,,,,,,,,,,,,,,,,,,,,,,,,,1,8.387440646999949,,,,,,,,,,,,,,,,,Tara,001,2019_Feb_05_1329,body_behavioural,60.155123943076184,
4,The professor caught Aaron's eye as he walked up to the front of the classroom and gave him a wink before the lecture began. ,1,1,,,,,0,4,4,4,,,,,0,4,4,4,,,,,,,,,,,,,,,,,,,,,,,,,1,14.739564155000153,,,,,,,,,,,,,,,,,Tara,001,2019_Feb_05_1329,body_behavioural,60.155123943076184,
4,Aaron responded with a huge grin. ,1,1,,,,,0,4,4,4,,,,,0,5,5,5,,,,,,,,,,,,,,,,,,,,,,,,,1,1.4689937579998968,,,,,,,,,,,,,,,,,Tara,001,2019_Feb_05_1329,body_behavioural,60.155123943076184,
4,"The professor cleared his throat and said,“Alright, good afternoon, everyone!",2,1,,,,,0,4,4,4,,,,,0,6,6,6,,,,,,,,,,,,,,,,,,,,,,,,,9,5.2872150890000285,,,,,,,,,,,,,,,,,Tara,001,2019_Feb_05_1329,body_behavioural,60.155123943076184,
4,"Last week we talked about the structure of the periodic table, and this week the topic is ions.",2,1,,,,,0,4,4,4,,,,,0,7,7,7,,,,,,,,,,,,,,,,,,,,,,,,,1,4.653111835000118,,,,,,,,,,,,,,,,,Tara,001,2019_Feb_05_1329,body_behavioural,60.155123943076184,
4,These are atoms or molecules in which the number of electrons does not equal the number of protons.,2,1,,,,,0,4,4,4,,,,,0,8,8,8,,,,,,,,,,,,,,,,,,,,,,,,,1,2.384249109999928,,,,,,,,,,,,,,,,,Tara,001,2019_Feb_05_1329,body_behavioural,60.155123943076184,
4,"Now, let me get my computer set up, one moment, class.”",2,1,,,,,0,4,4,4,,,,,0,9,9,9,,,,,,,,,,,,,,,,,,,,,,,,,1,2.1185381279999547,,,,,,,,,,,,,,,,,Tara,001,2019_Feb_05_1329,body_behavioural,60.155123943076184,
4,Lana pulled out her Calculus problem set and puzzled over it.,2,1,,,,,0,4,4,4,,,,,0,10,10,10,,,,,,,,,,,,,,,,,,,,,,,,,9,5.419764315000066,,,,,,,,,,,,,,,,,Tara,001,2019_Feb_05_1329,body_behavioural,60.155123943076184,
4,"While she was distracted, Aaron unzipped the small pocket in his backpack and pulled out the ring box.",2,2,,,,,0,4,4,4,,,,,0,11,11,11,,,,,,,,,,,,,,,,,,,,,,,,,9,7.938219243999811,,,,,,,,,,,,,,,,,Tara,001,2019_Feb_05_1329,body_behavioural,60.155123943076184,
4,He opened it up and looked at the ring.,2,2,,,,,0,4,4,4,,,,,0,12,12,12,,,,,,,,,,,,,,,,,,,,,,,,,1,1.750747179999962,,,,,,,,,,,,,,,,,Tara,001,2019_Feb_05_1329,body_behavioural,60.155123943076184,
4,"Instead of one large diamond, there were 5 diamonds embedded in a thick band. ",2,2,,,,,0,4,4,4,,,,,0,13,13,13,,,,,,,,,,,,,,,,,,,,,,,,,1,2.6195213549999607,,,,,,,,,,,,,,,,,Tara,001,2019_Feb_05_1329,body_behavioural,60.155123943076184,
4,He knew Lana would like this because her style was not flashy but more about simple elegance.,2,2,,,,,0,4,4,4,,,,,0,14,14,14,,,,,,,,,,,,,,,,,,,,,,,,,1,9.061797480999985,,,,,,,,,,,,,,,,,Tara,001,2019_Feb_05_1329,body_behavioural,60.155123943076184,
4,Aaron put the ring back into the bag as the professor began the lecture. ,3,2,,,,,0,4,4,4,,,,,0,15,15,15,,,,,,,,,,,,,,,,,,,,,,,,,1,2.334605528999873,,,,,,,,,,,,,,,,,Tara,001,2019_Feb_05_1329,body_behavioural,60.155123943076184,
4,“Recall from previous lectures that the number of protons determines the identity of the element. ,3,2,,,,,0,4,4,4,,,,,0,16,16,16,,,,,,,,,,,,,,,,,,,,,,,,,9,8.657330225000123,,,,,,,,,,,,,,,,,Tara,001,2019_Feb_05_1329,body_behavioural,60.155123943076184,
4,"So for example, all atoms of sodium have 11 protons in the nucleus. ",3,2,,,,,0,4,4,4,,,,,0,17,17,17,,,,,,,,,,,,,,,,,,,,,,,,,1,1.6521344129998852,,,,,,,,,,,,,,,,,Tara,001,2019_Feb_05_1329,body_behavioural,60.155123943076184,
4,"And if you look on the periodic table, the atomic number for sodium, the symbol is Na, is eleven.”",3,2,,,,,0,4,4,4,,,,,0,18,18,18,,,,,,,,,,,,,,,,,,,,,,,,,1,4.018281270000216,,,,,,,,,,,,,,,,,Tara,001,2019_Feb_05_1329,body_behavioural,60.155123943076184,
4,Lana was taking notes while Aaron was texting all of his friends in the class to get ready for the proposal. ,3,2,,,,,0,4,4,4,,,,,0,19,19,19,,,,,,,,,,,,,,,,,,,,,,,,,9,3.3537193390000084,,,,,,,,,,,,,,,,,Tara,001,2019_Feb_05_1329,body_behavioural,60.155123943076184,
4,"Right after talking about how two ions bond into one stable molecule by covalent bonds, the professor stopped the lecture and asked Lana to come to the front of the class to do a demonstration. ",3,2,,,,,0,4,4,4,,,,,0,20,20,20,,,,,,,,,,,,,,,,,,,,,,,,,1,9.337115910999955,,,,,,,,,,,,,,,,,Tara,001,2019_Feb_05_1329,body_behavioural,60.155123943076184,
4,"She walked to the front of the class confused, and the professor asked her to stand in the middle of the stage.",3,2,,,,,0,4,4,4,,,,,0,21,21,21,,,,,,,,,,,,,,,,,,,,,,,,,1,3.2164640930000132,,,,,,,,,,,,,,,,,Tara,001,2019_Feb_05_1329,body_behavioural,60.155123943076184,
4,"Then Aaron walked up and, taking Lana’s hand, got down on one knee. ",3,3,,,,,0,4,4,4,,,,,0,22,22,22,,,,,,,,,,,,,,,,,,,,,,,,,9,8.187968373000103,,,,,,,,,,,,,,,,,Tara,001,2019_Feb_05_1329,body_behavioural,60.155123943076184,
4,""Lana, it's time for us to make a bond of our own.",3,3,,,,,0,4,4,4,,,,,0,23,23,23,,,,,,,,,,,,,,,,,,,,,,,,,1,1.9858743780000623,,,,,,,,,,,,,,,,,Tara,001,2019_Feb_05_1329,body_behavioural,60.155123943076184,
4,Will you marry me?” ,3,3,,,,,0,4,4,4,,,,,0,24,24,24,,,,,,,,,,,,,,,,,,,,,,,,,1,1.2197094489999927,,,,,,,,,,,,,,,,,Tara,001,2019_Feb_05_1329,body_behavioural,60.155123943076184,
4,Lana gasped and put her other hand to her mouth and started looking around the room as if trying to convince herself that this was really happening.,3,3,,,,,0,4,4,4,,,,,0,25,25,25,,,,,,,,,,,,,,,,,,,,,,,,,1,4.335828751000008,,,,,,,,,,,,,,,,,Tara,001,2019_Feb_05_1329,body_behavioural,60.155123943076184,
4,For a few moments everyone was in suspense waiting for the Lana’s shock to wear off and for her to answer. ,3,3,,,,,0,4,4,4,,,,,0,26,26,26,,,,,,,,,,,,,,,,,,,,,,,,,1,3.1184285090000685,,,,,,,,,,,,,,,,,Tara,001,2019_Feb_05_1329,body_behavioural,60.155123943076184,
4,"Finally, she said, “Yes!”",3,4,,,,,0,4,4,4,,,,,0,27,27,27,,,,,,,,,,,,,,,,,,,,,,,,,1,2.4692898609998792,,,,,,,,,,,,,,,,,Tara,001,2019_Feb_05_1329,body_behavioural,60.155123943076184,
4,"Aaron put the ring on her finger, and they hugged while the whole class clapped. ",3,4,,,,,0,4,4,4,,,,,0,28,28,28,,,,,,,,,,,,,,,,,,,,,,,,,1,4.468727035000029,,,,,,,,,,,,,,,,,Tara,001,2019_Feb_05_1329,body_behavioural,60.155123943076184,
4,"Their friends came up and hugged both of them, and the professor gave Aaron a celebratory handshake.",3,4,,,,,0,4,4,4,,,,,0,29,29,29,,,,,,,,,,,,,,,,,,,,,,,,,1,3.401456851000148,,,,,,,,,,,,,,,,,Tara,001,2019_Feb_05_1329,body_behavioural,60.155123943076184,
4,"They made their way back to their seats, Lana and Aaron hand-in-hand and beaming. ",3,4,,,,,0,4,4,4,,,,,0,30,30,30,,,,,,,,,,,,,,,,,,,,,,,,,1,3.518046126999934,,,,,,,,,,,,,,,,,Tara,001,2019_Feb_05_1329,body_behavioural,60.155123943076184,
4,"The professor then dismissed the class, saying, “That was enough excitement for today!",4,4,,,,,0,4,4,4,,,,,0,31,31,31,,,,,,,,,,,,,,,,,,,,,,,,,9,2.4410225450001235,,,,,,,,,,,,,,,,,Tara,001,2019_Feb_05_1329,body_behavioural,60.155123943076184,
4,Don’t forget there’s an exam next week on the first two chapters of the textbook.”,4,4,,,,,0,4,4,4,,,,,0,32,32,32,,,,,,,,,,,,,,,,,,,,,,,,,1,2.7086052449999443,,,,,,,,,,,,,,,,,Tara,001,2019_Feb_05_1329,body_behavioural,60.155123943076184,
4,"As everyone was packing up their notebooks and leaving, Lana was already on her phone calling her family members to tell them the exciting news.",4,4,,,,,0,4,4,4,,,,,0,33,33,33,,,,,,,,,,,,,,,,,,,,,,,,,9,16.88956463799991,,,,,,,,,,,,,,,,,Tara,001,2019_Feb_05_1329,body_behavioural,60.155123943076184,
4,,,,,,,,0,4,4,4,,,,,,,,,,,,,,,,,,,,,,,,,,,,,,,,,,,,,,,,,,,,,,,,,,,Tara,001,2019_Feb_05_1329,body_behavioural,60.155123943076184,
5,,,,,,,,0,5,5,5,0,0,0,0,,,,,,,,,,,,,,,,,,,,,,,,,space,3.468238984999971,space,1.8528328400000191,,,,,,,,,,,,,,,,,,,Tara,001,2019_Feb_05_1329,body_behavioural,60.155123943076184,
5,Mr. Shelton and Mr. Gordon shook hands inside the foyer of the restaurant: lunch today was about big business. ,1,1,,,,,0,5,5,5,,,,,0,0,0,0,,,,,,,,,,,,,,,,,,,,,,,,,9,8.287201599000127,,,,,,,,,,,,,,,,,Tara,001,2019_Feb_05_1329,body_behavioural,60.155123943076184,
5,Mr. Shelton and Mr. Gordon both were CEOs of airplane manufacturing companies.,1,1,,,,,0,5,5,5,,,,,0,1,1,1,,,,,,,,,,,,,,,,,,,,,,,,,1,2.735685459000024,,,,,,,,,,,,,,,,,Tara,001,2019_Feb_05_1329,body_behavioural,60.155123943076184,
5,"Mr. Shelton was in charge of a larger, well-established company and had been in the aviation business for decades, whereas Mr. Gordon led a smaller but technologically-advanced company that was projected to disrupt the airplane manufacturing market. ",1,1,,,,,0,5,5,5,,,,,0,2,2,2,,,,,,,,,,,,,,,,,,,,,,,,,1,18.77447790699989,,,,,,,,,,,,,,,,,Tara,001,2019_Feb_05_1329,body_behavioural,60.155123943076184,
5,"The restaurant they chose to meet at was old and fancy with high ceilings, dark wood paneling, and crystal chandeliers.",1,1,,,,,0,5,5,5,,,,,0,3,3,3,,,,,,,,,,,,,,,,,,,,,,,,,9,9.504719878999822,,,,,,,,,,,,,,,,,Tara,001,2019_Feb_05_1329,body_behavioural,60.155123943076184,
5,"The waitress led them to their table in the back, and they settled into a private table in the corner by the fireplace. ",2,1,,,,,0,5,5,5,,,,,0,4,4,4,,,,,,,,,,,,,,,,,,,,,,,,,1,3.2196490999999696,,,,,,,,,,,,,,,,,Tara,001,2019_Feb_05_1329,body_behavioural,60.155123943076184,
5,The waitress brought out the menus and they broke the ice with some small talk.,2,1,,,,,0,5,5,5,,,,,0,5,5,5,,,,,,,,,,,,,,,,,,,,,,,,,1,2.9544593369998893,,,,,,,,,,,,,,,,,Tara,001,2019_Feb_05_1329,body_behavioural,60.155123943076184,
5,"Mr. Gordon took out a picture of his daughter and talked about her recent engagement, and Mr. Gordon boasted about his purchase of a Tesla. ",2,1,,,,,0,5,5,5,,,,,0,6,6,6,,,,,,,,,,,,,,,,,,,,,,,,,1,11.305005972000117,,,,,,,,,,,,,,,,,Tara,001,2019_Feb_05_1329,body_behavioural,60.155123943076184,
5,"They looked at the menus as well, which were full of Italian classics like Carbonara and Tiramisu, and in the back section of the menu was a lengthy drink selection.",2,1,,,,,0,5,5,5,,,,,0,7,7,7,,,,,,,,,,,,,,,,,,,,,,,,,1,5.387498850999918,,,,,,,,,,,,,,,,,Tara,001,2019_Feb_05_1329,body_behavioural,60.155123943076184,
5,"After awhile, Mr. Shelton brought the conversation around to business.",2,2,,,,,0,5,5,5,,,,,0,8,8,8,,,,,,,,,,,,,,,,,,,,,,,,,9,2.6844988339998963,,,,,,,,,,,,,,,,,Tara,001,2019_Feb_05_1329,body_behavioural,60.155123943076184,
5,"“Mr. Gordon, we really admire what you’re doing at your company.",2,2,,,,,0,5,5,5,,,,,0,9,9,9,,,,,,,,,,,,,,,,,,,,,,,,,1,1.8023935349999647,,,,,,,,,,,,,,,,,Tara,001,2019_Feb_05_1329,body_behavioural,60.155123943076184,
5,We think it’s genius; we want to support your vision and make this tiny company of yours internationally known.,2,2,,,,,0,5,5,5,,,,,0,10,10,10,,,,,,,,,,,,,,,,,,,,,,,,,1,3.567824167000026,,,,,,,,,,,,,,,,,Tara,001,2019_Feb_05_1329,body_behavioural,60.155123943076184,
5,"But honestly, your company doesn’t have the resources to reach international markets right now, maybe in a few years you could, but by that time, other companies may have already filled your niche.",2,2,,,,,0,5,5,5,,,,,0,11,11,11,,,,,,,,,,,,,,,,,,,,,,,,,1,6.3377929769999355,,,,,,,,,,,,,,,,,Tara,001,2019_Feb_05_1329,body_behavioural,60.155123943076184,
5,I think we should join forces.”,2,2,,,,,0,5,5,5,,,,,0,12,12,12,,,,,,,,,,,,,,,,,,,,,,,,,1,1.385890937000113,,,,,,,,,,,,,,,,,Tara,001,2019_Feb_05_1329,body_behavioural,60.155123943076184,
5,The waitress came up to them and asked if they were ready to order.,3,2,,,,,0,5,5,5,,,,,0,13,13,13,,,,,,,,,,,,,,,,,,,,,,,,,9,3.01952535800001,,,,,,,,,,,,,,,,,Tara,001,2019_Feb_05_1329,body_behavioural,60.155123943076184,
5,"Mr. Gordon ordered a medium-rare steak and martini, and Mr. Shelton ordered veal and a manhattan. ",3,2,,,,,0,5,5,5,,,,,0,14,14,14,,,,,,,,,,,,,,,,,,,,,,,,,1,6.252832553999951,,,,,,,,,,,,,,,,,Tara,001,2019_Feb_05_1329,body_behavioural,60.155123943076184,
5,"Then Mr. Shelton continued, “Look, I’ve talked to other members of the board, and we are prepared to offer $600 million to buy your company. ",3,2,,,,,0,5,5,5,,,,,0,15,15,15,,,,,,,,,,,,,,,,,,,,,,,,,9,5.8199653310000485,,,,,,,,,,,,,,,,,Tara,001,2019_Feb_05_1329,body_behavioural,60.155123943076184,
5,"We'd keep on all of your current employees, and you would join as the director of your company branch.” ",3,2,,,,,0,5,5,5,,,,,0,16,16,16,,,,,,,,,,,,,,,,,,,,,,,,,1,2.3855716410000696,,,,,,,,,,,,,,,,,Tara,001,2019_Feb_05_1329,body_behavioural,60.155123943076184,
5,Mr. Gordon sat looking at Mr. Shelton for a few moments considering his response. ,3,2,,,,,0,5,5,5,,,,,0,17,17,17,,,,,,,,,,,,,,,,,,,,,,,,,1,2.4029733820000274,,,,,,,,,,,,,,,,,Tara,001,2019_Feb_05_1329,body_behavioural,60.155123943076184,
5,He looked at Mr. Shelton skeptically.,3,2,,,,,0,5,5,5,,,,,0,18,18,18,,,,,,,,,,,,,,,,,,,,,,,,,1,1.3851163629999519,,,,,,,,,,,,,,,,,Tara,001,2019_Feb_05_1329,body_behavioural,60.155123943076184,
5,"He said, “Mr. Shelton, I think that you make a compelling offer, but there are definitely some disadvantages to attaching our small, streamlined productions to a large company like yours.",3,3,,,,,0,5,5,5,,,,,0,19,19,19,,,,,,,,,,,,,,,,,,,,,,,,,1,6.352884158999814,,,,,,,,,,,,,,,,,Tara,001,2019_Feb_05_1329,body_behavioural,60.155123943076184,
5,"We operate in a very different way than a large company, and the kind of administrative complexity that makes the scale of your productions possible would suffocate our business.",3,3,,,,,0,5,5,5,,,,,0,20,20,20,,,,,,,,,,,,,,,,,,,,,,,,,1,6.254038165000111,,,,,,,,,,,,,,,,,Tara,001,2019_Feb_05_1329,body_behavioural,60.155123943076184,
5,"With our product, scaling-up doesn’t necessarily make sense.” ",3,3,,,,,0,5,5,5,,,,,0,21,21,21,,,,,,,,,,,,,,,,,,,,,,,,,1,3.952036648999865,,,,,,,,,,,,,,,,,Tara,001,2019_Feb_05_1329,body_behavioural,60.155123943076184,
5,Mr. Shelton had expected this response and had come prepared.,3,3,,,,,0,5,5,5,,,,,0,22,22,22,,,,,,,,,,,,,,,,,,,,,,,,,1,12.65531286700002,,,,,,,,,,,,,,,,,Tara,001,2019_Feb_05_1329,body_behavioural,60.155123943076184,
5,He began laying out the details of how he had handled similar acquisitions successfully in the past.,3,3,,,,,0,5,5,5,,,,,0,23,23,23,,,,,,,,,,,,,,,,,,,,,,,,,1,3.587182918000053,,,,,,,,,,,,,,,,,Tara,001,2019_Feb_05_1329,body_behavioural,60.155123943076184,
5,"Mr. Gordon was impressed, and they went back and forth hashing out what the company configuration would look like post-merger. ",3,3,,,,,0,5,5,5,,,,,0,24,24,24,,,,,,,,,,,,,,,,,,,,,,,,,1,3.4852887790000295,,,,,,,,,,,,,,,,,Tara,001,2019_Feb_05_1329,body_behavioural,60.155123943076184,
5,"The waitress brought the food out, interrupting their animated conversation.",4,3,,,,,0,5,5,5,,,,,0,25,25,25,,,,,,,,,,,,,,,,,,,,,,,,,9,3.7010805520001213,,,,,,,,,,,,,,,,,Tara,001,2019_Feb_05_1329,body_behavioural,60.155123943076184,
5,“Oh this looks so good!” Mr. Gordon said. ,4,3,,,,,0,5,5,5,,,,,0,26,26,26,,,,,,,,,,,,,,,,,,,,,,,,,1,2.903531206000025,,,,,,,,,,,,,,,,,Tara,001,2019_Feb_05_1329,body_behavioural,60.155123943076184,
5, “Can I get you anything else?” the waitress asked.,4,3,,,,,0,5,5,5,,,,,0,27,27,27,,,,,,,,,,,,,,,,,,,,,,,,,1,1.3520377580000513,,,,,,,,,,,,,,,,,Tara,001,2019_Feb_05_1329,body_behavioural,60.155123943076184,
5,They declined and continued to talk.,4,3,,,,,0,5,5,5,,,,,0,28,28,28,,,,,,,,,,,,,,,,,,,,,,,,,1,1.302135944000156,,,,,,,,,,,,,,,,,Tara,001,2019_Feb_05_1329,body_behavioural,60.155123943076184,
5,"The meal lived up to the reputation of the restaurant, which was known for having the best cuts of meat in the area.",4,3,,,,,0,5,5,5,,,,,0,29,29,29,,,,,,,,,,,,,,,,,,,,,,,,,1,3.8518238910000946,,,,,,,,,,,,,,,,,Tara,001,2019_Feb_05_1329,body_behavioural,60.155123943076184,
5,"Mr. Gordon, after taking a contemplative bite of his food, said, “Mr. Shelton, I think we have a deal. ",4,4,,,,,0,5,5,5,,,,,0,30,30,30,,,,,,,,,,,,,,,,,,,,,,,,,9,3.3701687989998845,,,,,,,,,,,,,,,,,Tara,001,2019_Feb_05_1329,body_behavioural,60.155123943076184,
5,"If you can guarantee that I can still have the final say in the all the work done by my team, I think this could be beneficial for both of us.",4,4,,,,,0,5,5,5,,,,,0,31,31,31,,,,,,,,,,,,,,,,,,,,,,,,,1,3.937808249999989,,,,,,,,,,,,,,,,,Tara,001,2019_Feb_05_1329,body_behavioural,60.155123943076184,
5,I propose a toast to the merging of our companies.”,4,4,,,,,0,5,5,5,,,,,0,32,32,32,,,,,,,,,,,,,,,,,,,,,,,,,1,4.083984373000021,,,,,,,,,,,,,,,,,Tara,001,2019_Feb_05_1329,body_behavioural,60.155123943076184,
5,Mr. Shelton grinned and lifted his martini to clink glasses.,4,4,,,,,0,5,5,5,,,,,0,33,33,33,,,,,,,,,,,,,,,,,,,,,,,,,1,1.7355189460001839,,,,,,,,,,,,,,,,,Tara,001,2019_Feb_05_1329,body_behavioural,60.155123943076184,
5,"He said, “Cheers to a lifelong partnership and to the growth of your company.” ",4,4,,,,,0,5,5,5,,,,,0,34,34,34,,,,,,,,,,,,,,,,,,,,,,,,,1,2.3070890809999582,,,,,,,,,,,,,,,,,Tara,001,2019_Feb_05_1329,body_behavioural,60.155123943076184,
5,,,,,,,,0,5,5,5,,,,,,,,,,,,,,,,,,,,,,,,,,,,,,,,,,,,,,,,,,,,,,,,,,,Tara,001,2019_Feb_05_1329,body_behavioural,60.155123943076184,
6,,,,,,,,0,6,6,6,0,0,0,0,,,,,,,,,,,,,,,,,,,,,,,,,space,1.469168245999981,space,1.635395287999927,,,,,,,,,,,,,,,,,,,Tara,001,2019_Feb_05_1329,body_behavioural,60.155123943076184,
6,David saw Anna for the first time when she burst into the airport with her bag skidding behind her half-zipped. ,1,,1,,,,0,6,6,6,,,,,0,0,0,0,,,,,,,,,,,,,,,,,,,,,,,,,9,24.542670906000012,,,,,,,,,,,,,,,,,Tara,001,2019_Feb_05_1329,body_behavioural,60.155123943076184,
6,"He had three hours until his flight, but she clearly had less than one.",1,,1,,,,0,6,6,6,,,,,0,1,1,1,,,,,,,,,,,,,,,,,,,,,,,,,1,3.8194527870000456,,,,,,,,,,,,,,,,,Tara,001,2019_Feb_05_1329,body_behavioural,60.155123943076184,
6,"Anna’s yoga class had ran over, and afterwards, she, forgetting the time, had lingered to talk with friends. ",1,,1,,,,0,6,6,6,,,,,0,2,2,2,,,,,,,,,,,,,,,,,,,,,,,,,1,8.453636651999886,,,,,,,,,,,,,,,,,Tara,001,2019_Feb_05_1329,body_behavioural,60.155123943076184,
6,"Despite Anna's frazzled state, David was instantly intrigued by her.",1,,1,,,,0,6,6,6,,,,,0,3,3,3,,,,,,,,,,,,,,,,,,,,,,,,,9,4.020116001000133,,,,,,,,,,,,,,,,,Tara,001,2019_Feb_05_1329,body_behavioural,60.155123943076184,
6,"He thought she was beautiful, and she reminded him of one of his favorite paintings.",1,,1,,,,0,6,6,6,,,,,0,4,4,4,,,,,,,,,,,,,,,,,,,,,,,,,1,2.9591136920000736,,,,,,,,,,,,,,,,,Tara,001,2019_Feb_05_1329,body_behavioural,60.155123943076184,
6,"Anna, a few strides into the airport, suddenly realized her shoes were untied, so she hunched over to tie them.",1,,1,,,,0,6,6,6,,,,,0,5,5,5,,,,,,,,,,,,,,,,,,,,,,,,,9,9.721210100999997,,,,,,,,,,,,,,,,,Tara,001,2019_Feb_05_1329,body_behavioural,60.155123943076184,
6,David observed that someone with a tall cart of luggage was heading straight for where Anna was kneeling. ,1,,1,,,,0,6,6,6,,,,,0,6,6,6,,,,,,,,,,,,,,,,,,,,,,,,,1,3.052562274000138,,,,,,,,,,,,,,,,,Tara,001,2019_Feb_05_1329,body_behavioural,60.155123943076184,
6,Both Anna and the person driving the cart were oblivious to the impending collision. ,1,,1,,,,0,6,6,6,,,,,0,7,7,7,,,,,,,,,,,,,,,,,,,,,,,,,1,4.64269259799994,,,,,,,,,,,,,,,,,Tara,001,2019_Feb_05_1329,body_behavioural,60.155123943076184,
6,"David had to intervene, and he ran in front of the cart pushing her out of the way just in the nick of time, and they tumbled on the airport floor. ",1,,2,,,,0,6,6,6,,,,,0,8,8,8,,,,,,,,,,,,,,,,,,,,,,,,,1,5.136787879999929,,,,,,,,,,,,,,,,,Tara,001,2019_Feb_05_1329,body_behavioural,60.155123943076184,
6,"Anna, bewildered, looked up and saw the cart pass by and then looked over at David. ",1,,2,,,,0,6,6,6,,,,,0,9,9,9,,,,,,,,,,,,,,,,,,,,,,,,,1,5.971605554000007,,,,,,,,,,,,,,,,,Tara,001,2019_Feb_05_1329,body_behavioural,60.155123943076184,
6,He gave a smile back.,1,,2,,,,0,6,6,6,,,,,0,10,10,10,,,,,,,,,,,,,,,,,,,,,,,,,1,2.2183587540000644,,,,,,,,,,,,,,,,,Tara,001,2019_Feb_05_1329,body_behavioural,60.155123943076184,
6,"“You alright?”, he said.",1,,2,,,,0,6,6,6,,,,,0,11,11,11,,,,,,,,,,,,,,,,,,,,,,,,,9,2.070282403999954,,,,,,,,,,,,,,,,,Tara,001,2019_Feb_05_1329,body_behavioural,60.155123943076184,
6,"She whispered, “Uh yeah.",1,,2,,,,0,6,6,6,,,,,0,12,12,12,,,,,,,,,,,,,,,,,,,,,,,,,1,1.0177361039998232,,,,,,,,,,,,,,,,,Tara,001,2019_Feb_05_1329,body_behavioural,60.155123943076184,
6,I almost got smooshed by that cart.”,1,,2,,,,0,6,6,6,,,,,0,13,13,13,,,,,,,,,,,,,,,,,,,,,,,,,1,1.0841103019999991,,,,,,,,,,,,,,,,,Tara,001,2019_Feb_05_1329,body_behavioural,60.155123943076184,
6,Her head was still spinning as she stared at the handsome stranger who had saved her. ,1,,2,,,,0,6,6,6,,,,,0,14,14,14,,,,,,,,,,,,,,,,,,,,,,,,,1,3.068524450000041,,,,,,,,,,,,,,,,,Tara,001,2019_Feb_05_1329,body_behavioural,60.155123943076184,
6,David helped her up and had to keep holding on to her arms to steady her even once they were standing.,1,,2,,,,0,6,6,6,,,,,0,15,15,15,,,,,,,,,,,,,,,,,,,,,,,,,9,12.1545653149999,,,,,,,,,,,,,,,,,Tara,001,2019_Feb_05_1329,body_behavioural,60.155123943076184,
6,"“I’m really late for my flight,” she said. ",1,,2,,,,0,6,6,6,,,,,0,16,16,16,,,,,,,,,,,,,,,,,,,,,,,,,1,1.251963041999943,,,,,,,,,,,,,,,,,Tara,001,2019_Feb_05_1329,body_behavioural,60.155123943076184,
6,""Don't worry," said David, "let me help you get to your gate." ",1,,2,,,,0,6,6,6,,,,,0,17,17,17,,,,,,,,,,,,,,,,,,,,,,,,,1,1.302691015999926,,,,,,,,,,,,,,,,,Tara,001,2019_Feb_05_1329,body_behavioural,60.155123943076184,
6,He waved off her half-hearted protests. ,1,,2,,,,0,6,6,6,,,,,0,18,18,18,,,,,,,,,,,,,,,,,,,,,,,,,1,3.902274170000055,,,,,,,,,,,,,,,,,Tara,001,2019_Feb_05_1329,body_behavioural,60.155123943076184,
6,""Really, I have plenty of time and nothing better to do."",1,,2,,,,0,6,6,6,,,,,0,19,19,19,,,,,,,,,,,,,,,,,,,,,,,,,1,1.8868034510001053,,,,,,,,,,,,,,,,,Tara,001,2019_Feb_05_1329,body_behavioural,60.155123943076184,
6,They headed to the security line. ,2,,2,,,,0,6,6,6,,,,,0,20,20,20,,,,,,,,,,,,,,,,,,,,,,,,,1,3.1181750700000066,,,,,,,,,,,,,,,,,Tara,001,2019_Feb_05_1329,body_behavioural,60.155123943076184,
6,"The line was not long, and they spent the time chatting and getting to know each other.",2,,2,,,,0,6,6,6,,,,,0,21,21,21,,,,,,,,,,,,,,,,,,,,,,,,,1,3.0368939560000854,,,,,,,,,,,,,,,,,Tara,001,2019_Feb_05_1329,body_behavioural,60.155123943076184,
6,It turned out that Anna and David went to the same high school but Anna had been 3 years older.,2,,2,,,,0,6,6,6,,,,,0,22,22,22,,,,,,,,,,,,,,,,,,,,,,,,,1,3.2184168670000872,,,,,,,,,,,,,,,,,Tara,001,2019_Feb_05_1329,body_behavioural,60.155123943076184,
6,When they got to the front of the line they took off their shoes and pulled off their coats.,2,,3,,,,0,6,6,6,,,,,0,23,23,23,,,,,,,,,,,,,,,,,,,,,,,,,1,2.85137341199993,,,,,,,,,,,,,,,,,Tara,001,2019_Feb_05_1329,body_behavioural,60.155123943076184,
6,Both of them went through the metal detector without any problems. ,2,,3,,,,0,6,6,6,,,,,0,24,24,24,,,,,,,,,,,,,,,,,,,,,,,,,1,2.2024698299999272,,,,,,,,,,,,,,,,,Tara,001,2019_Feb_05_1329,body_behavioural,60.155123943076184,
6,"Anna’s flight was in 20 minutes, and as she was rushing to put her shoes and coat back on, David asked her, “So when are you coming back?”",2,,3,,,,0,6,6,6,,,,,0,25,25,25,,,,,,,,,,,,,,,,,,,,,,,,,1,7.137673651999876,,,,,,,,,,,,,,,,,Tara,001,2019_Feb_05_1329,body_behavioural,60.155123943076184,
6,"“In a week, it’s a short trip,” Anna replied. ",2,,3,,,,0,6,6,6,,,,,0,26,26,26,,,,,,,,,,,,,,,,,,,,,,,,,1,1.568562861999908,,,,,,,,,,,,,,,,,Tara,001,2019_Feb_05_1329,body_behavioural,60.155123943076184,
6,"“Me too,” David said.",2,,3,,,,0,6,6,6,,,,,0,27,27,27,,,,,,,,,,,,,,,,,,,,,,,,,1,2.285950565999883,,,,,,,,,,,,,,,,,Tara,001,2019_Feb_05_1329,body_behavioural,60.155123943076184,
6,"He continued, “When we're back in town, is there any chance you'd want to get dinner?",2,,3,,,,0,6,6,6,,,,,0,28,28,28,,,,,,,,,,,,,,,,,,,,,,,,,9,3.8198280130000057,,,,,,,,,,,,,,,,,Tara,001,2019_Feb_05_1329,body_behavioural,60.155123943076184,
6,"I know we just met, but when life throws a luggage cart at you it seems like we should listen."",2,,3,,,,0,6,6,6,,,,,0,29,29,29,,,,,,,,,,,,,,,,,,,,,,,,,1,2.071610757999906,,,,,,,,,,,,,,,,,Tara,001,2019_Feb_05_1329,body_behavioural,60.155123943076184,
6,"She stopped packing, and said with a smile, “Yes I would love that.”",2,,3,,,,0,6,6,6,,,,,0,30,30,30,,,,,,,,,,,,,,,,,,,,,,,,,1,2.202070090999996,,,,,,,,,,,,,,,,,Tara,001,2019_Feb_05_1329,body_behavioural,60.155123943076184,
6,Then they ran off to Anna’s gate which was at the end of the terminal. ,3,,3,,,,0,6,6,6,,,,,0,31,31,31,,,,,,,,,,,,,,,,,,,,,,,,,1,3.123969580999983,,,,,,,,,,,,,,,,,Tara,001,2019_Feb_05_1329,body_behavioural,60.155123943076184,
6,"David took put on her backpack, grabbed her hand, and navigated quickly through the crowds of people.",3,,3,,,,0,6,6,6,,,,,0,32,32,32,,,,,,,,,,,,,,,,,,,,,,,,,1,3.970728860999998,,,,,,,,,,,,,,,,,Tara,001,2019_Feb_05_1329,body_behavioural,60.155123943076184,
6,Anna was amazed at everything that was happening; she had arrived at the airport doubtful that she would make it and was now confident that she would due to this handsome and kind man she just met.,3,,3,,,,0,6,6,6,,,,,0,33,33,33,,,,,,,,,,,,,,,,,,,,,,,,,1,7.855166527999927,,,,,,,,,,,,,,,,,Tara,001,2019_Feb_05_1329,body_behavioural,60.155123943076184,
6,"As they approached her gate, Anna fished out a crumbled business card from her pocket and handed it to David, who handed her the backpack, and he promised to call her next week.",3,,4,,,,0,6,6,6,,,,,0,34,34,34,,,,,,,,,,,,,,,,,,,,,,,,,9,7.68652096400001,,,,,,,,,,,,,,,,,Tara,001,2019_Feb_05_1329,body_behavioural,60.155123943076184,
6,She gave him one last embarrassed smile and approached the flight attendant who scanned her ticket. ,3,,4,,,,0,6,6,6,,,,,0,35,35,35,,,,,,,,,,,,,,,,,,,,,,,,,1,2.3570617459999994,,,,,,,,,,,,,,,,,Tara,001,2019_Feb_05_1329,body_behavioural,60.155123943076184,
6,"Finally, she boarded the plane, sliding into her window seat located all the way in the back of the plane.",4,,4,,,,0,6,6,6,,,,,0,36,36,36,,,,,,,,,,,,,,,,,,,,,,,,,1,2.684592500000008,,,,,,,,,,,,,,,,,Tara,001,2019_Feb_05_1329,body_behavioural,60.155123943076184,
6,"Barely containing her glee, she ignored the grumbles of complaint as she squeezed past the other passengers in her row and settled back in her seat. ",4,,4,,,,0,6,6,6,,,,,0,37,37,37,,,,,,,,,,,,,,,,,,,,,,,,,1,3.6697028470000532,,,,,,,,,,,,,,,,,Tara,001,2019_Feb_05_1329,body_behavioural,60.155123943076184,
6,"She was thankful that she had not only made it onto the plane in time, but also that she had been clumsy enough to forget to tie her shoes.",4,,4,,,,0,6,6,6,,,,,0,38,38,38,,,,,,,,,,,,,,,,,,,,,,,,,1,3.970020720000093,,,,,,,,,,,,,,,,,Tara,001,2019_Feb_05_1329,body_behavioural,60.155123943076184,
6,,,,,,,,0,6,6,6,,,,,,,,,,,,,,,,,,,,,,,,,,,,,,,,,,,,,,,,,,,,,,,,,,,Tara,001,2019_Feb_05_1329,body_behavioural,60.155123943076184,
7,,,,,,,,0,7,7,7,0,0,0,0,,,,,,,,,,,,,,,,,,,,,,,,,space,2.268868454000085,space,1.42030024099995,,,,,,,,,,,,,,,,,,,Tara,001,2019_Feb_05_1329,body_behavioural,60.155123943076184,
7,"Alvira and Senna walked into the restaurant hand in sweaty hand with quite different expectations: Senna was going to propose tonight, and Alvira had no idea.",1,1,,None,None,,0,7,7,7,,,,,0,0,0,0,,,,,,,,,,,,,,,,,,,,,,,,,9,9.454380610000044,,,,,,,,,,,,,,,,,Tara,001,2019_Feb_05_1329,body_behavioural,60.155123943076184,
7,"He took a deep breath, trying to calm his nerves as worst case scenarios ran through his mind. ",1,1,,None,None,,0,7,7,7,,,,,0,1,1,1,,,,,,,,,,,,,,,,,,,,,,,,,1,3.2080087760000424,,,,,,,,,,,,,,,,,Tara,001,2019_Feb_05_1329,body_behavioural,60.155123943076184,
7,The entrance of the restaurant was dazzling; chandeliers spread their warm light onto the delicate place settings of all the tables filled with guests dressed to the nines. ,1,1,,None,None,,0,7,7,7,,,,,0,2,2,2,,,,,,,,,,,,,,,,,,,,,,,,,9,7.554556114000206,,,,,,,,,,,,,,,,,Tara,001,2019_Feb_05_1329,body_behavioural,60.155123943076184,
7,"Through the floor-to-ceiling arched windows of the back wall, they saw the sun setting onto the Pacific ocean.",1,1,,None,None,,0,7,7,7,,,,,0,3,3,3,,,,,,,,,,,,,,,,,,,,,,,,,1,3.3688633239999035,,,,,,,,,,,,,,,,,Tara,001,2019_Feb_05_1329,body_behavioural,60.155123943076184,
7,"This was surely one of the best restaurants on the west coast, situated right on the beach.",1,1,,None,None,,0,7,7,7,,,,,0,4,4,4,,,,,,,,,,,,,,,,,,,,,,,,,1,7.908039608000081,,,,,,,,,,,,,,,,,Tara,001,2019_Feb_05_1329,body_behavioural,60.155123943076184,
7,"Senna gave his name to the host, who quickly located their reservation with an almost comically wide customer-service smile.",1,1,,7.0,None,,0,7,7,7,,,,,0,5,5,5,,,,,,,,,,,,,,,,,,,,,,,,,9,26.526572718999887,,,,,,,,,,,,,,,,,Tara,001,2019_Feb_05_1329,body_behavioural,60.155123943076184,
7,He led them to a table right by the window.,2,1,,None,None,,0,7,7,7,,,,,0,6,6,6,,,,,,,,,,,,,,,,,,,,,,,,,1,1.3024383089998537,,,,,,,,,,,,,,,,,Tara,001,2019_Feb_05_1329,body_behavioural,60.155123943076184,
7,"He brought out some very small menus, with a short list of the celebrity chef's carefully selected daily dishes written in a loopy, cursive font unadorned by any mention of prices.",2,1,,None,9.0,,0,7,7,7,,,,,0,7,7,7,,,,,,,,,,,,,,,,,,,,,,,,,1,19.858558923999908,,,,,,,,,,,,,,,,,Tara,001,2019_Feb_05_1329,body_behavioural,60.155123943076184,
7,Senna slipped off to the bathroom to check to make sure the ring was in order.,2,2,,None,None,,0,7,7,7,,,,,0,8,8,8,,,,,,,,,,,,,,,,,,,,,,,,,9,2.8406810500000574,,,,,,,,,,,,,,,,,Tara,001,2019_Feb_05_1329,body_behavioural,60.155123943076184,
7,"The ring contained a canary diamond that had been in his grandmother’s wedding ring, and it was a brilliant stone that was accentuated by the small white diamonds encircling it.",2,2,,None,None,,0,7,7,7,,,,,0,9,9,9,,,,,,,,,,,,,,,,,,,,,,,,,1,1.9526904399999694,,,,,,,,,,,,,,,,,Tara,001,2019_Feb_05_1329,body_behavioural,60.155123943076184,
7,"He walked back to the table after handing the small, velvet box to a waiter at the front podium.",2,2,,6.0,None,,0,7,7,7,,,,,0,10,10,10,,,,,,,,,,,,,,,,,,,,,,,,,1,5.9525691470000766,,,,,,,,,,,,,,,,,Tara,001,2019_Feb_05_1329,body_behavioural,60.155123943076184,
7,He came back just as their waiter was approaching the table to get their order.,3,2,,None,None,,0,7,7,7,,,,,0,11,11,11,,,,,,,,,,,,,,,,,,,,,,,,,1,2.9367385749999357,,,,,,,,,,,,,,,,,Tara,001,2019_Feb_05_1329,body_behavioural,60.155123943076184,
7,"Senna ordered the oysters with garlic-parmesan sauce, and Alvira ordered the sauteed sea scallops with caramelized apples. ",3,2,,None,None,,0,7,7,7,,,,,0,12,12,12,,,,,,,,,,,,,,,,,,,,,,,,,9,3.301386812999908,,,,,,,,,,,,,,,,,Tara,001,2019_Feb_05_1329,body_behavioural,60.155123943076184,
7,"“Excellent choices,” the waiter said with a subsequent brisk spin away from the table.",3,2,,None,None,,0,7,7,7,,,,,0,13,13,13,,,,,,,,,,,,,,,,,,,,,,,,,1,2.1028555049999795,,,,,,,,,,,,,,,,,Tara,001,2019_Feb_05_1329,body_behavioural,60.155123943076184,
7,"“What a beautiful place, Senna. ",3,2,,None,None,,0,7,7,7,,,,,0,14,14,14,,,,,,,,,,,,,,,,,,,,,,,,,1,5.987402767000049,,,,,,,,,,,,,,,,,Tara,001,2019_Feb_05_1329,body_behavioural,60.155123943076184,
7,"Really this is too much just to celebrate the first tomatoes I grew in the garden, like, this is absurd,” Alvira said.",3,2,,None,None,,0,7,7,7,,,,,0,15,15,15,,,,,,,,,,,,,,,,,,,,,,,,,9,5.1362058740000975,,,,,,,,,,,,,,,,,Tara,001,2019_Feb_05_1329,body_behavioural,60.155123943076184,
7,"Senna laughed and said, “No, those were really the best tomatoes I’ve ever had. ",3,2,,None,None,,0,7,7,7,,,,,0,16,16,16,,,,,,,,,,,,,,,,,,,,,,,,,1,1.4356996400001663,,,,,,,,,,,,,,,,,Tara,001,2019_Feb_05_1329,body_behavioural,60.155123943076184,
7,We had to celebrate.” ,3,2,,None,None,,0,7,7,7,,,,,0,17,17,17,,,,,,,,,,,,,,,,,,,,,,,,,1,1.1179604609999387,,,,,,,,,,,,,,,,,Tara,001,2019_Feb_05_1329,body_behavioural,60.155123943076184,
7,"They talked and laughed as the sun sank below the horizon, and the glow from the ocean was replaced by the glow from the chandeliers.",3,2,,8.0,None,,0,7,7,7,,,,,0,18,18,18,,,,,,,,,,,,,,,,,,,,,,,,,1,6.703132189999906,,,,,,,,,,,,,,,,,Tara,001,2019_Feb_05_1329,body_behavioural,60.155123943076184,
7,"The waiter eventually returned with their meals, and everything was even more delicious than they had expected, especially the oysters, which Senna said tasted like the ocean. ",4,2,,None,None,,0,7,7,7,,,,,0,19,19,19,,,,,,,,,,,,,,,,,,,,,,,,,1,15.038637331000018,,,,,,,,,,,,,,,,,Tara,001,2019_Feb_05_1329,body_behavioural,60.155123943076184,
7,Then he paused and looked at Alvira meaningfully. ,4,2,,None,None,,0,7,7,7,,,,,0,20,20,20,,,,,,,,,,,,,,,,,,,,,,,,,1,3.935019554000064,,,,,,,,,,,,,,,,,Tara,001,2019_Feb_05_1329,body_behavioural,60.155123943076184,
7, “It’s really been the best three years of my life with you.,4,2,,None,None,,0,7,7,7,,,,,0,21,21,21,,,,,,,,,,,,,,,,,,,,,,,,,9,2.734180090999871,,,,,,,,,,,,,,,,,Tara,001,2019_Feb_05_1329,body_behavioural,60.155123943076184,
7,"I couldn’t imagine it any other way, and I don’t want to.",4,2,,None,None,,0,7,7,7,,,,,0,22,22,22,,,,,,,,,,,,,,,,,,,,,,,,,1,2.369860886999959,,,,,,,,,,,,,,,,,Tara,001,2019_Feb_05_1329,body_behavioural,60.155123943076184,
7,"I really want to spend the rest of my years eating garden tomatoes, whatever it is, with you.” ",4,2,,None,None,,0,7,7,7,,,,,0,23,23,23,,,,,,,,,,,,,,,,,,,,,,,,,1,2.750155344999939,,,,,,,,,,,,,,,,,Tara,001,2019_Feb_05_1329,body_behavioural,60.155123943076184,
7,"Alvira smiled, “I want the same with you too, Senna.” ",4,2,,None,17.0,,0,7,7,7,,,,,0,24,24,24,,,,,,,,,,,,,,,,,,,,,,,,,1,1.135366379999823,,,,,,,,,,,,,,,,,Tara,001,2019_Feb_05_1329,body_behavioural,60.155123943076184,
7,"Senna nodded at the waiter who had been watching attentively, and he quickly strode over to place a small, elegant cake topped with the ring in front of Alvira. ",4,3,,None,None,,0,7,7,7,,,,,0,25,25,25,,,,,,,,,,,,,,,,,,,,,,,,,9,5.5700079369999,,,,,,,,,,,,,,,,,Tara,001,2019_Feb_05_1329,body_behavioural,60.155123943076184,
7,Her eyes widened in shock when she realized what she was looking at.,4,3,,None,None,,0,7,7,7,,,,,0,26,26,26,,,,,,,,,,,,,,,,,,,,,,,,,1,2.517862525999817,,,,,,,,,,,,,,,,,Tara,001,2019_Feb_05_1329,body_behavioural,60.155123943076184,
7,"“Alvira, will you marry me? ",4,3,,None,None,,0,7,7,7,,,,,0,27,27,27,,,,,,,,,,,,,,,,,,,,,,,,,1,1.617299272000082,,,,,,,,,,,,,,,,,Tara,001,2019_Feb_05_1329,body_behavioural,60.155123943076184,
7,"I love you, and I will never stop loving you.” ",4,3,,None,None,,0,7,7,7,,,,,0,28,28,28,,,,,,,,,,,,,,,,,,,,,,,,,1,2.402727213999924,,,,,,,,,,,,,,,,,Tara,001,2019_Feb_05_1329,body_behavioural,60.155123943076184,
7,Alvira started to cry.,4,3,,None,None,,0,7,7,7,,,,,0,29,29,29,,,,,,,,,,,,,,,,,,,,,,,,,1,1.0011985360001745,,,,,,,,,,,,,,,,,Tara,001,2019_Feb_05_1329,body_behavioural,60.155123943076184,
7,"The room became silent, and everyone turned to their table. ",4,3,,None,5.0,,0,7,7,7,,,,,0,30,30,30,,,,,,,,,,,,,,,,,,,,,,,,,1,1.7200112900000022,,,,,,,,,,,,,,,,,Tara,001,2019_Feb_05_1329,body_behavioural,60.155123943076184,
7,"“Yes, of course, yes!” she shouted as she wiped away tears.",4,4,,None,None,,0,7,7,7,,,,,0,31,31,31,,,,,,,,,,,,,,,,,,,,,,,,,1,1.1851645270000972,,,,,,,,,,,,,,,,,Tara,001,2019_Feb_05_1329,body_behavioural,60.155123943076184,
7,The neighboring tables exploded in applause.,4,4,,None,None,,0,7,7,7,,,,,0,32,32,32,,,,,,,,,,,,,,,,,,,,,,,,,1,1.417336652999893,,,,,,,,,,,,,,,,,Tara,001,2019_Feb_05_1329,body_behavioural,60.155123943076184,
7,The waiter returned with a bottle of champagne and popped it. ,4,4,,None,None,,0,7,7,7,,,,,0,33,33,33,,,,,,,,,,,,,,,,,,,,,,,,,1,2.1193380610000077,,,,,,,,,,,,,,,,,Tara,001,2019_Feb_05_1329,body_behavioural,60.155123943076184,
7,"All of this went unnoticed by Senna and Alvira as they looked into each others’ eyes, and he slipped the ring onto her finger. ",4,4,,None,None,,0,7,7,7,,,,,0,34,34,34,,,,,,,,,,,,,,,,,,,,,,,,,1,5.0868264139999155,,,,,,,,,,,,,,,,,Tara,001,2019_Feb_05_1329,body_behavioural,60.155123943076184,
7,"She held up her hand to admire it, and her glittering tears of joy matched the shine from her ring.   
",4,4,,17.0,5.0,,0,7,7,7,,,,,0,35,35,35,,,,,,,,,,,,,,,,,,,,,,,,,1,8.120410269999866,,,,,,,,,,,,,,,,,Tara,001,2019_Feb_05_1329,body_behavioural,60.155123943076184,
7,,,,,,,,0,7,7,7,,,,,,,,,,,,,,,,,,,,,,,,,,,,,,,,,,,,,,,,,,,,,,,,,,,Tara,001,2019_Feb_05_1329,body_behavioural,60.155123943076184,
,,,,,,,The next task in the experiment is to recall each story to the best of your ability.,,,,,,,,,,,,,0,0,0,0,,,,,,,,,,,,,,,,,,,,,,,space,3.6361312019998877,,,,,,,,,,,,,,,Tara,001,2019_Feb_05_1329,body_behavioural,60.155123943076184,
,,,,,,,"You will be presented with the story title, names, the images, and a blank text box for each story.",,,,,,,,,,,,,0,1,1,1,,,,,,,,,,,,,,,,,,,,,,,space,3.386324803999969,,,,,,,,,,,,,,,Tara,001,2019_Feb_05_1329,body_behavioural,60.155123943076184,
,,,,,,,Describe the story with as many details as you can remember in the space provided. ,,,,,,,,,,,,,0,2,2,2,,,,,,,,,,,,,,,,,,,,,,,space,3.0173091070000737,,,,,,,,,,,,,,,Tara,001,2019_Feb_05_1329,body_behavioural,60.155123943076184,
,,,,,,,"When you are finished recalling one story, to move onto the next one hit ‘return’. ",,,,,,,,,,,,,0,3,3,3,,,,,,,,,,,,,,,,,,,,,,,space,8.720835987999862,,,,,,,,,,,,,,,Tara,001,2019_Feb_05_1329,body_behavioural,60.155123943076184,
,,,,,,,There is no time limit for your responses. ,,,,,,,,,,,,,0,4,4,4,,,,,,,,,,,,,,,,,,,,,,,space,2.2839903139999933,,,,,,,,,,,,,,,Tara,001,2019_Feb_05_1329,body_behavioural,60.155123943076184,
0,,,,,,,,,,,,,,,,,,,,,,,,0,0,0,0,,,,,,,,,,,,,,,,,,,,,"Simon and carina meet upon entrance to the grocery store. they bump into each other as their carts collide. they were both new to the boston area. they start talking in the meat section when carina asks simon if he thinks the chicken mean is cute, and simon laughs in response and further suggests that the chicken was probably the brother of the one next to it. carina replies by saying that the chickens were an unlucky family. they keep talking as they approach the checkout line, which turns out to be pretty short, in turn disappointing simon who was hoping he could have more time to speak to carina. he asks her how long she's been in the area, and she responds by saying that she has just moved to the area. simon asks her if she would be interested in going out to dinner. he suggests that she could show her around, particularly around harvard square, which he thinks is really beautiful. carina says that she is interested. then when it is her time to check out and pay for her groceries, simon insists on paying her groceries for her because he says that he thinks of this encounter as something like their first date. carina blushes and thinks his gesture is both sweet and rediculous at the same time. the groceries come out to 120 dollars, and he pays with her credit card. carina quickly puts in her number into simon's phone, and then she rushes off to get to her barbeque. ",,,,,,,,,,,,,,Tara,001,2019_Feb_05_1329,body_behavioural,60.155123943076184,
1,,,,,,,,,,,,,,,,,,,,,,,,0,1,1,1,,,,,,,,,,,,,,,,,,,,,"Calin and jessie rush to the airport. jessie is fed up with calvin's repetitive boring stories. when they finally make it to security check, they find out that the line is pretty short. afterwards, they rush through without having to take off their shoes or go through a metal detector. calvin makes a remark about the lack of structural integrity in this airport, and then he says that he could snuggle anything through that airport. jessie is further frustrated because she feels that calvin has to impose his opinions on everything. they get into a fight as they pick up their suitcases from the conveyor belt. jessie initiates the break up and tells calvin that she doesn't want to be in a relationship with him anymore. calvin remains silent and starts walking to the gate. jessie starts yelling as she walks behind him. calvin is clearly hurt but doesn't feel like there's any point in cotinuing to argue. he says that jessie should have thought about the fact she can't tolerate him prior to scheduling a vacation with him. they get to the gate, where they are rushed into the plane by the annoyed flight attendant. they were relieved by the fact that they had forgotten to select seats next to each other. jessi was at seat 1b and calvin was at seat 4f. jessie tells calvin to have a good flight, a remark at wihch calvin laughs in disbelief. ",,,,,,,,,,,,,,Tara,001,2019_Feb_05_1329,body_behavioural,60.155123943076184,
2,,,,,,,,,,,,,,,,,,,,,,,,0,2,2,2,,,,,,,,,,,,,,,,,,,,,"Emmanuella and liam arrive at the grocery store. they reluctantly start to pick up items in preparation for the party they are hosting later in the evening. emmanuella picks up a bag of pasta. liam says that he guesses that they are having pasta that night. emmanuella angrily responds that if liam ever helped with planning then they could have something else. liam responds by saying that emmanuella never lets him help with anything. they continue fighting. emmanuella initiates the break up by saying that she can't wait until the end of the party to say this. she says that she's tired of the constant fighting, and that she feels that they would be better off separately. they make their way to the checkout line, where liam decides that there's no point in making a scene in public and says that he agrees that they would be better off without each other. however, they decide  not to tell any of their friends yet. emmanuella jokingly says that whoever leaks the news would lose his/her rights to the cat. liam forces a grin while he thinks about the long discussions they are going to have about the cat. nevertheless, they are both happy to have had their last fight every together as a couple. ",,,,,,,,,,,,,,Tara,001,2019_Feb_05_1329,body_behavioural,60.155123943076184,
3,,,,,,,,,,,,,,,,,,,,,,,,0,3,3,3,,,,,,,,,,,,,,,,,,,,,"Charlie and alma arrive in roman in history class, where the professor starts talking about agustus. they sit next to each other in the back of the class. they had met in a party before and they were both business savvy people. alma was looking for investments in her web development company and charlie's financial investments group had agreed to give her a certain amount of money, however charlie, says that he has talked to his group and they are willing to pay half of the investment demanded by alma. he says that if the company does well, his group will invest the other half. alma takes some time to think about this offer. she ultimately refuses because she says that this will push their timelines back, and in so doing will ruin their expected trajectory. charlie eventually agrees to pay the full amount which is 30,000. even though this is not ideal, charlie had been told by his group that they would be willing to invest the full amount if necessary. ",,,,,,,,,,,,,,Tara,001,2019_Feb_05_1329,body_behavioural,60.155123943076184,
4,,,,,,,,,,,,,,,,,,,,,,,,0,4,4,4,,,,,,,,,,,,,,,,,,,,,"Aaron and lana enter their chemistry class room. aaron is planning on proposing to lana. upon aaron'e entrance, the professor winks at him signaling that he is on board with the plan. lana starts working on her calculus homework while aaron takes out the ring. the ring has 5 diamonds in a thin band rather than one large stone because aaron knows that lana's stype is more about simple elegance that about being flashy. then, the professor starts speaking about ions. he defines what they are, and then uses sodium as an exmaple. he then asks lana to come up to the front of the classroom. lana walks up confused. aaron approaches her and tell her that it's time for them to make a bond of their own. he gets down on one knee and asks lana if she would marry him. lana is surpsied, and with tears in her eyes, says yes. the class roars in applause while their close friends approach them to congradulate them on their  engagement. the professor says that that's enough excitement for the day and reminds students that there is an exam coming up. lana calls her parents to tell them the big news. ",,,,,,,,,,,,,,Tara,001,2019_Feb_05_1329,body_behavioural,60.155123943076184,
5,,,,,,,,,,,,,,,,,,,,,,,,0,5,5,5,,,,,,,,,,,,,,,,,,,,,"Mr. shelton and mr/ gordon are both ceos in the aviation industry. mr. godron's company is larger while mr. shelton's company is smaller. they meet in the restaurant and engage in small talk. one of them talks about his daughter. the waitress approaches and takes their order. they begin talking about business. mr. gordon tells mr. shelton that he respects what mr. shelton's company has been able to accomplish and goes further by saying that he and his associates would like to help mr. shelton's company become internationally known. he goes on to say that he doesn't think mr. shelton's company has the resources to operate on an international level, and that's why mr. gordon's company has offered to buy mr. shelton's company out. mr. gordon says taht all the current employees of the company will remain the same and that mr. shelton will remain in charge of all decisions. mr. shelton hesitates and initially reufses the offer by saying that the services of his company do not necessarily translate well to operations on a large scale and he's worried that he would not be able to offer the same quality of service to his clients. mr. gordon who has expecting a response like that, had come prepared, and continues to try to convince mr. shelton that this is the right choice. eventually, mr. shelton agrees. one of them proposes a toast to a lifelong partnership, and they drink. ",,,,,,,,,,,,,,Tara,001,2019_Feb_05_1329,body_behavioural,60.155123943076184,
6,,,,,,,,,,,,,,,,,,,,,,,,0,6,6,6,,,,,,,,,,,,,,,,,,,,,This narrative takes place in an airport. anna is running late to her plane because her yoga class had run over and then she had lingered afterwards to speak to her friends. david realizes as she's walking and thinks that she's beautiful. she stops to tie her shoe laces,,,,,,,,,,,,,,Tara,001,2019_Feb_05_1329,body_behavioural,60.155123943076184,
7,,,,,,,,,,,,,,,,,,,,,,,,0,7,7,7,,,,,,,,,,,,,,,,,,,,,,,,,,,,,,,,,,,Tara,001,2019_Feb_05_1329,body_behavioural,60.155123943076184,
,,,,,,,The next part of the task is to answer 8 questions about each story.,,,,,,,,,,,,,,,,,,,,,0,0,0,0,,,,,,,,,,,,,,,,,,space,45.09929952699986,,,,,,,,,,,,Tara,001,2019_Feb_05_1329,body_behavioural,60.155123943076184,
,,,,,,,Some of the questions are not related to the perspective you were asked to assume.,,,,,,,,,,,,,,,,,,,,,0,1,1,1,,,,,,,,,,,,,,,,,,space,9368.394130644001,,,,,,,,,,,,Tara,001,2019_Feb_05_1329,body_behavioural,60.155123943076184,
,,,,,,,"We realize that we did not tell you to think of these questions during the story, but do your best to answer them.",,,,,,,,,,,,,,,,,,,,,0,2,2,2,,,,,,,,,,,,,,,,,,space,0.3347065530015243,,,,,,,,,,,,Tara,001,2019_Feb_05_1329,body_behavioural,60.155123943076184,
,,,,,,,"When you have finished typing your answer, hit ‘return’ to submit your answer and move onto the next question. ",,,,,,,,,,,,,,,,,,,,,0,3,3,3,,,,,,,,,,,,,,,,,,space,0.16832282599898463,,,,,,,,,,,,Tara,001,2019_Feb_05_1329,body_behavioural,60.155123943076184,
0,,,,,,,,,,,,,,,,,,,,,,,,,,,,,,,,0,0,0,0,,,,,,,,,,,,,,,,J,primed first,,,,,,,,,,Tara,001,2019_Feb_05_1329,body_behavioural,60.155123943076184,
1,,,,,,,,,,,,,,,,,,,,,,,,,,,,,,,,0,1,1,1,,,,,,,,,,,,,,,,,primed first,,,,,,,,,,Tara,001,2019_Feb_05_1329,body_behavioural,60.155123943076184,
2,,,,,,,,,,,,,,,,,,,,,,,,,,,,,,,,0,2,2,2,,,,,,,,,,,,,,,,Tabqtabtab,non-primed first,,,,,,,,,,Tara,001,2019_Feb_05_1329,body_behavioural,60.155123943076184,
3,,,,,,,,,,,,,,,,,,,,,,,,,,,,,,,,0,3,3,3,,,,,,,,,,,,,,,,,non-primed first,,,,,,,,,,Tara,001,2019_Feb_05_1329,body_behavioural,60.155123943076184,
4,,,,,,,,,,,,,,,,,,,,,,,,,,,,,,,,0,4,4,4,,,,,,,,,,,,,,,,,primed first,,,,,,,,,,Tara,001,2019_Feb_05_1329,body_behavioural,60.155123943076184,
5,,,,,,,,,,,,,,,,,,,,,,,,,,,,,,,,0,5,5,5,,,,,,,,,,,,,,,,,non-primed first,,,,,,,,,,Tara,001,2019_Feb_05_1329,body_behavioural,60.155123943076184,
6,,,,,,,,,,,,,,,,,,,,,,,,,,,,,,,,0,6,6,6,,,,,,,,,,,,,,,,,non-primed first,,,,,,,,,,Tara,001,2019_Feb_05_1329,body_behavioural,60.155123943076184,
7,,,,,,,,,,,,,,,,,,,,,,,,,,,,,,,,0,7,7,7,,,,,,,,,,,,,,,,,non-primed first,,,,,,,,,,Tara,001,2019_Feb_05_1329,body_behavioural,60.155123943076184,
,,,,,,,,,,,,,,,,,,,,,,,,,,,,,,,,,,,,,,,,,,,,,,,,,,,,,,,,,,,,space,4.403139287000158,Tara,001,2019_Feb_05_1329,body_behavioural,60.155123943076184,
