count,storyText,locationEvent,socialEvent,locationEventSize,socialEventSize,instructText,trials.thisRepN,trials.thisTrialN,trials.thisN,trials.thisIndex,trials_7.thisRepN,trials_7.thisTrialN,trials_7.thisN,trials_7.thisIndex,trials_2.thisRepN,trials_2.thisTrialN,trials_2.thisN,trials_2.thisIndex,trials_3.thisRepN,trials_3.thisTrialN,trials_3.thisN,trials_3.thisIndex,trials_4.thisRepN,trials_4.thisTrialN,trials_4.thisN,trials_4.thisIndex,trials_5.thisRepN,trials_5.thisTrialN,trials_5.thisN,trials_5.thisIndex,trials_6.thisRepN,trials_6.thisTrialN,trials_6.thisN,trials_6.thisIndex,order of stories,order of perspectives,participant 2 order - stories,participant 2 order  - schemas types,key_resp_8.keys,key_resp_8.rt,key_resp_5.keys,key_resp_5.rt,key_resp_7.keys,key_resp_7.rt,story_presses.keys,story_presses.rt,key_resp_2.keys,key_resp_2.rt,key_resp_10.keys,key_resp_10.rt,key_resp_3.keys,key_resp_3.rt,key_resp_11.keys,key_resp_11.rt,recall,question1_answer,order of question,question2_answer,question3_answer,question4_answer,question5_answer,question6_answer,question7_answer,question8_answer,participant,session,date,expName,frameRate,
0,,,,,,,0,0,0,0,0,0,0,0,,,,,,,,,,,,,,,,,,,,,[12 32 21 41 13 24 33 44 34 23 31 42 14 43 22 11],"['Social' 'Location' 'Social' 'Location' 'Location' 'Location' 'Social'
 'Social' 'Location' 'Social' 'Social' 'Social' 'Social' 'Location'
 'Location' 'Location']",[34 23 31 42 14 43 22 11],"['Location' 'Social' 'Social' 'Social' 'Social' 'Location' 'Location'
 'Location']",space,0.36943074600003456,space,0.33411731500007136,space,0.4524921769999537,,,,,,,,,,,,,,,,,,,,,under,001,2019_Feb_08_1657,body_behavioural,59.69647304402035,
0,"It didn’t help the situation that Calvin and Jessie were running late to the airport, since Jessie had already been fuming at Calvin and preparing to end things with him.",1,1,,,,0,0,0,0,,,,,0,0,0,0,,,,,,,,,,,,,,,,,,,,,,,,,,,1,1.1365700539998898,,,,,,,,,,,,,,,,,,,under,001,2019_Feb_08_1657,body_behavioural,59.69647304402035,
0,"Upon arriving, they had only 45 minutes until their international flight would depart from Jamaica for the US.",1,1,,,,0,0,0,0,,,,,0,1,1,1,,,,,,,,,,,,,,,,,,,,,,,,,,,9,0.0017455360000440123,,,,,,,,,,,,,,,,,,,under,001,2019_Feb_08_1657,body_behavioural,59.69647304402035,
0,It had been a tough vacation for them.,1,1,,,,0,0,0,0,,,,,0,2,2,2,,,,,,,,,,,,,,,,,,,,,,,,,,,1,0.09939016500004527,,,,,,,,,,,,,,,,,,,under,001,2019_Feb_08_1657,body_behavioural,59.69647304402035,
0,"Jessie had really had it with Calvin’s constant ramblings about the same excruciatingly boring golfing and work stories, which he insisted on repeating to her regardless of how little interest she showed.",1,1,,,,0,0,0,0,,,,,0,3,3,3,,,,,,,,,,,,,,,,,,,,,,,,,,,9,0.06845538300001408,,,,,,,,,,,,,,,,,,,under,001,2019_Feb_08_1657,body_behavioural,59.69647304402035,
0,"Calvin knew that Jessie was upset, but wasn't sure what to do besides attempting to carry on as normal and tell stories that took up the silence. ",1,1,,,,0,0,0,0,,,,,0,4,4,4,,,,,,,,,,,,,,,,,,,,,,,,,,,9,0.06815955699994447,,,,,,,,,,,,,,,,,,,under,001,2019_Feb_08_1657,body_behavioural,59.69647304402035,
0,"The security line was luckily very short, and once the online boarding passes were scanned they were ushered quickly through the metal detector, not having to take off their shoes or remove the liquids from their bags.",2,1,,,,0,0,0,0,,,,,0,5,5,5,,,,,,,,,,,,,,,,,,,,,,,,,,,9,0.049407581999957983,,,,,,,,,,,,,,,,,,,under,001,2019_Feb_08_1657,body_behavioural,59.69647304402035,
0,"“The infrastructure of this airport is really quite poor," said Calvin as they waited for their bags to emerge from the x-ray machine.",2,1,,,,0,0,0,0,,,,,0,6,6,6,,,,,,,,,,,,,,,,,,,,,,,,,,,1,0.0019687650000150825,,,,,,,,,,,,,,,,,,,under,001,2019_Feb_08_1657,body_behavioural,59.69647304402035,
0,“I really could've hidden something in my shoes quite easily.” ,2,1,,,,0,0,0,0,,,,,0,7,7,7,,,,,,,,,,,,,,,,,,,,,,,,,,,9,0.034100498000043444,,,,,,,,,,,,,,,,,,,under,001,2019_Feb_08_1657,body_behavioural,59.69647304402035,
0,"Jessie, exasperated at his need to broadcast his every inner thought, scowled at the conveyor belt.",2,1,,,,0,0,0,0,,,,,0,8,8,8,,,,,,,,,,,,,,,,,,,,,,,,,,,9,0.10417851500005781,,,,,,,,,,,,,,,,,,,under,001,2019_Feb_08_1657,body_behavioural,59.69647304402035,
0,"“What?”, he asked.",2,1,,,,0,0,0,0,,,,,0,9,9,9,,,,,,,,,,,,,,,,,,,,,,,,,,,1,0.06800107599997318,,,,,,,,,,,,,,,,,,,under,001,2019_Feb_08_1657,body_behavioural,59.69647304402035,
0,She balled up her fists and turned to face him.,2,1,,,,0,0,0,0,,,,,0,10,10,10,,,,,,,,,,,,,,,,,,,,,,,,,,,9,0.03393801899994742,,,,,,,,,,,,,,,,,,,under,001,2019_Feb_08_1657,body_behavioural,59.69647304402035,
0,"“Calvin, I really don’t think I can do this anymore.",2,2,,,,0,0,0,0,,,,,0,11,11,11,,,,,,,,,,,,,,,,,,,,,,,,,,,1,0.11804274999997233,,,,,,,,,,,,,,,,,,,under,001,2019_Feb_08_1657,body_behavioural,59.69647304402035,
0,I think it’s best that once we get to the States we part ways for good.” ,2,2,,,,0,0,0,0,,,,,0,12,12,12,,,,,,,,,,,,,,,,,,,,,,,,,,,9,0.12418022600002132,,,,,,,,,,,,,,,,,,,under,001,2019_Feb_08_1657,body_behavioural,59.69647304402035,
0,Calvin said nothing as he grabbed his bag and quickly walked away.,2,2,,,,0,0,0,0,,,,,0,13,13,13,,,,,,,,,,,,,,,,,,,,,,,,,,,1,0.018448051999939707,,,,,,,,,,,,,,,,,,,under,001,2019_Feb_08_1657,body_behavioural,59.69647304402035,
0,"Jessie trailed behind him as they made their way quickly toward their gate, shouting at his back in hopes of getting a response.",3,2,,,,0,0,0,0,,,,,0,14,14,14,,,,,,,,,,,,,,,,,,,,,,,,,,,9,0.051322111999979825,,,,,,,,,,,,,,,,,,,under,001,2019_Feb_08_1657,body_behavioural,59.69647304402035,
0,“So now you have nothing to say?,3,2,,,,0,0,0,0,,,,,0,15,15,15,,,,,,,,,,,,,,,,,,,,,,,,,,,9,0.18363239899997552,,,,,,,,,,,,,,,,,,,under,001,2019_Feb_08_1657,body_behavioural,59.69647304402035,
0,"Every time we talk, you are just looking for a way to steer the conversation back into your stories.”",3,2,,,,0,0,0,0,,,,,0,16,16,16,,,,,,,,,,,,,,,,,,,,,,,,,,,1,0.02390553199995793,,,,,,,,,,,,,,,,,,,under,001,2019_Feb_08_1657,body_behavioural,59.69647304402035,
0,"Calvin didn't slow his pace, gritting his teeth and staring straight ahead. ",3,2,,,,0,0,0,0,,,,,0,17,17,17,,,,,,,,,,,,,,,,,,,,,,,,,,,9,0.03957069599994156,,,,,,,,,,,,,,,,,,,under,001,2019_Feb_08_1657,body_behavioural,59.69647304402035,
0,He was very frustrated that he had been trying to appease Jessie this whole time and this was how she responded. ,3,2,,,,0,0,0,0,,,,,0,18,18,18,,,,,,,,,,,,,,,,,,,,,,,,,,,1,0.052082004999988385,,,,,,,,,,,,,,,,,,,under,001,2019_Feb_08_1657,body_behavioural,59.69647304402035,
0,The silence was punctuated only by the rapid rhythmic clacking of their suitcase wheels over the tile floor as they continued power-walking through the terminal. ,3,2,,,,0,0,0,0,,,,,0,19,19,19,,,,,,,,,,,,,,,,,,,,,,,,,,,9,0.019082114999946498,,,,,,,,,,,,,,,,,,,under,001,2019_Feb_08_1657,body_behavioural,59.69647304402035,
0,"“Well?” Jessie said, and Calvin finally turned to her.",3,2,,,,0,0,0,0,,,,,0,20,20,20,,,,,,,,,,,,,,,,,,,,,,,,,,,1,0.10161612100000639,,,,,,,,,,,,,,,,,,,under,001,2019_Feb_08_1657,body_behavioural,59.69647304402035,
0,"“Well, Jessie, this makes perfect sense. ",3,3,,,,0,0,0,0,,,,,0,21,21,21,,,,,,,,,,,,,,,,,,,,,,,,,,,1,0.1519737810000379,,,,,,,,,,,,,,,,,,,under,001,2019_Feb_08_1657,body_behavioural,59.69647304402035,
0,"If you feel this way, then I don’t want to keep boring you, and I agree, let’s part ways once we make it back.",3,3,,,,0,0,0,0,,,,,0,22,22,22,,,,,,,,,,,,,,,,,,,,,,,,,,,9,0.12058280600001581,,,,,,,,,,,,,,,,,,,under,001,2019_Feb_08_1657,body_behavioural,59.69647304402035,
0,You should’ve spoken up about my apparent intolerability before you decided to plan this vacation.”,3,3,,,,0,0,0,0,,,,,0,23,23,23,,,,,,,,,,,,,,,,,,,,,,,,,,,1,0.0006157810000786412,,,,,,,,,,,,,,,,,,,under,001,2019_Feb_08_1657,body_behavioural,59.69647304402035,
0,"He was clearly hurt, but thought it was pointless to argue. ",3,3,,,,0,0,0,0,,,,,0,24,24,24,,,,,,,,,,,,,,,,,,,,,,,,,,,9,0.052391650999993544,,,,,,,,,,,,,,,,,,,under,001,2019_Feb_08_1657,body_behavioural,59.69647304402035,
0,"They finally made it to the gate, just as they heard the final call for passengers boarding their flight.",3,3,,,,0,0,0,0,,,,,0,25,25,25,,,,,,,,,,,,,,,,,,,,,,,,,,,1,0.0002852009999969596,,,,,,,,,,,,,,,,,,,under,001,2019_Feb_08_1657,body_behavioural,59.69647304402035,
0,"They scanned their tickets, and the annoyed flight attendant shooed them onto the jet bridge and then closed the door behind them.",4,3,,,,0,0,0,0,,,,,0,26,26,26,,,,,,,,,,,,,,,,,,,,,,,,,,,9,0.05036692299995593,,,,,,,,,,,,,,,,,,,under,001,2019_Feb_08_1657,body_behavioural,59.69647304402035,
0,"Luckily, they had forgotten to arrange seats next to each other on the flight back.",4,3,,,,0,0,0,0,,,,,0,27,27,27,,,,,,,,,,,,,,,,,,,,,,,,,,,1,0.03519648300004974,,,,,,,,,,,,,,,,,,,under,001,2019_Feb_08_1657,body_behavioural,59.69647304402035,
0,"They both had first-class tickets, but Jessie was headed for seat 1B while Calvin's seat was 4F. ",4,3,,,,0,0,0,0,,,,,0,28,28,28,,,,,,,,,,,,,,,,,,,,,,,,,,,9,0.03533800499997142,,,,,,,,,,,,,,,,,,,under,001,2019_Feb_08_1657,body_behavioural,59.69647304402035,
0,"Before Jessie sat down, she took a deep breath and then awkwardly shook Calvin’s hand, mumbling, “Well, have a nice flight.” ",4,4,,,,0,0,0,0,,,,,0,29,29,29,,,,,,,,,,,,,,,,,,,,,,,,,,,1,0.06810360800000126,,,,,,,,,,,,,,,,,,,under,001,2019_Feb_08_1657,body_behavioural,59.69647304402035,
0,He laughed in disbelief and walked to his window seat three rows back to get ready for takeoff.,4,4,,,,0,0,0,0,,,,,0,30,30,30,,,,,,,,,,,,,,,,,,,,,,,,,,,9,0.17422624300002099,,,,,,,,,,,,,,,,,,,under,001,2019_Feb_08_1657,body_behavioural,59.69647304402035,
0,Both were upset but glad that they would have this flight to mull things over and recenter. ,4,4,,,,0,0,0,0,,,,,0,31,31,31,,,,,,,,,,,,,,,,,,,,,,,,,,,9,0.11782454000001508,,,,,,,,,,,,,,,,,,,under,001,2019_Feb_08_1657,body_behavioural,59.69647304402035,
0,,,,,,,0,0,0,0,,,,,,,,,,,,,,,,,,,,,,,,,,,,,,,,,,,,,,,,,,,,,,,,,,,,,,,under,001,2019_Feb_08_1657,body_behavioural,59.69647304402035,
1,,,,,,,0,1,1,1,0,0,0,0,,,,,,,,,,,,,,,,,,,,,,,,,space,0.7020443970000088,space,0.317698784000072,space,0.43477143099994464,,,,,,,,,,,,,,,,,,,,,under,001,2019_Feb_08_1657,body_behavioural,59.69647304402035,
1,"Jeff, hoping that today would be a pivotal day for his new business, had only been waiting inside the doors of the airport for a few minutes when he saw William and eagerly waved him over. ",1,1,,,,0,1,1,1,,,,,0,0,0,0,,,,,,,,,,,,,,,,,,,,,,,,,,,1,0.8856699510000681,,,,,,,,,,,,,,,,,,,under,001,2019_Feb_08_1657,body_behavioural,59.69647304402035,
1,"Jeff, checking his watch, was pleased to see that the two of them had two hours to discuss business before their flights left Boston.",1,1,,,,0,1,1,1,,,,,0,1,1,1,,,,,,,,,,,,,,,,,,,,,,,,,,,9,0.018466345999968325,,,,,,,,,,,,,,,,,,,under,001,2019_Feb_08_1657,body_behavioural,59.69647304402035,
1,The two had met the night before in line for the bathroom at a local bar. ,1,1,,,,0,1,1,1,,,,,0,2,2,2,,,,,,,,,,,,,,,,,,,,,,,,,,,1,0.05179280499999095,,,,,,,,,,,,,,,,,,,under,001,2019_Feb_08_1657,body_behavioural,59.69647304402035,
1,"Jeff had delivered some surprisingly-detailed complaints to William about the wine selection, and they quickly learned that Jeff was a representative for wine vineyards in the Northeast and William was a wine buyer for corporate events.",1,1,,,,0,1,1,1,,,,,0,3,3,3,,,,,,,,,,,,,,,,,,,,,,,,,,,1,0.0850667600000179,,,,,,,,,,,,,,,,,,,under,001,2019_Feb_08_1657,body_behavioural,59.69647304402035,
1,"Since they both had flights out of Boston at the same time, they had agreed to meet at the airport and talk about potentially doing business. ",1,1,,,,0,1,1,1,,,,,0,4,4,4,,,,,,,,,,,,,,,,,,,,,,,,,,,9,0.08477111499996681,,,,,,,,,,,,,,,,,,,under,001,2019_Feb_08_1657,body_behavioural,59.69647304402035,
1,"They headed to security together, pleased to find that the line was not so long, and they chatted a little as they were waiting. ",2,1,,,,0,1,1,1,,,,,0,5,5,5,,,,,,,,,,,,,,,,,,,,,,,,,,,9,0.08587395999995806,,,,,,,,,,,,,,,,,,,under,001,2019_Feb_08_1657,body_behavioural,59.69647304402035,
1,"“It’s crazy that we met last night,” William said, “I am flying out right now to meet my boss, and was worried that I was going to show up empty handed without any local retailer prepared.” ",2,1,,,,0,1,1,1,,,,,0,6,6,6,,,,,,,,,,,,,,,,,,,,,,,,,,,1,0.15244508199998563,,,,,,,,,,,,,,,,,,,under,001,2019_Feb_08_1657,body_behavioural,59.69647304402035,
1,"“I know, what are the chances, right?” Jeff said.",2,1,,,,0,1,1,1,,,,,0,7,7,7,,,,,,,,,,,,,,,,,,,,,,,,,,,9,0.1519811140000229,,,,,,,,,,,,,,,,,,,under,001,2019_Feb_08_1657,body_behavioural,59.69647304402035,
1,"William laughed and said, “I’m glad our shared complaining can come in handy.",2,1,,,,0,1,1,1,,,,,0,8,8,8,,,,,,,,,,,,,,,,,,,,,,,,,,,9,0.10224256100002549,,,,,,,,,,,,,,,,,,,under,001,2019_Feb_08_1657,body_behavioural,59.69647304402035,
1,"I know this is fast, but I'd like to get right down to specifics.",2,2,,,,0,1,1,1,,,,,0,9,9,9,,,,,,,,,,,,,,,,,,,,,,,,,,,1,0.03552184099999067,,,,,,,,,,,,,,,,,,,under,001,2019_Feb_08_1657,body_behavioural,59.69647304402035,
1,I'd like to order a couple of sample shipments from you and present them to our corporate buyers.,2,2,,,,0,1,1,1,,,,,0,10,10,10,,,,,,,,,,,,,,,,,,,,,,,,,,,9,0.0220887309999398,,,,,,,,,,,,,,,,,,,under,001,2019_Feb_08_1657,body_behavioural,59.69647304402035,
1,"Typically we expect to get these kinds of samples at a deep discount, at least half-off the label price.",2,2,,,,0,1,1,1,,,,,0,11,11,11,,,,,,,,,,,,,,,,,,,,,,,,,,,1,0.06785072700006367,,,,,,,,,,,,,,,,,,,under,001,2019_Feb_08_1657,body_behavioural,59.69647304402035,
1,"This is nothing, okay, compared to what you will be making if one of these buyers makes a contract.",2,2,,,,0,1,1,1,,,,,0,12,12,12,,,,,,,,,,,,,,,,,,,,,,,,,,,9,0.001666619000047831,,,,,,,,,,,,,,,,,,,under,001,2019_Feb_08_1657,body_behavioural,59.69647304402035,
1,So I propose that you send us $600 worth of wine shipments for a price of $300.”,2,2,,,,0,1,1,1,,,,,0,13,13,13,,,,,,,,,,,,,,,,,,,,,,,,,,,9,0.0510074710000481,,,,,,,,,,,,,,,,,,,under,001,2019_Feb_08_1657,body_behavioural,59.69647304402035,
1,"When it was their turn to go through the metal detector, they took off their shoes and pulled out their laptops.",2,2,,,,0,1,1,1,,,,,0,14,14,14,,,,,,,,,,,,,,,,,,,,,,,,,,,9,0.1345814530000098,,,,,,,,,,,,,,,,,,,under,001,2019_Feb_08_1657,body_behavioural,59.69647304402035,
1,"Jeff mulled over the offer, nodding noncommittally to William's pitch as they proceeded through the metal detector and retrieved their belongings.",2,2,,,,0,1,1,1,,,,,0,15,15,15,,,,,,,,,,,,,,,,,,,,,,,,,,,9,0.11880282200002057,,,,,,,,,,,,,,,,,,,under,001,2019_Feb_08_1657,body_behavioural,59.69647304402035,
1,"They began to walk through the concourse, and William handed some printed spreadsheets to Jeff as they navigated toward their gates at the end of the terminal.",3,2,,,,0,1,1,1,,,,,0,16,16,16,,,,,,,,,,,,,,,,,,,,,,,,,,,9,0.06813105499998073,,,,,,,,,,,,,,,,,,,under,001,2019_Feb_08_1657,body_behavioural,59.69647304402035,
1,"Jeff, weaving through the crowds of travelers, squinted at William's rosy projections of the number of bottles he could be able to purchase in the future.",3,2,,,,0,1,1,1,,,,,0,17,17,17,,,,,,,,,,,,,,,,,,,,,,,,,,,9,0.13568511300002228,,,,,,,,,,,,,,,,,,,under,001,2019_Feb_08_1657,body_behavioural,59.69647304402035,
1,"Finally Jeff said, “I don’t know, we’re not coming from corporate vineyards, so gambling with sample shipments is the kind of risk we can’t necessarily make. ",3,3,,,,0,1,1,1,,,,,0,18,18,18,,,,,,,,,,,,,,,,,,,,,,,,,,,9,0.08488769000007323,,,,,,,,,,,,,,,,,,,under,001,2019_Feb_08_1657,body_behavioural,59.69647304402035,
1,"These corporate purchases would have to be huge and practically guaranteed, to offset the loss from selling sample shipments at this price.”",3,3,,,,0,1,1,1,,,,,0,19,19,19,,,,,,,,,,,,,,,,,,,,,,,,,,,9,0.11837326600004872,,,,,,,,,,,,,,,,,,,under,001,2019_Feb_08_1657,body_behavioural,59.69647304402035,
1,"They walked to the gates very slowly, barely registering the hubbub of the airport since they were so caught up in figuring out this deal before their flights left.",3,3,,,,0,1,1,1,,,,,0,20,20,20,,,,,,,,,,,,,,,,,,,,,,,,,,,9,0.10178906900000584,,,,,,,,,,,,,,,,,,,under,001,2019_Feb_08_1657,body_behavioural,59.69647304402035,
1,"At the end of their long walk, they got to Jeff’s gate first, which had begun boarding passengers.",3,3,,,,0,1,1,1,,,,,0,21,21,21,,,,,,,,,,,,,,,,,,,,,,,,,,,9,0.13491251999994347,,,,,,,,,,,,,,,,,,,under,001,2019_Feb_08_1657,body_behavioural,59.69647304402035,
1,"In these last minutes, William and Jeff agreed on a compromise rate on the sample shipment, paying $400 for a $600 shipment, and they finalized the deal with a handshake. ",3,4,,,,0,1,1,1,,,,,0,22,22,22,,,,,,,,,,,,,,,,,,,,,,,,,,,9,0.0680650169999808,,,,,,,,,,,,,,,,,,,under,001,2019_Feb_08_1657,body_behavioural,59.69647304402035,
1,"“Well, what a tremendous pleasure to do business with you and to have all this work out,” William said.",3,4,,,,0,1,1,1,,,,,0,23,23,23,,,,,,,,,,,,,,,,,,,,,,,,,,,1,0.0016855920000580227,,,,,,,,,,,,,,,,,,,under,001,2019_Feb_08_1657,body_behavioural,59.69647304402035,
1,"Jeff nodded enthusiastically, and responded, “Likewise, this has been great.  ",3,4,,,,0,1,1,1,,,,,0,24,24,24,,,,,,,,,,,,,,,,,,,,,,,,,,,9,0.08788425699992786,,,,,,,,,,,,,,,,,,,under,001,2019_Feb_08_1657,body_behavioural,59.69647304402035,
1,I'll let you get to your gate.,3,4,,,,0,1,1,1,,,,,0,25,25,25,,,,,,,,,,,,,,,,,,,,,,,,,,,1,0.03438150699992093,,,,,,,,,,,,,,,,,,,under,001,2019_Feb_08_1657,body_behavioural,59.69647304402035,
1,"Once we’re both back on the ground, we can get all the shipments in the books.”",3,4,,,,0,1,1,1,,,,,0,26,26,26,,,,,,,,,,,,,,,,,,,,,,,,,,,9,0.05440957000007529,,,,,,,,,,,,,,,,,,,under,001,2019_Feb_08_1657,body_behavioural,59.69647304402035,
1,They parted with a wave as Jeff scanned his boarding pass at the gate. ,3,4,,,,0,1,1,1,,,,,0,27,27,27,,,,,,,,,,,,,,,,,,,,,,,,,,,1,0.035433123000075284,,,,,,,,,,,,,,,,,,,under,001,2019_Feb_08_1657,body_behavioural,59.69647304402035,
1,He walked onto the plane and sat down in his aisle seat in the business class section.,4,4,,,,0,1,1,1,,,,,0,28,28,28,,,,,,,,,,,,,,,,,,,,,,,,,,,9,0.06606988399994407,,,,,,,,,,,,,,,,,,,under,001,2019_Feb_08_1657,body_behavioural,59.69647304402035,
1,He typed out a quick email on his phone letting the rest of his team know the good news. ,4,4,,,,0,1,1,1,,,,,0,29,29,29,,,,,,,,,,,,,,,,,,,,,,,,,,,1,0.022244674000035047,,,,,,,,,,,,,,,,,,,under,001,2019_Feb_08_1657,body_behavioural,59.69647304402035,
1,"When the flight attendant came by, he ordered a glass of champagne to celebrate.",4,4,,,,0,1,1,1,,,,,0,30,30,30,,,,,,,,,,,,,,,,,,,,,,,,,,,9,0.05228711299992028,,,,,,,,,,,,,,,,,,,under,001,2019_Feb_08_1657,body_behavioural,59.69647304402035,
1,,,,,,,0,1,1,1,,,,,,,,,,,,,,,,,,,,,,,,,,,,,,,,,,,,,,,,,,,,,,,,,,,,,,,under,001,2019_Feb_08_1657,body_behavioural,59.69647304402035,
2,,,,,,,0,2,2,2,0,0,0,0,,,,,,,,,,,,,,,,,,,,,,,,,space,0.7004479700000275,space,0.25157759199998964,space,0.46961325500001294,,,,,,,,,,,,,,,,,,,,,under,001,2019_Feb_08_1657,body_behavioural,59.69647304402035,
2,"Alvira and Senna walked into the restaurant hand in sweaty hand with quite different expectations: Senna was going to propose tonight, and Alvira had no idea.",1,1,None,None,,0,2,2,2,,,,,0,0,0,0,,,,,,,,,,,,,,,,,,,,,,,,,,,1,0.31595523600003617,,,,,,,,,,,,,,,,,,,under,001,2019_Feb_08_1657,body_behavioural,59.69647304402035,
2,"He took a deep breath, trying to calm his nerves as worst case scenarios ran through his mind. ",1,1,None,None,,0,2,2,2,,,,,0,1,1,1,,,,,,,,,,,,,,,,,,,,,,,,,,,9,0.03335367700003644,,,,,,,,,,,,,,,,,,,under,001,2019_Feb_08_1657,body_behavioural,59.69647304402035,
2,The entrance of the restaurant was dazzling; chandeliers spread their warm light onto the delicate place settings of all the tables filled with guests dressed to the nines. ,1,1,None,None,,0,2,2,2,,,,,0,2,2,2,,,,,,,,,,,,,,,,,,,,,,,,,,,1,0.01767040699996869,,,,,,,,,,,,,,,,,,,under,001,2019_Feb_08_1657,body_behavioural,59.69647304402035,
2,"Through the floor-to-ceiling arched windows of the back wall, they saw the sun setting onto the Pacific ocean.",1,1,None,None,,0,2,2,2,,,,,0,3,3,3,,,,,,,,,,,,,,,,,,,,,,,,,,,9,0.018515778000050886,,,,,,,,,,,,,,,,,,,under,001,2019_Feb_08_1657,body_behavioural,59.69647304402035,
2,"This was surely one of the best restaurants on the west coast, situated right on the beach.",1,1,None,None,,0,2,2,2,,,,,0,4,4,4,,,,,,,,,,,,,,,,,,,,,,,,,,,1,0.05214067800000066,,,,,,,,,,,,,,,,,,,under,001,2019_Feb_08_1657,body_behavioural,59.69647304402035,
2,"Senna gave his name to the host, who quickly located their reservation with an almost comically wide customer-service smile.",1,1,7.0,None,,0,2,2,2,,,,,0,5,5,5,,,,,,,,,,,,,,,,,,,,,,,,,,,1,0.11902582400000483,,,,,,,,,,,,,,,,,,,under,001,2019_Feb_08_1657,body_behavioural,59.69647304402035,
2,He led them to a table right by the window.,2,1,None,None,,0,2,2,2,,,,,0,6,6,6,,,,,,,,,,,,,,,,,,,,,,,,,,,9,0.13462958900004196,,,,,,,,,,,,,,,,,,,under,001,2019_Feb_08_1657,body_behavioural,59.69647304402035,
2,"He brought out some very small menus, with a short list of the celebrity chef's carefully selected daily dishes written in a loopy, cursive font unadorned by any mention of prices.",2,1,None,9.0,,0,2,2,2,,,,,0,7,7,7,,,,,,,,,,,,,,,,,,,,,,,,,,,9,0.06836828399991646,,,,,,,,,,,,,,,,,,,under,001,2019_Feb_08_1657,body_behavioural,59.69647304402035,
2,Senna slipped off to the bathroom to check to make sure the ring was in order.,2,2,None,None,,0,2,2,2,,,,,0,8,8,8,,,,,,,,,,,,,,,,,,,,,,,,,,,1,0.0019066720000182613,,,,,,,,,,,,,,,,,,,under,001,2019_Feb_08_1657,body_behavioural,59.69647304402035,
2,"The ring contained a canary diamond that had been in his grandmother’s wedding ring, and it was a brilliant stone that was accentuated by the small white diamonds encircling it.",2,2,None,None,,0,2,2,2,,,,,0,9,9,9,,,,,,,,,,,,,,,,,,,,,,,,,,,9,0.035368223999967086,,,,,,,,,,,,,,,,,,,under,001,2019_Feb_08_1657,body_behavioural,59.69647304402035,
2,"He walked back to the table after handing the small, velvet box to a waiter at the front podium.",2,2,6.0,None,,0,2,2,2,,,,,0,10,10,10,,,,,,,,,,,,,,,,,,,,,,,,,,,1,0.0016302850000329272,,,,,,,,,,,,,,,,,,,under,001,2019_Feb_08_1657,body_behavioural,59.69647304402035,
2,He came back just as their waiter was approaching the table to get their order.,3,2,None,None,,0,2,2,2,,,,,0,11,11,11,,,,,,,,,,,,,,,,,,,,,,,,,,,9,0.05580939300000409,,,,,,,,,,,,,,,,,,,under,001,2019_Feb_08_1657,body_behavioural,59.69647304402035,
2,"Senna ordered the oysters with garlic-parmesan sauce, and Alvira ordered the sauteed sea scallops with caramelized apples. ",3,2,None,None,,0,2,2,2,,,,,0,12,12,12,,,,,,,,,,,,,,,,,,,,,,,,,,,1,0.01829871600000388,,,,,,,,,,,,,,,,,,,under,001,2019_Feb_08_1657,body_behavioural,59.69647304402035,
2,"“Excellent choices,” the waiter said with a subsequent brisk spin away from the table.",3,2,None,None,,0,2,2,2,,,,,0,13,13,13,,,,,,,,,,,,,,,,,,,,,,,,,,,9,0.018013322000001608,,,,,,,,,,,,,,,,,,,under,001,2019_Feb_08_1657,body_behavioural,59.69647304402035,
2,"“What a beautiful place, Senna. ",3,2,None,None,,0,2,2,2,,,,,0,14,14,14,,,,,,,,,,,,,,,,,,,,,,,,,,,1,0.10149821799996062,,,,,,,,,,,,,,,,,,,under,001,2019_Feb_08_1657,body_behavioural,59.69647304402035,
2,"Really this is too much just to celebrate the first tomatoes I grew in the garden, like, this is absurd,” Alvira said.",3,2,None,None,,0,2,2,2,,,,,0,15,15,15,,,,,,,,,,,,,,,,,,,,,,,,,,,9,0.16804857199997514,,,,,,,,,,,,,,,,,,,under,001,2019_Feb_08_1657,body_behavioural,59.69647304402035,
2,"Senna laughed and said, “No, those were really the best tomatoes I’ve ever had. ",3,2,None,None,,0,2,2,2,,,,,0,16,16,16,,,,,,,,,,,,,,,,,,,,,,,,,,,9,0.13472471699992639,,,,,,,,,,,,,,,,,,,under,001,2019_Feb_08_1657,body_behavioural,59.69647304402035,
2,We had to celebrate.” ,3,2,None,None,,0,2,2,2,,,,,0,17,17,17,,,,,,,,,,,,,,,,,,,,,,,,,,,9,0.15140610399998877,,,,,,,,,,,,,,,,,,,under,001,2019_Feb_08_1657,body_behavioural,59.69647304402035,
2,"They talked and laughed as the sun sank below the horizon, and the glow from the ocean was replaced by the glow from the chandeliers.",3,2,8.0,None,,0,2,2,2,,,,,0,18,18,18,,,,,,,,,,,,,,,,,,,,,,,,,,,9,0.1017157149999548,,,,,,,,,,,,,,,,,,,under,001,2019_Feb_08_1657,body_behavioural,59.69647304402035,
2,"The waiter eventually returned with their meals, and everything was even more delicious than they had expected, especially the oysters, which Senna said tasted like the ocean. ",4,2,None,None,,0,2,2,2,,,,,0,19,19,19,,,,,,,,,,,,,,,,,,,,,,,,,,,9,0.08538704199997937,,,,,,,,,,,,,,,,,,,under,001,2019_Feb_08_1657,body_behavioural,59.69647304402035,
2,Then he paused and looked at Alvira meaningfully. ,4,2,None,None,,0,2,2,2,,,,,0,20,20,20,,,,,,,,,,,,,,,,,,,,,,,,,,,1,0.034720297000035316,,,,,,,,,,,,,,,,,,,under,001,2019_Feb_08_1657,body_behavioural,59.69647304402035,
2, “It’s really been the best three years of my life with you.,4,2,None,None,,0,2,2,2,,,,,0,21,21,21,,,,,,,,,,,,,,,,,,,,,,,,,,,9,0.05093400600003406,,,,,,,,,,,,,,,,,,,under,001,2019_Feb_08_1657,body_behavioural,59.69647304402035,
2,"I couldn’t imagine it any other way, and I don’t want to.",4,2,None,None,,0,2,2,2,,,,,0,22,22,22,,,,,,,,,,,,,,,,,,,,,,,,,,,1,0.08282516600002054,,,,,,,,,,,,,,,,,,,under,001,2019_Feb_08_1657,body_behavioural,59.69647304402035,
2,"I really want to spend the rest of my years eating garden tomatoes, whatever it is, with you.” ",4,2,None,None,,0,2,2,2,,,,,0,23,23,23,,,,,,,,,,,,,,,,,,,,,,,,,,,9,0.002143936000038593,,,,,,,,,,,,,,,,,,,under,001,2019_Feb_08_1657,body_behavioural,59.69647304402035,
2,"Alvira smiled, “I want the same with you too, Senna.” ",4,2,None,17.0,,0,2,2,2,,,,,0,24,24,24,,,,,,,,,,,,,,,,,,,,,,,,,,,1,0.08497461700005715,,,,,,,,,,,,,,,,,,,under,001,2019_Feb_08_1657,body_behavioural,59.69647304402035,
2,"Senna nodded at the waiter who had been watching attentively, and he quickly strode over to place a small, elegant cake topped with the ring in front of Alvira. ",4,3,None,None,,0,2,2,2,,,,,0,25,25,25,,,,,,,,,,,,,,,,,,,,,,,,,,,9,0.1356653620000543,,,,,,,,,,,,,,,,,,,under,001,2019_Feb_08_1657,body_behavioural,59.69647304402035,
2,Her eyes widened in shock when she realized what she was looking at.,4,3,None,None,,0,2,2,2,,,,,0,26,26,26,,,,,,,,,,,,,,,,,,,,,,,,,,,9,0.11898429699999724,,,,,,,,,,,,,,,,,,,under,001,2019_Feb_08_1657,body_behavioural,59.69647304402035,
2,"“Alvira, will you marry me? ",4,3,None,None,,0,2,2,2,,,,,0,27,27,27,,,,,,,,,,,,,,,,,,,,,,,,,,,1,0.0017138150000164387,,,,,,,,,,,,,,,,,,,under,001,2019_Feb_08_1657,body_behavioural,59.69647304402035,
2,"I love you, and I will never stop loving you.” ",4,3,None,None,,0,2,2,2,,,,,0,28,28,28,,,,,,,,,,,,,,,,,,,,,,,,,,,9,0.10037588600005165,,,,,,,,,,,,,,,,,,,under,001,2019_Feb_08_1657,body_behavioural,59.69647304402035,
2,Alvira started to cry.,4,3,None,None,,0,2,2,2,,,,,0,29,29,29,,,,,,,,,,,,,,,,,,,,,,,,,,,1,0.05063994499994351,,,,,,,,,,,,,,,,,,,under,001,2019_Feb_08_1657,body_behavioural,59.69647304402035,
2,"The room became silent, and everyone turned to their table. ",4,3,None,5.0,,0,2,2,2,,,,,0,30,30,30,,,,,,,,,,,,,,,,,,,,,,,,,,,9,0.0671963100000994,,,,,,,,,,,,,,,,,,,under,001,2019_Feb_08_1657,body_behavioural,59.69647304402035,
2,"“Yes, of course, yes!” she shouted as she wiped away tears.",4,4,None,None,,0,2,2,2,,,,,0,31,31,31,,,,,,,,,,,,,,,,,,,,,,,,,,,1,0.08424019799997495,,,,,,,,,,,,,,,,,,,under,001,2019_Feb_08_1657,body_behavioural,59.69647304402035,
2,The neighboring tables exploded in applause.,4,4,None,None,,0,2,2,2,,,,,0,32,32,32,,,,,,,,,,,,,,,,,,,,,,,,,,,9,0.0016882649999843125,,,,,,,,,,,,,,,,,,,under,001,2019_Feb_08_1657,body_behavioural,59.69647304402035,
2,The waiter returned with a bottle of champagne and popped it. ,4,4,None,None,,0,2,2,2,,,,,0,33,33,33,,,,,,,,,,,,,,,,,,,,,,,,,,,1,0.11678153400009705,,,,,,,,,,,,,,,,,,,under,001,2019_Feb_08_1657,body_behavioural,59.69647304402035,
2,"All of this went unnoticed by Senna and Alvira as they looked into each others’ eyes, and he slipped the ring onto her finger. ",4,4,None,None,,0,2,2,2,,,,,0,34,34,34,,,,,,,,,,,,,,,,,,,,,,,,,,,1,0.13527284499991765,,,,,,,,,,,,,,,,,,,under,001,2019_Feb_08_1657,body_behavioural,59.69647304402035,
2,"She held up her hand to admire it, and her glittering tears of joy matched the shine from her ring.   
",4,4,17.0,5.0,,0,2,2,2,,,,,0,35,35,35,,,,,,,,,,,,,,,,,,,,,,,,,,,9,0.13488615799997206,,,,,,,,,,,,,,,,,,,under,001,2019_Feb_08_1657,body_behavioural,59.69647304402035,
2,,,,,,,0,2,2,2,,,,,,,,,,,,,,,,,,,,,,,,,,,,,,,,,,,,,,,,,,,,,,,,,,,,,,,under,001,2019_Feb_08_1657,body_behavioural,59.69647304402035,
3,,,,,,,0,3,3,3,0,0,0,0,,,,,,,,,,,,,,,,,,,,,,,,,space,0.584846921999997,space,0.2849866320000274,space,0.6686204000000089,,,,,,,,,,,,,,,,,,,,,under,001,2019_Feb_08_1657,body_behavioural,59.69647304402035,
3,"James noticed Teresa immediately as she walked into the restaurant - or, more accurately as she attempted to walk into the restaurant. ",1,1,,,,0,3,3,3,,,,,0,0,0,0,,,,,,,,,,,,,,,,,,,,,,,,,,,9,0.5847142349999785,,,,,,,,,,,,,,,,,,,under,001,2019_Feb_08_1657,body_behavioural,59.69647304402035,
3,"She was typing intently on her phone and ran straight into the diner's clear, glass door with an echoing thud. ",1,1,,,,0,3,3,3,,,,,0,1,1,1,,,,,,,,,,,,,,,,,,,,,,,,,,,1,0.06877411599998595,,,,,,,,,,,,,,,,,,,under,001,2019_Feb_08_1657,body_behavioural,59.69647304402035,
3,Everyone waiting around the cash register turned to see if she was okay.,1,1,,,,0,3,3,3,,,,,0,2,2,2,,,,,,,,,,,,,,,,,,,,,,,,,,,9,0.08422196200001508,,,,,,,,,,,,,,,,,,,under,001,2019_Feb_08_1657,body_behavioural,59.69647304402035,
3,Teresa rubbed her head.,1,1,,,,0,3,3,3,,,,,0,3,3,3,,,,,,,,,,,,,,,,,,,,,,,,,,,1,0.06761841900004129,,,,,,,,,,,,,,,,,,,under,001,2019_Feb_08_1657,body_behavioural,59.69647304402035,
3,"While being both confused and unembarrassed, she looked mostly indignant that the door had been in her way. ",1,1,,,,0,3,3,3,,,,,0,4,4,4,,,,,,,,,,,,,,,,,,,,,,,,,,,9,0.018289616999936698,,,,,,,,,,,,,,,,,,,under,001,2019_Feb_08_1657,body_behavioural,59.69647304402035,
3,James found this quite charming and stole a couple glances at her until she noticed and wrinkled her eyebrows at him in suspicion. ,1,1,,,,0,3,3,3,,,,,0,5,5,5,,,,,,,,,,,,,,,,,,,,,,,,,,,1,0.01870656300002338,,,,,,,,,,,,,,,,,,,under,001,2019_Feb_08_1657,body_behavioural,59.69647304402035,
3,"The restaurant they were in was a cabin-themed diner with wooden booths and bar, walls covered in plaid blankets, and antler decorations. ",1,1,,,,0,3,3,3,,,,,0,6,6,6,,,,,,,,,,,,,,,,,,,,,,,,,,,1,0.10164294999992762,,,,,,,,,,,,,,,,,,,under,001,2019_Feb_08_1657,body_behavioural,59.69647304402035,
3,The waiter saw that James and Teresa were both alone and motioned to both of them. ,1,1,,,,0,3,3,3,,,,,0,7,7,7,,,,,,,,,,,,,,,,,,,,,,,,,,,9,0.0019471999999041145,,,,,,,,,,,,,,,,,,,under,001,2019_Feb_08_1657,body_behavioural,59.69647304402035,
3,“Right this way.,2,1,,,,0,3,3,3,,,,,0,8,8,8,,,,,,,,,,,,,,,,,,,,,,,,,,,1,0.1016631929999221,,,,,,,,,,,,,,,,,,,under,001,2019_Feb_08_1657,body_behavioural,59.69647304402035,
3,You two don't mind sitting at the counter?” ,2,1,,,,0,3,3,3,,,,,0,9,9,9,,,,,,,,,,,,,,,,,,,,,,,,,,,9,0.001689252000005581,,,,,,,,,,,,,,,,,,,under,001,2019_Feb_08_1657,body_behavioural,59.69647304402035,
3,They sat a seat apart from each other on the split tree trunk that served as a bench.,2,1,,,,0,3,3,3,,,,,0,10,10,10,,,,,,,,,,,,,,,,,,,,,,,,,,,1,0.1036748000000216,,,,,,,,,,,,,,,,,,,under,001,2019_Feb_08_1657,body_behavioural,59.69647304402035,
3, The waitress behind the counter gave them bright neon menus that were filled with breakfast items.,2,1,,,,0,3,3,3,,,,,0,11,11,11,,,,,,,,,,,,,,,,,,,,,,,,,,,1,0.13399067800003195,,,,,,,,,,,,,,,,,,,under,001,2019_Feb_08_1657,body_behavioural,59.69647304402035,
3,"Teresa quickly glanced through it, then pulled out a book and started reading it while James played with the salt and pepper shakers as he tried to think of an excuse to talk to Teresa.",2,1,,,,0,3,3,3,,,,,0,12,12,12,,,,,,,,,,,,,,,,,,,,,,,,,,,1,0.13631515599990962,,,,,,,,,,,,,,,,,,,under,001,2019_Feb_08_1657,body_behavioural,59.69647304402035,
3,"James eventually turned to her and asked, “Your forehead alright?”",2,2,,,,0,3,3,3,,,,,0,13,13,13,,,,,,,,,,,,,,,,,,,,,,,,,,,9,0.13469854300001316,,,,,,,,,,,,,,,,,,,under,001,2019_Feb_08_1657,body_behavioural,59.69647304402035,
3,She put down her book and gave him a smirk.,2,2,,,,0,3,3,3,,,,,0,14,14,14,,,,,,,,,,,,,,,,,,,,,,,,,,,9,0.1518044160000045,,,,,,,,,,,,,,,,,,,under,001,2019_Feb_08_1657,body_behavioural,59.69647304402035,
3,"“Have you ever been stung by a scorpion?”, she asked him, tilting her head.",2,2,,,,0,3,3,3,,,,,0,15,15,15,,,,,,,,,,,,,,,,,,,,,,,,,,,9,0.12435873900005845,,,,,,,,,,,,,,,,,,,under,001,2019_Feb_08_1657,body_behavioural,59.69647304402035,
3,"“What?”, he asked confusedly.",2,2,,,,0,3,3,3,,,,,0,16,16,16,,,,,,,,,,,,,,,,,,,,,,,,,,,1,0.018776207000087197,,,,,,,,,,,,,,,,,,,under,001,2019_Feb_08_1657,body_behavioural,59.69647304402035,
3, “A scorpion.”,2,2,,,,0,3,3,3,,,,,0,17,17,17,,,,,,,,,,,,,,,,,,,,,,,,,,,9,0.1161450380000133,,,,,,,,,,,,,,,,,,,under,001,2019_Feb_08_1657,body_behavioural,59.69647304402035,
3,James began to worry that Teresa had possibly suffered a concussion in the door crash.,2,2,,,,0,3,3,3,,,,,0,18,18,18,,,,,,,,,,,,,,,,,,,,,,,,,,,1,0.0017325719999234934,,,,,,,,,,,,,,,,,,,under,001,2019_Feb_08_1657,body_behavioural,59.69647304402035,
3,"“Uh no, why?” ",2,2,,,,0,3,3,3,,,,,0,19,19,19,,,,,,,,,,,,,,,,,,,,,,,,,,,9,0.10168395599998803,,,,,,,,,,,,,,,,,,,under,001,2019_Feb_08_1657,body_behavioural,59.69647304402035,
3,"“Because I’ve been stung by one, and since then, things like bumping into doors seem like pretty small potatoes.” ",2,2,,,,0,3,3,3,,,,,0,20,20,20,,,,,,,,,,,,,,,,,,,,,,,,,,,1,0.0002732700000933619,,,,,,,,,,,,,,,,,,,under,001,2019_Feb_08_1657,body_behavioural,59.69647304402035,
3,"They carried on talking, and Teresa told him all about her encounter with a Deathstalker scorpion while she was studying abroad in Egypt.",2,2,,,,0,3,3,3,,,,,0,21,21,21,,,,,,,,,,,,,,,,,,,,,,,,,,,9,0.03529049699989173,,,,,,,,,,,,,,,,,,,under,001,2019_Feb_08_1657,body_behavioural,59.69647304402035,
3,"After a few minutes, the waitress behind the counter came up to them, “Alrighty, can I take you order?” ",3,3,,,,0,3,3,3,,,,,0,22,22,22,,,,,,,,,,,,,,,,,,,,,,,,,,,1,0.0016924930000641325,,,,,,,,,,,,,,,,,,,under,001,2019_Feb_08_1657,body_behavioural,59.69647304402035,
3,"She first looked at Teresa who answered, “I’ll have a Western Omelette and a glass of milk.”",3,3,,,,0,3,3,3,,,,,0,23,23,23,,,,,,,,,,,,,,,,,,,,,,,,,,,9,0.0726835680000022,,,,,,,,,,,,,,,,,,,under,001,2019_Feb_08_1657,body_behavioural,59.69647304402035,
3,Then the waitress turned to James.,3,3,,,,0,3,3,3,,,,,0,24,24,24,,,,,,,,,,,,,,,,,,,,,,,,,,,1,0.05140401000005568,,,,,,,,,,,,,,,,,,,under,001,2019_Feb_08_1657,body_behavioural,59.69647304402035,
3,"James said, “I’ll have the chocolate chip pancakes and a coffee.” ",3,3,,,,0,3,3,3,,,,,0,25,25,25,,,,,,,,,,,,,,,,,,,,,,,,,,,9,0.03567589500005397,,,,,,,,,,,,,,,,,,,under,001,2019_Feb_08_1657,body_behavioural,59.69647304402035,
3,"“Alrighty, comin’ right up!”",3,3,,,,0,3,3,3,,,,,0,26,26,26,,,,,,,,,,,,,,,,,,,,,,,,,,,1,0.06787662099998215,,,,,,,,,,,,,,,,,,,under,001,2019_Feb_08_1657,body_behavioural,59.69647304402035,
3,"They picked up their conversation, and James ended up telling Teresa about a concert he was going to later. ",3,3,,,,0,3,3,3,,,,,0,27,27,27,,,,,,,,,,,,,,,,,,,,,,,,,,,9,0.000283586000023206,,,,,,,,,,,,,,,,,,,under,001,2019_Feb_08_1657,body_behavioural,59.69647304402035,
3,"He invited her to come along, promising her that the concert would be indoors and absolutely free of venomous insects.",3,3,,,,0,3,3,3,,,,,0,28,28,28,,,,,,,,,,,,,,,,,,,,,,,,,,,1,0.11710483399997429,,,,,,,,,,,,,,,,,,,under,001,2019_Feb_08_1657,body_behavioural,59.69647304402035,
3,"Teresa agreed, gave him her number, and they worked out that James would pick her up before the concert and drive them there.",3,3,,,,0,3,3,3,,,,,0,29,29,29,,,,,,,,,,,,,,,,,,,,,,,,,,,9,0.1352055280000286,,,,,,,,,,,,,,,,,,,under,001,2019_Feb_08_1657,body_behavioural,59.69647304402035,
3,"This was not what they had expected from their solitary lunch plans and were both excited, even though Teresa was doing a much better job of hiding it than James. ",3,3,,,,0,3,3,3,,,,,0,30,30,30,,,,,,,,,,,,,,,,,,,,,,,,,,,9,0.10019386199996916,,,,,,,,,,,,,,,,,,,under,001,2019_Feb_08_1657,body_behavioural,59.69647304402035,
3," After awhile,  the waitress brought out their food, and James took this opportunity to scoot closer to her on the log bench. ",4,4,,,,0,3,3,3,,,,,0,31,31,31,,,,,,,,,,,,,,,,,,,,,,,,,,,9,0.13431238399994072,,,,,,,,,,,,,,,,,,,under,001,2019_Feb_08_1657,body_behavioural,59.69647304402035,
3,"Teresa was happy to share the meal with James, despite their food tasting pretty bad. ",4,4,,,,0,3,3,3,,,,,0,32,32,32,,,,,,,,,,,,,,,,,,,,,,,,,,,9,0.1167896079999764,,,,,,,,,,,,,,,,,,,under,001,2019_Feb_08_1657,body_behavioural,59.69647304402035,
3,"Judging by how salty the pancakes tasted, they suspected that the chef had confused the salt and sugar.",4,4,,,,0,3,3,3,,,,,0,33,33,33,,,,,,,,,,,,,,,,,,,,,,,,,,,1,0.00027404799993746565,,,,,,,,,,,,,,,,,,,under,001,2019_Feb_08_1657,body_behavioural,59.69647304402035,
3,"When the meal was over, they got up, hugged, and parted ways. ",4,4,,,,0,3,3,3,,,,,0,34,34,34,,,,,,,,,,,,,,,,,,,,,,,,,,,9,0.06913318399995205,,,,,,,,,,,,,,,,,,,under,001,2019_Feb_08_1657,body_behavioural,59.69647304402035,
3,"James said,“I have to run, got to get to work.",4,4,,,,0,3,3,3,,,,,0,35,35,35,,,,,,,,,,,,,,,,,,,,,,,,,,,1,0.018079576999980418,,,,,,,,,,,,,,,,,,,under,001,2019_Feb_08_1657,body_behavioural,59.69647304402035,
3,See you tonight!”,4,4,,,,0,3,3,3,,,,,0,36,36,36,,,,,,,,,,,,,,,,,,,,,,,,,,,9,0.08493718500005798,,,,,,,,,,,,,,,,,,,under,001,2019_Feb_08_1657,body_behavioural,59.69647304402035,
3,"Teresa smiled and walked towards the door without looking, and almost ran into the door again. ",4,4,,,,0,3,3,3,,,,,0,37,37,37,,,,,,,,,,,,,,,,,,,,,,,,,,,1,0.03426931000001332,,,,,,,,,,,,,,,,,,,under,001,2019_Feb_08_1657,body_behavioural,59.69647304402035,
3,They both laughed and smiled once more goodbye. ,4,4,,,,0,3,3,3,,,,,0,38,38,38,,,,,,,,,,,,,,,,,,,,,,,,,,,9,0.051529039999991255,,,,,,,,,,,,,,,,,,,under,001,2019_Feb_08_1657,body_behavioural,59.69647304402035,
3,,,,,,,0,3,3,3,,,,,,,,,,,,,,,,,,,,,,,,,,,,,,,,,,,,,,,,,,,,,,,,,,,,,,,under,001,2019_Feb_08_1657,body_behavioural,59.69647304402035,
4,,,,,,,0,4,4,4,0,0,0,0,,,,,,,,,,,,,,,,,,,,,,,,,space,0.6182579779999742,space,0.2841483539999672,space,0.35185148599998683,,,,,,,,,,,,,,,,,,,,,under,001,2019_Feb_08_1657,body_behavioural,59.69647304402035,
4,The grocery store was not the place Emmanuella and Liam wanted to be at the moment considering they had been fighting beforehand to the point where Emmanuella was thinking of breaking up with Liam.,1,1,,,,0,4,4,4,,,,,0,0,0,0,,,,,,,,,,,,,,,,,,,,,,,,,,,1,0.7021100360000219,,,,,,,,,,,,,,,,,,,under,001,2019_Feb_08_1657,body_behavioural,59.69647304402035,
4,"However, they had to go grocery shopping because they were hosting a dinner party for friends that evening and had no groceries. ",1,1,,,,0,4,4,4,,,,,0,1,1,1,,,,,,,,,,,,,,,,,,,,,,,,,,,9,0.0016554359999645385,,,,,,,,,,,,,,,,,,,under,001,2019_Feb_08_1657,body_behavioural,59.69647304402035,
4,The grocery store was dimly lit and had dark wood paneling for all the shelves.,1,1,,,,0,4,4,4,,,,,0,2,2,2,,,,,,,,,,,,,,,,,,,,,,,,,,,1,0.04066380099993694,,,,,,,,,,,,,,,,,,,under,001,2019_Feb_08_1657,body_behavioural,59.69647304402035,
4,"The store specialized in organic produce and products catering to desires for high-end products, such as imported cheeses and sauces. ",1,1,,,,0,4,4,4,,,,,0,3,3,3,,,,,,,,,,,,,,,,,,,,,,,,,,,9,0.018535358999997698,,,,,,,,,,,,,,,,,,,under,001,2019_Feb_08_1657,body_behavioural,59.69647304402035,
4,"Emmanuella felt angry as she headed immediately for the pasta section, and Liam trailed behind her. ",2,1,,,,0,4,4,4,,,,,0,4,4,4,,,,,,,,,,,,,,,,,,,,,,,,,,,1,0.05174345200009611,,,,,,,,,,,,,,,,,,,under,001,2019_Feb_08_1657,body_behavioural,59.69647304402035,
4,Emmanuella selected a few boxes of linguine.,2,1,,,,0,4,4,4,,,,,0,5,5,5,,,,,,,,,,,,,,,,,,,,,,,,,,,9,0.016784684000072048,,,,,,,,,,,,,,,,,,,under,001,2019_Feb_08_1657,body_behavioural,59.69647304402035,
4,"“I guess we are having pasta tonight,” Liam said.",2,1,,,,0,4,4,4,,,,,0,6,6,6,,,,,,,,,,,,,,,,,,,,,,,,,,,1,0.10188536600003317,,,,,,,,,,,,,,,,,,,under,001,2019_Feb_08_1657,body_behavioural,59.69647304402035,
4,"Emmanuella looked back at him and said, “Well if you were going to actually help cook, I would be fine with something else.”",2,1,,,,0,4,4,4,,,,,0,7,7,7,,,,,,,,,,,,,,,,,,,,,,,,,,,9,0.11756873800004541,,,,,,,,,,,,,,,,,,,under,001,2019_Feb_08_1657,body_behavioural,59.69647304402035,
4,"Liam sighed, and finally said, “You don’t want me to help.",2,1,,,,0,4,4,4,,,,,0,8,8,8,,,,,,,,,,,,,,,,,,,,,,,,,,,9,0.11928555999998025,,,,,,,,,,,,,,,,,,,under,001,2019_Feb_08_1657,body_behavioural,59.69647304402035,
4,"I try to, but it seems like I always get in the way!” ",2,1,,,,0,4,4,4,,,,,0,9,9,9,,,,,,,,,,,,,,,,,,,,,,,,,,,9,0.15139105399998698,,,,,,,,,,,,,,,,,,,under,001,2019_Feb_08_1657,body_behavioural,59.69647304402035,
4,"Emmanuella angrily threw the pasta into the cart, losing her temper.",2,1,,,,0,4,4,4,,,,,0,10,10,10,,,,,,,,,,,,,,,,,,,,,,,,,,,9,0.13355463499999587,,,,,,,,,,,,,,,,,,,under,001,2019_Feb_08_1657,body_behavioural,59.69647304402035,
4," “Liam, you don’t even try!",2,1,,,,0,4,4,4,,,,,0,11,11,11,,,,,,,,,,,,,,,,,,,,,,,,,,,1,0.03395959199997378,,,,,,,,,,,,,,,,,,,under,001,2019_Feb_08_1657,body_behavioural,59.69647304402035,
4,You know what?,2,1,,,,0,4,4,4,,,,,0,12,12,12,,,,,,,,,,,,,,,,,,,,,,,,,,,9,0.10147054799995203,,,,,,,,,,,,,,,,,,,under,001,2019_Feb_08_1657,body_behavioural,59.69647304402035,
4,I don’t think I can do this anymore. ,2,2,,,,0,4,4,4,,,,,0,13,13,13,,,,,,,,,,,,,,,,,,,,,,,,,,,1,0.017834800999935396,,,,,,,,,,,,,,,,,,,under,001,2019_Feb_08_1657,body_behavioural,59.69647304402035,
4,"I was going to wait until after this unfortunately-timed dinner party tonight to talk about this, but I might as well say it now: I don’t want to be in a relationship with you anymore.",2,2,,,,0,4,4,4,,,,,0,14,14,14,,,,,,,,,,,,,,,,,,,,,,,,,,,9,0.03531234800004768,,,,,,,,,,,,,,,,,,,under,001,2019_Feb_08_1657,body_behavioural,59.69647304402035,
4," I’m tired of the constant fighting, and I feel like when we try to do anything fun anymore it ends up unpleasant for the stupidest reasons, and I am just past  trying to work things out.”",2,2,,,,0,4,4,4,,,,,0,15,15,15,,,,,,,,,,,,,,,,,,,,,,,,,,,1,0.01866371899996011,,,,,,,,,,,,,,,,,,,under,001,2019_Feb_08_1657,body_behavioural,59.69647304402035,
4,"Liam refused to look at her as she picked out sauces for the pasta, and then she threw up her hands, saying, “You know what, if this party is still happening we are going to just eat pasta.”",2,2,,,,0,4,4,4,,,,,0,16,16,16,,,,,,,,,,,,,,,,,,,,,,,,,,,9,0.00027136899996094144,,,,,,,,,,,,,,,,,,,under,001,2019_Feb_08_1657,body_behavioural,59.69647304402035,
4,They headed to the checkout area where there was only one station open but it was not crowded at all.,3,2,,,,0,4,4,4,,,,,0,17,17,17,,,,,,,,,,,,,,,,,,,,,,,,,,,1,0.03473617700001341,,,,,,,,,,,,,,,,,,,under,001,2019_Feb_08_1657,body_behavioural,59.69647304402035,
4,Emmanuella sighed and got in line while Liam pretended to be interested in the magazine racks as he thought. ,3,2,,,,0,4,4,4,,,,,0,18,18,18,,,,,,,,,,,,,,,,,,,,,,,,,,,9,0.017953058999978566,,,,,,,,,,,,,,,,,,,under,001,2019_Feb_08_1657,body_behavioural,59.69647304402035,
4,"Finally he turned to her and sighed, “Yes, I was thinking the same thing - I think we could definitely be happier with other people.” ",3,3,,,,0,4,4,4,,,,,0,19,19,19,,,,,,,,,,,,,,,,,,,,,,,,,,,1,0.06753459099991233,,,,,,,,,,,,,,,,,,,under,001,2019_Feb_08_1657,body_behavioural,59.69647304402035,
4,"As if she hadn't heard him, Emmanuella looked at their cart and said, “I'm not sure this will be enough, could you grab another box of pasta?”",3,3,,,,0,4,4,4,,,,,0,20,20,20,,,,,,,,,,,,,,,,,,,,,,,,,,,1,0.13619306099997175,,,,,,,,,,,,,,,,,,,under,001,2019_Feb_08_1657,body_behavioural,59.69647304402035,
4, Liam scoffed and walked off to quickly get it.,3,3,,,,0,4,4,4,,,,,0,21,21,21,,,,,,,,,,,,,,,,,,,,,,,,,,,9,0.16847709500007113,,,,,,,,,,,,,,,,,,,under,001,2019_Feb_08_1657,body_behavioural,59.69647304402035,
4,"As Emmanuella waited in line, she took a moment to compose herself, deciding that there was no reason to continue making a scene in the store. ",3,3,,,,0,4,4,4,,,,,0,22,22,22,,,,,,,,,,,,,,,,,,,,,,,,,,,9,0.1353749270000435,,,,,,,,,,,,,,,,,,,under,001,2019_Feb_08_1657,body_behavioural,59.69647304402035,
4," Right when Liam came back with the pasta, the cashier started scanning their groceries.",4,3,,,,0,4,4,4,,,,,0,23,23,23,,,,,,,,,,,,,,,,,,,,,,,,,,,9,0.13511793100008163,,,,,,,,,,,,,,,,,,,under,001,2019_Feb_08_1657,body_behavioural,59.69647304402035,
4,"The cost came to $30, and Emmanuella paid with her credit card.",4,3,,,,0,4,4,4,,,,,0,24,24,24,,,,,,,,,,,,,,,,,,,,,,,,,,,1,0.032757772000081786,,,,,,,,,,,,,,,,,,,under,001,2019_Feb_08_1657,body_behavioural,59.69647304402035,
4,"She asked Liam politely to take the bags, and he obliged, following her to toward the exit. ",4,3,,,,0,4,4,4,,,,,0,25,25,25,,,,,,,,,,,,,,,,,,,,,,,,,,,9,0.03881387400008407,,,,,,,,,,,,,,,,,,,under,001,2019_Feb_08_1657,body_behavioural,59.69647304402035,
4,"“Liam, I think we are making the right decision.",4,4,,,,0,4,4,4,,,,,0,26,26,26,,,,,,,,,,,,,,,,,,,,,,,,,,,1,0.08495992899997873,,,,,,,,,,,,,,,,,,,under,001,2019_Feb_08_1657,body_behavioural,59.69647304402035,
4,This is good.” ,4,4,,,,0,4,4,4,,,,,0,27,27,27,,,,,,,,,,,,,,,,,,,,,,,,,,,9,0.0519269249999752,,,,,,,,,,,,,,,,,,,under,001,2019_Feb_08_1657,body_behavioural,59.69647304402035,
4,"“I agree,” he said, visibly relieved at the thought that they had gotten through the last fight they would ever need to have.",4,4,,,,0,4,4,4,,,,,0,28,28,28,,,,,,,,,,,,,,,,,,,,,,,,,,,1,0.08421392100001412,,,,,,,,,,,,,,,,,,,under,001,2019_Feb_08_1657,body_behavioural,59.69647304402035,
4,"“I think we can still host this dinner tonight, as long as you're still on board,” Emmanuella said.",4,4,,,,0,4,4,4,,,,,0,29,29,29,,,,,,,,,,,,,,,,,,,,,,,,,,,1,0.11824375000003329,,,,,,,,,,,,,,,,,,,under,001,2019_Feb_08_1657,body_behavioural,59.69647304402035,
4,"Liam nodded, “Yes, let’s just not tell anyone yet.” ",4,4,,,,0,4,4,4,,,,,0,30,30,30,,,,,,,,,,,,,,,,,,,,,,,,,,,9,0.0002892460000794017,,,,,,,,,,,,,,,,,,,under,001,2019_Feb_08_1657,body_behavioural,59.69647304402035,
4,"Emmanuella laughed, “Whoever leaks it loses their rights to the cat.”",4,4,,,,0,4,4,4,,,,,0,31,31,31,,,,,,,,,,,,,,,,,,,,,,,,,,,9,0.13702635799995733,,,,,,,,,,,,,,,,,,,under,001,2019_Feb_08_1657,body_behavioural,59.69647304402035,
4,"Liam rolled his eyes and managed a weak chuckle, knowing the cat would be a whole other issue to sort out later.
",4,4,,,,0,4,4,4,,,,,0,32,32,32,,,,,,,,,,,,,,,,,,,,,,,,,,,9,0.13579028799995285,,,,,,,,,,,,,,,,,,,under,001,2019_Feb_08_1657,body_behavioural,59.69647304402035,
4,,,,,,,0,4,4,4,,,,,,,,,,,,,,,,,,,,,,,,,,,,,,,,,,,,,,,,,,,,,,,,,,,,,,,under,001,2019_Feb_08_1657,body_behavioural,59.69647304402035,
5,,,,,,,0,5,5,5,0,0,0,0,,,,,,,,,,,,,,,,,,,,,,,,,space,0.6852971580000258,space,0.23520921099998304,space,0.46969609199993556,,,,,,,,,,,,,,,,,,,,,under,001,2019_Feb_08_1657,body_behavioural,59.69647304402035,
5,"Lana walked into lecture holding hands with her boyfriend, Aaron, who was trying to contain his excitement and anticipation for proposing to Lana in this class. ",1,1,,,,0,5,5,5,,,,,0,0,0,0,,,,,,,,,,,,,,,,,,,,,,,,,,,1,0.7175232390000019,,,,,,,,,,,,,,,,,,,under,001,2019_Feb_08_1657,body_behavioural,59.69647304402035,
5,"Lana was lost in thought, still puzzling over a calculus problem on her problem set due that night.",1,1,,,,0,5,5,5,,,,,0,1,1,1,,,,,,,,,,,,,,,,,,,,,,,,,,,9,0.034035426999935225,,,,,,,,,,,,,,,,,,,under,001,2019_Feb_08_1657,body_behavioural,59.69647304402035,
5,"The lecture hall was the fanciest one at Princeton, with chandeliers, high ceilings, wood floors and double-decker chalkboards.",1,1,,,,0,5,5,5,,,,,0,2,2,2,,,,,,,,,,,,,,,,,,,,,,,,,,,1,0.05190892299992811,,,,,,,,,,,,,,,,,,,under,001,2019_Feb_08_1657,body_behavioural,59.69647304402035,
5,"This is where Aaron and Lana had met two years ago during an economics class, and now they were back together in the same lecture hall for their Chemistry class. ",1,1,,,,0,5,5,5,,,,,0,3,3,3,,,,,,,,,,,,,,,,,,,,,,,,,,,1,0.13427458900002875,,,,,,,,,,,,,,,,,,,under,001,2019_Feb_08_1657,body_behavioural,59.69647304402035,
5,The professor caught Aaron's eye as he walked up to the front of the classroom and gave him a wink before the lecture began. ,1,1,,,,0,5,5,5,,,,,0,4,4,4,,,,,,,,,,,,,,,,,,,,,,,,,,,1,0.16722122499993475,,,,,,,,,,,,,,,,,,,under,001,2019_Feb_08_1657,body_behavioural,59.69647304402035,
5,Aaron responded with a huge grin. ,1,1,,,,0,5,5,5,,,,,0,5,5,5,,,,,,,,,,,,,,,,,,,,,,,,,,,9,0.13500720299998648,,,,,,,,,,,,,,,,,,,under,001,2019_Feb_08_1657,body_behavioural,59.69647304402035,
5,"The professor cleared his throat and said,“Alright, good afternoon, everyone!",2,1,,,,0,5,5,5,,,,,0,6,6,6,,,,,,,,,,,,,,,,,,,,,,,,,,,9,0.15784921399995255,,,,,,,,,,,,,,,,,,,under,001,2019_Feb_08_1657,body_behavioural,59.69647304402035,
5,"Last week we talked about the structure of the periodic table, and this week the topic is ions.",2,1,,,,0,5,5,5,,,,,0,7,7,7,,,,,,,,,,,,,,,,,,,,,,,,,,,9,0.13513081999997212,,,,,,,,,,,,,,,,,,,under,001,2019_Feb_08_1657,body_behavioural,59.69647304402035,
5,These are atoms or molecules in which the number of electrons does not equal the number of protons.,2,1,,,,0,5,5,5,,,,,0,8,8,8,,,,,,,,,,,,,,,,,,,,,,,,,,,1,0.0016823119999571645,,,,,,,,,,,,,,,,,,,under,001,2019_Feb_08_1657,body_behavioural,59.69647304402035,
5,"Now, let me get my computer set up, one moment, class.”",2,1,,,,0,5,5,5,,,,,0,9,9,9,,,,,,,,,,,,,,,,,,,,,,,,,,,9,0.06855314500000986,,,,,,,,,,,,,,,,,,,under,001,2019_Feb_08_1657,body_behavioural,59.69647304402035,
5,Lana pulled out her Calculus problem set and puzzled over it.,2,1,,,,0,5,5,5,,,,,0,10,10,10,,,,,,,,,,,,,,,,,,,,,,,,,,,1,0.03296951899994838,,,,,,,,,,,,,,,,,,,under,001,2019_Feb_08_1657,body_behavioural,59.69647304402035,
5,"While she was distracted, Aaron unzipped the small pocket in his backpack and pulled out the ring box.",2,2,,,,0,5,5,5,,,,,0,11,11,11,,,,,,,,,,,,,,,,,,,,,,,,,,,9,0.06680949700000838,,,,,,,,,,,,,,,,,,,under,001,2019_Feb_08_1657,body_behavioural,59.69647304402035,
5,He opened it up and looked at the ring.,2,2,,,,0,5,5,5,,,,,0,12,12,12,,,,,,,,,,,,,,,,,,,,,,,,,,,1,0.05123203199991622,,,,,,,,,,,,,,,,,,,under,001,2019_Feb_08_1657,body_behavioural,59.69647304402035,
5,"Instead of one large diamond, there were 5 diamonds embedded in a thick band. ",2,2,,,,0,5,5,5,,,,,0,13,13,13,,,,,,,,,,,,,,,,,,,,,,,,,,,9,0.02464557399991918,,,,,,,,,,,,,,,,,,,under,001,2019_Feb_08_1657,body_behavioural,59.69647304402035,
5,He knew Lana would like this because her style was not flashy but more about simple elegance.,2,2,,,,0,5,5,5,,,,,0,14,14,14,,,,,,,,,,,,,,,,,,,,,,,,,,,1,0.06830062599999565,,,,,,,,,,,,,,,,,,,under,001,2019_Feb_08_1657,body_behavioural,59.69647304402035,
5,Aaron put the ring back into the bag as the professor began the lecture. ,3,2,,,,0,5,5,5,,,,,0,15,15,15,,,,,,,,,,,,,,,,,,,,,,,,,,,9,0.0017344220000268251,,,,,,,,,,,,,,,,,,,under,001,2019_Feb_08_1657,body_behavioural,59.69647304402035,
5,“Recall from previous lectures that the number of protons determines the identity of the element. ,3,2,,,,0,5,5,5,,,,,0,16,16,16,,,,,,,,,,,,,,,,,,,,,,,,,,,1,0.14183858999990662,,,,,,,,,,,,,,,,,,,under,001,2019_Feb_08_1657,body_behavioural,59.69647304402035,
5,"So for example, all atoms of sodium have 11 protons in the nucleus. ",3,2,,,,0,5,5,5,,,,,0,17,17,17,,,,,,,,,,,,,,,,,,,,,,,,,,,9,0.15186244299991358,,,,,,,,,,,,,,,,,,,under,001,2019_Feb_08_1657,body_behavioural,59.69647304402035,
5,"And if you look on the periodic table, the atomic number for sodium, the symbol is Na, is eleven.”",3,2,,,,0,5,5,5,,,,,0,18,18,18,,,,,,,,,,,,,,,,,,,,,,,,,,,9,0.15204080499995598,,,,,,,,,,,,,,,,,,,under,001,2019_Feb_08_1657,body_behavioural,59.69647304402035,
5,Lana was taking notes while Aaron was texting all of his friends in the class to get ready for the proposal. ,3,2,,,,0,5,5,5,,,,,0,19,19,19,,,,,,,,,,,,,,,,,,,,,,,,,,,9,0.11962951399993926,,,,,,,,,,,,,,,,,,,under,001,2019_Feb_08_1657,body_behavioural,59.69647304402035,
5,"Right after talking about how two ions bond into one stable molecule by covalent bonds, the professor stopped the lecture and asked Lana to come to the front of the class to do a demonstration. ",3,2,,,,0,5,5,5,,,,,0,20,20,20,,,,,,,,,,,,,,,,,,,,,,,,,,,9,0.10162952799998948,,,,,,,,,,,,,,,,,,,under,001,2019_Feb_08_1657,body_behavioural,59.69647304402035,
5,"She walked to the front of the class confused, and the professor asked her to stand in the middle of the stage.",3,2,,,,0,5,5,5,,,,,0,21,21,21,,,,,,,,,,,,,,,,,,,,,,,,,,,1,0.03449428999999782,,,,,,,,,,,,,,,,,,,under,001,2019_Feb_08_1657,body_behavioural,59.69647304402035,
5,"Then Aaron walked up and, taking Lana’s hand, got down on one knee. ",3,3,,,,0,5,5,5,,,,,0,22,22,22,,,,,,,,,,,,,,,,,,,,,,,,,,,9,0.04097835599998234,,,,,,,,,,,,,,,,,,,under,001,2019_Feb_08_1657,body_behavioural,59.69647304402035,
5,"“It's time for us to make a bond of our own, Lana.",3,3,,,,0,5,5,5,,,,,0,23,23,23,,,,,,,,,,,,,,,,,,,,,,,,,,,1,0.08416704700005084,,,,,,,,,,,,,,,,,,,under,001,2019_Feb_08_1657,body_behavioural,59.69647304402035,
5,Will you marry me?” ,3,3,,,,0,5,5,5,,,,,0,24,24,24,,,,,,,,,,,,,,,,,,,,,,,,,,,9,0.036441271000057895,,,,,,,,,,,,,,,,,,,under,001,2019_Feb_08_1657,body_behavioural,59.69647304402035,
5,Lana gasped and put her other hand to her mouth and started looking around the room as if trying to convince herself that this was really happening.,3,3,,,,0,5,5,5,,,,,0,25,25,25,,,,,,,,,,,,,,,,,,,,,,,,,,,1,0.06574581400002444,,,,,,,,,,,,,,,,,,,under,001,2019_Feb_08_1657,body_behavioural,59.69647304402035,
5,For a few moments everyone was in suspense waiting for the Lana’s shock to wear off and for her to answer. ,3,3,,,,0,5,5,5,,,,,0,26,26,26,,,,,,,,,,,,,,,,,,,,,,,,,,,9,0.16896020600006523,,,,,,,,,,,,,,,,,,,under,001,2019_Feb_08_1657,body_behavioural,59.69647304402035,
5,"Finally, she said, “Yes!”",3,4,,,,0,5,5,5,,,,,0,27,27,27,,,,,,,,,,,,,,,,,,,,,,,,,,,9,0.16891021399999318,,,,,,,,,,,,,,,,,,,under,001,2019_Feb_08_1657,body_behavioural,59.69647304402035,
5,"Aaron put the ring on her finger, and they hugged while the whole class clapped. ",3,4,,,,0,5,5,5,,,,,0,28,28,28,,,,,,,,,,,,,,,,,,,,,,,,,,,9,0.16771212600008312,,,,,,,,,,,,,,,,,,,under,001,2019_Feb_08_1657,body_behavioural,59.69647304402035,
5,"Their friends came up and hugged both of them, and the professor gave Aaron a celebratory handshake.",3,4,,,,0,5,5,5,,,,,0,29,29,29,,,,,,,,,,,,,,,,,,,,,,,,,,,9,0.15124932300000182,,,,,,,,,,,,,,,,,,,under,001,2019_Feb_08_1657,body_behavioural,59.69647304402035,
5,"They made their way back to their seats, Lana and Aaron hand-in-hand and beaming. ",3,4,,,,0,5,5,5,,,,,0,30,30,30,,,,,,,,,,,,,,,,,,,,,,,,,,,1,0.0017022509999833346,,,,,,,,,,,,,,,,,,,under,001,2019_Feb_08_1657,body_behavioural,59.69647304402035,
5,"The professor then dismissed the class, saying, “That was enough excitement for today!",4,4,,,,0,5,5,5,,,,,0,31,31,31,,,,,,,,,,,,,,,,,,,,,,,,,,,9,0.0880633179999677,,,,,,,,,,,,,,,,,,,under,001,2019_Feb_08_1657,body_behavioural,59.69647304402035,
5,Don’t forget there’s an exam next week on the first two chapters of the textbook.”,4,4,,,,0,5,5,5,,,,,0,32,32,32,,,,,,,,,,,,,,,,,,,,,,,,,,,1,0.001686399999925925,,,,,,,,,,,,,,,,,,,under,001,2019_Feb_08_1657,body_behavioural,59.69647304402035,
5,"As everyone was packing up their notebooks and leaving, Lana was already on her phone calling her family members to tell them the exciting news.",4,4,,,,0,5,5,5,,,,,0,33,33,33,,,,,,,,,,,,,,,,,,,,,,,,,,,9,0.051420438000036484,,,,,,,,,,,,,,,,,,,under,001,2019_Feb_08_1657,body_behavioural,59.69647304402035,
5,,,,,,,0,5,5,5,,,,,,,,,,,,,,,,,,,,,,,,,,,,,,,,,,,,,,,,,,,,,,,,,,,,,,,under,001,2019_Feb_08_1657,body_behavioural,59.69647304402035,
6,,,,,,,0,6,6,6,0,0,0,0,,,,,,,,,,,,,,,,,,,,,,,,,space,0.5522234070000422,space,0.33446831799994925,space,0.41887357600000996,,,,,,,,,,,,,,,,,,,,,under,001,2019_Feb_08_1657,body_behavioural,59.69647304402035,
6,"Ms. Bianchi and Ms. Morrison walked into the grocery store at the same time, and, after a moment of mutual recognition, greeted each other and shook hands.",1,1,,,,0,6,6,6,,,,,0,0,0,0,,,,,,,,,,,,,,,,,,,,,,,,,,,1,0.28509553699996104,,,,,,,,,,,,,,,,,,,under,001,2019_Feb_08_1657,body_behavioural,59.69647304402035,
6,"“Thank you again for inviting me here to discuss my business proposal,” said Ms. Bianchi, “And it’s a pleasure to be out of the office.” ",1,1,,,,0,6,6,6,,,,,0,1,1,1,,,,,,,,,,,,,,,,,,,,,,,,,,,9,0.06820639300008224,,,,,,,,,,,,,,,,,,,under,001,2019_Feb_08_1657,body_behavioural,59.69647304402035,
6,"As a salesperson for an Italian cheese company that was trying to expand its outreach to more mainstream grocery stores, this meeting could be a big break for her.",1,1,,,,0,6,6,6,,,,,0,2,2,2,,,,,,,,,,,,,,,,,,,,,,,,,,,1,0.0016790579999224065,,,,,,,,,,,,,,,,,,,under,001,2019_Feb_08_1657,body_behavioural,59.69647304402035,
6,"Her sales target, Ms. Morrison,  who had a reputation for being a bit quirky, was a corporate buyer for a large chain grocery store. ",1,1,,,,0,6,6,6,,,,,0,3,3,3,,,,,,,,,,,,,,,,,,,,,,,,,,,9,0.03506089899997278,,,,,,,,,,,,,,,,,,,under,001,2019_Feb_08_1657,body_behavioural,59.69647304402035,
6,"She was known for doing things unconventionally: for example, she said that she liked to make deals with suppliers in the place where the products were sold- “to keep their minds focused on what’s important.” ",1,1,,,,0,6,6,6,,,,,0,4,4,4,,,,,,,,,,,,,,,,,,,,,,,,,,,1,0.0002903529999684906,,,,,,,,,,,,,,,,,,,under,001,2019_Feb_08_1657,body_behavioural,59.69647304402035,
6,"They chatted a little in the front of the grocery store, which was surrounded by pumpkins and halloween decorations set up in special displays for the holiday season.",1,1,,,,0,6,6,6,,,,,0,5,5,5,,,,,,,,,,,,,,,,,,,,,,,,,,,9,0.0002925930000401422,,,,,,,,,,,,,,,,,,,under,001,2019_Feb_08_1657,body_behavioural,59.69647304402035,
6,"Ms. Bianchi and Ms. Morrison walked to the cheese section, and Ms. Morrison picked up a block of parmesan.",2,1,,,,0,6,6,6,,,,,0,6,6,6,,,,,,,,,,,,,,,,,,,,,,,,,,,1,0.035734329999968395,,,,,,,,,,,,,,,,,,,under,001,2019_Feb_08_1657,body_behavioural,59.69647304402035,
6,“We have quite a selection here.,2,1,,,,0,6,6,6,,,,,0,7,7,7,,,,,,,,,,,,,,,,,,,,,,,,,,,9,0.018359840000016447,,,,,,,,,,,,,,,,,,,under,001,2019_Feb_08_1657,body_behavioural,59.69647304402035,
6,I don’t know that it needs an additional section for more gourmet cheeses.” ,2,1,,,,0,6,6,6,,,,,0,8,8,8,,,,,,,,,,,,,,,,,,,,,,,,,,,1,0.08378013799995188,,,,,,,,,,,,,,,,,,,under,001,2019_Feb_08_1657,body_behavioural,59.69647304402035,
6,"Ms. Bianchi's confidence faltered for a minute at this remark, but then she launched into her prepared pitch.",2,1,,,,0,6,6,6,,,,,0,9,9,9,,,,,,,,,,,,,,,,,,,,,,,,,,,9,0.13610230699998738,,,,,,,,,,,,,,,,,,,under,001,2019_Feb_08_1657,body_behavioural,59.69647304402035,
6," “Ms. Morrison, I think you would agree that selling food is more than just providing variety, but also about providing the highest quality.",2,2,,,,0,6,6,6,,,,,0,10,10,10,,,,,,,,,,,,,,,,,,,,,,,,,,,9,0.0842245249999678,,,,,,,,,,,,,,,,,,,under,001,2019_Feb_08_1657,body_behavioural,59.69647304402035,
6,"You don’t have cheeses made in America that are like ours, it is true.",2,2,,,,0,6,6,6,,,,,0,11,11,11,,,,,,,,,,,,,,,,,,,,,,,,,,,1,0.0017098979999445874,,,,,,,,,,,,,,,,,,,under,001,2019_Feb_08_1657,body_behavioural,59.69647304402035,
6,Your store could be providing American consumers with a dimension in taste that they've never known before with our product.,2,2,,,,0,6,6,6,,,,,0,12,12,12,,,,,,,,,,,,,,,,,,,,,,,,,,,9,0.049982871999986855,,,,,,,,,,,,,,,,,,,under,001,2019_Feb_08_1657,body_behavioural,59.69647304402035,
6,"I propose that you give it a shot, buy $1000 worth of cheese products for a few stores, and see how the sales increase not only in our cheeses but also in products related to cheeses: crackers, jams, olives. ",2,2,,,,0,6,6,6,,,,,0,13,13,13,,,,,,,,,,,,,,,,,,,,,,,,,,,1,0.018569479999996474,,,,,,,,,,,,,,,,,,,under,001,2019_Feb_08_1657,body_behavioural,59.69647304402035,
6,"The availability of a finer product leads to the appreciation of the product, and your consumers will start to consume in a new, more profitable way.”",2,2,,,,0,6,6,6,,,,,0,14,14,14,,,,,,,,,,,,,,,,,,,,,,,,,,,9,0.01707338100004563,,,,,,,,,,,,,,,,,,,under,001,2019_Feb_08_1657,body_behavioural,59.69647304402035,
6,"Ms. Bianchi picked up a box of crackers by the cheese section, and said, “Here, I will buy these, and we can try some of our cheeses that I've brought with me.”",3,2,,,,0,6,6,6,,,,,0,15,15,15,,,,,,,,,,,,,,,,,,,,,,,,,,,1,0.08598624299997937,,,,,,,,,,,,,,,,,,,under,001,2019_Feb_08_1657,body_behavioural,59.69647304402035,
6,"Ms. Morrison, who was thinking, nodded in agreement and said, “That sounds like a great idea.",3,2,,,,0,6,6,6,,,,,0,16,16,16,,,,,,,,,,,,,,,,,,,,,,,,,,,9,0.1523634600000605,,,,,,,,,,,,,,,,,,,under,001,2019_Feb_08_1657,body_behavioural,59.69647304402035,
6,"Let’s head to check out, and those crackers are on me.” ",3,2,,,,0,6,6,6,,,,,0,17,17,17,,,,,,,,,,,,,,,,,,,,,,,,,,,9,0.1334464520000438,,,,,,,,,,,,,,,,,,,under,001,2019_Feb_08_1657,body_behavioural,59.69647304402035,
6,They walked over to the checkout area.,3,2,,,,0,6,6,6,,,,,0,18,18,18,,,,,,,,,,,,,,,,,,,,,,,,,,,9,0.1515488820000428,,,,,,,,,,,,,,,,,,,under,001,2019_Feb_08_1657,body_behavioural,59.69647304402035,
6,"There was a very long line, and it was very busy in the checkout area as people were stocking up for Halloween parties and trick-or-treating. ",3,2,,,,0,6,6,6,,,,,0,19,19,19,,,,,,,,,,,,,,,,,,,,,,,,,,,9,0.1187730310000461,,,,,,,,,,,,,,,,,,,under,001,2019_Feb_08_1657,body_behavioural,59.69647304402035,
6,"Since they had almost a 10 minute wait in line, Ms. Bianchi handed a sheet with printed graphs to Ms. Morrison the increase in profits that several other stores had seen after starting to carry their products.",3,2,,,,0,6,6,6,,,,,0,20,20,20,,,,,,,,,,,,,,,,,,,,,,,,,,,1,0.0002669199999445482,,,,,,,,,,,,,,,,,,,under,001,2019_Feb_08_1657,body_behavioural,59.69647304402035,
6,"Eventually, Ms. Morrison replied, “You know what, I think you've convinced me that this could work. ",3,3,,,,0,6,6,6,,,,,0,21,21,21,,,,,,,,,,,,,,,,,,,,,,,,,,,9,0.034812456999929964,,,,,,,,,,,,,,,,,,,under,001,2019_Feb_08_1657,body_behavioural,59.69647304402035,
6,We've been trying to find a way to add a little European cachet to our stores.,3,3,,,,0,6,6,6,,,,,0,22,22,22,,,,,,,,,,,,,,,,,,,,,,,,,,,9,0.16652806499996586,,,,,,,,,,,,,,,,,,,under,001,2019_Feb_08_1657,body_behavioural,59.69647304402035,
6,There's still a problem though - I'm worried we'll be paying out the nose for the import taxes.,3,3,,,,0,6,6,6,,,,,0,23,23,23,,,,,,,,,,,,,,,,,,,,,,,,,,,9,0.10057558200003314,,,,,,,,,,,,,,,,,,,under,001,2019_Feb_08_1657,body_behavioural,59.69647304402035,
6,Is that the case?",3,3,,,,0,6,6,6,,,,,0,24,24,24,,,,,,,,,,,,,,,,,,,,,,,,,,,1,0.119534624000039,,,,,,,,,,,,,,,,,,,under,001,2019_Feb_08_1657,body_behavioural,59.69647304402035,
6,"It was Ms. Morrison’s turn to checkout, and the two businesswomen continued to talk back and forth as she did so. ",4,3,,,,0,6,6,6,,,,,0,25,25,25,,,,,,,,,,,,,,,,,,,,,,,,,,,9,0.1019254530000353,,,,,,,,,,,,,,,,,,,under,001,2019_Feb_08_1657,body_behavioural,59.69647304402035,
6,"The cashier scanned the crackers, and Ms. Bianchi watched in amusement as Ms. Morrison paid the $6 price entirely in quarters from a wallet bulging with change.",4,3,,,,0,6,6,6,,,,,0,26,26,26,,,,,,,,,,,,,,,,,,,,,,,,,,,1,0.0017351370000824318,,,,,,,,,,,,,,,,,,,under,001,2019_Feb_08_1657,body_behavioural,59.69647304402035,
6,"They shortly came to an agreement and would have enough cheese shipments, $5000 worth, to different stores to qualify for a subsidized import tax. ",4,4,,,,0,6,6,6,,,,,0,27,27,27,,,,,,,,,,,,,,,,,,,,,,,,,,,9,0.034289972000010494,,,,,,,,,,,,,,,,,,,under,001,2019_Feb_08_1657,body_behavioural,59.69647304402035,
6,"Ms. Bianchi retrieved some of her samples from her car, and they toasted their new deal with crackers topped with fresh mozzarella. ",4,4,,,,0,6,6,6,,,,,0,28,28,28,,,,,,,,,,,,,,,,,,,,,,,,,,,1,0.06865147700000307,,,,,,,,,,,,,,,,,,,under,001,2019_Feb_08_1657,body_behavioural,59.69647304402035,
6,,,,,,,0,6,6,6,,,,,,,,,,,,,,,,,,,,,,,,,,,,,,,,,,,,,,,,,,,,,,,,,,,,,,,under,001,2019_Feb_08_1657,body_behavioural,59.69647304402035,
7,,,,,,,0,7,7,7,0,0,0,0,,,,,,,,,,,,,,,,,,,,,,,,,space,0.5681227040000749,space,0.28503021599999556,space,0.5015214840000226,,,,,,,,,,,,,,,,,,,,,under,001,2019_Feb_08_1657,body_behavioural,59.69647304402035,
7,"Leon and  Ariana hurried into the classroom at the same time, and Leon did a double-take when he saw her. ",1,1,,,,0,7,7,7,,,,,0,0,0,0,,,,,,,,,,,,,,,,,,,,,,,,,,,1,0.351056672000027,,,,,,,,,,,,,,,,,,,under,001,2019_Feb_08_1657,body_behavioural,59.69647304402035,
7,"This was his first day after transferring to this university, and he had assumed that he wouldn’t know anyone on campus, but he couldn't shake the nagging feeling  that he had seen her somewhere before. ",1,1,,,,0,7,7,7,,,,,0,1,1,1,,,,,,,,,,,,,,,,,,,,,,,,,,,9,0.0002745179999692482,,,,,,,,,,,,,,,,,,,under,001,2019_Feb_08_1657,body_behavioural,59.69647304402035,
7,"They were both a bit late, so they quickly slid into seats next to each other in the back of the small classroom.",1,1,,,,0,7,7,7,,,,,0,2,2,2,,,,,,,,,,,,,,,,,,,,,,,,,,,1,0.06929343100000551,,,,,,,,,,,,,,,,,,,under,001,2019_Feb_08_1657,body_behavioural,59.69647304402035,
7,"This room was usually used for small meetings, but had been rearranged with the table pushed to the side and chairs set up in rows to face the projector screen. ",1,1,,,,0,7,7,7,,,,,0,3,3,3,,,,,,,,,,,,,,,,,,,,,,,,,,,1,0.1179373800000576,,,,,,,,,,,,,,,,,,,under,001,2019_Feb_08_1657,body_behavioural,59.69647304402035,
7,"There were no windows in the room, since they were down in the sub-basement of the history department.",1,1,,,,0,7,7,7,,,,,0,4,4,4,,,,,,,,,,,,,,,,,,,,,,,,,,,1,0.11775664799995411,,,,,,,,,,,,,,,,,,,under,001,2019_Feb_08_1657,body_behavioural,59.69647304402035,
7,"Leon, trying to figure out where he had seen her before, could not stop looking over at Ariana.",1,1,,,,0,7,7,7,,,,,0,5,5,5,,,,,,,,,,,,,,,,,,,,,,,,,,,9,0.13495550899995123,,,,,,,,,,,,,,,,,,,under,001,2019_Feb_08_1657,body_behavioural,59.69647304402035,
7,Ariana was oblivious to Leon’s gaze and was only focused on getting ready for class. ,1,1,,,,0,7,7,7,,,,,0,6,6,6,,,,,,,,,,,,,,,,,,,,,,,,,,,1,0.10239012399995318,,,,,,,,,,,,,,,,,,,under,001,2019_Feb_08_1657,body_behavioural,59.69647304402035,
7,"“Good afternoon class,” the professor began.",2,1,,,,0,7,7,7,,,,,0,7,7,7,,,,,,,,,,,,,,,,,,,,,,,,,,,9,0.18363294499999938,,,,,,,,,,,,,,,,,,,under,001,2019_Feb_08_1657,body_behavioural,59.69647304402035,
7,“Welcome to Egyptian Cultural Studies. ,2,1,,,,0,7,7,7,,,,,0,8,8,8,,,,,,,,,,,,,,,,,,,,,,,,,,,1,0.05083444399997461,,,,,,,,,,,,,,,,,,,under,001,2019_Feb_08_1657,body_behavioural,59.69647304402035,
7,"Today we will be talking about mummification, one of the most famous and often misunderstood customs in ancient Egyptian society.”",2,1,,,,0,7,7,7,,,,,0,9,9,9,,,,,,,,,,,,,,,,,,,,,,,,,,,9,0.06782477900003414,,,,,,,,,,,,,,,,,,,under,001,2019_Feb_08_1657,body_behavioural,59.69647304402035,
7,Leon pulled out his notebook and tried to concentrate on the class.,2,1,,,,0,7,7,7,,,,,0,10,10,10,,,,,,,,,,,,,,,,,,,,,,,,,,,1,0.06929980000006708,,,,,,,,,,,,,,,,,,,under,001,2019_Feb_08_1657,body_behavioural,59.69647304402035,
7,Within a few minutes though he found his attention wandering back to Ariana.,2,1,,,,0,7,7,7,,,,,0,11,11,11,,,,,,,,,,,,,,,,,,,,,,,,,,,9,0.058468138000080216,,,,,,,,,,,,,,,,,,,under,001,2019_Feb_08_1657,body_behavioural,59.69647304402035,
7,"He decided to do something about his hunch so he ripped off a corner of a page in his notebook, wrote a note, and set it on her desk.",2,1,,,,0,7,7,7,,,,,0,12,12,12,,,,,,,,,,,,,,,,,,,,,,,,,,,1,0.2692316939999273,,,,,,,,,,,,,,,,,,,under,001,2019_Feb_08_1657,body_behavioural,59.69647304402035,
7,"“Hi, sorry to distract you from mummies, but you look really familiar," it read.",2,2,,,,0,7,7,7,,,,,0,13,13,13,,,,,,,,,,,,,,,,,,,,,,,,,,,9,0.23526367900001333,,,,,,,,,,,,,,,,,,,under,001,2019_Feb_08_1657,body_behavioural,59.69647304402035,
7,It continued: “Do I know you from somewhere?”,2,2,,,,0,7,7,7,,,,,0,14,14,14,,,,,,,,,,,,,,,,,,,,,,,,,,,1,0.017426811000063935,,,,,,,,,,,,,,,,,,,under,001,2019_Feb_08_1657,body_behavioural,59.69647304402035,
7,"She looked at the note with surprise, and then turned to notice Leon for the first time. ",2,2,,,,0,7,7,7,,,,,0,15,15,15,,,,,,,,,,,,,,,,,,,,,,,,,,,9,0.03528354799993849,,,,,,,,,,,,,,,,,,,under,001,2019_Feb_08_1657,body_behavioural,59.69647304402035,
7,"She instantly liked him when she saw him; he had very soft eyes and sharp features, a combination that made him seem  trustworthy and genuine.",2,2,,,,0,7,7,7,,,,,0,16,16,16,,,,,,,,,,,,,,,,,,,,,,,,,,,1,0.019145463999961976,,,,,,,,,,,,,,,,,,,under,001,2019_Feb_08_1657,body_behavioural,59.69647304402035,
7,He smiled at her and she flashed him a smile back.,2,2,,,,0,7,7,7,,,,,0,17,17,17,,,,,,,,,,,,,,,,,,,,,,,,,,,9,0.03441656499990131,,,,,,,,,,,,,,,,,,,under,001,2019_Feb_08_1657,body_behavioural,59.69647304402035,
7,Then she turned the note over to the back and started to write a reply.,2,2,,,,0,7,7,7,,,,,0,18,18,18,,,,,,,,,,,,,,,,,,,,,,,,,,,1,0.30179941799997323,,,,,,,,,,,,,,,,,,,under,001,2019_Feb_08_1657,body_behavioural,59.69647304402035,
7,"Meanwhile the professor continued, “One may well question why the ancient Egyptians spent so much time and effort on their funerary practices.",3,2,,,,0,7,7,7,,,,,0,19,19,19,,,,,,,,,,,,,,,,,,,,,,,,,,,9,0.18494549499996538,,,,,,,,,,,,,,,,,,,under,001,2019_Feb_08_1657,body_behavioural,59.69647304402035,
7,"Not only was the mummification process itself a complicated affair, but there were also elaborate rituals before, during, and after death.",3,2,,,,0,7,7,7,,,,,0,20,20,20,,,,,,,,,,,,,,,,,,,,,,,,,,,1,0.03473893800003225,,,,,,,,,,,,,,,,,,,under,001,2019_Feb_08_1657,body_behavioural,59.69647304402035,
7,The practice required teams of experts with years of training and took a total of 70 days to complete.” ,3,2,,,,0,7,7,7,,,,,0,21,21,21,,,,,,,,,,,,,,,,,,,,,,,,,,,9,0.0016538630000013654,,,,,,,,,,,,,,,,,,,under,001,2019_Feb_08_1657,body_behavioural,59.69647304402035,
7,"Ariana passed the note back to Leon, and she had replied, “No, but maybe my twin and I were separated at birth.”",3,2,,,,0,7,7,7,,,,,0,22,22,22,,,,,,,,,,,,,,,,,,,,,,,,,,,1,0.03492917799997031,,,,,,,,,,,,,,,,,,,under,001,2019_Feb_08_1657,body_behavioural,59.69647304402035,
7,They passed notes back and forth the whole class like they were back in high school.,3,2,,,,0,7,7,7,,,,,0,23,23,23,,,,,,,,,,,,,,,,,,,,,,,,,,,9,0.001822448999973858,,,,,,,,,,,,,,,,,,,under,001,2019_Feb_08_1657,body_behavioural,59.69647304402035,
7,"Near the end of the lecture, Leon wrote, “Would you like to go to dinner tonight?” ",3,3,,,,0,7,7,7,,,,,0,24,24,24,,,,,,,,,,,,,,,,,,,,,,,,,,,9,0.6338592130000507,,,,,,,,,,,,,,,,,,,under,001,2019_Feb_08_1657,body_behavioural,59.69647304402035,
7,"Ariana read the note, and looked at him and nodded her head",3,3,,,,0,7,7,7,,,,,0,25,25,25,,,,,,,,,,,,,,,,,,,,,,,,,,,1,0.06827823100002206,,,,,,,,,,,,,,,,,,,under,001,2019_Feb_08_1657,body_behavioural,59.69647304402035,
7,"She wrote back on the slip of paper, “Pick me up at 6 in front of Patton Hall.”",3,3,,,,0,7,7,7,,,,,0,26,26,26,,,,,,,,,,,,,,,,,,,,,,,,,,,9,0.022395103999997445,,,,,,,,,,,,,,,,,,,under,001,2019_Feb_08_1657,body_behavioural,59.69647304402035,
7,Then the professor ended the lecture and announced to the class that they would have their first quiz next class on Friday on mummification. ,4,3,,,,0,7,7,7,,,,,0,27,27,27,,,,,,,,,,,,,,,,,,,,,,,,,,,1,0.034300873000006504,,,,,,,,,,,,,,,,,,,under,001,2019_Feb_08_1657,body_behavioural,59.69647304402035,
7,"Everyone packed up and started heading out, as well as Sophie and Leon.",4,3,,,,0,7,7,7,,,,,0,28,28,28,,,,,,,,,,,,,,,,,,,,,,,,,,,1,0.35784911600001124,,,,,,,,,,,,,,,,,,,under,001,2019_Feb_08_1657,body_behavioural,59.69647304402035,
7,"They approached each other smiling, and Leon said, “Well it was great to meet you, again, or maybe not again, but regardless it was great to meet you.” ",4,3,,,,0,7,7,7,,,,,0,29,29,29,,,,,,,,,,,,,,,,,,,,,,,,,,,1,0.15203863900001124,,,,,,,,,,,,,,,,,,,under,001,2019_Feb_08_1657,body_behavioural,59.69647304402035,
7,"She replied, “Yes, it was.",4,4,,,,0,7,7,7,,,,,0,30,30,30,,,,,,,,,,,,,,,,,,,,,,,,,,,9,0.13509406699995452,,,,,,,,,,,,,,,,,,,under,001,2019_Feb_08_1657,body_behavioural,59.69647304402035,
7,"I have to run to my next class, but I’ll see you later tonight.” ",4,4,,,,0,7,7,7,,,,,0,31,31,31,,,,,,,,,,,,,,,,,,,,,,,,,,,9,0.30198221199998443,,,,,,,,,,,,,,,,,,,under,001,2019_Feb_08_1657,body_behavioural,59.69647304402035,
7,"She waved as they parted ways outside of the door of the classroom, and Leon was still trying to figure out where he had seen her before as he watched her go. ",4,4,,,,0,7,7,7,,,,,0,32,32,32,,,,,,,,,,,,,,,,,,,,,,,,,,,9,0.08498090000000502,,,,,,,,,,,,,,,,,,,under,001,2019_Feb_08_1657,body_behavioural,59.69647304402035,
7,,,,,,,0,7,7,7,,,,,,,,,,,,,,,,,,,,,,,,,,,,,,,,,,,,,,,,,,,,,,,,,,,,,,,under,001,2019_Feb_08_1657,body_behavioural,59.69647304402035,
,,,,,,The next task in the experiment is to recall each story to the best of your ability.,,,,,,,,,,,,,0,0,0,0,,,,,,,,,,,,,,,,,,,,,,,,,space,0.5844076319999658,,,,,,,,,,,,,,,,,under,001,2019_Feb_08_1657,body_behavioural,59.69647304402035,
,,,,,,"You will be presented with the story title, names, the images, and a blank text box for each story.",,,,,,,,,,,,,0,1,1,1,,,,,,,,,,,,,,,,,,,,,,,,,space,0.2523585249999769,,,,,,,,,,,,,,,,,under,001,2019_Feb_08_1657,body_behavioural,59.69647304402035,
,,,,,,Describe the story with as many details as you can remember in the space provided. ,,,,,,,,,,,,,0,2,2,2,,,,,,,,,,,,,,,,,,,,,,,,,space,0.2838511820000349,,,,,,,,,,,,,,,,,under,001,2019_Feb_08_1657,body_behavioural,59.69647304402035,
,,,,,,"When you are finished recalling one story, to move onto the next one hit ‘return’. ",,,,,,,,,,,,,0,3,3,3,,,,,,,,,,,,,,,,,,,,,,,,,space,0.31844160199989346,,,,,,,,,,,,,,,,,under,001,2019_Feb_08_1657,body_behavioural,59.69647304402035,
,,,,,,There is no time limit for your responses. ,,,,,,,,,,,,,0,4,4,4,,,,,,,,,,,,,,,,,,,,,,,,,space,0.31812185399996906,,,,,,,,,,,,,,,,,under,001,2019_Feb_08_1657,body_behavioural,59.69647304402035,
0,,,,,,,,,,,,,,,,,,,,,,,0,0,0,0,,,,,,,,,,,,,,,,,,,,,,,space,0.3844287639999493,,,,,,,,,,,,,,,under,001,2019_Feb_08_1657,body_behavioural,59.69647304402035,
,,,,,,The next part of the task is to answer 8 questions about each story.,,,,,,,,,,,,,,,,,,,,,0,0,0,0,,,,,,,,,,,,,,,,,,,,,space,0.5687418499999239,,,,,,,,,,,,,under,001,2019_Feb_08_1657,body_behavioural,59.69647304402035,
,,,,,,Some of the questions are not related to the perspective you were asked to assume.,,,,,,,,,,,,,,,,,,,,,0,1,1,1,,,,,,,,,,,,,,,,,,,,,space,0.21799978000001374,,,,,,,,,,,,,under,001,2019_Feb_08_1657,body_behavioural,59.69647304402035,
,,,,,,"We realize that we did not tell you to think of these questions during the story, but do your best to answer them.",,,,,,,,,,,,,,,,,,,,,0,2,2,2,,,,,,,,,,,,,,,,,,,,,space,0.20146531199998208,,,,,,,,,,,,,under,001,2019_Feb_08_1657,body_behavioural,59.69647304402035,
,,,,,,"When you have finished typing your answer, hit ‘return’ to submit your answer and move onto the next question. ",,,,,,,,,,,,,,,,,,,,,0,3,3,3,,,,,,,,,,,,,,,,,,,,,space,0.20209360799992737,,,,,,,,,,,,,under,001,2019_Feb_08_1657,body_behavioural,59.69647304402035,
0,,,,,,,,,,,,,,,,,,,,,,,,,,,,,,,0,0,0,0,,,,,,,,,,,,,,,,,,,space,0.2354845209999894,, ,primed first,,,,,,,,under,001,2019_Feb_08_1657,body_behavioural,59.69647304402035,
1,,,,,,,,,,,,,,,,,,,,,,,,,,,,,,,0,1,1,1,,,,,,,,,,,,,,,,,,,space,0.4844673979999925,,,non-primed first,,,,,,,,under,001,2019_Feb_08_1657,body_behavioural,59.69647304402035,
2,,,,,,,,,,,,,,,,,,,,,,,,,,,,,,,0,2,2,2,,,,,,,,,,,,,,,,,,,space,0.368115902999989,,,primed first,,,,,,,,under,001,2019_Feb_08_1657,body_behavioural,59.69647304402035,
3,,,,,,,,,,,,,,,,,,,,,,,,,,,,,,,0,3,3,3,,,,,,,,,,,,,,,,,,,space,0.3504406149999113,, ,primed first,,,,,,,,under,001,2019_Feb_08_1657,body_behavioural,59.69647304402035,
4,,,,,,,,,,,,,,,,,,,,,,,,,,,,,,,0,4,4,4,,,,,,,,,,,,,,,,,,,space,0.45149920099993324,, ,primed first,,,,,,,,under,001,2019_Feb_08_1657,body_behavioural,59.69647304402035,
5,,,,,,,,,,,,,,,,,,,,,,,,,,,,,,,0,5,5,5,,,,,,,,,,,,,,,,,,,space,0.4183988219999719,,,primed first,,,,,,,,under,001,2019_Feb_08_1657,body_behavioural,59.69647304402035,
6,,,,,,,,,,,,,,,,,,,,,,,,,,,,,,,0,6,6,6,,,,,,,,,,,,,,,,,,,space,0.33453673700000763,, ,non-primed first,,,,,,,,under,001,2019_Feb_08_1657,body_behavioural,59.69647304402035,
7,,,,,,,,,,,,,,,,,,,,,,,,,,,,,,,0,7,7,7,,,,,,,,,,,,,,,,,,,space,0.6005312999999433,, ,primed first,,,,,,,,under,001,2019_Feb_08_1657,body_behavioural,59.69647304402035,
