count,storyText,locationEvent,socialEvent,locationEventSize,socialEventSize,instructText,trials.thisRepN,trials.thisTrialN,trials.thisN,trials.thisIndex,trials_7.thisRepN,trials_7.thisTrialN,trials_7.thisN,trials_7.thisIndex,trials_2.thisRepN,trials_2.thisTrialN,trials_2.thisN,trials_2.thisIndex,trials_3.thisRepN,trials_3.thisTrialN,trials_3.thisN,trials_3.thisIndex,trials_4.thisRepN,trials_4.thisTrialN,trials_4.thisN,trials_4.thisIndex,trials_5.thisRepN,trials_5.thisTrialN,trials_5.thisN,trials_5.thisIndex,trials_6.thisRepN,trials_6.thisTrialN,trials_6.thisN,trials_6.thisIndex,order of stories,order of perspectives,participant 2 order - stories,participant 2 order  - schemas types,key_resp_8.keys,key_resp_8.rt,key_resp_5.keys,key_resp_5.rt,key_resp_7.keys,key_resp_7.rt,story_presses.keys,story_presses.rt,key_resp_2.keys,key_resp_2.rt,key_resp_10.keys,key_resp_10.rt,key_resp_3.keys,key_resp_3.rt,key_resp_11.keys,key_resp_11.rt,recall,question1_answer,order of question,question2_answer,question3_answer,question4_answer,question5_answer,question6_answer,question7_answer,question8_answer,participant,session,date,expName,frameRate,
0,,,,,,,0,0,0,0,0,0,0,0,,,,,,,,,,,,,,,,,,,,,[12 34 23 11 42 33 41 24 31 32 13 22 44 21 14 43],"['Location' 'Location' 'Location' 'Social' 'Social' 'Social' 'Location'
 'Social' 'Social' 'Location' 'Social' 'Social' 'Social' 'Location'
 'Location' 'Location']",[31 32 13 22 44 21 14 43],"['Social' 'Location' 'Social' 'Social' 'Social' 'Location' 'Location'
 'Location']",space,0.5194389539992699,space,0.5017999629999395,space,0.40177112499986833,,,,,,,,,,,,,,,,,,,,,x,001,2019_Feb_08_1629,body_behavioural,59.98580052118582,
0,"It didn’t help the situation that Calvin and Jessie were running late to the airport, since Jessie had already been fuming at Calvin and preparing to end things with him.",1,1,,,,0,0,0,0,,,,,0,0,0,0,,,,,,,,,,,,,,,,,,,,,,,,,,,1,2.7361046239984717,,,,,,,,,,,,,,,,,,,x,001,2019_Feb_08_1629,body_behavioural,59.98580052118582,
0,"Upon arriving, they had only 45 minutes until their international flight would depart from Jamaica for the US.",1,1,,,,0,0,0,0,,,,,0,1,1,1,,,,,,,,,,,,,,,,,,,,,,,,,,,9,0.08492915600072592,,,,,,,,,,,,,,,,,,,x,001,2019_Feb_08_1629,body_behavioural,59.98580052118582,
0,It had been a tough vacation for them.,1,1,,,,0,0,0,0,,,,,0,2,2,2,,,,,,,,,,,,,,,,,,,,,,,,,,,1,0.1326395340001909,,,,,,,,,,,,,,,,,,,x,001,2019_Feb_08_1629,body_behavioural,59.98580052118582,
0,"Jessie had really had it with Calvin’s constant ramblings about the same excruciatingly boring golfing and work stories, which he insisted on repeating to her regardless of how little interest she showed.",1,1,,,,0,0,0,0,,,,,0,3,3,3,,,,,,,,,,,,,,,,,,,,,,,,,,,9,0.0006297909985732986,,,,,,,,,,,,,,,,,,,x,001,2019_Feb_08_1629,body_behavioural,59.98580052118582,
0,"Calvin knew that Jessie was upset, but wasn't sure what to do besides attempting to carry on as normal and tell stories that took up the silence. ",1,1,,,,0,0,0,0,,,,,0,4,4,4,,,,,,,,,,,,,,,,,,,,,,,,,,,1,0.019007139000677853,,,,,,,,,,,,,,,,,,,x,001,2019_Feb_08_1629,body_behavioural,59.98580052118582,
0,"The security line was luckily very short, and once the online boarding passes were scanned they were ushered quickly through the metal detector, not having to take off their shoes or remove the liquids from their bags.",2,1,,,,0,0,0,0,,,,,0,5,5,5,,,,,,,,,,,,,,,,,,,,,,,,,,,9,0.0016243239988398273,,,,,,,,,,,,,,,,,,,x,001,2019_Feb_08_1629,body_behavioural,59.98580052118582,
0,"“The infrastructure of this airport is really quite poor," said Calvin as they waited for their bags to emerge from the x-ray machine.",2,1,,,,0,0,0,0,,,,,0,6,6,6,,,,,,,,,,,,,,,,,,,,,,,,,,,1,0.0016665439998178044,,,,,,,,,,,,,,,,,,,x,001,2019_Feb_08_1629,body_behavioural,59.98580052118582,
0,“I really could've hidden something in my shoes quite easily.” ,2,1,,,,0,0,0,0,,,,,0,7,7,7,,,,,,,,,,,,,,,,,,,,,,,,,,,9,0.06726202600111719,,,,,,,,,,,,,,,,,,,x,001,2019_Feb_08_1629,body_behavioural,59.98580052118582,
0,"Jessie, exasperated at his need to broadcast his every inner thought, scowled at the conveyor belt.",2,1,,,,0,0,0,0,,,,,0,8,8,8,,,,,,,,,,,,,,,,,,,,,,,,,,,1,0.053907290999632096,,,,,,,,,,,,,,,,,,,x,001,2019_Feb_08_1629,body_behavioural,59.98580052118582,
0,"“What?”, he asked.",2,1,,,,0,0,0,0,,,,,0,9,9,9,,,,,,,,,,,,,,,,,,,,,,,,,,,9,0.10168544500083954,,,,,,,,,,,,,,,,,,,x,001,2019_Feb_08_1629,body_behavioural,59.98580052118582,
0,She balled up her fists and turned to face him.,2,1,,,,0,0,0,0,,,,,0,10,10,10,,,,,,,,,,,,,,,,,,,,,,,,,,,1,0.0017132610009866767,,,,,,,,,,,,,,,,,,,x,001,2019_Feb_08_1629,body_behavioural,59.98580052118582,
0,"“Calvin, I really don’t think I can do this anymore.",2,2,,,,0,0,0,0,,,,,0,11,11,11,,,,,,,,,,,,,,,,,,,,,,,,,,,9,0.11677344099916809,,,,,,,,,,,,,,,,,,,x,001,2019_Feb_08_1629,body_behavioural,59.98580052118582,
0,I think it’s best that once we get to the States we part ways for good.” ,2,2,,,,0,0,0,0,,,,,0,12,12,12,,,,,,,,,,,,,,,,,,,,,,,,,,,1,0.0682911010007956,,,,,,,,,,,,,,,,,,,x,001,2019_Feb_08_1629,body_behavioural,59.98580052118582,
0,Calvin said nothing as he grabbed his bag and quickly walked away.,2,2,,,,0,0,0,0,,,,,0,13,13,13,,,,,,,,,,,,,,,,,,,,,,,,,,,9,0.03458176599997387,,,,,,,,,,,,,,,,,,,x,001,2019_Feb_08_1629,body_behavioural,59.98580052118582,
0,"Jessie trailed behind him as they made their way quickly toward their gate, shouting at his back in hopes of getting a response.",3,2,,,,0,0,0,0,,,,,0,14,14,14,,,,,,,,,,,,,,,,,,,,,,,,,,,1,0.08298019200083218,,,,,,,,,,,,,,,,,,,x,001,2019_Feb_08_1629,body_behavioural,59.98580052118582,
0,“So now you have nothing to say?,3,2,,,,0,0,0,0,,,,,0,15,15,15,,,,,,,,,,,,,,,,,,,,,,,,,,,9,0.1690104320005048,,,,,,,,,,,,,,,,,,,x,001,2019_Feb_08_1629,body_behavioural,59.98580052118582,
0,"Every time we talk, you are just looking for a way to steer the conversation back into your stories.”",3,2,,,,0,0,0,0,,,,,0,16,16,16,,,,,,,,,,,,,,,,,,,,,,,,,,,1,0.06830669500050135,,,,,,,,,,,,,,,,,,,x,001,2019_Feb_08_1629,body_behavioural,59.98580052118582,
0,"Calvin didn't slow his pace, gritting his teeth and staring straight ahead. ",3,2,,,,0,0,0,0,,,,,0,17,17,17,,,,,,,,,,,,,,,,,,,,,,,,,,,9,0.057578974001444294,,,,,,,,,,,,,,,,,,,x,001,2019_Feb_08_1629,body_behavioural,59.98580052118582,
0,He was very frustrated that he had been trying to appease Jessie this whole time and this was how she responded. ,3,2,,,,0,0,0,0,,,,,0,18,18,18,,,,,,,,,,,,,,,,,,,,,,,,,,,1,0.10072232999846165,,,,,,,,,,,,,,,,,,,x,001,2019_Feb_08_1629,body_behavioural,59.98580052118582,
0,The silence was punctuated only by the rapid rhythmic clacking of their suitcase wheels over the tile floor as they continued power-walking through the terminal. ,3,2,,,,0,0,0,0,,,,,0,19,19,19,,,,,,,,,,,,,,,,,,,,,,,,,,,9,0.051437082000120427,,,,,,,,,,,,,,,,,,,x,001,2019_Feb_08_1629,body_behavioural,59.98580052118582,
0,"“Well?” Jessie said, and Calvin finally turned to her.",3,2,,,,0,0,0,0,,,,,0,20,20,20,,,,,,,,,,,,,,,,,,,,,,,,,,,1,0.06843447400024161,,,,,,,,,,,,,,,,,,,x,001,2019_Feb_08_1629,body_behavioural,59.98580052118582,
0,"“Well, Jessie, this makes perfect sense. ",3,3,,,,0,0,0,0,,,,,0,21,21,21,,,,,,,,,,,,,,,,,,,,,,,,,,,9,0.051770641999610234,,,,,,,,,,,,,,,,,,,x,001,2019_Feb_08_1629,body_behavioural,59.98580052118582,
0,"If you feel this way, then I don’t want to keep boring you, and I agree, let’s part ways once we make it back.",3,3,,,,0,0,0,0,,,,,0,22,22,22,,,,,,,,,,,,,,,,,,,,,,,,,,,1,0.06748650000008638,,,,,,,,,,,,,,,,,,,x,001,2019_Feb_08_1629,body_behavioural,59.98580052118582,
0,You should’ve spoken up about my apparent intolerability before you decided to plan this vacation.”,3,3,,,,0,0,0,0,,,,,0,23,23,23,,,,,,,,,,,,,,,,,,,,,,,,,,,9,0.06807319399922562,,,,,,,,,,,,,,,,,,,x,001,2019_Feb_08_1629,body_behavioural,59.98580052118582,
0,"He was clearly hurt, but thought it was pointless to argue. ",3,3,,,,0,0,0,0,,,,,0,24,24,24,,,,,,,,,,,,,,,,,,,,,,,,,,,1,0.08402568200108362,,,,,,,,,,,,,,,,,,,x,001,2019_Feb_08_1629,body_behavioural,59.98580052118582,
0,"They finally made it to the gate, just as they heard the final call for passengers boarding their flight.",3,3,,,,0,0,0,0,,,,,0,25,25,25,,,,,,,,,,,,,,,,,,,,,,,,,,,9,0.05038350100039679,,,,,,,,,,,,,,,,,,,x,001,2019_Feb_08_1629,body_behavioural,59.98580052118582,
0,"They scanned their tickets, and the annoyed flight attendant shooed them onto the jet bridge and then closed the door behind them.",4,3,,,,0,0,0,0,,,,,0,26,26,26,,,,,,,,,,,,,,,,,,,,,,,,,,,1,0.0018183249994763173,,,,,,,,,,,,,,,,,,,x,001,2019_Feb_08_1629,body_behavioural,59.98580052118582,
0,"Luckily, they had forgotten to arrange seats next to each other on the flight back.",4,3,,,,0,0,0,0,,,,,0,27,27,27,,,,,,,,,,,,,,,,,,,,,,,,,,,9,0.06927955100036343,,,,,,,,,,,,,,,,,,,x,001,2019_Feb_08_1629,body_behavioural,59.98580052118582,
0,"They both had first-class tickets, but Jessie was headed for seat 1B while Calvin's seat was 4F. ",4,3,,,,0,0,0,0,,,,,0,28,28,28,,,,,,,,,,,,,,,,,,,,,,,,,,,9,0.18502395700124907,,,,,,,,,,,,,,,,,,,x,001,2019_Feb_08_1629,body_behavioural,59.98580052118582,
0,"Before Jessie sat down, she took a deep breath and then awkwardly shook Calvin’s hand, mumbling, “Well, have a nice flight.” ",4,4,,,,0,0,0,0,,,,,0,29,29,29,,,,,,,,,,,,,,,,,,,,,,,,,,,1,0.03302026900018973,,,,,,,,,,,,,,,,,,,x,001,2019_Feb_08_1629,body_behavioural,59.98580052118582,
0,He laughed in disbelief and walked to his window seat three rows back to get ready for takeoff.,4,4,,,,0,0,0,0,,,,,0,30,30,30,,,,,,,,,,,,,,,,,,,,,,,,,,,9,0.08427757299978111,,,,,,,,,,,,,,,,,,,x,001,2019_Feb_08_1629,body_behavioural,59.98580052118582,
0,Both were upset but glad that they would have this flight to mull things over and recenter. ,4,4,,,,0,0,0,0,,,,,0,31,31,31,,,,,,,,,,,,,,,,,,,,,,,,,,,1,0.025307682000857312,,,,,,,,,,,,,,,,,,,x,001,2019_Feb_08_1629,body_behavioural,59.98580052118582,
0,,,,,,,0,0,0,0,,,,,,,,,,,,,,,,,,,,,,,,,,,,,,,,,,,,,,,,,,,,,,,,,,,,,,,x,001,2019_Feb_08_1629,body_behavioural,59.98580052118582,
1,,,,,,,0,1,1,1,0,0,0,0,,,,,,,,,,,,,,,,,,,,,,,,,space,0.8347240160001093,space,0.3687067079990811,space,0.7360483329994167,,,,,,,,,,,,,,,,,,,,,x,001,2019_Feb_08_1629,body_behavioural,59.98580052118582,
1,Charlie saw Alma as they walked into class and he motioned for her to come sit in the back next to him: they had business to discuss.,1,1,,,,0,1,1,1,,,,,0,0,0,0,,,,,,,,,,,,,,,,,,,,,,,,,,,1,0.9177710120002303,,,,,,,,,,,,,,,,,,,x,001,2019_Feb_08_1629,body_behavioural,59.98580052118582,
1,Charlie and Alma were both economics students with entrepreneurial bents.,1,1,,,,0,1,1,1,,,,,0,1,1,1,,,,,,,,,,,,,,,,,,,,,,,,,,,1,0.1585434720000194,,,,,,,,,,,,,,,,,,,x,001,2019_Feb_08_1629,body_behavioural,59.98580052118582,
1,They were also both very busy and in the same class.,1,1,,,,0,1,1,1,,,,,0,2,2,2,,,,,,,,,,,,,,,,,,,,,,,,,,,1,0.11933087699981115,,,,,,,,,,,,,,,,,,,x,001,2019_Feb_08_1629,body_behavioural,59.98580052118582,
1,"After talking at a party, Charlie had discovered that Alma was looking for financing for her web development company.",1,1,,,,0,1,1,1,,,,,0,3,3,3,,,,,,,,,,,,,,,,,,,,,,,,,,,1,0.1505857650008693,,,,,,,,,,,,,,,,,,,x,001,2019_Feb_08_1629,body_behavioural,59.98580052118582,
1,It was serendipitous because he had been talking with other members of his venture capital group about making an investment. ,1,1,,,,0,1,1,1,,,,,0,4,4,4,,,,,,,,,,,,,,,,,,,,,,,,,,,9,0.11832263399992371,,,,,,,,,,,,,,,,,,,x,001,2019_Feb_08_1629,body_behavioural,59.98580052118582,
1,"His financial group had come to a decision that morning about Alma’s idea, and he didn't want to wait until after class to discuss the proposal with her. ",1,1,,,,0,1,1,1,,,,,0,5,5,5,,,,,,,,,,,,,,,,,,,,,,,,,,,1,0.002392514999883133,,,,,,,,,,,,,,,,,,,x,001,2019_Feb_08_1629,body_behavioural,59.98580052118582,
1,"The class was in a large auditorium with small, foldable desks on the side of each cushioned chair. ",1,1,,,,0,1,1,1,,,,,0,6,6,6,,,,,,,,,,,,,,,,,,,,,,,,,,,9,0.08367235100013204,,,,,,,,,,,,,,,,,,,x,001,2019_Feb_08_1629,body_behavioural,59.98580052118582,
1,"There were large windows on both sides of the hall, and they could see the first flurries of a winter storm starting outside. ",1,1,,,,0,1,1,1,,,,,0,7,7,7,,,,,,,,,,,,,,,,,,,,,,,,,,,1,0.03478659299980791,,,,,,,,,,,,,,,,,,,x,001,2019_Feb_08_1629,body_behavioural,59.98580052118582,
1,"“Here we are at Lecture Seven already in History of the Eternal City,” said the professor. ",2,1,,,,0,1,1,1,,,,,0,8,8,8,,,,,,,,,,,,,,,,,,,,,,,,,,,9,0.04068642099991848,,,,,,,,,,,,,,,,,,,x,001,2019_Feb_08_1629,body_behavioural,59.98580052118582,
1,“We're going to talk today about the age of the first Roman emperor: Augustus.” ,2,1,,,,0,1,1,1,,,,,0,9,9,9,,,,,,,,,,,,,,,,,,,,,,,,,,,1,0.04094345299927227,,,,,,,,,,,,,,,,,,,x,001,2019_Feb_08_1629,body_behavioural,59.98580052118582,
1,"She went into some recap of the last lecture, and Charlie took this as an opportunity to start talking to Alma.",2,1,,,,0,1,1,1,,,,,0,10,10,10,,,,,,,,,,,,,,,,,,,,,,,,,,,9,0.01913023199995223,,,,,,,,,,,,,,,,,,,x,001,2019_Feb_08_1629,body_behavioural,59.98580052118582,
1,"“Okay so I’ve been thinking about your startup idea, and I have talked about it with my fellow investors.",2,2,,,,0,1,1,1,,,,,0,11,11,11,,,,,,,,,,,,,,,,,,,,,,,,,,,1,0.06851135900069494,,,,,,,,,,,,,,,,,,,x,001,2019_Feb_08_1629,body_behavioural,59.98580052118582,
1,We’d like to invest half of what you originally suggested.,2,2,,,,0,1,1,1,,,,,0,12,12,12,,,,,,,,,,,,,,,,,,,,,,,,,,,9,0.018396613999357214,,,,,,,,,,,,,,,,,,,x,001,2019_Feb_08_1629,body_behavioural,59.98580052118582,
1,"Rather than $30,000, we start with $15,000.",2,2,,,,0,1,1,1,,,,,0,13,13,13,,,,,,,,,,,,,,,,,,,,,,,,,,,1,0.05184037300023192,,,,,,,,,,,,,,,,,,,x,001,2019_Feb_08_1629,body_behavioural,59.98580052118582,
1,We would see how the company does and then invest the other half later.” ,2,2,,,,0,1,1,1,,,,,0,14,14,14,,,,,,,,,,,,,,,,,,,,,,,,,,,1,0.12502626899913594,,,,,,,,,,,,,,,,,,,x,001,2019_Feb_08_1629,body_behavioural,59.98580052118582,
1,"Alma, tapping her pen on her notebook, narrowed her eyes and pursed her lips.",2,2,,,,0,1,1,1,,,,,0,15,15,15,,,,,,,,,,,,,,,,,,,,,,,,,,,9,0.12429395499930251,,,,,,,,,,,,,,,,,,,x,001,2019_Feb_08_1629,body_behavioural,59.98580052118582,
1,She turned back to the lecture as she considered this.,2,2,,,,0,1,1,1,,,,,0,16,16,16,,,,,,,,,,,,,,,,,,,,,,,,,,,1,0.0185202600005141,,,,,,,,,,,,,,,,,,,x,001,2019_Feb_08_1629,body_behavioural,59.98580052118582,
1,"The professor was going on: “The senate had conferred upon him the title of Augustus the sacred and revered one, the restorer of traditional values, the city’s new religious leader, the restorer of temples. ",3,2,,,,0,1,1,1,,,,,0,17,17,17,,,,,,,,,,,,,,,,,,,,,,,,,,,9,0.1003927659985493,,,,,,,,,,,,,,,,,,,x,001,2019_Feb_08_1629,body_behavioural,59.98580052118582,
1,"Augustus also sought to beautify Rome, make it into a new Athens, and dispel the criticisms of Rome as disorganized and ugly.”",3,2,,,,0,1,1,1,,,,,0,18,18,18,,,,,,,,,,,,,,,,,,,,,,,,,,,9,0.13387027099997795,,,,,,,,,,,,,,,,,,,x,001,2019_Feb_08_1629,body_behavioural,59.98580052118582,
1,"Alma turned back to Charlie and offered her rebuttal, “I don’t know about that: it’s not going to be possible to implement our ideas effectively unless the project is fully funded. ",3,3,,,,0,1,1,1,,,,,0,19,19,19,,,,,,,,,,,,,,,,,,,,,,,,,,,9,0.13360313799967116,,,,,,,,,,,,,,,,,,,x,001,2019_Feb_08_1629,body_behavioural,59.98580052118582,
1,We would have to find other investors and that would set us back in our timeline. ,3,3,,,,0,1,1,1,,,,,0,20,20,20,,,,,,,,,,,,,,,,,,,,,,,,,,,9,0.10788604700064752,,,,,,,,,,,,,,,,,,,x,001,2019_Feb_08_1629,body_behavioural,59.98580052118582,
1,"Our profit projections assumed we'd be starting relatively soon, not months down the line.” ",3,3,,,,0,1,1,1,,,,,0,21,21,21,,,,,,,,,,,,,,,,,,,,,,,,,,,9,0.10236391400030698,,,,,,,,,,,,,,,,,,,x,001,2019_Feb_08_1629,body_behavioural,59.98580052118582,
1,They whispered back and forth during the whole class in order to work out a compromise. ,3,3,,,,0,1,1,1,,,,,0,22,22,22,,,,,,,,,,,,,,,,,,,,,,,,,,,9,0.11062079500152322,,,,,,,,,,,,,,,,,,,x,001,2019_Feb_08_1629,body_behavioural,59.98580052118582,
1,"Finally, the class ended, and the professor dismissed the students with a reminder that the midterm paper was due on Thursday and that they should email their papers to the TA.",4,3,,,,0,1,1,1,,,,,0,23,23,23,,,,,,,,,,,,,,,,,,,,,,,,,,,9,0.08494119399983902,,,,,,,,,,,,,,,,,,,x,001,2019_Feb_08_1629,body_behavioural,59.98580052118582,
1,"Everyone, except Charlie and Alma, packed up their things and headed out of the lecture hall to get to their next class. ",4,3,,,,0,1,1,1,,,,,0,24,24,24,,,,,,,,,,,,,,,,,,,,,,,,,,,9,0.06820726499972807,,,,,,,,,,,,,,,,,,,x,001,2019_Feb_08_1629,body_behavioural,59.98580052118582,
1,"“Alright, so we’ll have the $30,000 wired to you by tomorrow,” Charlie said. ",4,4,,,,0,1,1,1,,,,,0,25,25,25,,,,,,,,,,,,,,,,,,,,,,,,,,,1,0.0017507409993413603,,,,,,,,,,,,,,,,,,,x,001,2019_Feb_08_1629,body_behavioural,59.98580052118582,
1,"This wasn't ideal for Charlie, but Alma had refused to budge, and his investment group had told him they were willing to pay the full amount if necessary. ",4,4,,,,0,1,1,1,,,,,0,26,26,26,,,,,,,,,,,,,,,,,,,,,,,,,,,9,0.03355568699953437,,,,,,,,,,,,,,,,,,,x,001,2019_Feb_08_1629,body_behavioural,59.98580052118582,
1,"They shook hands, walked out of the now-empty lecture hall, and made plans to sign the official paperwork the next day.",4,4,,,,0,1,1,1,,,,,0,27,27,27,,,,,,,,,,,,,,,,,,,,,,,,,,,1,0.0016791680009191623,,,,,,,,,,,,,,,,,,,x,001,2019_Feb_08_1629,body_behavioural,59.98580052118582,
1,,,,,,,0,1,1,1,,,,,,,,,,,,,,,,,,,,,,,,,,,,,,,,,,,,,,,,,,,,,,,,,,,,,,,x,001,2019_Feb_08_1629,body_behavioural,59.98580052118582,
2,,,,,,,0,2,2,2,0,0,0,0,,,,,,,,,,,,,,,,,,,,,,,,,space,0.9509112630003074,space,0.5022152199999255,space,1.4182357230001799,,,,,,,,,,,,,,,,,,,,,x,001,2019_Feb_08_1629,body_behavioural,59.98580052118582,
2,"Alex was a distracted, sweaty mess as he walked into the grocery store with Chloe; he was hoping that she wouldn't suspect that he was about to propose.",1,1,,,,0,2,2,2,,,,,0,0,0,0,,,,,,,,,,,,,,,,,,,,,,,,,,,1,0.6680716869996104,,,,,,,,,,,,,,,,,,,x,001,2019_Feb_08_1629,body_behavioural,59.98580052118582,
2,"The grocery store was brightly lit; this was one of the nicest grocery stores in Atlanta, and sunlight poured in through the glass walls.",1,1,,,,0,2,2,2,,,,,0,1,1,1,,,,,,,,,,,,,,,,,,,,,,,,,,,9,0.08369650900021952,,,,,,,,,,,,,,,,,,,x,001,2019_Feb_08_1629,body_behavioural,59.98580052118582,
2,"The atmosphere was also bright because tomorrow was Thanksgiving, and most shoppers had carts piled high with turkey, stuffing, and pies.",1,1,,,,0,2,2,2,,,,,0,2,2,2,,,,,,,,,,,,,,,,,,,,,,,,,,,1,0.051218610999058,,,,,,,,,,,,,,,,,,,x,001,2019_Feb_08_1629,body_behavioural,59.98580052118582,
2,Alex wanted to propose to Chloe here because he knew she would not suspect it at all. ,1,1,,,,0,2,2,2,,,,,0,3,3,3,,,,,,,,,,,,,,,,,,,,,,,,,,,9,0.02285242899961304,,,,,,,,,,,,,,,,,,,x,001,2019_Feb_08_1629,body_behavioural,59.98580052118582,
2,"Chloe loved surprises, and Alex loved the look on Chloe’s face when she was surprised. ",1,1,,,,0,2,2,2,,,,,0,4,4,4,,,,,,,,,,,,,,,,,,,,,,,,,,,1,0.07123036699886143,,,,,,,,,,,,,,,,,,,x,001,2019_Feb_08_1629,body_behavioural,59.98580052118582,
2,"“Alex, we need to get some cranberry sauce, so let’s go there first.” ",2,1,,,,0,2,2,2,,,,,0,5,5,5,,,,,,,,,,,,,,,,,,,,,,,,,,,9,0.05198483200001647,,,,,,,,,,,,,,,,,,,x,001,2019_Feb_08_1629,body_behavioural,59.98580052118582,
2,She led the way to the section of the store that held the canned foods. ,2,1,,,,0,2,2,2,,,,,0,6,6,6,,,,,,,,,,,,,,,,,,,,,,,,,,,1,0.08384965500044927,,,,,,,,,,,,,,,,,,,x,001,2019_Feb_08_1629,body_behavioural,59.98580052118582,
2,Alex looked like he was going to throw up. ,2,1,,,,0,2,2,2,,,,,0,7,7,7,,,,,,,,,,,,,,,,,,,,,,,,,,,9,0.06829947799997171,,,,,,,,,,,,,,,,,,,x,001,2019_Feb_08_1629,body_behavioural,59.98580052118582,
2,"As they were walking there, Chloe asked him, “Is everything okay, dear?”",2,1,,,,0,2,2,2,,,,,0,8,8,8,,,,,,,,,,,,,,,,,,,,,,,,,,,1,0.1008783779998339,,,,,,,,,,,,,,,,,,,x,001,2019_Feb_08_1629,body_behavioural,59.98580052118582,
2,"“Oh yeah, for sure,” he said, unconvincingly. ",2,1,,,,0,2,2,2,,,,,0,9,9,9,,,,,,,,,,,,,,,,,,,,,,,,,,,9,0.03537631200015312,,,,,,,,,,,,,,,,,,,x,001,2019_Feb_08_1629,body_behavioural,59.98580052118582,
2,"She chuckled, “Alright, whatever you say.” ",2,1,,,,0,2,2,2,,,,,0,10,10,10,,,,,,,,,,,,,,,,,,,,,,,,,,,1,0.10208733800027403,,,,,,,,,,,,,,,,,,,x,001,2019_Feb_08_1629,body_behavioural,59.98580052118582,
2,"She was mulling over the different cans of cranberry sauce, and Alex knew she would be a while.",2,1,,,,0,2,2,2,,,,,0,11,11,11,,,,,,,,,,,,,,,,,,,,,,,,,,,9,0.018559453999841935,,,,,,,,,,,,,,,,,,,x,001,2019_Feb_08_1629,body_behavioural,59.98580052118582,
2,He turned his back to her and pulled out the ring.,2,2,,,,0,2,2,2,,,,,0,12,12,12,,,,,,,,,,,,,,,,,,,,,,,,,,,1,0.08515022800020233,,,,,,,,,,,,,,,,,,,x,001,2019_Feb_08_1629,body_behavioural,59.98580052118582,
2,He had been saving up for this for a while. ,2,2,,,,0,2,2,2,,,,,0,13,13,13,,,,,,,,,,,,,,,,,,,,,,,,,,,9,0.0017204139985551592,,,,,,,,,,,,,,,,,,,x,001,2019_Feb_08_1629,body_behavioural,59.98580052118582,
2,The ring had three large diamonds with smaller ones encircling each one: all of them sparkled in the light streaming in from the windows. ,2,2,,,,0,2,2,2,,,,,0,14,14,14,,,,,,,,,,,,,,,,,,,,,,,,,,,9,0.06846706800024549,,,,,,,,,,,,,,,,,,,x,001,2019_Feb_08_1629,body_behavioural,59.98580052118582,
2,"“Alex?”, Chloe said suspiciously. ",2,2,,,,0,2,2,2,,,,,0,15,15,15,,,,,,,,,,,,,,,,,,,,,,,,,,,1,0.10133621400018455,,,,,,,,,,,,,,,,,,,x,001,2019_Feb_08_1629,body_behavioural,59.98580052118582,
2,He closed the box and whipped around. “Yes?”,2,2,,,,0,2,2,2,,,,,0,16,16,16,,,,,,,,,,,,,,,,,,,,,,,,,,,9,0.18643654500010598,,,,,,,,,,,,,,,,,,,x,001,2019_Feb_08_1629,body_behavioural,59.98580052118582,
2,“Do we need anything else?”,2,2,,,,0,2,2,2,,,,,0,17,17,17,,,,,,,,,,,,,,,,,,,,,,,,,,,1,0.13461325900061638,,,,,,,,,,,,,,,,,,,x,001,2019_Feb_08_1629,body_behavioural,59.98580052118582,
2,"“Yeah I don’t know, honey.” ",2,2,,,,0,2,2,2,,,,,0,18,18,18,,,,,,,,,,,,,,,,,,,,,,,,,,,1,0.11732249499982572,,,,,,,,,,,,,,,,,,,x,001,2019_Feb_08_1629,body_behavioural,59.98580052118582,
2,They went to the checkout and waited in a long line.,3,2,,,,0,2,2,2,,,,,0,19,19,19,,,,,,,,,,,,,,,,,,,,,,,,,,,9,0.10185833800096589,,,,,,,,,,,,,,,,,,,x,001,2019_Feb_08_1629,body_behavioural,59.98580052118582,
2,Alex was staring intensely off into the distance. ,3,2,,,,0,2,2,2,,,,,0,20,20,20,,,,,,,,,,,,,,,,,,,,,,,,,,,9,0.13544282200018642,,,,,,,,,,,,,,,,,,,x,001,2019_Feb_08_1629,body_behavioural,59.98580052118582,
2,Chloe was watching him trying to decide whether he looked scared or confused. ,3,2,,,,0,2,2,2,,,,,0,21,21,21,,,,,,,,,,,,,,,,,,,,,,,,,,,9,0.13638992699998198,,,,,,,,,,,,,,,,,,,x,001,2019_Feb_08_1629,body_behavioural,59.98580052118582,
2,Alex looked over at their friends who were waiting by the entrance of the grocery store.,3,2,,,,0,2,2,2,,,,,0,22,22,22,,,,,,,,,,,,,,,,,,,,,,,,,,,1,0.11618571100007102,,,,,,,,,,,,,,,,,,,x,001,2019_Feb_08_1629,body_behavioural,59.98580052118582,
2,They got the message and walked over slowly. ,3,2,,,,0,2,2,2,,,,,0,23,23,23,,,,,,,,,,,,,,,,,,,,,,,,,,,1,0.10266984299960313,,,,,,,,,,,,,,,,,,,x,001,2019_Feb_08_1629,body_behavioural,59.98580052118582,
2,"“Honey,” he said to get her attention, “Look, Chloe, I love you so much and I want to be with you forever, I can’t imagine a day without you.”",3,2,,,,0,2,2,2,,,,,0,24,24,24,,,,,,,,,,,,,,,,,,,,,,,,,,,9,0.1348692060000758,,,,,,,,,,,,,,,,,,,x,001,2019_Feb_08_1629,body_behavioural,59.98580052118582,
2,"“Awww, Alex, me too.”",3,2,,,,0,2,2,2,,,,,0,25,25,25,,,,,,,,,,,,,,,,,,,,,,,,,,,1,0.16816883100000268,,,,,,,,,,,,,,,,,,,x,001,2019_Feb_08_1629,body_behavioural,59.98580052118582,
2,"Alex got down on one knee, and Chloe gasped. ",3,3,,,,0,2,2,2,,,,,0,26,26,26,,,,,,,,,,,,,,,,,,,,,,,,,,,9,0.05101816699971096,,,,,,,,,,,,,,,,,,,x,001,2019_Feb_08_1629,body_behavioural,59.98580052118582,
2,"“I am serious, Chloe. Will you marry me?”",3,3,,,,0,2,2,2,,,,,0,27,27,27,,,,,,,,,,,,,,,,,,,,,,,,,,,1,0.11613037300048745,,,,,,,,,,,,,,,,,,,x,001,2019_Feb_08_1629,body_behavioural,59.98580052118582,
2,"The people in line around them realized what was happening, stepped back, and started taking pictures.",3,3,,,,0,2,2,2,,,,,0,28,28,28,,,,,,,,,,,,,,,,,,,,,,,,,,,9,0.06682442599958449,,,,,,,,,,,,,,,,,,,x,001,2019_Feb_08_1629,body_behavioural,59.98580052118582,
2,Their friends were no longer trying to hide and were videotaping and taking pictures too. ,3,3,,,,0,2,2,2,,,,,0,29,29,29,,,,,,,,,,,,,,,,,,,,,,,,,,,1,0.08429981100016448,,,,,,,,,,,,,,,,,,,x,001,2019_Feb_08_1629,body_behavioural,59.98580052118582,
2,Chloe looked around and laughed. ,3,3,,,,0,2,2,2,,,,,0,30,30,30,,,,,,,,,,,,,,,,,,,,,,,,,,,9,0.10128018300019903,,,,,,,,,,,,,,,,,,,x,001,2019_Feb_08_1629,body_behavioural,59.98580052118582,
2,"“Yes!” she shouted, and jumped to embrace Alex in a hug. ",3,4,,,,0,2,2,2,,,,,0,31,31,31,,,,,,,,,,,,,,,,,,,,,,,,,,,1,0.08478296300017973,,,,,,,,,,,,,,,,,,,x,001,2019_Feb_08_1629,body_behavioural,59.98580052118582,
2,Everyone in line clapped and cheered. ,3,4,,,,0,2,2,2,,,,,0,32,32,32,,,,,,,,,,,,,,,,,,,,,,,,,,,9,0.1509328269985417,,,,,,,,,,,,,,,,,,,x,001,2019_Feb_08_1629,body_behavioural,59.98580052118582,
2,"Alex put the ring on Chloe’s finger, who was nearly spinning in excitement.",3,4,,,,0,2,2,2,,,,,0,33,33,33,,,,,,,,,,,,,,,,,,,,,,,,,,,1,0.017145768000773387,,,,,,,,,,,,,,,,,,,x,001,2019_Feb_08_1629,body_behavioural,59.98580052118582,
2,"“I love it, oh my gosh, it’s so glittery!",3,4,,,,0,2,2,2,,,,,0,34,34,34,,,,,,,,,,,,,,,,,,,,,,,,,,,9,0.11902711299990187,,,,,,,,,,,,,,,,,,,x,001,2019_Feb_08_1629,body_behavioural,59.98580052118582,
2,Look at this!” she said as she shoved her hand in a stranger’s face.,3,4,,,,0,2,2,2,,,,,0,35,35,35,,,,,,,,,,,,,,,,,,,,,,,,,,,1,0.10177506799846014,,,,,,,,,,,,,,,,,,,x,001,2019_Feb_08_1629,body_behavioural,59.98580052118582,
2,Her friends came over and hugged them.,3,4,,,,0,2,2,2,,,,,0,36,36,36,,,,,,,,,,,,,,,,,,,,,,,,,,,9,0.11732992299948819,,,,,,,,,,,,,,,,,,,x,001,2019_Feb_08_1629,body_behavioural,59.98580052118582,
2,The other people let them move up to the front of the checkout line. ,3,4,,,,0,2,2,2,,,,,0,37,37,37,,,,,,,,,,,,,,,,,,,,,,,,,,,1,0.08568607500092185,,,,,,,,,,,,,,,,,,,x,001,2019_Feb_08_1629,body_behavioural,59.98580052118582,
2,The cashier congratulated them and scanned their cranberry sauce. ,4,4,,,,0,2,2,2,,,,,0,38,38,38,,,,,,,,,,,,,,,,,,,,,,,,,,,9,0.08547010999973281,,,,,,,,,,,,,,,,,,,x,001,2019_Feb_08_1629,body_behavioural,59.98580052118582,
2,The total came to $4 and Chloe paid in cash while getting distracted and staring at the ring as she pulled out the bills.,4,4,,,,0,2,2,2,,,,,0,39,39,39,,,,,,,,,,,,,,,,,,,,,,,,,,,1,0.08471509799892374,,,,,,,,,,,,,,,,,,,x,001,2019_Feb_08_1629,body_behavioural,59.98580052118582,
2,"Alex grabbed the cans, and they walked out with their friends bunched around them. ",4,4,,,,0,2,2,2,,,,,0,40,40,40,,,,,,,,,,,,,,,,,,,,,,,,,,,9,0.07136981499934336,,,,,,,,,,,,,,,,,,,x,001,2019_Feb_08_1629,body_behavioural,59.98580052118582,
2,,,,,,,0,2,2,2,,,,,,,,,,,,,,,,,,,,,,,,,,,,,,,,,,,,,,,,,,,,,,,,,,,,,,,x,001,2019_Feb_08_1629,body_behavioural,59.98580052118582,
3,,,,,,,0,3,3,3,0,0,0,0,,,,,,,,,,,,,,,,,,,,,,,,,space,0.8515870000010182,space,0.33537796099881234,space,1.019017590000658,,,,,,,,,,,,,,,,,,,,,x,001,2019_Feb_08_1629,body_behavioural,59.98580052118582,
3,"Thomas, dreading the conversation he was about to have, got to Annika’s Finer Diner early.",1,1,None,None,,0,3,3,3,,,,,0,0,0,0,,,,,,,,,,,,,,,,,,,,,,,,,,,1,0.28550301599898376,,,,,,,,,,,,,,,,,,,x,001,2019_Feb_08_1629,body_behavioural,59.98580052118582,
3,The restaurant had a kitschy charm and was reminiscent of a diner from the 70’s. ,1,1,None,None,,0,3,3,3,,,,,0,1,1,1,,,,,,,,,,,,,,,,,,,,,,,,,,,9,0.0909624560008524,,,,,,,,,,,,,,,,,,,x,001,2019_Feb_08_1629,body_behavioural,59.98580052118582,
3,A bell chimed as the door swung open and Sadie entered to find Thomas deep in thought on a bench by the door.,1,1,None,None,,0,3,3,3,,,,,0,2,2,2,,,,,,,,,,,,,,,,,,,,,,,,,,,1,0.08481945099993027,,,,,,,,,,,,,,,,,,,x,001,2019_Feb_08_1629,body_behavioural,59.98580052118582,
3,He jumped up and gave her a side hug. ,1,1,None,None,,0,3,3,3,,,,,0,3,3,3,,,,,,,,,,,,,,,,,,,,,,,,,,,9,0.03436204299941892,,,,,,,,,,,,,,,,,,,x,001,2019_Feb_08_1629,body_behavioural,59.98580052118582,
3,"“How was your day?”, he asked.",1,1,None,None,,0,3,3,3,,,,,0,4,4,4,,,,,,,,,,,,,,,,,,,,,,,,,,,1,0.08518122999885236,,,,,,,,,,,,,,,,,,,x,001,2019_Feb_08_1629,body_behavioural,59.98580052118582,
3,"She clung onto him, “It was okay.",1,1,None,None,,0,3,3,3,,,,,0,5,5,5,,,,,,,,,,,,,,,,,,,,,,,,,,,9,0.051381518998823594,,,,,,,,,,,,,,,,,,,x,001,2019_Feb_08_1629,body_behavioural,59.98580052118582,
3,I missed you today.”,1,1,None,None,,0,3,3,3,,,,,0,6,6,6,,,,,,,,,,,,,,,,,,,,,,,,,,,1,0.05157147099998838,,,,,,,,,,,,,,,,,,,x,001,2019_Feb_08_1629,body_behavioural,59.98580052118582,
3,He looked at the hostess coming towards them.,1,1,None,None,,0,3,3,3,,,,,0,7,7,7,,,,,,,,,,,,,,,,,,,,,,,,,,,9,0.051952701000118395,,,,,,,,,,,,,,,,,,,x,001,2019_Feb_08_1629,body_behavioural,59.98580052118582,
3,"“Can we have a table in the back?”, Thomas asked.",1,1,None,None,,0,3,3,3,,,,,0,8,8,8,,,,,,,,,,,,,,,,,,,,,,,,,,,1,0.10193233599966334,,,,,,,,,,,,,,,,,,,x,001,2019_Feb_08_1629,body_behavioural,59.98580052118582,
3,"She shrugged and, as she loudly popped her bubblegum, replied, “Sure, honey, this way.”",1,1,9.0,None,,0,3,3,3,,,,,0,9,9,9,,,,,,,,,,,,,,,,,,,,,,,,,,,9,0.0016798609995021252,,,,,,,,,,,,,,,,,,,x,001,2019_Feb_08_1629,body_behavioural,59.98580052118582,
3,She led them to the back of the restaurant where there were dimly lit tables. ,2,1,None,None,,0,3,3,3,,,,,0,10,10,10,,,,,,,,,,,,,,,,,,,,,,,,,,,1,0.0853860130009707,,,,,,,,,,,,,,,,,,,x,001,2019_Feb_08_1629,body_behavioural,59.98580052118582,
3,"“Is this alright?”, the hostess asked.",2,1,None,None,,0,3,3,3,,,,,0,11,11,11,,,,,,,,,,,,,,,,,,,,,,,,,,,1,0.11783236200062674,,,,,,,,,,,,,,,,,,,x,001,2019_Feb_08_1629,body_behavioural,59.98580052118582,
3,Thomas cleared his throat and tried not to grimace at the stained fabric that lined the booth.,2,1,None,None,,0,3,3,3,,,,,0,12,12,12,,,,,,,,,,,,,,,,,,,,,,,,,,,9,0.13457523499891977,,,,,,,,,,,,,,,,,,,x,001,2019_Feb_08_1629,body_behavioural,59.98580052118582,
3,“This is great.,2,1,None,None,,0,3,3,3,,,,,0,13,13,13,,,,,,,,,,,,,,,,,,,,,,,,,,,9,0.15253963100076362,,,,,,,,,,,,,,,,,,,x,001,2019_Feb_08_1629,body_behavioural,59.98580052118582,
3,"Thank you,” Thomas said.",2,1,None,None,,0,3,3,3,,,,,0,14,14,14,,,,,,,,,,,,,,,,,,,,,,,,,,,1,0.13403058200128726,,,,,,,,,,,,,,,,,,,x,001,2019_Feb_08_1629,body_behavioural,59.98580052118582,
3,Sadie slipped into the cushioned seat and grabbed Thomas’ hand.,2,1,None,None,,0,3,3,3,,,,,0,15,15,15,,,,,,,,,,,,,,,,,,,,,,,,,,,1,0.15285517299889761,,,,,,,,,,,,,,,,,,,x,001,2019_Feb_08_1629,body_behavioural,59.98580052118582,
3,"“Tell me about your day!”, Sadie sang as Thomas sat down.",2,1,None,None,,0,3,3,3,,,,,0,16,16,16,,,,,,,,,,,,,,,,,,,,,,,,,,,9,0.11824437900031626,,,,,,,,,,,,,,,,,,,x,001,2019_Feb_08_1629,body_behavioural,59.98580052118582,
3,He looked at her silently and pulled his hand slowly from hers.,2,1,None,None,,0,3,3,3,,,,,0,17,17,17,,,,,,,,,,,,,,,,,,,,,,,,,,,1,0.1195891909992497,,,,,,,,,,,,,,,,,,,x,001,2019_Feb_08_1629,body_behavioural,59.98580052118582,
3,Sadie gave him a puzzled look.,2,1,None,None,,0,3,3,3,,,,,0,18,18,18,,,,,,,,,,,,,,,,,,,,,,,,,,,9,0.11820689299929654,,,,,,,,,,,,,,,,,,,x,001,2019_Feb_08_1629,body_behavioural,59.98580052118582,
3,Thomas looked away and took a deep breath. ,2,1,None,None,,0,3,3,3,,,,,0,19,19,19,,,,,,,,,,,,,,,,,,,,,,,,,,,9,0.08398186600061308,,,,,,,,,,,,,,,,,,,x,001,2019_Feb_08_1629,body_behavioural,59.98580052118582,
3,"Sadie asked, “What’s wrong?” ",2,1,None,None,,0,3,3,3,,,,,0,20,20,20,,,,,,,,,,,,,,,,,,,,,,,,,,,1,0.01827566999963892,,,,,,,,,,,,,,,,,,,x,001,2019_Feb_08_1629,body_behavioural,59.98580052118582,
3,Thomas picked at his fingernails.,2,1,None,22.0,,0,3,3,3,,,,,0,21,21,21,,,,,,,,,,,,,,,,,,,,,,,,,,,9,0.06713797600059479,,,,,,,,,,,,,,,,,,,x,001,2019_Feb_08_1629,body_behavioural,59.98580052118582,
3,"“Sadie, I’ve been thinking, and I need to figure out some stuff… on my own.”",2,2,None,None,,0,3,3,3,,,,,0,22,22,22,,,,,,,,,,,,,,,,,,,,,,,,,,,1,0.017081784999390948,,,,,,,,,,,,,,,,,,,x,001,2019_Feb_08_1629,body_behavioural,59.98580052118582,
3,Sadie’s mouth popped open for a moment.,2,2,None,None,,0,3,3,3,,,,,0,23,23,23,,,,,,,,,,,,,,,,,,,,,,,,,,,9,0.13370204599959834,,,,,,,,,,,,,,,,,,,x,001,2019_Feb_08_1629,body_behavioural,59.98580052118582,
3,Then she swallowed and shifted back in her seat.,2,2,None,None,,0,3,3,3,,,,,0,24,24,24,,,,,,,,,,,,,,,,,,,,,,,,,,,9,0.15050899800007755,,,,,,,,,,,,,,,,,,,x,001,2019_Feb_08_1629,body_behavioural,59.98580052118582,
3,“Things have been really picking up at work.,2,2,None,None,,0,3,3,3,,,,,0,25,25,25,,,,,,,,,,,,,,,,,,,,,,,,,,,9,0.13471979300084058,,,,,,,,,,,,,,,,,,,x,001,2019_Feb_08_1629,body_behavioural,59.98580052118582,
3,And I’m not sure that this is the job I want to do anymore.,2,2,None,None,,0,3,3,3,,,,,0,26,26,26,,,,,,,,,,,,,,,,,,,,,,,,,,,1,0.11733368800014432,,,,,,,,,,,,,,,,,,,x,001,2019_Feb_08_1629,body_behavioural,59.98580052118582,
3,It’s been really overwhelming between working and figuring out if I should change careers.” ,2,2,17.0,None,,0,3,3,3,,,,,0,27,27,27,,,,,,,,,,,,,,,,,,,,,,,,,,,1,0.13313598700005969,,,,,,,,,,,,,,,,,,,x,001,2019_Feb_08_1629,body_behavioural,59.98580052118582,
3,The waiter appeared and interrupted the speech Thomas had been practicing.,3,2,None,None,,0,3,3,3,,,,,0,28,28,28,,,,,,,,,,,,,,,,,,,,,,,,,,,1,0.11724990100083232,,,,,,,,,,,,,,,,,,,x,001,2019_Feb_08_1629,body_behavioural,59.98580052118582,
3,"“Hello you two!”, the waiter said.",3,2,None,None,,0,3,3,3,,,,,0,29,29,29,,,,,,,,,,,,,,,,,,,,,,,,,,,9,0.13476650399934442,,,,,,,,,,,,,,,,,,,x,001,2019_Feb_08_1629,body_behavioural,59.98580052118582,
3,“Have you decided what you would like?”,3,2,None,None,,0,3,3,3,,,,,0,30,30,30,,,,,,,,,,,,,,,,,,,,,,,,,,,9,0.15159039699938148,,,,,,,,,,,,,,,,,,,x,001,2019_Feb_08_1629,body_behavioural,59.98580052118582,
3,"Thomas and Sadie realized there were menus on the table, and they glanced at the lengthy list quickly.",3,2,None,None,,0,3,3,3,,,,,0,31,31,31,,,,,,,,,,,,,,,,,,,,,,,,,,,9,0.1343587290011783,,,,,,,,,,,,,,,,,,,x,001,2019_Feb_08_1629,body_behavioural,59.98580052118582,
3,"There were so many strange dishes they had never heard of before, so they settled on familiar orders.",3,2,None,None,,0,3,3,3,,,,,0,32,32,32,,,,,,,,,,,,,,,,,,,,,,,,,,,1,0.11743704100081231,,,,,,,,,,,,,,,,,,,x,001,2019_Feb_08_1629,body_behavioural,59.98580052118582,
3,"“I’ll have a burger, no tomatoes,” Thomas said.",3,2,None,None,,0,3,3,3,,,,,0,33,33,33,,,,,,,,,,,,,,,,,,,,,,,,,,,9,0.13487706299929414,,,,,,,,,,,,,,,,,,,x,001,2019_Feb_08_1629,body_behavioural,59.98580052118582,
3,"Sadie asked about the reuben, and the waiter told her it was excellent.",3,2,None,None,,0,3,3,3,,,,,0,34,34,34,,,,,,,,,,,,,,,,,,,,,,,,,,,9,0.14079155899889884,,,,,,,,,,,,,,,,,,,x,001,2019_Feb_08_1629,body_behavioural,59.98580052118582,
3,"Once she agreed to get that, he walked away. ",3,2,None,None,,0,3,3,3,,,,,0,35,35,35,,,,,,,,,,,,,,,,,,,,,,,,,,,9,0.16812083999866445,,,,,,,,,,,,,,,,,,,x,001,2019_Feb_08_1629,body_behavioural,59.98580052118582,
3,Sadie and Thomas looked at each other. ,3,2,None,None,,0,3,3,3,,,,,0,36,36,36,,,,,,,,,,,,,,,,,,,,,,,,,,,9,0.10183920300005411,,,,,,,,,,,,,,,,,,,x,001,2019_Feb_08_1629,body_behavioural,59.98580052118582,
3,"“So what are you saying?”, Sadie asked. ",3,2,None,None,,0,3,3,3,,,,,0,37,37,37,,,,,,,,,,,,,,,,,,,,,,,,,,,1,0.0017413980003766483,,,,,,,,,,,,,,,,,,,x,001,2019_Feb_08_1629,body_behavioural,59.98580052118582,
3,"Thomas replied, “I want to take a break for awhile.",3,2,None,None,,0,3,3,3,,,,,0,38,38,38,,,,,,,,,,,,,,,,,,,,,,,,,,,9,0.1355148790007661,,,,,,,,,,,,,,,,,,,x,001,2019_Feb_08_1629,body_behavioural,59.98580052118582,
3,"You know, have space to figure out what I’m supposed to be doing.”",3,2,None,17.0,,0,3,3,3,,,,,0,39,39,39,,,,,,,,,,,,,,,,,,,,,,,,,,,9,0.1682868830012012,,,,,,,,,,,,,,,,,,,x,001,2019_Feb_08_1629,body_behavioural,59.98580052118582,
3,Sadie quietly burst into tears. ,3,3,None,None,,0,3,3,3,,,,,0,40,40,40,,,,,,,,,,,,,,,,,,,,,,,,,,,9,0.2021731409986387,,,,,,,,,,,,,,,,,,,x,001,2019_Feb_08_1629,body_behavioural,59.98580052118582,
3,"Nevertheless, people sitting at the adjacent table looked over and quickly averted their gaze as they realized what was happening. ",3,3,None,None,,0,3,3,3,,,,,0,41,41,41,,,,,,,,,,,,,,,,,,,,,,,,,,,9,0.08497337100016011,,,,,,,,,,,,,,,,,,,x,001,2019_Feb_08_1629,body_behavioural,59.98580052118582,
3,“Is this really what you want?,3,3,None,None,,0,3,3,3,,,,,0,42,42,42,,,,,,,,,,,,,,,,,,,,,,,,,,,1,0.21796323000125994,,,,,,,,,,,,,,,,,,,x,001,2019_Feb_08_1629,body_behavioural,59.98580052118582,
3,I don’t understand.,3,3,None,None,,0,3,3,3,,,,,0,43,43,43,,,,,,,,,,,,,,,,,,,,,,,,,,,1,0.16814944600082526,,,,,,,,,,,,,,,,,,,x,001,2019_Feb_08_1629,body_behavioural,59.98580052118582,
3,I don’t understand.,3,3,None,None,,0,3,3,3,,,,,0,44,44,44,,,,,,,,,,,,,,,,,,,,,,,,,,,9,0.001611252999282442,,,,,,,,,,,,,,,,,,,x,001,2019_Feb_08_1629,body_behavioural,59.98580052118582,
3,Things were fine. ,3,3,None,None,,0,3,3,3,,,,,0,45,45,45,,,,,,,,,,,,,,,,,,,,,,,,,,,9,0.15164070299942978,,,,,,,,,,,,,,,,,,,x,001,2019_Feb_08_1629,body_behavioural,59.98580052118582,
3,"We don’t have to hang out all the time, or as much as we do now.”",3,3,None,None,,0,3,3,3,,,,,0,46,46,46,,,,,,,,,,,,,,,,,,,,,,,,,,,1,0.118059323000125,,,,,,,,,,,,,,,,,,,x,001,2019_Feb_08_1629,body_behavioural,59.98580052118582,
3,Thomas chewed on his bottom lip and picked at his now bleeding hangnail. ,3,3,20.0,None,,0,3,3,3,,,,,0,47,47,47,,,,,,,,,,,,,,,,,,,,,,,,,,,9,0.15738593000060064,,,,,,,,,,,,,,,,,,,x,001,2019_Feb_08_1629,body_behavioural,59.98580052118582,
3,"At that moment, the waiter arrived with the burger and reuben and set them on the table.",4,3,None,None,,0,3,3,3,,,,,0,48,48,48,,,,,,,,,,,,,,,,,,,,,,,,,,,9,0.13529846100027498,,,,,,,,,,,,,,,,,,,x,001,2019_Feb_08_1629,body_behavioural,59.98580052118582,
3,“Is there anything else I can get for you two?,4,3,None,None,,0,3,3,3,,,,,0,49,49,49,,,,,,,,,,,,,,,,,,,,,,,,,,,1,0.1522028159997717,,,,,,,,,,,,,,,,,,,x,001,2019_Feb_08_1629,body_behavioural,59.98580052118582,
3,"Will you be getting dessert tonight?”, he asked.",4,3,None,None,,0,3,3,3,,,,,0,50,50,50,,,,,,,,,,,,,,,,,,,,,,,,,,,1,0.16739135300122143,,,,,,,,,,,,,,,,,,,x,001,2019_Feb_08_1629,body_behavioural,59.98580052118582,
3,"“Oh no, we’re good, thanks,” Thomas said.",4,3,None,None,,0,3,3,3,,,,,0,51,51,51,,,,,,,,,,,,,,,,,,,,,,,,,,,9,0.15240404599899193,,,,,,,,,,,,,,,,,,,x,001,2019_Feb_08_1629,body_behavioural,59.98580052118582,
3,"Once the waiter had walked away still oblivious to the situation, Thomas sighed and said, “Sadie, I’m sorry.",4,3,None,None,,0,3,3,3,,,,,0,52,52,52,,,,,,,,,,,,,,,,,,,,,,,,,,,1,0.1520373009989271,,,,,,,,,,,,,,,,,,,x,001,2019_Feb_08_1629,body_behavioural,59.98580052118582,
3,"You are so great, and I love hanging out with you.",4,3,None,None,,0,3,3,3,,,,,0,53,53,53,,,,,,,,,,,,,,,,,,,,,,,,,,,9,0.15160778899917204,,,,,,,,,,,,,,,,,,,x,001,2019_Feb_08_1629,body_behavioural,59.98580052118582,
3,But I need some time.,4,3,None,None,,0,3,3,3,,,,,0,54,54,54,,,,,,,,,,,,,,,,,,,,,,,,,,,9,0.1340520159992593,,,,,,,,,,,,,,,,,,,x,001,2019_Feb_08_1629,body_behavioural,59.98580052118582,
3,I’m so sorry.”,4,3,None,None,,0,3,3,3,,,,,0,55,55,55,,,,,,,,,,,,,,,,,,,,,,,,,,,1,0.16846346000056656,,,,,,,,,,,,,,,,,,,x,001,2019_Feb_08_1629,body_behavioural,59.98580052118582,
3,"He grabbed her hand, and she pulled it out of his.",4,3,None,None,,0,3,3,3,,,,,0,56,56,56,,,,,,,,,,,,,,,,,,,,,,,,,,,1,0.16925377200095681,,,,,,,,,,,,,,,,,,,x,001,2019_Feb_08_1629,body_behavioural,59.98580052118582,
3,"“Sadie,” he said.",4,3,None,17.0,,0,3,3,3,,,,,0,57,57,57,,,,,,,,,,,,,,,,,,,,,,,,,,,1,0.16722788399965793,,,,,,,,,,,,,,,,,,,x,001,2019_Feb_08_1629,body_behavioural,59.98580052118582,
3," She stood up, grabbed half of the reuben and shook it at him as she growled, “Don’t follow me, and don’t talk to me anymore!”",4,4,None,None,,0,3,3,3,,,,,0,58,58,58,,,,,,,,,,,,,,,,,,,,,,,,,,,1,0.11736593700152298,,,,,,,,,,,,,,,,,,,x,001,2019_Feb_08_1629,body_behavioural,59.98580052118582,
3,"Sadie's heels clacked loudly against the black and white linoleum, and the bell above the door jingled cheerfully as the door closed behind her.",4,4,None,None,,0,3,3,3,,,,,0,59,59,59,,,,,,,,,,,,,,,,,,,,,,,,,,,1,0.08586413900047773,,,,,,,,,,,,,,,,,,,x,001,2019_Feb_08_1629,body_behavioural,59.98580052118582,
3,Thomas sat there for awhile in shock at how quickly everything transpired. ,4,4,None,None,,0,3,3,3,,,,,0,60,60,60,,,,,,,,,,,,,,,,,,,,,,,,,,,1,0.13587700199968822,,,,,,,,,,,,,,,,,,,x,001,2019_Feb_08_1629,body_behavioural,59.98580052118582,
3,"He grabbed his burger and took a bite of it, creating a dry and fishy taste in his mouth.",4,4,None,None,,0,3,3,3,,,,,0,61,61,61,,,,,,,,,,,,,,,,,,,,,,,,,,,1,0.12364818900095997,,,,,,,,,,,,,,,,,,,x,001,2019_Feb_08_1629,body_behavioural,59.98580052118582,
3,He dropped it back on his plate and wondered if the restaurant was responsible for the foul taste. ,4,4,13.0,5.0,,0,3,3,3,,,,,0,62,62,62,,,,,,,,,,,,,,,,,,,,,,,,,,,1,0.08462531400073203,,,,,,,,,,,,,,,,,,,x,001,2019_Feb_08_1629,body_behavioural,59.98580052118582,
3,,,,,,,0,3,3,3,,,,,,,,,,,,,,,,,,,,,,,,,,,,,,,,,,,,,,,,,,,,,,,,,,,,,,,x,001,2019_Feb_08_1629,body_behavioural,59.98580052118582,
4,,,,,,,0,4,4,4,0,0,0,0,,,,,,,,,,,,,,,,,,,,,,,,,space,0.7514740839997103,space,0.4346047559993167,space,0.7679588559985859,,,,,,,,,,,,,,,,,,,,,x,001,2019_Feb_08_1629,body_behavioural,59.98580052118582,
4,David saw Anna for the first time when she burst into the airport with her bag skidding behind her half-zipped. ,1,1,,,,0,4,4,4,,,,,0,0,0,0,,,,,,,,,,,,,,,,,,,,,,,,,,,1,0.40200359400114394,,,,,,,,,,,,,,,,,,,x,001,2019_Feb_08_1629,body_behavioural,59.98580052118582,
4,"He had three hours until his flight, but she clearly had less than one.",1,1,,,,0,4,4,4,,,,,0,1,1,1,,,,,,,,,,,,,,,,,,,,,,,,,,,1,0.13532191800004512,,,,,,,,,,,,,,,,,,,x,001,2019_Feb_08_1629,body_behavioural,59.98580052118582,
4,"Anna’s yoga class had ran over, and afterwards, she, forgetting the time, had lingered to talk with friends. ",1,1,,,,0,4,4,4,,,,,0,2,2,2,,,,,,,,,,,,,,,,,,,,,,,,,,,1,0.10127822499998729,,,,,,,,,,,,,,,,,,,x,001,2019_Feb_08_1629,body_behavioural,59.98580052118582,
4,"Despite Anna's frazzled state, David was instantly intrigued by her.",1,1,,,,0,4,4,4,,,,,0,3,3,3,,,,,,,,,,,,,,,,,,,,,,,,,,,1,0.11884949199884431,,,,,,,,,,,,,,,,,,,x,001,2019_Feb_08_1629,body_behavioural,59.98580052118582,
4,"He thought she was beautiful, and she reminded him of one of his favorite paintings.",1,1,,,,0,4,4,4,,,,,0,4,4,4,,,,,,,,,,,,,,,,,,,,,,,,,,,9,0.9245369710006344,,,,,,,,,,,,,,,,,,,x,001,2019_Feb_08_1629,body_behavioural,59.98580052118582,
4,"Anna, a few strides into the airport, suddenly realized her shoes were untied, so she hunched over to tie them.",1,1,,,,0,4,4,4,,,,,0,5,5,5,,,,,,,,,,,,,,,,,,,,,,,,,,,1,0.9674633249996987,,,,,,,,,,,,,,,,,,,x,001,2019_Feb_08_1629,body_behavioural,59.98580052118582,
4,David observed that someone with a tall cart of luggage was heading straight for where Anna was kneeling. ,1,1,,,,0,4,4,4,,,,,0,6,6,6,,,,,,,,,,,,,,,,,,,,,,,,,,,9,0.08443008100039151,,,,,,,,,,,,,,,,,,,x,001,2019_Feb_08_1629,body_behavioural,59.98580052118582,
4,Both Anna and the person driving the cart were oblivious to the impending collision. ,1,1,,,,0,4,4,4,,,,,0,7,7,7,,,,,,,,,,,,,,,,,,,,,,,,,,,1,0.05154236700036563,,,,,,,,,,,,,,,,,,,x,001,2019_Feb_08_1629,body_behavioural,59.98580052118582,
4,"David had to intervene, and he ran in front of the cart pushing her out of the way just in the nick of time, and they tumbled on the airport floor. ",1,2,,,,0,4,4,4,,,,,0,8,8,8,,,,,,,,,,,,,,,,,,,,,,,,,,,9,0.03241446200081555,,,,,,,,,,,,,,,,,,,x,001,2019_Feb_08_1629,body_behavioural,59.98580052118582,
4,"Anna, bewildered, looked up and saw the cart pass by and then looked over at David. ",1,2,,,,0,4,4,4,,,,,0,9,9,9,,,,,,,,,,,,,,,,,,,,,,,,,,,1,0.05820793800012325,,,,,,,,,,,,,,,,,,,x,001,2019_Feb_08_1629,body_behavioural,59.98580052118582,
4,He gave a smile back.,1,2,,,,0,4,4,4,,,,,0,10,10,10,,,,,,,,,,,,,,,,,,,,,,,,,,,9,0.10078392000104941,,,,,,,,,,,,,,,,,,,x,001,2019_Feb_08_1629,body_behavioural,59.98580052118582,
4,"“You alright?”, he said.",1,2,,,,0,4,4,4,,,,,0,11,11,11,,,,,,,,,,,,,,,,,,,,,,,,,,,1,0.06744937099938397,,,,,,,,,,,,,,,,,,,x,001,2019_Feb_08_1629,body_behavioural,59.98580052118582,
4,"She whispered, “Uh yeah.",1,2,,,,0,4,4,4,,,,,0,12,12,12,,,,,,,,,,,,,,,,,,,,,,,,,,,9,0.11836197200136667,,,,,,,,,,,,,,,,,,,x,001,2019_Feb_08_1629,body_behavioural,59.98580052118582,
4,I almost got smooshed by that cart.”,1,2,,,,0,4,4,4,,,,,0,13,13,13,,,,,,,,,,,,,,,,,,,,,,,,,,,1,0.0016746689998399233,,,,,,,,,,,,,,,,,,,x,001,2019_Feb_08_1629,body_behavioural,59.98580052118582,
4,Her head was still spinning as she stared at the handsome stranger who had saved her. ,1,2,,,,0,4,4,4,,,,,0,14,14,14,,,,,,,,,,,,,,,,,,,,,,,,,,,9,0.089705121001316,,,,,,,,,,,,,,,,,,,x,001,2019_Feb_08_1629,body_behavioural,59.98580052118582,
4,David helped her up and had to keep holding on to her arms to steady her even once they were standing.,1,2,,,,0,4,4,4,,,,,0,15,15,15,,,,,,,,,,,,,,,,,,,,,,,,,,,1,0.0687550700004067,,,,,,,,,,,,,,,,,,,x,001,2019_Feb_08_1629,body_behavioural,59.98580052118582,
4,"“I’m really late for my flight,” she said. ",1,2,,,,0,4,4,4,,,,,0,16,16,16,,,,,,,,,,,,,,,,,,,,,,,,,,,9,0.08376446600050258,,,,,,,,,,,,,,,,,,,x,001,2019_Feb_08_1629,body_behavioural,59.98580052118582,
4,"“Don't worry,” said David, "let me help you get to your gate." ",1,2,,,,0,4,4,4,,,,,0,17,17,17,,,,,,,,,,,,,,,,,,,,,,,,,,,1,0.08471121799993853,,,,,,,,,,,,,,,,,,,x,001,2019_Feb_08_1629,body_behavioural,59.98580052118582,
4,He waved off her half-hearted protests. ,1,2,,,,0,4,4,4,,,,,0,18,18,18,,,,,,,,,,,,,,,,,,,,,,,,,,,9,0.05118623399903299,,,,,,,,,,,,,,,,,,,x,001,2019_Feb_08_1629,body_behavioural,59.98580052118582,
4,"“Really , I have plenty of time and nothing better to do.”",1,2,,,,0,4,4,4,,,,,0,19,19,19,,,,,,,,,,,,,,,,,,,,,,,,,,,1,0.06714257699968584,,,,,,,,,,,,,,,,,,,x,001,2019_Feb_08_1629,body_behavioural,59.98580052118582,
4,They headed to the security line. ,2,2,,,,0,4,4,4,,,,,0,20,20,20,,,,,,,,,,,,,,,,,,,,,,,,,,,9,0.10188532999927702,,,,,,,,,,,,,,,,,,,x,001,2019_Feb_08_1629,body_behavioural,59.98580052118582,
4,"The line was not long, and they spent the time chatting and getting to know each other.",2,2,,,,0,4,4,4,,,,,0,21,21,21,,,,,,,,,,,,,,,,,,,,,,,,,,,1,0.33573997500025143,,,,,,,,,,,,,,,,,,,x,001,2019_Feb_08_1629,body_behavioural,59.98580052118582,
4,It turned out that Anna and David went to the same high school but Anna had been 3 years older.,2,2,,,,0,4,4,4,,,,,0,22,22,22,,,,,,,,,,,,,,,,,,,,,,,,,,,1,0.13629713999944215,,,,,,,,,,,,,,,,,,,x,001,2019_Feb_08_1629,body_behavioural,59.98580052118582,
4,When they got to the front of the line they took off their shoes and pulled off their coats.,2,3,,,,0,4,4,4,,,,,0,23,23,23,,,,,,,,,,,,,,,,,,,,,,,,,,,1,0.10080040700086101,,,,,,,,,,,,,,,,,,,x,001,2019_Feb_08_1629,body_behavioural,59.98580052118582,
4,Both of them went through the metal detector without any problems. ,2,3,,,,0,4,4,4,,,,,0,24,24,24,,,,,,,,,,,,,,,,,,,,,,,,,,,1,0.18555953500072064,,,,,,,,,,,,,,,,,,,x,001,2019_Feb_08_1629,body_behavioural,59.98580052118582,
4,"Anna’s flight was in 20 minutes, and as she was rushing to put her shoes and coat back on, David asked her, “So when are you coming back?”",2,3,,,,0,4,4,4,,,,,0,25,25,25,,,,,,,,,,,,,,,,,,,,,,,,,,,1,0.11849815099958505,,,,,,,,,,,,,,,,,,,x,001,2019_Feb_08_1629,body_behavioural,59.98580052118582,
4,"“In a week, it’s a short trip,” Anna replied. ",2,3,,,,0,4,4,4,,,,,0,26,26,26,,,,,,,,,,,,,,,,,,,,,,,,,,,1,0.10160119600004691,,,,,,,,,,,,,,,,,,,x,001,2019_Feb_08_1629,body_behavioural,59.98580052118582,
4,"“Me too,” David said.",2,3,,,,0,4,4,4,,,,,0,27,27,27,,,,,,,,,,,,,,,,,,,,,,,,,,,9,0.13593893100005516,,,,,,,,,,,,,,,,,,,x,001,2019_Feb_08_1629,body_behavioural,59.98580052118582,
4,"He continued, “When we're back in town, is there any chance you'd want to get dinner?",2,3,,,,0,4,4,4,,,,,0,28,28,28,,,,,,,,,,,,,,,,,,,,,,,,,,,9,0.11843080100152292,,,,,,,,,,,,,,,,,,,x,001,2019_Feb_08_1629,body_behavioural,59.98580052118582,
4,"I know we just met, but when life throws a luggage cart at you it seems like we should listen. “",2,3,,,,0,4,4,4,,,,,0,29,29,29,,,,,,,,,,,,,,,,,,,,,,,,,,,9,0.11778204499933054,,,,,,,,,,,,,,,,,,,x,001,2019_Feb_08_1629,body_behavioural,59.98580052118582,
4,"She stopped packing, and said with a smile, “Yes I would love that.”",2,3,,,,0,4,4,4,,,,,0,30,30,30,,,,,,,,,,,,,,,,,,,,,,,,,,,9,0.11837293800090265,,,,,,,,,,,,,,,,,,,x,001,2019_Feb_08_1629,body_behavioural,59.98580052118582,
4,Then they ran off to Anna’s gate which was at the end of the terminal. ,3,3,,,,0,4,4,4,,,,,0,31,31,31,,,,,,,,,,,,,,,,,,,,,,,,,,,1,0.13494720400012739,,,,,,,,,,,,,,,,,,,x,001,2019_Feb_08_1629,body_behavioural,59.98580052118582,
4,"David took put on her backpack, grabbed her hand, and navigated quickly through the crowds of people.",3,3,,,,0,4,4,4,,,,,0,32,32,32,,,,,,,,,,,,,,,,,,,,,,,,,,,1,0.13491813600012392,,,,,,,,,,,,,,,,,,,x,001,2019_Feb_08_1629,body_behavioural,59.98580052118582,
4,Anna was amazed at everything that was happening; she had arrived at the airport doubtful that she would make it and was now confident that she would due to this handsome and kind man she just met.,3,3,,,,0,4,4,4,,,,,0,33,33,33,,,,,,,,,,,,,,,,,,,,,,,,,,,9,0.08505806399989524,,,,,,,,,,,,,,,,,,,x,001,2019_Feb_08_1629,body_behavioural,59.98580052118582,
4,"As they approached her gate, Anna fished out a crumbled business card from her pocket and handed it to David, who handed her the backpack, and he promised to call her next week.",3,4,,,,0,4,4,4,,,,,0,34,34,34,,,,,,,,,,,,,,,,,,,,,,,,,,,1,0.03530568700080039,,,,,,,,,,,,,,,,,,,x,001,2019_Feb_08_1629,body_behavioural,59.98580052118582,
4,She gave him one last embarrassed smile and approached the flight attendant who scanned her ticket. ,3,4,,,,0,4,4,4,,,,,0,35,35,35,,,,,,,,,,,,,,,,,,,,,,,,,,,9,0.11809517099936784,,,,,,,,,,,,,,,,,,,x,001,2019_Feb_08_1629,body_behavioural,59.98580052118582,
4,"Finally, she boarded the plane, sliding into her window seat located all the way in the back of the plane.",4,4,,,,0,4,4,4,,,,,0,36,36,36,,,,,,,,,,,,,,,,,,,,,,,,,,,1,0.08525850399928459,,,,,,,,,,,,,,,,,,,x,001,2019_Feb_08_1629,body_behavioural,59.98580052118582,
4,"Barely containing her glee, she ignored the grumbles of complaint as she squeezed past the other passengers in her row and settled back in her seat. ",4,4,,,,0,4,4,4,,,,,0,37,37,37,,,,,,,,,,,,,,,,,,,,,,,,,,,9,0.06685809000009613,,,,,,,,,,,,,,,,,,,x,001,2019_Feb_08_1629,body_behavioural,59.98580052118582,
4,"She was thankful that she had not only made it onto the plane in time, but also that she had been clumsy enough to forget to tie her shoes.",4,4,,,,0,4,4,4,,,,,0,38,38,38,,,,,,,,,,,,,,,,,,,,,,,,,,,1,0.03463072900012776,,,,,,,,,,,,,,,,,,,x,001,2019_Feb_08_1629,body_behavioural,59.98580052118582,
4,,,,,,,0,4,4,4,,,,,,,,,,,,,,,,,,,,,,,,,,,,,,,,,,,,,,,,,,,,,,,,,,,,,,,x,001,2019_Feb_08_1629,body_behavioural,59.98580052118582,
5,,,,,,,0,5,5,5,0,0,0,0,,,,,,,,,,,,,,,,,,,,,,,,,space,0.8843190629995661,space,0.40141673700054525,space,0.5519285350001155,,,,,,,,,,,,,,,,,,,,,x,001,2019_Feb_08_1629,body_behavioural,59.98580052118582,
5,"Ms. Bianchi and Ms. Morrison walked into the grocery store at the same time, and, after a moment of mutual recognition, greeted each other and shook hands.",1,1,,,,0,5,5,5,,,,,0,0,0,0,,,,,,,,,,,,,,,,,,,,,,,,,,,1,0.28592639500129735,,,,,,,,,,,,,,,,,,,x,001,2019_Feb_08_1629,body_behavioural,59.98580052118582,
5,""Thank you again for inviting me here to discuss my business proposal," said Ms. Bianchi, “And it’s a pleasure to be out of the office." ",1,1,,,,0,5,5,5,,,,,0,1,1,1,,,,,,,,,,,,,,,,,,,,,,,,,,,9,0.26740650899955654,,,,,,,,,,,,,,,,,,,x,001,2019_Feb_08_1629,body_behavioural,59.98580052118582,
5,"As a salesperson for an Italian cheese company that was trying to expand its outreach to more mainstream grocery stores, this meeting could be a big break for her.",1,1,,,,0,5,5,5,,,,,0,2,2,2,,,,,,,,,,,,,,,,,,,,,,,,,,,1,0.033210718998816446,,,,,,,,,,,,,,,,,,,x,001,2019_Feb_08_1629,body_behavioural,59.98580052118582,
5,"Her sales target, Ms. Morrison,  who had a reputation for being a bit quirky, was a corporate buyer for a large chain grocery store. ",1,1,,,,0,5,5,5,,,,,0,3,3,3,,,,,,,,,,,,,,,,,,,,,,,,,,,9,0.10169691500050249,,,,,,,,,,,,,,,,,,,x,001,2019_Feb_08_1629,body_behavioural,59.98580052118582,
5,"She was known for doing things unconventionally: for example, she said that she liked to make deals with suppliers in the place where the products were sold- “to keep their minds focused on what’s important.” ",1,1,,,,0,5,5,5,,,,,0,4,4,4,,,,,,,,,,,,,,,,,,,,,,,,,,,1,0.0017321900013484992,,,,,,,,,,,,,,,,,,,x,001,2019_Feb_08_1629,body_behavioural,59.98580052118582,
5,"They chatted a little in the front of the grocery store, which was surrounded by pumpkins and halloween decorations set up in special displays for the holiday season.",1,1,,,,0,5,5,5,,,,,0,5,5,5,,,,,,,,,,,,,,,,,,,,,,,,,,,9,0.051600196999061154,,,,,,,,,,,,,,,,,,,x,001,2019_Feb_08_1629,body_behavioural,59.98580052118582,
5,"Ms. Bianchi and Ms. Morrison walked to the cheese section, and Ms. Morrison picked up a block of parmesan.",2,1,,,,0,5,5,5,,,,,0,6,6,6,,,,,,,,,,,,,,,,,,,,,,,,,,,1,0.06847851699967578,,,,,,,,,,,,,,,,,,,x,001,2019_Feb_08_1629,body_behavioural,59.98580052118582,
5,“We have quite a selection here.,2,1,,,,0,5,5,5,,,,,0,7,7,7,,,,,,,,,,,,,,,,,,,,,,,,,,,9,0.16850303200044436,,,,,,,,,,,,,,,,,,,x,001,2019_Feb_08_1629,body_behavioural,59.98580052118582,
5,I don’t know that it needs an additional section for more gourmet cheeses.” ,2,1,,,,0,5,5,5,,,,,0,8,8,8,,,,,,,,,,,,,,,,,,,,,,,,,,,9,0.10738408700126456,,,,,,,,,,,,,,,,,,,x,001,2019_Feb_08_1629,body_behavioural,59.98580052118582,
5,"Ms. Bianchi's confidence faltered for a minute at this remark, but then she launched into her prepared pitch.",2,1,,,,0,5,5,5,,,,,0,9,9,9,,,,,,,,,,,,,,,,,,,,,,,,,,,9,0.1175489800007199,,,,,,,,,,,,,,,,,,,x,001,2019_Feb_08_1629,body_behavioural,59.98580052118582,
5," “Ms. Morrison, I think you would agree that selling food is more than just providing variety, but also about providing the highest quality.",2,2,,,,0,5,5,5,,,,,0,10,10,10,,,,,,,,,,,,,,,,,,,,,,,,,,,9,0.052460257000348065,,,,,,,,,,,,,,,,,,,x,001,2019_Feb_08_1629,body_behavioural,59.98580052118582,
5,"You don’t have cheeses made in America that are like ours, it is true.",2,2,,,,0,5,5,5,,,,,0,11,11,11,,,,,,,,,,,,,,,,,,,,,,,,,,,9,0.13594470600037312,,,,,,,,,,,,,,,,,,,x,001,2019_Feb_08_1629,body_behavioural,59.98580052118582,
5,Your store could be providing American consumers with a dimension in taste that they've never known before with our product.,2,2,,,,0,5,5,5,,,,,0,12,12,12,,,,,,,,,,,,,,,,,,,,,,,,,,,1,0.1727214409984299,,,,,,,,,,,,,,,,,,,x,001,2019_Feb_08_1629,body_behavioural,59.98580052118582,
5,"I propose that you give it a shot, buy $1000 worth of cheese products for a few stores, and see how the sales increase not only in our cheeses but also in products related to cheeses: crackers, jams, olives. ",2,2,,,,0,5,5,5,,,,,0,13,13,13,,,,,,,,,,,,,,,,,,,,,,,,,,,1,0.08401387000048999,,,,,,,,,,,,,,,,,,,x,001,2019_Feb_08_1629,body_behavioural,59.98580052118582,
5,"The availability of a finer product leads to the appreciation of the product, and your consumers will start to consume in a new, more profitable way.”",2,2,,,,0,5,5,5,,,,,0,14,14,14,,,,,,,,,,,,,,,,,,,,,,,,,,,1,0.08536224299859896,,,,,,,,,,,,,,,,,,,x,001,2019_Feb_08_1629,body_behavioural,59.98580052118582,
5,"Ms. Bianchi picked up a box of crackers by the cheese section, and said, “Here, I will buy these, and we can try some of our cheeses that I've brought with me.”",3,2,,,,0,5,5,5,,,,,0,15,15,15,,,,,,,,,,,,,,,,,,,,,,,,,,,9,0.11768445199959388,,,,,,,,,,,,,,,,,,,x,001,2019_Feb_08_1629,body_behavioural,59.98580052118582,
5,"Ms. Morrison, who was thinking, nodded in agreement and said, “That sounds like a great idea.",3,2,,,,0,5,5,5,,,,,0,16,16,16,,,,,,,,,,,,,,,,,,,,,,,,,,,9,0.10198275799848489,,,,,,,,,,,,,,,,,,,x,001,2019_Feb_08_1629,body_behavioural,59.98580052118582,
5,"Let’s head to check out, and those crackers are on me.” ",3,2,,,,0,5,5,5,,,,,0,17,17,17,,,,,,,,,,,,,,,,,,,,,,,,,,,9,0.10162197799945716,,,,,,,,,,,,,,,,,,,x,001,2019_Feb_08_1629,body_behavioural,59.98580052118582,
5,They walked over to the checkout area.,3,2,,,,0,5,5,5,,,,,0,18,18,18,,,,,,,,,,,,,,,,,,,,,,,,,,,1,0.0017364989998895908,,,,,,,,,,,,,,,,,,,x,001,2019_Feb_08_1629,body_behavioural,59.98580052118582,
5,"There was a very long line, and it was very busy in the checkout area as people were stocking up for Halloween parties and trick-or-treating. ",3,2,,,,0,5,5,5,,,,,0,19,19,19,,,,,,,,,,,,,,,,,,,,,,,,,,,1,0.11777962199994363,,,,,,,,,,,,,,,,,,,x,001,2019_Feb_08_1629,body_behavioural,59.98580052118582,
5,"Since they had almost a 10 minute wait in line, Ms. Bianchi handed a sheet with printed graphs to Ms. Morrison the increase in profits that several other stores had seen after starting to carry their products.",3,2,,,,0,5,5,5,,,,,0,20,20,20,,,,,,,,,,,,,,,,,,,,,,,,,,,1,0.08443072400041274,,,,,,,,,,,,,,,,,,,x,001,2019_Feb_08_1629,body_behavioural,59.98580052118582,
5,"Eventually, Ms. Morrison replied, “You know what, I think you've convinced me that this could work. ",3,3,,,,0,5,5,5,,,,,0,21,21,21,,,,,,,,,,,,,,,,,,,,,,,,,,,9,0.0848196030001418,,,,,,,,,,,,,,,,,,,x,001,2019_Feb_08_1629,body_behavioural,59.98580052118582,
5,We've been trying to find a way to add a little European cachet to our stores.,3,3,,,,0,5,5,5,,,,,0,22,22,22,,,,,,,,,,,,,,,,,,,,,,,,,,,1,0.11860102100035874,,,,,,,,,,,,,,,,,,,x,001,2019_Feb_08_1629,body_behavioural,59.98580052118582,
5,There's still a problem though - I'm worried we'll be paying out the nose for the import taxes.,3,3,,,,0,5,5,5,,,,,0,23,23,23,,,,,,,,,,,,,,,,,,,,,,,,,,,9,0.2510865410004044,,,,,,,,,,,,,,,,,,,x,001,2019_Feb_08_1629,body_behavioural,59.98580052118582,
5,Is that the case?",3,3,,,,0,5,5,5,,,,,0,24,24,24,,,,,,,,,,,,,,,,,,,,,,,,,,,1,0.06867052599955059,,,,,,,,,,,,,,,,,,,x,001,2019_Feb_08_1629,body_behavioural,59.98580052118582,
5,"It was Ms. Morrison’s turn to checkout, and the two businesswomen continued to talk back and forth as she did so. ",4,3,,,,0,5,5,5,,,,,0,25,25,25,,,,,,,,,,,,,,,,,,,,,,,,,,,9,0.25087475500004075,,,,,,,,,,,,,,,,,,,x,001,2019_Feb_08_1629,body_behavioural,59.98580052118582,
5,"The cashier scanned the crackers, and Ms. Bianchi watched in amusement as Ms. Morrison paid the $6 price entirely in quarters from a wallet bulging with change.",4,3,,,,0,5,5,5,,,,,0,26,26,26,,,,,,,,,,,,,,,,,,,,,,,,,,,9,0.16923303800103895,,,,,,,,,,,,,,,,,,,x,001,2019_Feb_08_1629,body_behavioural,59.98580052118582,
5,"They shortly came to an agreement and would have enough cheese shipments, $5000 worth, to different stores to qualify for a subsidized import tax. ",4,4,,,,0,5,5,5,,,,,0,27,27,27,,,,,,,,,,,,,,,,,,,,,,,,,,,1,0.11773033799909172,,,,,,,,,,,,,,,,,,,x,001,2019_Feb_08_1629,body_behavioural,59.98580052118582,
5,"Ms. Bianchi retrieved some of her samples from her car, and they toasted their new deal with crackers topped with fresh mozzarella. ",4,4,,,,0,5,5,5,,,,,0,28,28,28,,,,,,,,,,,,,,,,,,,,,,,,,,,9,0.10171571200044127,,,,,,,,,,,,,,,,,,,x,001,2019_Feb_08_1629,body_behavioural,59.98580052118582,
5,,,,,,,0,5,5,5,,,,,,,,,,,,,,,,,,,,,,,,,,,,,,,,,,,,,,,,,,,,,,,,,,,,,,,x,001,2019_Feb_08_1629,body_behavioural,59.98580052118582,
6,,,,,,,0,6,6,6,0,0,0,0,,,,,,,,,,,,,,,,,,,,,,,,,space,0.7679689359993063,space,0.35197123999932955,space,0.4346005839997815,,,,,,,,,,,,,,,,,,,,,x,001,2019_Feb_08_1629,body_behavioural,59.98580052118582,
6,"James noticed Teresa immediately as she walked into the restaurant - or, more accurately as she attempted to walk into the restaurant. ",1.0,1.0,,,,0,6,6,6,,,,,0,0,0,0,,,,,,,,,,,,,,,,,,,,,,,,,,,1,0.3368828399998165,,,,,,,,,,,,,,,,,,,x,001,2019_Feb_08_1629,body_behavioural,59.98580052118582,
6,"She was typing intently on her phone and ran straight into the diner's clear, glass door with an echoing thud. ",1.0,1.0,,,,0,6,6,6,,,,,0,1,1,1,,,,,,,,,,,,,,,,,,,,,,,,,,,9,0.21835686399936094,,,,,,,,,,,,,,,,,,,x,001,2019_Feb_08_1629,body_behavioural,59.98580052118582,
6,Everyone waiting around the cash register turned to see if she was okay.,1.0,1.0,,,,0,6,6,6,,,,,0,2,2,2,,,,,,,,,,,,,,,,,,,,,,,,,,,9,0.25091203700139886,,,,,,,,,,,,,,,,,,,x,001,2019_Feb_08_1629,body_behavioural,59.98580052118582,
6,Teresa rubbed her head.,1.0,1.0,,,,0,6,6,6,,,,,0,3,3,3,,,,,,,,,,,,,,,,,,,,,,,,,,,9,0.2017574199999217,,,,,,,,,,,,,,,,,,,x,001,2019_Feb_08_1629,body_behavioural,59.98580052118582,
6,"While being both confused and unembarrassed, she looked mostly indignant that the door had been in her way. ",None,None,,,,0,6,6,6,,,,,0,4,4,4,,,,,,,,,,,,,,,,,,,,,,,,,,,9,0.1676571360003436,,,,,,,,,,,,,,,,,,,x,001,2019_Feb_08_1629,body_behavioural,59.98580052118582,
6,James found this quite charming and stole a couple glances at her until she noticed and wrinkled her eyebrows at him in suspicion. ,1.0,1.0,,,,0,6,6,6,,,,,0,5,5,5,,,,,,,,,,,,,,,,,,,,,,,,,,,9,0.13501864799945906,,,,,,,,,,,,,,,,,,,x,001,2019_Feb_08_1629,body_behavioural,59.98580052118582,
6,"The restaurant they were in was a cabin-themed diner with wooden booths and bar, walls covered in plaid blankets, and antler decorations. ",1.0,1.0,,,,0,6,6,6,,,,,0,6,6,6,,,,,,,,,,,,,,,,,,,,,,,,,,,9,0.1332060359982279,,,,,,,,,,,,,,,,,,,x,001,2019_Feb_08_1629,body_behavioural,59.98580052118582,
6,The waiter saw that James and Teresa were both alone and motioned to both of them. ,1.0,1.0,,,,0,6,6,6,,,,,0,7,7,7,,,,,,,,,,,,,,,,,,,,,,,,,,,9,0.1528464980001445,,,,,,,,,,,,,,,,,,,x,001,2019_Feb_08_1629,body_behavioural,59.98580052118582,
6,“Right this way.,2.0,1.0,,,,0,6,6,6,,,,,0,8,8,8,,,,,,,,,,,,,,,,,,,,,,,,,,,9,0.16853302899835398,,,,,,,,,,,,,,,,,,,x,001,2019_Feb_08_1629,body_behavioural,59.98580052118582,
6,You two don't mind sitting at the counter?” ,2.0,1.0,,,,0,6,6,6,,,,,0,9,9,9,,,,,,,,,,,,,,,,,,,,,,,,,,,9,0.15150720100064063,,,,,,,,,,,,,,,,,,,x,001,2019_Feb_08_1629,body_behavioural,59.98580052118582,
6,They sat a seat apart from each other on the split tree trunk that served as a bench.,2.0,1.0,,,,0,6,6,6,,,,,0,10,10,10,,,,,,,,,,,,,,,,,,,,,,,,,,,9,0.19043505300032848,,,,,,,,,,,,,,,,,,,x,001,2019_Feb_08_1629,body_behavioural,59.98580052118582,
6, The waitress behind the counter gave them bright neon menus that were filled with breakfast items.,2.0,1.0,,,,0,6,6,6,,,,,0,11,11,11,,,,,,,,,,,,,,,,,,,,,,,,,,,9,0.16857563499979733,,,,,,,,,,,,,,,,,,,x,001,2019_Feb_08_1629,body_behavioural,59.98580052118582,
6,"Teresa quickly glanced through it, then pulled out a book and started reading it while James played with the salt and pepper shakers as he tried to think of an excuse to talk to Teresa.",2.0,1.0,,,,0,6,6,6,,,,,0,12,12,12,,,,,,,,,,,,,,,,,,,,,,,,,,,9,0.13379126399922825,,,,,,,,,,,,,,,,,,,x,001,2019_Feb_08_1629,body_behavioural,59.98580052118582,
6,"James eventually turned to her and asked, “Your forehead alright?”",2.0,2.0,,,,0,6,6,6,,,,,0,13,13,13,,,,,,,,,,,,,,,,,,,,,,,,,,,9,0.1851404419994651,,,,,,,,,,,,,,,,,,,x,001,2019_Feb_08_1629,body_behavioural,59.98580052118582,
6,She put down her book and gave him a smirk.,2.0,2.0,,,,0,6,6,6,,,,,0,14,14,14,,,,,,,,,,,,,,,,,,,,,,,,,,,9,0.18523227100013173,,,,,,,,,,,,,,,,,,,x,001,2019_Feb_08_1629,body_behavioural,59.98580052118582,
6,"“Have you ever been stung by a scorpion?”, she asked him, tilting her head.",2.0,2.0,,,,0,6,6,6,,,,,0,15,15,15,,,,,,,,,,,,,,,,,,,,,,,,,,,9,0.335146690998954,,,,,,,,,,,,,,,,,,,x,001,2019_Feb_08_1629,body_behavioural,59.98580052118582,
6,"“What?”, he asked confusedly.",2.0,2.0,,,,0,6,6,6,,,,,0,16,16,16,,,,,,,,,,,,,,,,,,,,,,,,,,,9,0.26799688000028254,,,,,,,,,,,,,,,,,,,x,001,2019_Feb_08_1629,body_behavioural,59.98580052118582,
6, “A scorpion.”,2.0,2.0,,,,0,6,6,6,,,,,0,17,17,17,,,,,,,,,,,,,,,,,,,,,,,,,,,9,0.20153649499843596,,,,,,,,,,,,,,,,,,,x,001,2019_Feb_08_1629,body_behavioural,59.98580052118582,
6,James began to worry that Teresa had possibly suffered a concussion in the door crash.,2.0,2.0,,,,0,6,6,6,,,,,0,18,18,18,,,,,,,,,,,,,,,,,,,,,,,,,,,9,0.17494535200057726,,,,,,,,,,,,,,,,,,,x,001,2019_Feb_08_1629,body_behavioural,59.98580052118582,
6,"“Uh no, why?” ",2.0,2.0,,,,0,6,6,6,,,,,0,19,19,19,,,,,,,,,,,,,,,,,,,,,,,,,,,9,0.4529643789992406,,,,,,,,,,,,,,,,,,,x,001,2019_Feb_08_1629,body_behavioural,59.98580052118582,
6,"“Because I’ve been stung by one, and since then, things like bumping into doors seem like pretty small potatoes.” ",2.0,2.0,,,,0,6,6,6,,,,,0,20,20,20,,,,,,,,,,,,,,,,,,,,,,,,,,,9,0.38496768299955875,,,,,,,,,,,,,,,,,,,x,001,2019_Feb_08_1629,body_behavioural,59.98580052118582,
6,"They carried on talking, and Teresa told him all about her encounter with a Deathstalker scorpion while she was studying abroad in Egypt.",2.0,2.0,,,,0,6,6,6,,,,,0,21,21,21,,,,,,,,,,,,,,,,,,,,,,,,,,,9,0.318386017001103,,,,,,,,,,,,,,,,,,,x,001,2019_Feb_08_1629,body_behavioural,59.98580052118582,
6,"After a few minutes, the waitress behind the counter came up to them, “Alrighty, can I take you order?” ",3.0,3.0,,,,0,6,6,6,,,,,0,22,22,22,,,,,,,,,,,,,,,,,,,,,,,,,,,9,0.3007642399988981,,,,,,,,,,,,,,,,,,,x,001,2019_Feb_08_1629,body_behavioural,59.98580052118582,
6,"She first looked at Teresa who answered, “I’ll have a Western Omelette and a glass of milk.”",3.0,3.0,,,,0,6,6,6,,,,,0,23,23,23,,,,,,,,,,,,,,,,,,,,,,,,,,,9,0.8080232040010742,,,,,,,,,,,,,,,,,,,x,001,2019_Feb_08_1629,body_behavioural,59.98580052118582,
6,Then the waitress turned to James.,3.0,3.0,,,,0,6,6,6,,,,,0,24,24,24,,,,,,,,,,,,,,,,,,,,,,,,,,,9,0.8346041920012794,,,,,,,,,,,,,,,,,,,x,001,2019_Feb_08_1629,body_behavioural,59.98580052118582,
6,"James said, “I’ll have the chocolate chip pancakes and a coffee.” ",None,None,,,,0,6,6,6,,,,,0,25,25,25,,,,,,,,,,,,,,,,,,,,,,,,,,,9,0.2518151399999624,,,,,,,,,,,,,,,,,,,x,001,2019_Feb_08_1629,body_behavioural,59.98580052118582,
6,"“Alrighty, comin’ right up!”",3.0,3.0,,,,0,6,6,6,,,,,0,26,26,26,,,,,,,,,,,,,,,,,,,,,,,,,,,9,0.25168492599914316,,,,,,,,,,,,,,,,,,,x,001,2019_Feb_08_1629,body_behavioural,59.98580052118582,
6,"They picked up their conversation, and James ended up telling Teresa about a concert he was going to later. ",3.0,3.0,,,,0,6,6,6,,,,,0,27,27,27,,,,,,,,,,,,,,,,,,,,,,,,,,,9,0.35176173099898733,,,,,,,,,,,,,,,,,,,x,001,2019_Feb_08_1629,body_behavioural,59.98580052118582,
6,"He invited her to come along, promising her that the concert would be indoors and absolutely free of venomous insects.",3.0,3.0,,,,0,6,6,6,,,,,0,28,28,28,,,,,,,,,,,,,,,,,,,,,,,,,,,9,0.5021215769993432,,,,,,,,,,,,,,,,,,,x,001,2019_Feb_08_1629,body_behavioural,59.98580052118582,
6,"Teresa agreed, gave him her number, and they worked out that James would pick her up before the concert and drive them there.",3.0,3.0,,,,0,6,6,6,,,,,0,29,29,29,,,,,,,,,,,,,,,,,,,,,,,,,,,1,0.46798271000079694,,,,,,,,,,,,,,,,,,,x,001,2019_Feb_08_1629,body_behavioural,59.98580052118582,
6,"This was not what they had expected from their solitary lunch plans and were both excited, even though Teresa was doing a much better job of hiding it than James. ",3.0,3.0,,,,0,6,6,6,,,,,0,30,30,30,,,,,,,,,,,,,,,,,,,,,,,,,,,9,0.13415303399960976,,,,,,,,,,,,,,,,,,,x,001,2019_Feb_08_1629,body_behavioural,59.98580052118582,
6," After awhile,  the waitress brought out their food, and James took this opportunity to scoot closer to her on the log bench. ",4.0,4.0,,,,0,6,6,6,,,,,0,31,31,31,,,,,,,,,,,,,,,,,,,,,,,,,,,1,0.11752115200033586,,,,,,,,,,,,,,,,,,,x,001,2019_Feb_08_1629,body_behavioural,59.98580052118582,
6,"Teresa was happy to share the meal with James, despite their food tasting pretty bad. ",4.0,4.0,,,,0,6,6,6,,,,,0,32,32,32,,,,,,,,,,,,,,,,,,,,,,,,,,,9,0.13995343600072374,,,,,,,,,,,,,,,,,,,x,001,2019_Feb_08_1629,body_behavioural,59.98580052118582,
6,"Judging by how salty the pancakes tasted, they suspected that the chef had confused the salt and sugar.",4.0,4.0,,,,0,6,6,6,,,,,0,33,33,33,,,,,,,,,,,,,,,,,,,,,,,,,,,1,0.0673247499998979,,,,,,,,,,,,,,,,,,,x,001,2019_Feb_08_1629,body_behavioural,59.98580052118582,
6,"When the meal was over, they got up, hugged, and parted ways. ",4.0,4.0,,,,0,6,6,6,,,,,0,34,34,34,,,,,,,,,,,,,,,,,,,,,,,,,,,9,0.16765261000000464,,,,,,,,,,,,,,,,,,,x,001,2019_Feb_08_1629,body_behavioural,59.98580052118582,
6,"James said,“I have to run, got to get to work.",4.0,4.0,,,,0,6,6,6,,,,,0,35,35,35,,,,,,,,,,,,,,,,,,,,,,,,,,,1,0.11713017300098727,,,,,,,,,,,,,,,,,,,x,001,2019_Feb_08_1629,body_behavioural,59.98580052118582,
6,See you tonight!”,4.0,4.0,,,,0,6,6,6,,,,,0,36,36,36,,,,,,,,,,,,,,,,,,,,,,,,,,,9,0.2009171099998639,,,,,,,,,,,,,,,,,,,x,001,2019_Feb_08_1629,body_behavioural,59.98580052118582,
6,"Teresa smiled and walked towards the door without looking, and almost ran into the door again. ",4.0,4.0,,,,0,6,6,6,,,,,0,37,37,37,,,,,,,,,,,,,,,,,,,,,,,,,,,1,0.12152175099981832,,,,,,,,,,,,,,,,,,,x,001,2019_Feb_08_1629,body_behavioural,59.98580052118582,
6,They both laughed and smiled once more goodbye. ,4.0,4.0,,,,0,6,6,6,,,,,0,38,38,38,,,,,,,,,,,,,,,,,,,,,,,,,,,9,0.11824657500073954,,,,,,,,,,,,,,,,,,,x,001,2019_Feb_08_1629,body_behavioural,59.98580052118582,
6,,,,,,,0,6,6,6,,,,,,,,,,,,,,,,,,,,,,,,,,,,,,,,,,,,,,,,,,,,,,,,,,,,,,,x,001,2019_Feb_08_1629,body_behavioural,59.98580052118582,
7,,,,,,,0,7,7,7,0,0,0,0,,,,,,,,,,,,,,,,,,,,,,,,,space,0.6848925609992875,space,0.36829124799987767,space,0.9853983470002277,,,,,,,,,,,,,,,,,,,,,x,001,2019_Feb_08_1629,body_behavioural,59.98580052118582,
7,"Lana walked into lecture holding hands with her boyfriend, Aaron, who was trying to contain his excitement and anticipation for proposing to Lana in this class. ",1,1,,,,0,7,7,7,,,,,0,0,0,0,,,,,,,,,,,,,,,,,,,,,,,,,,,1,0.28436920899912366,,,,,,,,,,,,,,,,,,,x,001,2019_Feb_08_1629,body_behavioural,59.98580052118582,
7,"Lana was lost in thought, still puzzling over a calculus problem on her problem set due that night.",1,1,,,,0,7,7,7,,,,,0,1,1,1,,,,,,,,,,,,,,,,,,,,,,,,,,,9,0.11729052800001227,,,,,,,,,,,,,,,,,,,x,001,2019_Feb_08_1629,body_behavioural,59.98580052118582,
7,"The lecture hall was the fanciest one at Princeton, with chandeliers, high ceilings, wood floors and double-decker chalkboards.",1,1,,,,0,7,7,7,,,,,0,2,2,2,,,,,,,,,,,,,,,,,,,,,,,,,,,1,0.08550596900022356,,,,,,,,,,,,,,,,,,,x,001,2019_Feb_08_1629,body_behavioural,59.98580052118582,
7,"This is where Aaron and Lana had met two years ago during an economics class, and now they were back together in the same lecture hall for their Chemistry class. ",1,1,,,,0,7,7,7,,,,,0,3,3,3,,,,,,,,,,,,,,,,,,,,,,,,,,,9,0.06597292600054061,,,,,,,,,,,,,,,,,,,x,001,2019_Feb_08_1629,body_behavioural,59.98580052118582,
7,The professor caught Aaron's eye as he walked up to the front of the classroom and gave him a wink before the lecture began. ,1,1,,,,0,7,7,7,,,,,0,4,4,4,,,,,,,,,,,,,,,,,,,,,,,,,,,1,0.06856626899934781,,,,,,,,,,,,,,,,,,,x,001,2019_Feb_08_1629,body_behavioural,59.98580052118582,
7,Aaron responded with a huge grin. ,1,1,,,,0,7,7,7,,,,,0,5,5,5,,,,,,,,,,,,,,,,,,,,,,,,,,,9,0.13361477999933413,,,,,,,,,,,,,,,,,,,x,001,2019_Feb_08_1629,body_behavioural,59.98580052118582,
7,"The professor cleared his throat and said,“Alright, good afternoon, everyone!",2,1,,,,0,7,7,7,,,,,0,6,6,6,,,,,,,,,,,,,,,,,,,,,,,,,,,1,0.06938374099991051,,,,,,,,,,,,,,,,,,,x,001,2019_Feb_08_1629,body_behavioural,59.98580052118582,
7,"Last week we talked about the structure of the periodic table, and this week the topic is ions.",2,1,,,,0,7,7,7,,,,,0,7,7,7,,,,,,,,,,,,,,,,,,,,,,,,,,,9,0.20080668300033722,,,,,,,,,,,,,,,,,,,x,001,2019_Feb_08_1629,body_behavioural,59.98580052118582,
7,These are atoms or molecules in which the number of electrons does not equal the number of protons.,2,1,,,,0,7,7,7,,,,,0,8,8,8,,,,,,,,,,,,,,,,,,,,,,,,,,,1,0.14097801199932292,,,,,,,,,,,,,,,,,,,x,001,2019_Feb_08_1629,body_behavioural,59.98580052118582,
7,"Now, let me get my computer set up, one moment, class.”",2,1,,,,0,7,7,7,,,,,0,9,9,9,,,,,,,,,,,,,,,,,,,,,,,,,,,9,0.08494836300087627,,,,,,,,,,,,,,,,,,,x,001,2019_Feb_08_1629,body_behavioural,59.98580052118582,
7,Lana pulled out her Calculus problem set and puzzled over it.,2,1,,,,0,7,7,7,,,,,0,10,10,10,,,,,,,,,,,,,,,,,,,,,,,,,,,1,0.08557118499993521,,,,,,,,,,,,,,,,,,,x,001,2019_Feb_08_1629,body_behavioural,59.98580052118582,
7,"While she was distracted, Aaron unzipped the small pocket in his backpack and pulled out the ring box.",2,2,,,,0,7,7,7,,,,,0,11,11,11,,,,,,,,,,,,,,,,,,,,,,,,,,,9,0.08484109699929832,,,,,,,,,,,,,,,,,,,x,001,2019_Feb_08_1629,body_behavioural,59.98580052118582,
7,He opened it up and looked at the ring.,2,2,,,,0,7,7,7,,,,,0,12,12,12,,,,,,,,,,,,,,,,,,,,,,,,,,,1,0.06894286399983685,,,,,,,,,,,,,,,,,,,x,001,2019_Feb_08_1629,body_behavioural,59.98580052118582,
7,"Instead of one large diamond, there were 5 diamonds embedded in a thick band. ",2,2,,,,0,7,7,7,,,,,0,13,13,13,,,,,,,,,,,,,,,,,,,,,,,,,,,9,0.10645432400087884,,,,,,,,,,,,,,,,,,,x,001,2019_Feb_08_1629,body_behavioural,59.98580052118582,
7,He knew Lana would like this because her style was not flashy but more about simple elegance.,2,2,,,,0,7,7,7,,,,,0,14,14,14,,,,,,,,,,,,,,,,,,,,,,,,,,,1,0.20763820899992425,,,,,,,,,,,,,,,,,,,x,001,2019_Feb_08_1629,body_behavioural,59.98580052118582,
7,Aaron put the ring back into the bag as the professor began the lecture. ,3,2,,,,0,7,7,7,,,,,0,15,15,15,,,,,,,,,,,,,,,,,,,,,,,,,,,9,0.13283816299917817,,,,,,,,,,,,,,,,,,,x,001,2019_Feb_08_1629,body_behavioural,59.98580052118582,
7,“Recall from previous lectures that the number of protons determines the identity of the element. ,3,2,,,,0,7,7,7,,,,,0,16,16,16,,,,,,,,,,,,,,,,,,,,,,,,,,,1,0.034333677000176976,,,,,,,,,,,,,,,,,,,x,001,2019_Feb_08_1629,body_behavioural,59.98580052118582,
7,"So for example, all atoms of sodium have 11 protons in the nucleus. ",3,2,,,,0,7,7,7,,,,,0,17,17,17,,,,,,,,,,,,,,,,,,,,,,,,,,,9,0.08430970999870624,,,,,,,,,,,,,,,,,,,x,001,2019_Feb_08_1629,body_behavioural,59.98580052118582,
7,"And if you look on the periodic table, the atomic number for sodium, the symbol is Na, is eleven.”",3,2,,,,0,7,7,7,,,,,0,18,18,18,,,,,,,,,,,,,,,,,,,,,,,,,,,1,0.06896317599967006,,,,,,,,,,,,,,,,,,,x,001,2019_Feb_08_1629,body_behavioural,59.98580052118582,
7,Lana was taking notes while Aaron was texting all of his friends in the class to get ready for the proposal. ,3,2,,,,0,7,7,7,,,,,0,19,19,19,,,,,,,,,,,,,,,,,,,,,,,,,,,9,0.05205229400053213,,,,,,,,,,,,,,,,,,,x,001,2019_Feb_08_1629,body_behavioural,59.98580052118582,
7,"Right after talking about how two ions bond into one stable molecule by covalent bonds, the professor stopped the lecture and asked Lana to come to the front of the class to do a demonstration. ",3,2,,,,0,7,7,7,,,,,0,20,20,20,,,,,,,,,,,,,,,,,,,,,,,,,,,1,0.15239492900036566,,,,,,,,,,,,,,,,,,,x,001,2019_Feb_08_1629,body_behavioural,59.98580052118582,
7,"She walked to the front of the class confused, and the professor asked her to stand in the middle of the stage.",3,2,,,,0,7,7,7,,,,,0,21,21,21,,,,,,,,,,,,,,,,,,,,,,,,,,,9,0.1523439939992386,,,,,,,,,,,,,,,,,,,x,001,2019_Feb_08_1629,body_behavioural,59.98580052118582,
7,"Then Aaron walked up and, taking Lana’s hand, got down on one knee. ",3,3,,,,0,7,7,7,,,,,0,22,22,22,,,,,,,,,,,,,,,,,,,,,,,,,,,1,0.09005436400002509,,,,,,,,,,,,,,,,,,,x,001,2019_Feb_08_1629,body_behavioural,59.98580052118582,
7,""It's time for us to make a bond of our own, Lana.",3,3,,,,0,7,7,7,,,,,0,23,23,23,,,,,,,,,,,,,,,,,,,,,,,,,,,9,0.06757819699851098,,,,,,,,,,,,,,,,,,,x,001,2019_Feb_08_1629,body_behavioural,59.98580052118582,
7,Will you marry me?” ,3,3,,,,0,7,7,7,,,,,0,24,24,24,,,,,,,,,,,,,,,,,,,,,,,,,,,1,0.10238428299999214,,,,,,,,,,,,,,,,,,,x,001,2019_Feb_08_1629,body_behavioural,59.98580052118582,
7,Lana gasped and put her other hand to her mouth and started looking around the room as if trying to convince herself that this was really happening.,3,3,,,,0,7,7,7,,,,,0,25,25,25,,,,,,,,,,,,,,,,,,,,,,,,,,,9,0.036268107000068994,,,,,,,,,,,,,,,,,,,x,001,2019_Feb_08_1629,body_behavioural,59.98580052118582,
7,For a few moments everyone was in suspense waiting for the Lana’s shock to wear off and for her to answer. ,3,3,,,,0,7,7,7,,,,,0,26,26,26,,,,,,,,,,,,,,,,,,,,,,,,,,,1,0.06834083099965937,,,,,,,,,,,,,,,,,,,x,001,2019_Feb_08_1629,body_behavioural,59.98580052118582,
7,"Finally, she said, “Yes!”",3,4,,,,0,7,7,7,,,,,0,27,27,27,,,,,,,,,,,,,,,,,,,,,,,,,,,9,0.2516306750003423,,,,,,,,,,,,,,,,,,,x,001,2019_Feb_08_1629,body_behavioural,59.98580052118582,
7,"Aaron put the ring on her finger, and they hugged while the whole class clapped. ",3,4,,,,0,7,7,7,,,,,0,28,28,28,,,,,,,,,,,,,,,,,,,,,,,,,,,1,0.1570693890007533,,,,,,,,,,,,,,,,,,,x,001,2019_Feb_08_1629,body_behavioural,59.98580052118582,
7,"Their friends came up and hugged both of them, and the professor gave Aaron a celebratory handshake.",3,4,,,,0,7,7,7,,,,,0,29,29,29,,,,,,,,,,,,,,,,,,,,,,,,,,,9,0.11754081999970367,,,,,,,,,,,,,,,,,,,x,001,2019_Feb_08_1629,body_behavioural,59.98580052118582,
7,"They made their way back to their seats, Lana and Aaron hand-in-hand and beaming. ",3,4,,,,0,7,7,7,,,,,0,30,30,30,,,,,,,,,,,,,,,,,,,,,,,,,,,1,0.06955952899988915,,,,,,,,,,,,,,,,,,,x,001,2019_Feb_08_1629,body_behavioural,59.98580052118582,
7,"The professor then dismissed the class, saying, “That was enough excitement for today!",4,4,,,,0,7,7,7,,,,,0,31,31,31,,,,,,,,,,,,,,,,,,,,,,,,,,,9,0.07193842899869196,,,,,,,,,,,,,,,,,,,x,001,2019_Feb_08_1629,body_behavioural,59.98580052118582,
7,Don’t forget there’s an exam next week on the first two chapters of the textbook.”,4,4,,,,0,7,7,7,,,,,0,32,32,32,,,,,,,,,,,,,,,,,,,,,,,,,,,1,0.056712603000050876,,,,,,,,,,,,,,,,,,,x,001,2019_Feb_08_1629,body_behavioural,59.98580052118582,
7,"As everyone was packing up their notebooks and leaving, Lana was already on her phone calling her family members to tell them the exciting news.",4,4,,,,0,7,7,7,,,,,0,33,33,33,,,,,,,,,,,,,,,,,,,,,,,,,,,9,0.052551613000105135,,,,,,,,,,,,,,,,,,,x,001,2019_Feb_08_1629,body_behavioural,59.98580052118582,
7,,,,,,,0,7,7,7,,,,,,,,,,,,,,,,,,,,,,,,,,,,,,,,,,,,,,,,,,,,,,,,,,,,,,,x,001,2019_Feb_08_1629,body_behavioural,59.98580052118582,
,,,,,,The next task in the experiment is to recall each story to the best of your ability.,,,,,,,,,,,,,0,0,0,0,,,,,,,,,,,,,,,,,,,,,,,,,space,0.9170633170015208,,,,,,,,,,,,,,,,,x,001,2019_Feb_08_1629,body_behavioural,59.98580052118582,
,,,,,,"You will be presented with the story title, names, the images, and a blank text box for each story.",,,,,,,,,,,,,0,1,1,1,,,,,,,,,,,,,,,,,,,,,,,,,space,1.352251915001034,,,,,,,,,,,,,,,,,x,001,2019_Feb_08_1629,body_behavioural,59.98580052118582,
,,,,,,Describe the story with as many details as you can remember in the space provided. ,,,,,,,,,,,,,0,2,2,2,,,,,,,,,,,,,,,,,,,,,,,,,space,0.7194983250010409,,,,,,,,,,,,,,,,,x,001,2019_Feb_08_1629,body_behavioural,59.98580052118582,
,,,,,,"When you are finished recalling one story, to move onto the next one hit ‘return’. ",,,,,,,,,,,,,0,3,3,3,,,,,,,,,,,,,,,,,,,,,,,,,space,1.016800116000013,,,,,,,,,,,,,,,,,x,001,2019_Feb_08_1629,body_behavioural,59.98580052118582,
,,,,,,There is no time limit for your responses. ,,,,,,,,,,,,,0,4,4,4,,,,,,,,,,,,,,,,,,,,,,,,,space,0.4827420199999324,,,,,,,,,,,,,,,,,x,001,2019_Feb_08_1629,body_behavioural,59.98580052118582,
0,,,,,,,,,,,,,,,,,,,,,,,0,0,0,0,,,,,,,,,,,,,,,,,,,,,,,space,0.4179779289988801,,,,,,,,,,,,,,,x,001,2019_Feb_08_1629,body_behavioural,59.98580052118582,
,,,,,,The next part of the task is to answer 8 questions about each story.,,,,,,,,,,,,,,,,,,,,,0,0,0,0,,,,,,,,,,,,,,,,,,,,,space,0.5025164519993268,,,,,,,,,,,,,x,001,2019_Feb_08_1629,body_behavioural,59.98580052118582,
,,,,,,Some of the questions are not related to the perspective you were asked to assume.,,,,,,,,,,,,,,,,,,,,,0,1,1,1,,,,,,,,,,,,,,,,,,,,,space,0.40036977199997636,,,,,,,,,,,,,x,001,2019_Feb_08_1629,body_behavioural,59.98580052118582,
,,,,,,"We realize that we did not tell you to think of these questions during the story, but do your best to answer them.",,,,,,,,,,,,,,,,,,,,,0,2,2,2,,,,,,,,,,,,,,,,,,,,,space,0.2688118759997451,,,,,,,,,,,,,x,001,2019_Feb_08_1629,body_behavioural,59.98580052118582,
,,,,,,"When you have finished typing your answer, hit ‘return’ to submit your answer and move onto the next question. ",,,,,,,,,,,,,,,,,,,,,0,3,3,3,,,,,,,,,,,,,,,,,,,,,space,0.285026638999625,,,,,,,,,,,,,x,001,2019_Feb_08_1629,body_behavioural,59.98580052118582,
0,,,,,,,,,,,,,,,,,,,,,,,,,,,,,,,0,0,0,0,,,,,,,,,,,,,,,,,,,space,0.3330118530011532,,K,primed first,K,,,,,,,x,001,2019_Feb_08_1629,body_behavioural,59.98580052118582,
1,,,,,,,,,,,,,,,,,,,,,,,,,,,,,,,0,1,1,1,,,,,,,,,,,,,,,,,,,space,0.7858329679984308,,,primed first,,,,,,,,x,001,2019_Feb_08_1629,body_behavioural,59.98580052118582,
2,,,,,,,,,,,,,,,,,,,,,,,,,,,,,,,0,2,2,2,,,,,,,,,,,,,,,,,,,space,0.4679702390003513,,,non-primed first,,,,,,,,x,001,2019_Feb_08_1629,body_behavioural,59.98580052118582,
3,,,,,,,,,,,,,,,,,,,,,,,,,,,,,,,0,3,3,3,,,,,,,,,,,,,,,,,,,space,0.5182979020009952,,,primed first,,,,,,,,x,001,2019_Feb_08_1629,body_behavioural,59.98580052118582,
4,,,,,,,,,,,,,,,,,,,,,,,,,,,,,,,0,4,4,4,,,,,,,,,,,,,,,,,,,space,0.46846117099994444,, ,non-primed first,,,,,,,,x,001,2019_Feb_08_1629,body_behavioural,59.98580052118582,
5,,,,,,,,,,,,,,,,,,,,,,,,,,,,,,,0,5,5,5,,,,,,,,,,,,,,,,,,,space,0.5683063649994438,,,primed first,,,,,,,,x,001,2019_Feb_08_1629,body_behavioural,59.98580052118582,
6,,,,,,,,,,,,,,,,,,,,,,,,,,,,,,,0,6,6,6,,,,,,,,,,,,,,,,,,,space,0.4840451090003626,,,primed first,,,,,,,,x,001,2019_Feb_08_1629,body_behavioural,59.98580052118582,
7,,,,,,,,,,,,,,,,,,,,,,,,,,,,,,,0,7,7,7,,,,,,,,,,,,,,,,,,,space,1.0190169270008482,K,L,non-primed first,K,K,K,K,K,K,K,x,001,2019_Feb_08_1629,body_behavioural,59.98580052118582,
