instructText,count,trials_5.thisRepN,trials_5.thisTrialN,trials_5.thisN,trials_5.thisIndex,trials_6.thisRepN,trials_6.thisTrialN,trials_6.thisN,trials_6.thisIndex,trials.thisRepN,trials.thisTrialN,trials.thisN,trials.thisIndex,trials_8.thisRepN,trials_8.thisTrialN,trials_8.thisN,trials_8.thisIndex,story_list_block1,action_list_block1,story_list_block2,action_list_block2,key_resp_3.keys,key_resp_3.rt,key_resp_3.started,key_resp_3.stopped,text_13.started,text_13.stopped,text_23.started,text_23.stopped,text_43.started,text_43.stopped,key_resp_11.keys,key_resp_11.rt,key_resp_11.started,key_resp_11.stopped,text_44.started,text_44.stopped,image_10.started,image_10.stopped,text_22.started,text_22.stopped,recall,question1_answer,order of question,text_14.started,text_14.stopped,text_15.started,text_15.stopped,image_6.started,image_6.stopped,polygon_3.started,polygon_3.stopped,bottom_line_3.started,bottom_line_3.stopped,right_line_3.started,right_line_3.stopped,left_line_3.started,left_line_3.stopped,question2_answer,text_16.started,text_16.stopped,text_17.started,text_17.stopped,image_7.started,image_7.stopped,polygon_4.started,polygon_4.stopped,bottom_line_4.started,bottom_line_4.stopped,right_line_4.started,right_line_4.stopped,left_line_4.started,left_line_4.stopped,question3_answer,text_18.started,text_18.stopped,text_19.started,text_19.stopped,image_8.started,image_8.stopped,polygon_5.started,polygon_5.stopped,bottom_line_5.started,bottom_line_5.stopped,right_line_5.started,right_line_5.stopped,left_line_5.started,left_line_5.stopped,question4_answer,text_20.started,text_20.stopped,text_21.started,text_21.stopped,image_9.started,image_9.stopped,polygon_6.started,polygon_6.stopped,bottom_line_6.started,bottom_line_6.stopped,right_line_6.started,right_line_6.stopped,left_line_6.started,left_line_6.stopped,question5_answer,text_25.started,text_25.stopped,text_26.started,text_26.stopped,image_11.started,image_11.stopped,polygon_7.started,polygon_7.stopped,bottom_line_7.started,bottom_line_7.stopped,right_line_7.started,right_line_7.stopped,left_line_7.started,left_line_7.stopped,question6_answer,text_27.started,text_27.stopped,text_28.started,text_28.stopped,image_12.started,image_12.stopped,polygon_8.started,polygon_8.stopped,bottom_line_8.started,bottom_line_8.stopped,right_line_8.started,right_line_8.stopped,left_line_8.started,left_line_8.stopped,question7_answer,text_29.started,text_29.stopped,text_30.started,text_30.stopped,image_13.started,image_13.stopped,polygon_9.started,polygon_9.stopped,bottom_line_9.started,bottom_line_9.stopped,right_line_9.started,right_line_9.stopped,left_line_9.started,left_line_9.stopped,question8_answer,text_31.started,text_31.stopped,text_32.started,text_32.stopped,image_14.started,image_14.stopped,polygon_10.started,polygon_10.stopped,bottom_line_10.started,bottom_line_10.stopped,right_line_10.started,right_line_10.stopped,left_line_10.started,left_line_10.stopped,text_36.started,text_36.stopped,participant,sA,sB,lA,lB,block_struct,random_seed,date,expName,psychopyVersion,frameRate,
"In the final part of the experiment, please answer 8 questions about each story.",,0,0,0,0,,,,,,,,,,,,,[31 13 42 22 24 44 33 11],[2 1 2 3 1 4 4 3],[34 43 32 41 23 14 12 21],[4 4 2 2 1 1 3 3],space,8.764876102999551,11.055642869000621,None,11.055642869000621,None,11.055642869000621,None,,,,,,,,,,,,,,,,,,,,,,,,,,,,,,,,,,,,,,,,,,,,,,,,,,,,,,,,,,,,,,,,,,,,,,,,,,,,,,,,,,,,,,,,,,,,,,,,,,,,,,,,,,,,,,,,,,,,,,,,,,,,,,,,,,,,,,,,,021020,0,1,0,1,1,2,2020_Feb_10_1508,body_behavioural,3.2.4,60.187535452801676,
"We did not tell you to think of all or some of these questions during the story, but please do your best to answer them.",,0,1,1,1,,,,,,,,,,,,,,,,,space,4.738960205000694,19.906158563000645,None,19.906158563000645,None,19.906158563000645,None,,,,,,,,,,,,,,,,,,,,,,,,,,,,,,,,,,,,,,,,,,,,,,,,,,,,,,,,,,,,,,,,,,,,,,,,,,,,,,,,,,,,,,,,,,,,,,,,,,,,,,,,,,,,,,,,,,,,,,,,,,,,,,,,,,,,,,,,,021020,0,1,0,1,1,2,2020_Feb_10_1508,body_behavioural,3.2.4,60.187535452801676,
"Answer as much as you remember, and be specific and concrete in your answers. It is best to try to be as faithful as possible to what the story actually said.
",,0,2,2,2,,,,,,,,,,,,,,,,,space,8.576372944000468,24.68658165800025,None,24.68658165800025,None,24.68658165800025,None,,,,,,,,,,,,,,,,,,,,,,,,,,,,,,,,,,,,,,,,,,,,,,,,,,,,,,,,,,,,,,,,,,,,,,,,,,,,,,,,,,,,,,,,,,,,,,,,,,,,,,,,,,,,,,,,,,,,,,,,,,,,,,,,,,,,,,,,,021020,0,1,0,1,1,2,2020_Feb_10_1508,body_behavioural,3.2.4,60.187535452801676,
"When you have finished typing your answer, hit ‘return’ to submit your answer and move onto the next question. ",,0,3,3,3,,,,,,,,,,,,,,,,,space,5.524906441999519,33.3048642520007,None,33.3048642520007,None,33.3048642520007,None,,,,,,,,,,,,,,,,,,,,,,,,,,,,,,,,,,,,,,,,,,,,,,,,,,,,,,,,,,,,,,,,,,,,,,,,,,,,,,,,,,,,,,,,,,,,,,,,,,,,,,,,,,,,,,,,,,,,,,,,,,,,,,,,,,,,,,,,,021020,0,1,0,1,1,2,2020_Feb_10_1508,body_behavioural,3.2.4,60.187535452801676,
,0,,,,,0,0,0,0,0,0,0,0,,,,,,,,,,,,,,,,,38.871024763000605,None,space,0.9757154689996241,38.871024763000605,None,38.871024763000605,None,39.93847371500033,None,39.93847371500033,None,,It is a dark moody restaurant with a lot of dark wood paneling on the walls and a fancy candelabra.,"[2, 1]",41.970589342000494,None,41.970589342000494,None,41.970589342000494,None,41.970589342000494,None,41.970589342000494,None,41.970589342000494,None,41.970589342000494,None,The menus are heavy and long and are printed on nice paper. ,86.12010671900043,None,86.12010671900043,None,86.12010671900043,None,86.12010671900043,None,86.12010671900043,None,86.12010671900043,None,86.12010671900043,None,"Mr. gordon orders a medium rare steak and a martini, and mr. shelton orders veal and a manhattan.",124.83690874600052,None,124.83690874600052,None,124.83690874600052,None,124.83690874600052,None,124.83690874600052,None,124.83690874600052,None,124.83690874600052,None,The food is disappointing. both men think the meat is dry and overcooked.,165.2700729520002,None,165.2700729520002,None,165.2700729520002,None,165.2700729520002,None,165.2700729520002,None,165.2700729520002,None,165.2700729520002,None,Not sure about this but i think mr. gordon is the ceo of his company and mr. shelton is the cfo of the larger company looking to acquire them.,189.03649715099982,None,189.03649715099982,None,189.03649715099982,None,189.03649715099982,None,189.03649715099982,None,189.03649715099982,None,189.03649715099982,None,Also not sure but i think it was several hundred million. ,280.45122594500026,None,280.45122594500026,None,280.45122594500026,None,280.45122594500026,None,280.45122594500026,None,280.45122594500026,None,280.45122594500026,None,,332.41792982100014,None,332.41792982100014,None,332.41792982100014,None,332.41792982100014,None,332.41792982100014,None,332.41792982100014,None,332.41792982100014,None,,,,,,,,,,,,,,,,,,021020,0,1,0,1,1,2,2020_Feb_10_1508,body_behavioural,3.2.4,60.187535452801676,
,0,,,,,0,0,0,0,,,,,,,,,,,,,,,,,,,,,,,,,,,,,,,,,,,,,,,,,,,,,,,,,,,,,,,,,,,,,,,,,,,,,,,,,,,,,,,,,,,,,,,,,,,,,,,,,,,,,,,,,,,,,,,,,,,,,,,,,,,,,,,,,,,,,,,,,,,,,336.18484046699996,None,336.18484046699996,None,336.18484046699996,None,336.18484046699996,None,336.18484046699996,None,336.18484046699996,None,336.18484046699996,None,,,021020,0,1,0,1,1,2,2020_Feb_10_1508,body_behavioural,3.2.4,60.187535452801676,
,1,,,,,0,1,1,1,0,0,0,0,,,,,,,,,,,,,,,,,356.9167058190005,None,space,2.635123394999937,356.9167058190005,None,356.9167058190005,None,359.5998271640001,None,359.5998271640001,None,,5 months,"[1, 2]",361.2345333210005,None,361.2345333210005,None,361.2345333210005,None,361.2345333210005,None,361.2345333210005,None,361.2345333210005,None,361.2345333210005,None,They have been fighting constantly.,367.9846596840007,None,367.9846596840007,None,367.9846596840007,None,367.9846596840007,None,367.9846596840007,None,367.9846596840007,None,367.9846596840007,None,He thinks it would be for the best since they are both unhappy together and might be happier with other people.,381.0839432110006,None,381.0839432110006,None,381.0839432110006,None,381.0839432110006,None,381.0839432110006,None,381.0839432110006,None,381.0839432110006,None,Liam wants his cat luna back,416.516894376,None,416.516894376,None,416.516894376,None,416.516894376,None,416.516894376,None,416.516894376,None,416.516894376,None,,440.08278222900026,None,440.08278222900026,None,440.08278222900026,None,440.08278222900026,None,440.08278222900026,None,440.08278222900026,None,440.08278222900026,None,Pasta,447.6329750069999,None,447.6329750069999,None,447.6329750069999,None,447.6329750069999,None,447.6329750069999,None,447.6329750069999,None,447.6329750069999,None,,453.8162815989999,None,453.8162815989999,None,453.8162815989999,None,453.8162815989999,None,453.8162815989999,None,453.8162815989999,None,453.8162815989999,None,,,,,,,,,,,,,,,,,,021020,0,1,0,1,1,2,2020_Feb_10_1508,body_behavioural,3.2.4,60.187535452801676,
,1,,,,,0,1,1,1,,,,,,,,,,,,,,,,,,,,,,,,,,,,,,,,,"Not sure, but i think around 30 dollars. emmanuella uses her credit card.",,,,,,,,,,,,,,,,,,,,,,,,,,,,,,,,,,,,,,,,,,,,,,,,,,,,,,,,,,,,,,,,,,,,,,,,,,,,,,,,,,,,,,,,,,,,,,,,,,,,,,,,,,,"Not sure, but i think around 30 dollars. emmanuella uses her credit card.",463.5324427680007,None,463.5324427680007,None,463.5324427680007,None,463.5324427680007,None,463.5324427680007,None,463.5324427680007,None,463.5324427680007,None,,,021020,0,1,0,1,1,2,2020_Feb_10_1508,body_behavioural,3.2.4,60.187535452801676,
,2,,,,,0,2,2,2,0,0,0,0,,,,,,,,,,,,,,,,,498.13090098500015,None,space,2.542762451999806,498.13090098500015,None,498.13090098500015,None,500.7152865810003,None,500.7152865810003,None,,A magazine or some other airport reading material,"[1, 2]",501.6158303460006,None,501.6158303460006,None,501.6158303460006,None,501.6158303460006,None,501.6158303460006,None,501.6158303460006,None,501.6158303460006,None,A joke about being a gymnast after anna's fall,516.9822912700001,None,516.9822912700001,None,516.9822912700001,None,516.9822912700001,None,516.9822912700001,None,516.9822912700001,None,516.9822912700001,None,It will be the next tuesday after they both get back into town. they will go on a date.,577.5311281260001,None,577.5311281260001,None,577.5311281260001,None,577.5311281260001,None,577.5311281260001,None,577.5311281260001,None,577.5311281260001,None,,605.0306646560002,None,605.0306646560002,None,605.0306646560002,None,605.0306646560002,None,605.0306646560002,None,605.0306646560002,None,605.0306646560002,None,"David has several hours, but anna is much more rushed. she has 30 minutes or so.",609.6806727270005,None,609.6806727270005,None,609.6806727270005,None,609.6806727270005,None,609.6806727270005,None,609.6806727270005,None,609.6806727270005,None,,635.5297422990006,None,635.5297422990006,None,635.5297422990006,None,635.5297422990006,None,635.5297422990006,None,635.5297422990006,None,635.5297422990006,None,,644.1139909459998,None,644.1139909459998,None,644.1139909459998,None,644.1139909459998,None,644.1139909459998,None,644.1139909459998,None,644.1139909459998,None,,,,,,,,,,,,,,,,,,021020,0,1,0,1,1,2,2020_Feb_10_1508,body_behavioural,3.2.4,60.187535452801676,
,2,,,,,0,2,2,2,,,,,,,,,,,,,,,,,,,,,,,,,,,,,,,,,Anna sits in business class,,,,,,,,,,,,,,,,,,,,,,,,,,,,,,,,,,,,,,,,,,,,,,,,,,,,,,,,,,,,,,,,,,,,,,,,,,,,,,,,,,,,,,,,,,,,,,,,,,,,,,,,,,,Anna sits in business class,662.3624783490004,None,662.3624783490004,None,662.3624783490004,None,662.3624783490004,None,662.3624783490004,None,662.3624783490004,None,662.3624783490004,None,,,021020,0,1,0,1,1,2,2020_Feb_10_1508,body_behavioural,3.2.4,60.187535452801676,
,3,,,,,0,3,3,3,,,,,,,,,,,,,,,,,,,,,,,,,,,,,,,,,,,,,,,,,,,,,,,,,,,,,,,,,,,,,,,,,,,,,,,,,,,,,,,,,,,,,,,,,,,,,,,,,,,,,,,,,,,,,,,,,,,,,,,,,,,,,,,,,,,,,,,,,,,,,676.1455103320004,None,676.1455103320004,None,676.1455103320004,None,676.1455103320004,None,676.1455103320004,None,676.1455103320004,None,676.1455103320004,None,,,021020,0,1,0,1,1,2,2020_Feb_10_1508,body_behavioural,3.2.4,60.187535452801676,
,4,,,,,0,4,4,4,0,0,0,0,,,,,,,,,,,,,,,,,678.1287554569999,None,space,3.663654480000332,678.1287554569999,None,678.1287554569999,None,681.8297611060007,None,681.8297611060007,None,Aaron takes the ring out of his backpack, ,"[2, 1]",682.7291168440006,None,682.7291168440006,None,682.7291168440006,None,682.7291168440006,None,682.7291168440006,None,682.7291168440006,None,682.7291168440006,None,It's a chemistry class. the lecture is about ions.,688.5134784190004,None,688.5134784190004,None,688.5134784190004,None,688.5134784190004,None,688.5134784190004,None,688.5134784190004,None,688.5134784190004,None,,704.8622030830002,None,704.8622030830002,None,704.8622030830002,None,704.8622030830002,None,704.8622030830002,None,704.8622030830002,None,704.8622030830002,None,There is an upcoming midterm.,712.6453888200003,None,712.6453888200003,None,712.6453888200003,None,712.6453888200003,None,712.6453888200003,None,712.6453888200003,None,712.6453888200003,None,A few years. i think since freshman year.,735.1627032020006,None,735.1627032020006,None,735.1627032020006,None,735.1627032020006,None,735.1627032020006,None,735.1627032020006,None,735.1627032020006,None,The diamonds are red and there are several small ones on the ring. 5 i think,750.9624623230002,None,750.9624623230002,None,750.9624623230002,None,750.9624623230002,None,750.9624623230002,None,750.9624623230002,None,750.9624623230002,None,Aaron takes the ring out of his backpack,789.2619013090007,None,789.2619013090007,None,789.2619013090007,None,789.2619013090007,None,789.2619013090007,None,789.2619013090007,None,789.2619013090007,None,,,,,,,,,,,,,,,,,,021020,0,1,0,1,1,2,2020_Feb_10_1508,body_behavioural,3.2.4,60.187535452801676,
,4,,,,,0,4,4,4,,,,,,,,,,,,,,,,,,,,,,,,,,,,,,,,,Her sister,,,,,,,,,,,,,,,,,,,,,,,,,,,,,,,,,,,,,,,,,,,,,,,,,,,,,,,,,,,,,,,,,,,,,,,,,,,,,,,,,,,,,,,,,,,,,,,,,,,,,,,,,,,Her sister,808.161735828,None,808.161735828,None,808.161735828,None,808.161735828,None,808.161735828,None,808.161735828,None,808.161735828,None,,,021020,0,1,0,1,1,2,2020_Feb_10_1508,body_behavioural,3.2.4,60.187535452801676,
,5,,,,,0,5,5,5,0,0,0,0,,,,,,,,,,,,,,,,,812.827475043,None,space,0.9056829400005881,812.827475043,None,812.827475043,None,813.7774437710004,None,813.7774437710004,None,How many people and days the mummification process took., ,"[1, 2]",815.3451022919999,None,815.3451022919999,None,815.3451022919999,None,815.3451022919999,None,815.3451022919999,None,815.3451022919999,None,815.3451022919999,None,Are you from la,828.994907843,None,828.994907843,None,828.994907843,None,828.994907843,None,828.994907843,None,828.994907843,None,828.994907843,None,They will meet in front of leon's dorm to go on a walk later that night,843.0608866399998,None,843.0608866399998,None,843.0608866399998,None,843.0608866399998,None,843.0608866399998,None,843.0608866399998,None,843.0608866399998,None, ,859.8108363250003,None,859.8108363250003,None,859.8108363250003,None,859.8108363250003,None,859.8108363250003,None,859.8108363250003,None,859.8108363250003,None,,865.6601849990002,None,865.6601849990002,None,865.6601849990002,None,865.6601849990002,None,865.6601849990002,None,865.6601849990002,None,865.6601849990002,None,The class is about ancient egypt. the lecture is about mummification,869.4939352330002,None,869.4939352330002,None,869.4939352330002,None,869.4939352330002,None,869.4939352330002,None,869.4939352330002,None,869.4939352330002,None,How many people and days the mummification process took.,889.2938753380004,None,889.2938753380004,None,889.2938753380004,None,889.2938753380004,None,889.2938753380004,None,889.2938753380004,None,889.2938753380004,None,,,,,,,,,,,,,,,,,,021020,0,1,0,1,1,2,2020_Feb_10_1508,body_behavioural,3.2.4,60.187535452801676,
,5,,,,,0,5,5,5,,,,,,,,,,,,,,,,,,,,,,,,,,,,,,,,,,,,,,,,,,,,,,,,,,,,,,,,,,,,,,,,,,,,,,,,,,,,,,,,,,,,,,,,,,,,,,,,,,,,,,,,,,,,,,,,,,,,,,,,,,,,,,,,,,,,,,,,,,,,,925.610569937,None,925.610569937,None,925.610569937,None,925.610569937,None,925.610569937,None,925.610569937,None,925.610569937,None,,,021020,0,1,0,1,1,2,2020_Feb_10_1508,body_behavioural,3.2.4,60.187535452801676,
,6,,,,,0,6,6,6,0,0,0,0,,,,,,,,,,,,,,,,,928.1926499870006,None,space,0.7425368340000205,928.1926499870006,None,928.1926499870006,None,928.9754530580003,None,928.9754530580003,None,,There are a lot of halloween treats and decorations.,"[2, 1]",930.2437245020001,None,930.2437245020001,None,930.2437245020001,None,930.2437245020001,None,930.2437245020001,None,930.2437245020001,None,930.2437245020001,None,Crackers,945.3431014739999,None,945.3431014739999,None,945.3431014739999,None,945.3431014739999,None,945.3431014739999,None,945.3431014739999,None,945.3431014739999,None,,949.7432765860003,None,949.7432765860003,None,949.7432765860003,None,949.7432765860003,None,949.7432765860003,None,949.7432765860003,None,949.7432765860003,None,,953.1924681310002,None,953.1924681310002,None,953.1924681310002,None,953.1924681310002,None,953.1924681310002,None,953.1924681310002,None,953.1924681310002,None, ms bianchi sells cheese for an italian company and ms morrison is a buyer for a chain of grocery stores.,958.2757688219999,None,958.2757688219999,None,958.2757688219999,None,958.2757688219999,None,958.2757688219999,None,958.2757688219999,None,958.2757688219999,None,,991.1422939929998,None,991.1422939929998,None,991.1422939929998,None,991.1422939929998,None,991.1422939929998,None,991.1422939929998,None,991.1422939929998,None,,995.9755010650006,None,995.9755010650006,None,995.9755010650006,None,995.9755010650006,None,995.9755010650006,None,995.9755010650006,None,995.9755010650006,None,,,,,,,,,,,,,,,,,,021020,0,1,0,1,1,2,2020_Feb_10_1508,body_behavioural,3.2.4,60.187535452801676,
,6,,,,,0,6,6,6,,,,,,,,,,,,,,,,,,,,,,,,,,,,,,,,,They cheers with some champagne that ms. morrison takes out of her purse.,,,,,,,,,,,,,,,,,,,,,,,,,,,,,,,,,,,,,,,,,,,,,,,,,,,,,,,,,,,,,,,,,,,,,,,,,,,,,,,,,,,,,,,,,,,,,,,,,,,,,,,,,,,They cheers with some champagne that ms. morrison takes out of her purse.,998.7088691019999,None,998.7088691019999,None,998.7088691019999,None,998.7088691019999,None,998.7088691019999,None,998.7088691019999,None,998.7088691019999,None,,,021020,0,1,0,1,1,2,2020_Feb_10_1508,body_behavioural,3.2.4,60.187535452801676,
,7,,,,,0,7,7,7,,,,,,,,,,,,,,,,,,,,,,,,,,,,,,,,,They cheers with some champagne that ms. morrison takes out of her purse.,,,,,,,,,,,,,,,,,,,,,,,,,,,,,,,,,,,,,,,,,,,,,,,,,,,,,,,,,,,,,,,,,,,,,,,,,,,,,,,,,,,,,,,,,,,,,,,,,,,,,,,,,,,They cheers with some champagne that ms. morrison takes out of her purse.,1018.8414272959999,None,1018.8414272959999,None,1018.8414272959999,None,1018.8414272959999,None,1018.8414272959999,None,1018.8414272959999,None,1018.8414272959999,None,,,021020,0,1,0,1,1,2,2020_Feb_10_1508,body_behavioural,3.2.4,60.187535452801676,
,8,,,,,0,8,8,8,0,0,0,0,,,,,,,,,,,,,,,,,1036.2248657220007,None,space,1.6677195559996107,1036.2248657220007,None,1036.2248657220007,None,1037.9415521680003,None,1037.9415521680003,None,,It's big and modern with a lot of light.,"[2, 1]",1042.5249711400002,None,1042.5249711400002,None,1042.5249711400002,None,1042.5249711400002,None,1042.5249711400002,None,1042.5249711400002,None,1042.5249711400002,None,It's a philosophy class. the lecture is about aristotle.,1054.8746812220006,None,1054.8746812220006,None,1054.8746812220006,None,1054.8746812220006,None,1054.8746812220006,None,1054.8746812220006,None,1054.8746812220006,None,,1074.640908806,None,1074.640908806,None,1074.640908806,None,1074.640908806,None,1074.640908806,None,1074.640908806,None,1074.640908806,None,There is an upcoming paper due,1101.6247395170003,None,1101.6247395170003,None,1101.6247395170003,None,1101.6247395170003,None,1101.6247395170003,None,1101.6247395170003,None,1101.6247395170003,None,Alma is the ceo of a student web developing company. charlie is part of a student investing/venture capital club.,1114.4905108960002,None,1114.4905108960002,None,1114.4905108960002,None,1114.4905108960002,None,1114.4905108960002,None,1114.4905108960002,None,1114.4905108960002,None,"34,000",1217.855229449,None,1217.855229449,None,1217.855229449,None,1217.855229449,None,1217.855229449,None,1217.855229449,None,1217.855229449,None,,1241.3562419549999,None,1241.3562419549999,None,1241.3562419549999,None,1241.3562419549999,None,1241.3562419549999,None,1241.3562419549999,None,1241.3562419549999,None,,,,,,,,,,,,,,,,,,021020,0,1,0,1,1,2,2020_Feb_10_1508,body_behavioural,3.2.4,60.187535452801676,
,8,,,,,0,8,8,8,,,,,,,,,,,,,,,,,,,,,,,,,,,,,,,,,,,,,,,,,,,,,,,,,,,,,,,,,,,,,,,,,,,,,,,,,,,,,,,,,,,,,,,,,,,,,,,,,,,,,,,,,,,,,,,,,,,,,,,,,,,,,,,,,,,,,,,,,,,,,1244.772133521,None,1244.772133521,None,1244.772133521,None,1244.772133521,None,1244.772133521,None,1244.772133521,None,1244.772133521,None,,,021020,0,1,0,1,1,2,2020_Feb_10_1508,body_behavioural,3.2.4,60.187535452801676,
,9,,,,,0,9,9,9,0,0,0,0,,,,,,,,,,,,,,,,,1248.188558578,None,space,1.322019416999865,1248.188558578,None,1248.188558578,None,1249.5549185810005,None,1249.5549185810005,None,, ,"[1, 2]",1251.7232232740007,None,1251.7232232740007,None,1251.7232232740007,None,1251.7232232740007,None,1251.7232232740007,None,1251.7232232740007,None,1251.7232232740007,None,It's a joke about whether the cornish hen is a cute piece of meat,1256.9385781010005,None,1256.9385781010005,None,1256.9385781010005,None,1256.9385781010005,None,1256.9385781010005,None,1256.9385781010005,None,1256.9385781010005,None,They are going out to dinner in harvard square as a date.,1281.5555970169999,None,1281.5555970169999,None,1281.5555970169999,None,1281.5555970169999,None,1281.5555970169999,None,1281.5555970169999,None,1281.5555970169999,None,430 in the afternoon,1326.054213843,None,1326.054213843,None,1326.054213843,None,1326.054213843,None,1326.054213843,None,1326.054213843,None,1326.054213843,None,,1336.171301239,None,1336.171301239,None,1336.171301239,None,1336.171301239,None,1336.171301239,None,1336.171301239,None,1336.171301239,None,Simon buys things for vegetable kababs and carina buys things for bbq ribs,1339.1049040650005,None,1339.1049040650005,None,1339.1049040650005,None,1339.1049040650005,None,1339.1049040650005,None,1339.1049040650005,None,1339.1049040650005,None,,1363.136720861,None,1363.136720861,None,1363.136720861,None,1363.136720861,None,1363.136720861,None,1363.136720861,None,1363.136720861,None,,,,,,,,,,,,,,,,,,021020,0,1,0,1,1,2,2020_Feb_10_1508,body_behavioural,3.2.4,60.187535452801676,
,9,,,,,0,9,9,9,,,,,,,,,,,,,,,,,,,,,,,,,,,,,,,,,About 50 dollars. simon pays with a credit card.,,,,,,,,,,,,,,,,,,,,,,,,,,,,,,,,,,,,,,,,,,,,,,,,,,,,,,,,,,,,,,,,,,,,,,,,,,,,,,,,,,,,,,,,,,,,,,,,,,,,,,,,,,,About 50 dollars. simon pays with a credit card.,1366.7378470170006,None,1366.7378470170006,None,1366.7378470170006,None,1366.7378470170006,None,1366.7378470170006,None,1366.7378470170006,None,1366.7378470170006,None,,,021020,0,1,0,1,1,2,2020_Feb_10_1508,body_behavioural,3.2.4,60.187535452801676,
,10,,,,,0,10,10,10,0,0,0,0,,,,,,,,,,,,,,,,,1384.0194266420003,None,space,1.768455112999618,1384.0194266420003,None,1384.0194266420003,None,1385.8366243199998,None,1385.8366243199998,None,,,"[2, 1]",1386.8204767440002,None,1386.8204767440002,None,1386.8204767440002,None,1386.8204767440002,None,1386.8204767440002,None,1386.8204767440002,None,1386.8204767440002,None,Someone has to move a bunch of luggage carriers past the line,1390.1036909350005,None,1390.1036909350005,None,1390.1036909350005,None,1390.1036909350005,None,1390.1036909350005,None,1390.1036909350005,None,1390.1036909350005,None,,1420.902680405,None,1420.902680405,None,1420.902680405,None,1420.902680405,None,1420.902680405,None,1420.902680405,None,1420.902680405,None,Business class,1435.2538012220002,None,1435.2538012220002,None,1435.2538012220002,None,1435.2538012220002,None,1435.2538012220002,None,1435.2538012220002,None,1435.2538012220002,None,They are both in the wine industry. william is in charge of purchasing and jeff works for a producer.,1442.3027441960003,None,1442.3027441960003,None,1442.3027441960003,None,1442.3027441960003,None,1442.3027441960003,None,1442.3027441960003,None,1442.3027441960003,None,,1483.535741013,None,1483.535741013,None,1483.535741013,None,1483.535741013,None,1483.535741013,None,1483.535741013,None,1483.535741013,None,,1485.7359994550006,None,1485.7359994550006,None,1485.7359994550006,None,1485.7359994550006,None,1485.7359994550006,None,1485.7359994550006,None,1485.7359994550006,None,,,,,,,,,,,,,,,,,,021020,0,1,0,1,1,2,2020_Feb_10_1508,body_behavioural,3.2.4,60.187535452801676,
,10,,,,,0,10,10,10,,,,,,,,,,,,,,,,,,,,,,,,,,,,,,,,,,,,,,,,,,,,,,,,,,,,,,,,,,,,,,,,,,,,,,,,,,,,,,,,,,,,,,,,,,,,,,,,,,,,,,,,,,,,,,,,,,,,,,,,,,,,,,,,,,,,,,,,,,,,,1487.0696252490006,None,1487.0696252490006,None,1487.0696252490006,None,1487.0696252490006,None,1487.0696252490006,None,1487.0696252490006,None,1487.0696252490006,None,,,021020,0,1,0,1,1,2,2020_Feb_10_1508,body_behavioural,3.2.4,60.187535452801676,
,11,,,,,0,11,11,11,0,0,0,0,,,,,,,,,,,,,,,,,1490.0522516649999,None,space,1.3422280039994803,1490.0522516649999,None,1490.0522516649999,None,1491.4355507600003,None,1491.4355507600003,None,"They agree to go on a date, but i don't remember the location/time",It has wood paneling and plants all along one wall.,"[2, 1]",1492.3523878060005,None,1492.3523878060005,None,1492.3523878060005,None,1492.3523878060005,None,1492.3523878060005,None,1492.3523878060005,None,1492.3523878060005,None,They have entrees in japanese with english descriptions under,1520.8520907560005,None,1520.8520907560005,None,1520.8520907560005,None,1520.8520907560005,None,1520.8520907560005,None,1520.8520907560005,None,1520.8520907560005,None,"James orders a tuna roll and an avocado roll, and teresa orders a salmon roll and a japanese beer",1541.700658883,None,1541.700658883,None,1541.700658883,None,1541.700658883,None,1541.700658883,None,1541.700658883,None,1541.700658883,None,They think it's good; the fish is very fresh,1565.2684824460002,None,1565.2684824460002,None,1565.2684824460002,None,1565.2684824460002,None,1565.2684824460002,None,1565.2684824460002,None,1565.2684824460002,None,,1574.1180745310003,None,1574.1180745310003,None,1574.1180745310003,None,1574.1180745310003,None,1574.1180745310003,None,1574.1180745310003,None,1574.1180745310003,None,James asks teresa whether she got a concussion/hurt her head on the door,1584.4515829270003,None,1584.4515829270003,None,1584.4515829270003,None,1584.4515829270003,None,1584.4515829270003,None,1584.4515829270003,None,1584.4515829270003,None,"They agree to go on a date, but i don't remember the location/time",1614.4680994710006,None,1614.4680994710006,None,1614.4680994710006,None,1614.4680994710006,None,1614.4680994710006,None,1614.4680994710006,None,1614.4680994710006,None,,,,,,,,,,,,,,,,,,021020,0,1,0,1,1,2,2020_Feb_10_1508,body_behavioural,3.2.4,60.187535452801676,
,11,,,,,0,11,11,11,,,,,,,,,,,,,,,,,,,,,,,,,,,,,,,,,,,,,,,,,,,,,,,,,,,,,,,,,,,,,,,,,,,,,,,,,,,,,,,,,,,,,,,,,,,,,,,,,,,,,,,,,,,,,,,,,,,,,,,,,,,,,,,,,,,,,,,,,,,,,1651.4999688810003,None,1651.4999688810003,None,1651.4999688810003,None,1651.4999688810003,None,1651.4999688810003,None,1651.4999688810003,None,1651.4999688810003,None,,,021020,0,1,0,1,1,2,2020_Feb_10_1508,body_behavioural,3.2.4,60.187535452801676,
,12,,,,,0,12,12,12,0,0,0,0,,,,,,,,,,,,,,,,,1659.5494712,None,space,0.8653074330004529,1659.5494712,None,1659.5494712,None,1660.4502446719998,None,1660.4502446719998,None,He takes it out of his wallet,There are a bunch of displays of thanksgiving food and decorations,"[2, 1]",1661.700565274,None,1661.700565274,None,1661.700565274,None,1661.700565274,None,1661.700565274,None,1661.700565274,None,1661.700565274,None,"Alex is looking at various stuffing, cranberry sauce, etc. options",1676.566325324,None,1676.566325324,None,1676.566325324,None,1676.566325324,None,1676.566325324,None,1676.566325324,None,1676.566325324,None,,1704.582607466,None,1704.582607466,None,1704.582607466,None,1704.582607466,None,1704.582607466,None,1704.582607466,None,1704.582607466,None,,1705.9491053800002,None,1705.9491053800002,None,1705.9491053800002,None,1705.9491053800002,None,1705.9491053800002,None,1705.9491053800002,None,1705.9491053800002,None,"Not sure, maybe a few years",1709.8664598330006,None,1709.8664598330006,None,1709.8664598330006,None,1709.8664598330006,None,1709.8664598330006,None,1709.8664598330006,None,1709.8664598330006,None,There is one big sparkly white diamond on a thin band,1726.8496480570002,None,1726.8496480570002,None,1726.8496480570002,None,1726.8496480570002,None,1726.8496480570002,None,1726.8496480570002,None,1726.8496480570002,None,He takes it out of his wallet,1739.1157900930002,None,1739.1157900930002,None,1739.1157900930002,None,1739.1157900930002,None,1739.1157900930002,None,1739.1157900930002,None,1739.1157900930002,None,,,,,,,,,,,,,,,,,,021020,0,1,0,1,1,2,2020_Feb_10_1508,body_behavioural,3.2.4,60.187535452801676,
,12,,,,,0,12,12,12,,,,,,,,,,,,,,,,,,,,,,,,,,,,,,,,,She texts her mother,,,,,,,,,,,,,,,,,,,,,,,,,,,,,,,,,,,,,,,,,,,,,,,,,,,,,,,,,,,,,,,,,,,,,,,,,,,,,,,,,,,,,,,,,,,,,,,,,,,,,,,,,,,She texts her mother,1745.5989935730004,None,1745.5989935730004,None,1745.5989935730004,None,1745.5989935730004,None,1745.5989935730004,None,1745.5989935730004,None,1745.5989935730004,None,,,021020,0,1,0,1,1,2,2020_Feb_10_1508,body_behavioural,3.2.4,60.187535452801676,
,13,,,,,0,13,13,13,0,0,0,0,,,,,,,,,,,,,,,,,1751.9311378740003,None,space,1.729505485000118,1751.9311378740003,None,1751.9311378740003,None,1753.699193724,None,1753.699193724,None,"No, he doesn't want to break up because he loves her and can visit her while she's abroad.",,"[2, 1]",1754.516206358,None,1754.516206358,None,1754.516206358,None,1754.516206358,None,1754.516206358,None,1754.516206358,None,1754.516206358,None,,1759.8485275869998,None,1759.8485275869998,None,1759.8485275869998,None,1759.8485275869998,None,1759.8485275869998,None,1759.8485275869998,None,1759.8485275869998,None,,1777.115046326,None,1777.115046326,None,1777.115046326,None,1777.115046326,None,1777.115046326,None,1777.115046326,None,1777.115046326,None,,1778.2152069600006,None,1778.2152069600006,None,1778.2152069600006,None,1778.2152069600006,None,1778.2152069600006,None,1778.2152069600006,None,1778.2152069600006,None,She has been planning to break up with him for a few weeks/months,1780.6485789100007,None,1780.6485789100007,None,1780.6485789100007,None,1780.6485789100007,None,1780.6485789100007,None,1780.6485789100007,None,1780.6485789100007,None,She is going to study abroad for a semester and she thinks long distance will be too hard,1809.6158315700004,None,1809.6158315700004,None,1809.6158315700004,None,1809.6158315700004,None,1809.6158315700004,None,1809.6158315700004,None,1809.6158315700004,None,"No, he doesn't want to break up because he loves her and can visit her while she's abroad.",1831.9316131189998,None,1831.9316131189998,None,1831.9316131189998,None,1831.9316131189998,None,1831.9316131189998,None,1831.9316131189998,None,1831.9316131189998,None,,,,,,,,,,,,,,,,,,021020,0,1,0,1,1,2,2020_Feb_10_1508,body_behavioural,3.2.4,60.187535452801676,
,13,,,,,0,13,13,13,,,,,,,,,,,,,,,,,,,,,,,,,,,,,,,,,Maria wants her favorite alpaca sweater back from henry's dorm room.,,,,,,,,,,,,,,,,,,,,,,,,,,,,,,,,,,,,,,,,,,,,,,,,,,,,,,,,,,,,,,,,,,,,,,,,,,,,,,,,,,,,,,,,,,,,,,,,,,,,,,,,,,,Maria wants her favorite alpaca sweater back from henry's dorm room.,1859.7142152240003,None,1859.7142152240003,None,1859.7142152240003,None,1859.7142152240003,None,1859.7142152240003,None,1859.7142152240003,None,1859.7142152240003,None,,,021020,0,1,0,1,1,2,2020_Feb_10_1508,body_behavioural,3.2.4,60.187535452801676,
,14,,,,,0,14,14,14,,,,,,,,,,,,,,,,,,,,,,,,,,,,,,,,,Maria wants her favorite alpaca sweater back from henry's dorm room.,,,,,,,,,,,,,,,,,,,,,,,,,,,,,,,,,,,,,,,,,,,,,,,,,,,,,,,,,,,,,,,,,,,,,,,,,,,,,,,,,,,,,,,,,,,,,,,,,,,,,,,,,,,Maria wants her favorite alpaca sweater back from henry's dorm room.,1878.3139545150007,None,1878.3139545150007,None,1878.3139545150007,None,1878.3139545150007,None,1878.3139545150007,None,1878.3139545150007,None,1878.3139545150007,None,,,021020,0,1,0,1,1,2,2020_Feb_10_1508,body_behavioural,3.2.4,60.187535452801676,
,15,,,,,0,15,15,15,,,,,,,,,,,,,,,,,,,,,,,,,,,,,,,,,Maria wants her favorite alpaca sweater back from henry's dorm room,,,,,,,,,,,,,,,,,,,,,,,,,,,,,,,,,,,,,,,,,,,,,,,,,,,,,,,,,,,,,,,,,,,,,,,,,,,,,,,,,,,,,,,,,,,,,,,,,,,,,,,,,,,Maria wants her favorite alpaca sweater back from henry's dorm room,1892.8965081000006,None,1892.8965081000006,None,1892.8965081000006,None,1892.8965081000006,None,1892.8965081000006,None,1892.8965081000006,None,1892.8965081000006,None,,,021020,0,1,0,1,1,2,2020_Feb_10_1508,body_behavioural,3.2.4,60.187535452801676,
,,,,,,,,,,,,,,0,0,0,0,,,,,,,,,,,,,,,,,,,,,,,,,,,,,,,,,,,,,,,,,,,,,,,,,,,,,,,,,,,,,,,,,,,,,,,,,,,,,,,,,,,,,,,,,,,,,,,,,,,,,,,,,,,,,,,,,,,,,,,,,,,,,,,,,,,,,,,,,,,,,,,,,,,1914.6128761520004,None,021020,0,1,0,1,1,2,2020_Feb_10_1508,body_behavioural,3.2.4,60.187535452801676,
