count,audio,trials_14.thisRepN,trials_14.thisTrialN,trials_14.thisN,trials_14.thisIndex,trials_3.thisRepN,trials_3.thisTrialN,trials_3.thisN,trials_3.thisIndex,trials_4.thisRepN,trials_4.thisTrialN,trials_4.thisN,trials_4.thisIndex,trials_6.thisRepN,trials_6.thisTrialN,trials_6.thisN,trials_6.thisIndex,trials_9.thisRepN,trials_9.thisTrialN,trials_9.thisN,trials_9.thisIndex,trials_10.thisRepN,trials_10.thisTrialN,trials_10.thisN,trials_10.thisIndex,trials_12.thisRepN,trials_12.thisTrialN,trials_12.thisN,trials_12.thisIndex,trials_25.thisRepN,trials_25.thisTrialN,trials_25.thisN,trials_25.thisIndex,trials_15.thisRepN,trials_15.thisTrialN,trials_15.thisN,trials_15.thisIndex,trials_26.thisRepN,trials_26.thisTrialN,trials_26.thisN,trials_26.thisIndex,story_list_block2,action_list_block2,textTrigger.started,textTrigger.stopped,getTrigger.keys,getTrigger.rt,getTrigger.started,getTrigger.stopped,triggerTime,text_76.started,text_76.stopped,text_77.started,text_77.stopped,startWait,endWait,image_23.started,image_23.stopped,text_55.started,text_55.stopped,text_56.started,text_56.stopped,key_resp_2.keys,key_resp_2.rt,key_resp_2.started,key_resp_2.stopped,text_82.started,text_82.stopped,text_64.started,text_64.stopped,key_resp_20.keys,key_resp_20.rt,key_resp_20.started,key_resp_20.stopped,storyImage_StartTime,storyImage_EndTime,clip_StartTime,clip_EndTime,text_67.started,text_67.stopped,text_68.started,text_68.stopped,participant,sA,sB,lA,lB,block_struct,play_stories,block,behavioral,random_seed,date,expName,psychopyVersion,frameRate,
0,parcelated_audio/34/34_1.ogg,,,,,,,,,0,0,0,0,0,0,0,0,0,0,0,0,,,,,,,,,0,0,0,0,0,0,0,0,,,,,[34 43 32 41 23 14 12 21],[4 4 2 2 1 1 3 3],30.126469113999974,None,equal,22.876168065,30.126469113999974,None,22.904602766000153,30.126469113999974,None,30.126469113999974,None,0.0003405379998184799,5.999041645000034,53.02692429600029,None,59.02668770800028,None,59.02668770800028,None,1,1.283776853999825,59.02668770800028,None,59.02668770800028,None,60.37641672200016,None,1,1.6060893940002643,60.37641672200016,None,8.990243502999874,11.999147258999983,12.004115787000046,20.712387923999813,,,,,021020,0,1,0,1,1,1,2,0,2,2020_Feb_10_1403,listening_fmri,3.2.4,60.24377208614247,
0,parcelated_audio/34/34_2.ogg,,,,,,,,,0,0,0,0,0,0,0,0,0,0,0,0,,,,,,,,,0,0,0,0,0,1,1,1,,,,,,,,,,,,,,,,,,,,,,,,,,,,,,,,,,,,,,,,20.712733697999738,25.265985221999927,,,,,021020,0,1,0,1,1,1,2,0,2,2020_Feb_10_1403,listening_fmri,3.2.4,60.24377208614247,
0,parcelated_audio/34/34_3.ogg,,,,,,,,,0,0,0,0,0,0,0,0,0,0,0,0,,,,,,,,,0,0,0,0,0,2,2,2,,,,,,,,,,,,,,,,,,,,,,,,,,,,,,,,,,,,,,,,25.266324431999692,29.911139521999758,,,,,021020,0,1,0,1,1,1,2,0,2,2020_Feb_10_1403,listening_fmri,3.2.4,60.24377208614247,
0,parcelated_audio/34/34_4.ogg,,,,,,,,,0,0,0,0,0,0,0,0,0,0,0,0,,,,,,,,,0,0,0,0,0,3,3,3,,,,,,,,,,,,,,,,,,,,,,,,,,,,,,,,,,,,,,,,29.911480554999798,39.52561390599976,,,,,021020,0,1,0,1,1,1,2,0,2,2020_Feb_10_1403,listening_fmri,3.2.4,60.24377208614247,
0,parcelated_audio/34/34_5.ogg,,,,,,,,,0,0,0,0,0,0,0,0,0,0,0,0,,,,,,,,,0,0,0,0,0,4,4,4,,,,,,,,,,,,,,,,,,,,,,,,,,,,,,,,,,,,,,,,39.525966614000026,49.93631079399984,,,,,021020,0,1,0,1,1,1,2,0,2,2020_Feb_10_1403,listening_fmri,3.2.4,60.24377208614247,
0,parcelated_audio/34/34_6.ogg,,,,,,,,,0,0,0,0,0,0,0,0,0,0,0,0,,,,,,,,,0,0,0,0,0,5,5,5,,,,,,,,,,,,,,,,,,,,,,,,,,,,,,,,,,,,,,,,49.93664393600011,58.625582590999784,,,,,021020,0,1,0,1,1,1,2,0,2,2020_Feb_10_1403,listening_fmri,3.2.4,60.24377208614247,
0,parcelated_audio/34/34_7.ogg,,,,,,,,,0,0,0,0,0,0,0,0,0,0,0,0,,,,,,,,,0,0,0,0,0,6,6,6,,,,,,,,,,,,,,,,,,,,,,,,,,,,,,,,,,,,,,,,58.62592827499975,64.612250571,,,,,021020,0,1,0,1,1,1,2,0,2,2020_Feb_10_1403,listening_fmri,3.2.4,60.24377208614247,
0,parcelated_audio/34/34_8.ogg,,,,,,,,,0,0,0,0,0,0,0,0,0,0,0,0,,,,,,,,,0,0,0,0,0,7,7,7,,,,,,,,,,,,,,,,,,,,,,,,,,,,,,,,,,,,,,,,64.61286955600008,72.59849976499981,,,,,021020,0,1,0,1,1,1,2,0,2,2020_Feb_10_1403,listening_fmri,3.2.4,60.24377208614247,
0,parcelated_audio/34/34_9.ogg,,,,,,,,,0,0,0,0,0,0,0,0,0,0,0,0,,,,,,,,,0,0,0,0,0,8,8,8,,,,,,,,,,,,,,,,,,,,,,,,,,,,,,,,,,,,,,,,72.59886281299987,77.3923004620001,,,,,021020,0,1,0,1,1,1,2,0,2,2020_Feb_10_1403,listening_fmri,3.2.4,60.24377208614247,
0,parcelated_audio/34/34_10.ogg,,,,,,,,,0,0,0,0,0,0,0,0,0,0,0,0,,,,,,,,,0,0,0,0,0,9,9,9,,,,,,,,,,,,,,,,,,,,,,,,,,,,,,,,,,,,,,,,77.39264074899984,84.41242637799996,,,,,021020,0,1,0,1,1,1,2,0,2,2020_Feb_10_1403,listening_fmri,3.2.4,60.24377208614247,
0,parcelated_audio/34/34_11.ogg,,,,,,,,,0,0,0,0,0,0,0,0,0,0,0,0,,,,,,,,,0,0,0,0,0,10,10,10,,,,,,,,,,,,,,,,,,,,,,,,,,,,,,,,,,,,,,,,84.41276504799998,87.85111086400002,,,,,021020,0,1,0,1,1,1,2,0,2,2020_Feb_10_1403,listening_fmri,3.2.4,60.24377208614247,
0,parcelated_audio/34/34_12.ogg,,,,,,,,,0,0,0,0,0,0,0,0,0,0,0,0,,,,,,,,,0,0,0,0,0,11,11,11,,,,,,,,,,,,,,,,,,,,,,,,,,,,,,,,,,,,,,,,87.8514596760001,96.00046090299975,,,,,021020,0,1,0,1,1,1,2,0,2,2020_Feb_10_1403,listening_fmri,3.2.4,60.24377208614247,
0,parcelated_audio/34/34_13.ogg,,,,,,,,,0,0,0,0,0,0,0,0,0,0,0,0,,,,,,,,,0,0,0,0,0,12,12,12,,,,,,,,,,,,,,,,,,,,,,,,,,,,,,,,,,,,,,,,96.00084146500012,99.88303808599994,,,,,021020,0,1,0,1,1,1,2,0,2,2020_Feb_10_1403,listening_fmri,3.2.4,60.24377208614247,
0,parcelated_audio/34/34_14.ogg,,,,,,,,,0,0,0,0,0,0,0,0,0,0,0,0,,,,,,,,,0,0,0,0,0,13,13,13,,,,,,,,,,,,,,,,,,,,,,,,,,,,,,,,,,,,,,,,99.88344913999981,104.52430145299968,,,,,021020,0,1,0,1,1,1,2,0,2,2020_Feb_10_1403,listening_fmri,3.2.4,60.24377208614247,
0,parcelated_audio/34/34_15.ogg,,,,,,,,,0,0,0,0,0,0,0,0,0,0,0,0,,,,,,,,,0,0,0,0,0,14,14,14,,,,,,,,,,,,,,,,,,,,,,,,,,,,,,,,,,,,,,,,104.5247675769997,108.70130265099988,,,,,021020,0,1,0,1,1,1,2,0,2,2020_Feb_10_1403,listening_fmri,3.2.4,60.24377208614247,
0,parcelated_audio/34/34_16.ogg,,,,,,,,,0,0,0,0,0,0,0,0,0,0,0,0,,,,,,,,,0,0,0,0,0,15,15,15,,,,,,,,,,,,,,,,,,,,,,,,,,,,,,,,,,,,,,,,108.70168086400008,121.70862599800012,,,,,021020,0,1,0,1,1,1,2,0,2,2020_Feb_10_1403,listening_fmri,3.2.4,60.24377208614247,
0,parcelated_audio/34/34_17.ogg,,,,,,,,,0,0,0,0,0,0,0,0,0,0,0,0,,,,,,,,,0,0,0,0,0,16,16,16,,,,,,,,,,,,,,,,,,,,,,,,,,,,,,,,,,,,,,,,121.708975044,130.64624076499967,,,,,021020,0,1,0,1,1,1,2,0,2,2020_Feb_10_1403,listening_fmri,3.2.4,60.24377208614247,
0,parcelated_audio/34/34_18.ogg,,,,,,,,,0,0,0,0,0,0,0,0,0,0,0,0,,,,,,,,,0,0,0,0,0,17,17,17,,,,,,,,,,,,,,,,,,,,,,,,,,,,,,,,,,,,,,,,130.64659192399995,136.50438494799982,,,,,021020,0,1,0,1,1,1,2,0,2,2020_Feb_10_1403,listening_fmri,3.2.4,60.24377208614247,
0,parcelated_audio/34/34_19.ogg,,,,,,,,,0,0,0,0,0,0,0,0,0,0,0,0,,,,,,,,,0,0,0,0,0,18,18,18,,,,,,,,,,,,,,,,,,,,,,,,,,,,,,,,,,,,,,,,136.5047262009998,142.73278495499972,,,,,021020,0,1,0,1,1,1,2,0,2,2020_Feb_10_1403,listening_fmri,3.2.4,60.24377208614247,
0,parcelated_audio/34/34_20.ogg,,,,,,,,,0,0,0,0,0,0,0,0,0,0,0,0,,,,,,,,,0,0,0,0,0,19,19,19,,,,,,,,,,,,,,,,,,,,,,,,,,,,,,,,,,,,,,,,142.73312489299997,151.17140475899987,,,,,021020,0,1,0,1,1,1,2,0,2,2020_Feb_10_1403,listening_fmri,3.2.4,60.24377208614247,
0,parcelated_audio/34/34_21.ogg,,,,,,,,,0,0,0,0,0,0,0,0,0,0,0,0,,,,,,,,,0,0,0,0,0,20,20,20,,,,,,,,,,,,,,,,,,,,,,,,,,,,,,,,,,,,,,,,151.17170501500004,157.52721360099986,,,,,021020,0,1,0,1,1,1,2,0,2,2020_Feb_10_1403,listening_fmri,3.2.4,60.24377208614247,
0,parcelated_audio/34/34_22.ogg,,,,,,,,,0,0,0,0,0,0,0,0,0,0,0,0,,,,,,,,,0,0,0,0,0,21,21,21,,,,,,,,,,,,,,,,,,,,,,,,,,,,,,,,,,,,,,,,157.52852176399983,162.63939769499984,,,,,021020,0,1,0,1,1,1,2,0,2,2020_Feb_10_1403,listening_fmri,3.2.4,60.24377208614247,
0,parcelated_audio/34/34_23.ogg,,,,,,,,,0,0,0,0,0,0,0,0,0,0,0,0,,,,,,,,,0,0,0,0,0,22,22,22,,,,,,,,,,,,,,,,,,,,,,,,,,,,,,,,,,,,,,,,162.6397375229999,170.4113587679999,,,,,021020,0,1,0,1,1,1,2,0,2,2020_Feb_10_1403,listening_fmri,3.2.4,60.24377208614247,
0,parcelated_audio/34/34_24.ogg,,,,,,,,,0,0,0,0,0,0,0,0,0,0,0,0,,,,,,,,,0,0,0,0,0,23,23,23,,,,,,,,,,,,,,,,,,,,,,,,,,,,,,,,,,,,,,,,170.41192865699986,176.1990971340001,,,,,021020,0,1,0,1,1,1,2,0,2,2020_Feb_10_1403,listening_fmri,3.2.4,60.24377208614247,
0,parcelated_audio/34/34_25.ogg,,,,,,,,,0,0,0,0,0,0,0,0,0,0,0,0,,,,,,,,,0,0,0,0,0,24,24,24,,,,,,,,,,,,,,,,,,,,,,,,,,,,,,,,,,,,,,,,176.19944190199976,182.76042844199992,,,,,021020,0,1,0,1,1,1,2,0,2,2020_Feb_10_1403,listening_fmri,3.2.4,60.24377208614247,
0,parcelated_audio/34/34_26.ogg,,,,,,,,,0,0,0,0,0,0,0,0,0,0,0,0,,,,,,,,,0,0,0,0,0,25,25,25,,,,,,,,,,,,,,,,,,,,,,,,,,,,,,,,,,,,,,,,182.7607332749999,192.4083733739999,,,,,021020,0,1,0,1,1,1,2,0,2,2020_Feb_10_1403,listening_fmri,3.2.4,60.24377208614247,
0,parcelated_audio/34/34_27.ogg,,,,,,,,,0,0,0,0,0,0,0,0,0,0,0,0,,,,,,,,,0,0,0,0,0,26,26,26,,,,,,,,,,,,,,,,,,,,,,,,,,,,,,,,,,,,,,,,192.40866257900007,199.8949745330001,,,,,021020,0,1,0,1,1,1,2,0,2,2020_Feb_10_1403,listening_fmri,3.2.4,60.24377208614247,
0,,,,,,,,,,0,0,0,0,0,0,0,0,0,0,0,0,,,,,,,,,0,0,0,0,,,,,,,,,,,,,,,,,,,,,,,,,,,,,,,,,,,,,,,,,,,,,,,,,,021020,0,1,0,1,1,1,2,0,2,2020_Feb_10_1403,listening_fmri,3.2.4,60.24377208614247,
,,,,,,,,,,,,,,,,,,,,,,,,,,,,,,,,,,,,,,,,,,,,,,,,,,,,,,,199.89537167299977,205.8824748789998,252.90978774700034,None,,,,,,,,,,,,,,,,,,,,,258.9108328880002,None,258.9108328880002,None,,,,,,,,,,,,,,,
﻿count,audio,trials_14.thisRepN,trials_14.thisTrialN,trials_14.thisN,trials_14.thisIndex,trials_3.thisRepN,trials_3.thisTrialN,trials_3.thisN,trials_3.thisIndex,trials_4.thisRepN,trials_4.thisTrialN,trials_4.thisN,trials_4.thisIndex,trials_6.thisRepN,trials_6.thisTrialN,trials_6.thisN,trials_6.thisIndex,trials_9.thisRepN,trials_9.thisTrialN,trials_9.thisN,trials_9.thisIndex,trials_10.thisRepN,trials_10.thisTrialN,trials_10.thisN,trials_10.thisIndex,trials_12.thisRepN,trials_12.thisTrialN,trials_12.thisN,trials_12.thisIndex,trials_25.thisRepN,trials_25.thisTrialN,trials_25.thisN,trials_25.thisIndex,trials_15.thisRepN,trials_15.thisTrialN,trials_15.thisN,trials_15.thisIndex,trials_26.thisRepN,trials_26.thisTrialN,trials_26.thisN,trials_26.thisIndex,story_list_block2,action_list_block2,textTrigger.started,textTrigger.stopped,getTrigger.keys,getTrigger.rt,getTrigger.started,getTrigger.stopped,triggerTime,text_76.started,text_76.stopped,text_77.started,text_77.stopped,startWait,endWait,image_23.started,image_23.stopped,text_55.started,text_55.stopped,text_56.started,text_56.stopped,key_resp_2.keys,key_resp_2.rt,key_resp_2.started,key_resp_2.stopped,text_82.started,text_82.stopped,text_64.started,text_64.stopped,key_resp_20.keys,key_resp_20.rt,key_resp_20.started,key_resp_20.stopped,storyImage_StartTime,storyImage_EndTime,clip_StartTime,clip_EndTime,text_67.started,text_67.stopped,text_68.started,text_68.stopped,participant,sA,sB,lA,lB,block_struct,play_stories,block,behavioral,random_seed,date,expName,psychopyVersion,frameRate,
0,parcelated_audio/34/34_1.ogg,,,,,,,,,0,0,0,0,0,0,0,0,0,0,0,0,,,,,,,,,0,0,0,0,0,0,0,0,,,,,[34 43 32 41 23 14 12 21],[4 4 2 2 1 1 3 3],30.126469113999974,None,equal,22.876168065,30.126469113999974,None,22.904602766000153,30.126469113999974,None,30.126469113999974,None,0.0003405379998184799,5.999041645000034,53.02692429600029,None,59.02668770800028,None,59.02668770800028,None,1,1.283776853999825,59.02668770800028,None,59.02668770800028,None,60.37641672200016,None,1,1.6060893940002643,60.37641672200016,None,8.990243502999874,11.999147258999983,12.004115787000046,20.712387923999813,,,,,021020,0,1,0,1,1,1,2,0,2,2020_Feb_10_1403,listening_fmri,3.2.4,60.24377208614247,
0,parcelated_audio/34/34_2.ogg,,,,,,,,,0,0,0,0,0,0,0,0,0,0,0,0,,,,,,,,,0,0,0,0,0,1,1,1,,,,,,,,,,,,,,,,,,,,,,,,,,,,,,,,,,,,,,,,20.712733697999738,25.265985221999927,,,,,021020,0,1,0,1,1,1,2,0,2,2020_Feb_10_1403,listening_fmri,3.2.4,60.24377208614247,
0,parcelated_audio/34/34_3.ogg,,,,,,,,,0,0,0,0,0,0,0,0,0,0,0,0,,,,,,,,,0,0,0,0,0,2,2,2,,,,,,,,,,,,,,,,,,,,,,,,,,,,,,,,,,,,,,,,25.266324431999692,29.911139521999758,,,,,021020,0,1,0,1,1,1,2,0,2,2020_Feb_10_1403,listening_fmri,3.2.4,60.24377208614247,
0,parcelated_audio/34/34_4.ogg,,,,,,,,,0,0,0,0,0,0,0,0,0,0,0,0,,,,,,,,,0,0,0,0,0,3,3,3,,,,,,,,,,,,,,,,,,,,,,,,,,,,,,,,,,,,,,,,29.911480554999798,39.52561390599976,,,,,021020,0,1,0,1,1,1,2,0,2,2020_Feb_10_1403,listening_fmri,3.2.4,60.24377208614247,
0,parcelated_audio/34/34_5.ogg,,,,,,,,,0,0,0,0,0,0,0,0,0,0,0,0,,,,,,,,,0,0,0,0,0,4,4,4,,,,,,,,,,,,,,,,,,,,,,,,,,,,,,,,,,,,,,,,39.525966614000026,49.93631079399984,,,,,021020,0,1,0,1,1,1,2,0,2,2020_Feb_10_1403,listening_fmri,3.2.4,60.24377208614247,
0,parcelated_audio/34/34_6.ogg,,,,,,,,,0,0,0,0,0,0,0,0,0,0,0,0,,,,,,,,,0,0,0,0,0,5,5,5,,,,,,,,,,,,,,,,,,,,,,,,,,,,,,,,,,,,,,,,49.93664393600011,58.625582590999784,,,,,021020,0,1,0,1,1,1,2,0,2,2020_Feb_10_1403,listening_fmri,3.2.4,60.24377208614247,
0,parcelated_audio/34/34_7.ogg,,,,,,,,,0,0,0,0,0,0,0,0,0,0,0,0,,,,,,,,,0,0,0,0,0,6,6,6,,,,,,,,,,,,,,,,,,,,,,,,,,,,,,,,,,,,,,,,58.62592827499975,64.612250571,,,,,021020,0,1,0,1,1,1,2,0,2,2020_Feb_10_1403,listening_fmri,3.2.4,60.24377208614247,
0,parcelated_audio/34/34_8.ogg,,,,,,,,,0,0,0,0,0,0,0,0,0,0,0,0,,,,,,,,,0,0,0,0,0,7,7,7,,,,,,,,,,,,,,,,,,,,,,,,,,,,,,,,,,,,,,,,64.61286955600008,72.59849976499981,,,,,021020,0,1,0,1,1,1,2,0,2,2020_Feb_10_1403,listening_fmri,3.2.4,60.24377208614247,
0,parcelated_audio/34/34_9.ogg,,,,,,,,,0,0,0,0,0,0,0,0,0,0,0,0,,,,,,,,,0,0,0,0,0,8,8,8,,,,,,,,,,,,,,,,,,,,,,,,,,,,,,,,,,,,,,,,72.59886281299987,77.3923004620001,,,,,021020,0,1,0,1,1,1,2,0,2,2020_Feb_10_1403,listening_fmri,3.2.4,60.24377208614247,
0,parcelated_audio/34/34_10.ogg,,,,,,,,,0,0,0,0,0,0,0,0,0,0,0,0,,,,,,,,,0,0,0,0,0,9,9,9,,,,,,,,,,,,,,,,,,,,,,,,,,,,,,,,,,,,,,,,77.39264074899984,84.41242637799996,,,,,021020,0,1,0,1,1,1,2,0,2,2020_Feb_10_1403,listening_fmri,3.2.4,60.24377208614247,
0,parcelated_audio/34/34_11.ogg,,,,,,,,,0,0,0,0,0,0,0,0,0,0,0,0,,,,,,,,,0,0,0,0,0,10,10,10,,,,,,,,,,,,,,,,,,,,,,,,,,,,,,,,,,,,,,,,84.41276504799998,87.85111086400002,,,,,021020,0,1,0,1,1,1,2,0,2,2020_Feb_10_1403,listening_fmri,3.2.4,60.24377208614247,
0,parcelated_audio/34/34_12.ogg,,,,,,,,,0,0,0,0,0,0,0,0,0,0,0,0,,,,,,,,,0,0,0,0,0,11,11,11,,,,,,,,,,,,,,,,,,,,,,,,,,,,,,,,,,,,,,,,87.8514596760001,96.00046090299975,,,,,021020,0,1,0,1,1,1,2,0,2,2020_Feb_10_1403,listening_fmri,3.2.4,60.24377208614247,
0,parcelated_audio/34/34_13.ogg,,,,,,,,,0,0,0,0,0,0,0,0,0,0,0,0,,,,,,,,,0,0,0,0,0,12,12,12,,,,,,,,,,,,,,,,,,,,,,,,,,,,,,,,,,,,,,,,96.00084146500012,99.88303808599994,,,,,021020,0,1,0,1,1,1,2,0,2,2020_Feb_10_1403,listening_fmri,3.2.4,60.24377208614247,
0,parcelated_audio/34/34_14.ogg,,,,,,,,,0,0,0,0,0,0,0,0,0,0,0,0,,,,,,,,,0,0,0,0,0,13,13,13,,,,,,,,,,,,,,,,,,,,,,,,,,,,,,,,,,,,,,,,99.88344913999981,104.52430145299968,,,,,021020,0,1,0,1,1,1,2,0,2,2020_Feb_10_1403,listening_fmri,3.2.4,60.24377208614247,
0,parcelated_audio/34/34_15.ogg,,,,,,,,,0,0,0,0,0,0,0,0,0,0,0,0,,,,,,,,,0,0,0,0,0,14,14,14,,,,,,,,,,,,,,,,,,,,,,,,,,,,,,,,,,,,,,,,104.5247675769997,108.70130265099988,,,,,021020,0,1,0,1,1,1,2,0,2,2020_Feb_10_1403,listening_fmri,3.2.4,60.24377208614247,
0,parcelated_audio/34/34_16.ogg,,,,,,,,,0,0,0,0,0,0,0,0,0,0,0,0,,,,,,,,,0,0,0,0,0,15,15,15,,,,,,,,,,,,,,,,,,,,,,,,,,,,,,,,,,,,,,,,108.70168086400008,121.70862599800012,,,,,021020,0,1,0,1,1,1,2,0,2,2020_Feb_10_1403,listening_fmri,3.2.4,60.24377208614247,
0,parcelated_audio/34/34_17.ogg,,,,,,,,,0,0,0,0,0,0,0,0,0,0,0,0,,,,,,,,,0,0,0,0,0,16,16,16,,,,,,,,,,,,,,,,,,,,,,,,,,,,,,,,,,,,,,,,121.708975044,130.64624076499967,,,,,021020,0,1,0,1,1,1,2,0,2,2020_Feb_10_1403,listening_fmri,3.2.4,60.24377208614247,
0,parcelated_audio/34/34_18.ogg,,,,,,,,,0,0,0,0,0,0,0,0,0,0,0,0,,,,,,,,,0,0,0,0,0,17,17,17,,,,,,,,,,,,,,,,,,,,,,,,,,,,,,,,,,,,,,,,130.64659192399995,136.50438494799982,,,,,021020,0,1,0,1,1,1,2,0,2,2020_Feb_10_1403,listening_fmri,3.2.4,60.24377208614247,
0,parcelated_audio/34/34_19.ogg,,,,,,,,,0,0,0,0,0,0,0,0,0,0,0,0,,,,,,,,,0,0,0,0,0,18,18,18,,,,,,,,,,,,,,,,,,,,,,,,,,,,,,,,,,,,,,,,136.5047262009998,142.73278495499972,,,,,021020,0,1,0,1,1,1,2,0,2,2020_Feb_10_1403,listening_fmri,3.2.4,60.24377208614247,
0,parcelated_audio/34/34_20.ogg,,,,,,,,,0,0,0,0,0,0,0,0,0,0,0,0,,,,,,,,,0,0,0,0,0,19,19,19,,,,,,,,,,,,,,,,,,,,,,,,,,,,,,,,,,,,,,,,142.73312489299997,151.17140475899987,,,,,021020,0,1,0,1,1,1,2,0,2,2020_Feb_10_1403,listening_fmri,3.2.4,60.24377208614247,
0,parcelated_audio/34/34_21.ogg,,,,,,,,,0,0,0,0,0,0,0,0,0,0,0,0,,,,,,,,,0,0,0,0,0,20,20,20,,,,,,,,,,,,,,,,,,,,,,,,,,,,,,,,,,,,,,,,151.17170501500004,157.52721360099986,,,,,021020,0,1,0,1,1,1,2,0,2,2020_Feb_10_1403,listening_fmri,3.2.4,60.24377208614247,
0,parcelated_audio/34/34_22.ogg,,,,,,,,,0,0,0,0,0,0,0,0,0,0,0,0,,,,,,,,,0,0,0,0,0,21,21,21,,,,,,,,,,,,,,,,,,,,,,,,,,,,,,,,,,,,,,,,157.52852176399983,162.63939769499984,,,,,021020,0,1,0,1,1,1,2,0,2,2020_Feb_10_1403,listening_fmri,3.2.4,60.24377208614247,
0,parcelated_audio/34/34_23.ogg,,,,,,,,,0,0,0,0,0,0,0,0,0,0,0,0,,,,,,,,,0,0,0,0,0,22,22,22,,,,,,,,,,,,,,,,,,,,,,,,,,,,,,,,,,,,,,,,162.6397375229999,170.4113587679999,,,,,021020,0,1,0,1,1,1,2,0,2,2020_Feb_10_1403,listening_fmri,3.2.4,60.24377208614247,
0,parcelated_audio/34/34_24.ogg,,,,,,,,,0,0,0,0,0,0,0,0,0,0,0,0,,,,,,,,,0,0,0,0,0,23,23,23,,,,,,,,,,,,,,,,,,,,,,,,,,,,,,,,,,,,,,,,170.41192865699986,176.1990971340001,,,,,021020,0,1,0,1,1,1,2,0,2,2020_Feb_10_1403,listening_fmri,3.2.4,60.24377208614247,
0,parcelated_audio/34/34_25.ogg,,,,,,,,,0,0,0,0,0,0,0,0,0,0,0,0,,,,,,,,,0,0,0,0,0,24,24,24,,,,,,,,,,,,,,,,,,,,,,,,,,,,,,,,,,,,,,,,176.19944190199976,182.76042844199992,,,,,021020,0,1,0,1,1,1,2,0,2,2020_Feb_10_1403,listening_fmri,3.2.4,60.24377208614247,
0,parcelated_audio/34/34_26.ogg,,,,,,,,,0,0,0,0,0,0,0,0,0,0,0,0,,,,,,,,,0,0,0,0,0,25,25,25,,,,,,,,,,,,,,,,,,,,,,,,,,,,,,,,,,,,,,,,182.7607332749999,192.4083733739999,,,,,021020,0,1,0,1,1,1,2,0,2,2020_Feb_10_1403,listening_fmri,3.2.4,60.24377208614247,
0,parcelated_audio/34/34_27.ogg,,,,,,,,,0,0,0,0,0,0,0,0,0,0,0,0,,,,,,,,,0,0,0,0,0,26,26,26,,,,,,,,,,,,,,,,,,,,,,,,,,,,,,,,,,,,,,,,192.40866257900007,199.8949745330001,,,,,021020,0,1,0,1,1,1,2,0,2,2020_Feb_10_1403,listening_fmri,3.2.4,60.24377208614247,
0,,,,,,,,,,0,0,0,0,0,0,0,0,0,0,0,0,,,,,,,,,0,0,0,0,,,,,,,,,,,,,,,,,,,,,,,,,,,,,,,,,,,,,,,,,,,,,,,,,,021020,0,1,0,1,1,1,2,0,2,2020_Feb_10_1403,listening_fmri,3.2.4,60.24377208614247,
0,,,,,,,,,,0,0,0,0,0,0,0,0,0,0,0,0,,,,,,,,,,,,,,,,,,,,,,,,,,,,,,,,,,199.89537167299977,205.8824748789998,252.90978774700034,None,,,,,,,,,,,,,,,,,,,,,258.9108328880002,None,258.9108328880002,None,021020,0,1,0,1,1,1,2,0,2,2020_Feb_10_1403,listening_fmri,3.2.4,60.24377208614247,
0,,,,,,,,,,0,0,0,0,0,0,0,0,,,,,,,,,,,,,,,,,,,,,,,,,,,,,,,,,,,,,,,,,,,,,,,,,,,,,,,,,,,,,,,,,,021020,0,1,0,1,1,1,2,0,2,2020_Feb_10_1403,listening_fmri,3.2.4,60.24377208614247,
1,parcelated_audio/43/43_1.ogg,,,,,,,,,0,0,0,0,0,1,1,1,0,0,0,0,,,,,,,,,0,0,0,0,0,0,0,0,,,,,,,,,,,,,,,,,,,,,,259.9100841270001,None,259.9100841270001,None,1,1.158543663999808,259.9100841270001,None,259.9100841270001,None,261.09381848600015,None,1,2.362774894999802,261.09381848600015,None,210.4567731789998,213.4668476480001,213.4738888669999,221.05134693399987,,,,,021020,0,1,0,1,1,1,2,0,2,2020_Feb_10_1403,listening_fmri,3.2.4,60.24377208614247,
1,parcelated_audio/43/43_2.ogg,,,,,,,,,0,0,0,0,0,1,1,1,0,0,0,0,,,,,,,,,0,0,0,0,0,1,1,1,,,,,,,,,,,,,,,,,,,,,,,,,,,,,,,,,,,,,,,,221.05163396099988,224.82434734199978,,,,,021020,0,1,0,1,1,1,2,0,2,2020_Feb_10_1403,listening_fmri,3.2.4,60.24377208614247,
1,parcelated_audio/43/43_3.ogg,,,,,,,,,0,0,0,0,0,1,1,1,0,0,0,0,,,,,,,,,0,0,0,0,0,2,2,2,,,,,,,,,,,,,,,,,,,,,,,,,,,,,,,,,,,,,,,,224.8248918270001,233.69936835599992,,,,,021020,0,1,0,1,1,1,2,0,2,2020_Feb_10_1403,listening_fmri,3.2.4,60.24377208614247,
1,parcelated_audio/43/43_4.ogg,,,,,,,,,0,0,0,0,0,1,1,1,0,0,0,0,,,,,,,,,0,0,0,0,0,3,3,3,,,,,,,,,,,,,,,,,,,,,,,,,,,,,,,,,,,,,,,,233.69983238199984,242.1953836949997,,,,,021020,0,1,0,1,1,1,2,0,2,2020_Feb_10_1403,listening_fmri,3.2.4,60.24377208614247,
1,parcelated_audio/43/43_5.ogg,,,,,,,,,0,0,0,0,0,1,1,1,0,0,0,0,,,,,,,,,0,0,0,0,0,4,4,4,,,,,,,,,,,,,,,,,,,,,,,,,,,,,,,,,,,,,,,,242.19599260799987,251.43026783699997,,,,,021020,0,1,0,1,1,1,2,0,2,2020_Feb_10_1403,listening_fmri,3.2.4,60.24377208614247,
1,parcelated_audio/43/43_6.ogg,,,,,,,,,0,0,0,0,0,1,1,1,0,0,0,0,,,,,,,,,0,0,0,0,0,5,5,5,,,,,,,,,,,,,,,,,,,,,,,,,,,,,,,,,,,,,,,,251.43066880800006,260.5659514179997,,,,,021020,0,1,0,1,1,1,2,0,2,2020_Feb_10_1403,listening_fmri,3.2.4,60.24377208614247,
1,parcelated_audio/43/43_7.ogg,,,,,,,,,0,0,0,0,0,1,1,1,0,0,0,0,,,,,,,,,0,0,0,0,0,6,6,6,,,,,,,,,,,,,,,,,,,,,,,,,,,,,,,,,,,,,,,,260.5663954659999,265.3111355709998,,,,,021020,0,1,0,1,1,1,2,0,2,2020_Feb_10_1403,listening_fmri,3.2.4,60.24377208614247,
1,parcelated_audio/43/43_8.ogg,,,,,,,,,0,0,0,0,0,1,1,1,0,0,0,0,,,,,,,,,0,0,0,0,0,7,7,7,,,,,,,,,,,,,,,,,,,,,,,,,,,,,,,,,,,,,,,,265.31164523300004,271.861204324,,,,,021020,0,1,0,1,1,1,2,0,2,2020_Feb_10_1403,listening_fmri,3.2.4,60.24377208614247,
1,parcelated_audio/43/43_9.ogg,,,,,,,,,0,0,0,0,0,1,1,1,0,0,0,0,,,,,,,,,0,0,0,0,0,8,8,8,,,,,,,,,,,,,,,,,,,,,,,,,,,,,,,,,,,,,,,,271.86154216399973,276.46035245799976,,,,,021020,0,1,0,1,1,1,2,0,2,2020_Feb_10_1403,listening_fmri,3.2.4,60.24377208614247,
1,parcelated_audio/43/43_10.ogg,,,,,,,,,0,0,0,0,0,1,1,1,0,0,0,0,,,,,,,,,0,0,0,0,0,9,9,9,,,,,,,,,,,,,,,,,,,,,,,,,,,,,,,,,,,,,,,,276.460881129,281.32789042800005,,,,,021020,0,1,0,1,1,1,2,0,2,2020_Feb_10_1403,listening_fmri,3.2.4,60.24377208614247,
1,parcelated_audio/43/43_11.ogg,,,,,,,,,0,0,0,0,0,1,1,1,0,0,0,0,,,,,,,,,0,0,0,0,0,10,10,10,,,,,,,,,,,,,,,,,,,,,,,,,,,,,,,,,,,,,,,,281.32823463199975,292.36957189899977,,,,,021020,0,1,0,1,1,1,2,0,2,2020_Feb_10_1403,listening_fmri,3.2.4,60.24377208614247,
1,parcelated_audio/43/43_12.ogg,,,,,,,,,0,0,0,0,0,1,1,1,0,0,0,0,,,,,,,,,0,0,0,0,0,11,11,11,,,,,,,,,,,,,,,,,,,,,,,,,,,,,,,,,,,,,,,,292.3699296679997,298.4489007070001,,,,,021020,0,1,0,1,1,1,2,0,2,2020_Feb_10_1403,listening_fmri,3.2.4,60.24377208614247,
1,parcelated_audio/43/43_13.ogg,,,,,,,,,0,0,0,0,0,1,1,1,0,0,0,0,,,,,,,,,0,0,0,0,0,12,12,12,,,,,,,,,,,,,,,,,,,,,,,,,,,,,,,,,,,,,,,,298.44924610199996,306.69891311799984,,,,,021020,0,1,0,1,1,1,2,0,2,2020_Feb_10_1403,listening_fmri,3.2.4,60.24377208614247,
1,parcelated_audio/43/43_14.ogg,,,,,,,,,0,0,0,0,0,1,1,1,0,0,0,0,,,,,,,,,0,0,0,0,0,13,13,13,,,,,,,,,,,,,,,,,,,,,,,,,,,,,,,,,,,,,,,,306.6992105909999,315.21250080599975,,,,,021020,0,1,0,1,1,1,2,0,2,2020_Feb_10_1403,listening_fmri,3.2.4,60.24377208614247,
1,parcelated_audio/43/43_15.ogg,,,,,,,,,0,0,0,0,0,1,1,1,0,0,0,0,,,,,,,,,0,0,0,0,0,14,14,14,,,,,,,,,,,,,,,,,,,,,,,,,,,,,,,,,,,,,,,,315.21286710799995,319.5595502880001,,,,,021020,0,1,0,1,1,1,2,0,2,2020_Feb_10_1403,listening_fmri,3.2.4,60.24377208614247,
1,parcelated_audio/43/43_16.ogg,,,,,,,,,0,0,0,0,0,1,1,1,0,0,0,0,,,,,,,,,0,0,0,0,0,15,15,15,,,,,,,,,,,,,,,,,,,,,,,,,,,,,,,,,,,,,,,,319.5599101069997,324.09234526599994,,,,,021020,0,1,0,1,1,1,2,0,2,2020_Feb_10_1403,listening_fmri,3.2.4,60.24377208614247,
1,parcelated_audio/43/43_17.ogg,,,,,,,,,0,0,0,0,0,1,1,1,0,0,0,0,,,,,,,,,0,0,0,0,0,16,16,16,,,,,,,,,,,,,,,,,,,,,,,,,,,,,,,,,,,,,,,,324.092690294,327.8650975999999,,,,,021020,0,1,0,1,1,1,2,0,2,2020_Feb_10_1403,listening_fmri,3.2.4,60.24377208614247,
1,parcelated_audio/43/43_18.ogg,,,,,,,,,0,0,0,0,0,1,1,1,0,0,0,0,,,,,,,,,0,0,0,0,0,17,17,17,,,,,,,,,,,,,,,,,,,,,,,,,,,,,,,,,,,,,,,,327.865454793,330.071199641,,,,,021020,0,1,0,1,1,1,2,0,2,2020_Feb_10_1403,listening_fmri,3.2.4,60.24377208614247,
1,parcelated_audio/43/43_19.ogg,,,,,,,,,0,0,0,0,0,1,1,1,0,0,0,0,,,,,,,,,0,0,0,0,0,18,18,18,,,,,,,,,,,,,,,,,,,,,,,,,,,,,,,,,,,,,,,,330.0715438110001,333.70521357300004,,,,,021020,0,1,0,1,1,1,2,0,2,2020_Feb_10_1403,listening_fmri,3.2.4,60.24377208614247,
1,parcelated_audio/43/43_20.ogg,,,,,,,,,0,0,0,0,0,1,1,1,0,0,0,0,,,,,,,,,0,0,0,0,0,19,19,19,,,,,,,,,,,,,,,,,,,,,,,,,,,,,,,,,,,,,,,,333.705558269,340.89950991399974,,,,,021020,0,1,0,1,1,1,2,0,2,2020_Feb_10_1403,listening_fmri,3.2.4,60.24377208614247,
1,parcelated_audio/43/43_21.ogg,,,,,,,,,0,0,0,0,0,1,1,1,0,0,0,0,,,,,,,,,0,0,0,0,0,20,20,20,,,,,,,,,,,,,,,,,,,,,,,,,,,,,,,,,,,,,,,,340.8997647279998,343.3682168979999,,,,,021020,0,1,0,1,1,1,2,0,2,2020_Feb_10_1403,listening_fmri,3.2.4,60.24377208614247,
1,parcelated_audio/43/43_22.ogg,,,,,,,,,0,0,0,0,0,1,1,1,0,0,0,0,,,,,,,,,0,0,0,0,0,21,21,21,,,,,,,,,,,,,,,,,,,,,,,,,,,,,,,,,,,,,,,,343.3685605749997,346.8509069900001,,,,,021020,0,1,0,1,1,1,2,0,2,2020_Feb_10_1403,listening_fmri,3.2.4,60.24377208614247,
1,parcelated_audio/43/43_23.ogg,,,,,,,,,0,0,0,0,0,1,1,1,0,0,0,0,,,,,,,,,0,0,0,0,0,22,22,22,,,,,,,,,,,,,,,,,,,,,,,,,,,,,,,,,,,,,,,,346.8513166550001,352.88189389399986,,,,,021020,0,1,0,1,1,1,2,0,2,2020_Feb_10_1403,listening_fmri,3.2.4,60.24377208614247,
1,parcelated_audio/43/43_24.ogg,,,,,,,,,0,0,0,0,0,1,1,1,0,0,0,0,,,,,,,,,0,0,0,0,0,23,23,23,,,,,,,,,,,,,,,,,,,,,,,,,,,,,,,,,,,,,,,,352.8821938279998,359.20193737399995,,,,,021020,0,1,0,1,1,1,2,0,2,2020_Feb_10_1403,listening_fmri,3.2.4,60.24377208614247,
1,parcelated_audio/43/43_25.ogg,,,,,,,,,0,0,0,0,0,1,1,1,0,0,0,0,,,,,,,,,0,0,0,0,0,24,24,24,,,,,,,,,,,,,,,,,,,,,,,,,,,,,,,,,,,,,,,,359.2022823289999,364.23333152999976,,,,,021020,0,1,0,1,1,1,2,0,2,2020_Feb_10_1403,listening_fmri,3.2.4,60.24377208614247,
1,parcelated_audio/43/43_26.ogg,,,,,,,,,0,0,0,0,0,1,1,1,0,0,0,0,,,,,,,,,0,0,0,0,0,25,25,25,,,,,,,,,,,,,,,,,,,,,,,,,,,,,,,,,,,,,,,,364.2336779289999,372.8134607709999,,,,,021020,0,1,0,1,1,1,2,0,2,2020_Feb_10_1403,listening_fmri,3.2.4,60.24377208614247,
1,parcelated_audio/43/43_27.ogg,,,,,,,,,0,0,0,0,0,1,1,1,0,0,0,0,,,,,,,,,0,0,0,0,0,26,26,26,,,,,,,,,,,,,,,,,,,,,,,,,,,,,,,,,,,,,,,,372.8138012659997,377.1952065129999,,,,,021020,0,1,0,1,1,1,2,0,2,2020_Feb_10_1403,listening_fmri,3.2.4,60.24377208614247,
1,parcelated_audio/43/43_28.ogg,,,,,,,,,0,0,0,0,0,1,1,1,0,0,0,0,,,,,,,,,0,0,0,0,0,27,27,27,,,,,,,,,,,,,,,,,,,,,,,,,,,,,,,,,,,,,,,,377.19554961999984,382.176257306,,,,,021020,0,1,0,1,1,1,2,0,2,2020_Feb_10_1403,listening_fmri,3.2.4,60.24377208614247,
1,parcelated_audio/43/43_29.ogg,,,,,,,,,0,0,0,0,0,1,1,1,0,0,0,0,,,,,,,,,0,0,0,0,0,28,28,28,,,,,,,,,,,,,,,,,,,,,,,,,,,,,,,,,,,,,,,,382.17660037999985,388.32198246400003,,,,,021020,0,1,0,1,1,1,2,0,2,2020_Feb_10_1403,listening_fmri,3.2.4,60.24377208614247,
1,,,,,,,,,,0,0,0,0,0,1,1,1,0,0,0,0,,,,,,,,,0,0,0,0,,,,,,,,,,,,,,,,,,,,,,,,,,,,,,,,,,,,,,,,,,,,,,,,,,021020,0,1,0,1,1,1,2,0,2,2020_Feb_10_1403,listening_fmri,3.2.4,60.24377208614247,
,,,,,,,,,,,,,,,,,,,,,,,,,,,,,,,,,,,,,,,,,,,,,,,,,,,,,,,388.32247862899976,394.32856704799997,441.338472553,None,,,,,,,,,,,,,,,,,,,,,447.3562181880002,None,447.3562181880002,None,,,,,,,,,,,,,,,
﻿count,audio,trials_14.thisRepN,trials_14.thisTrialN,trials_14.thisN,trials_14.thisIndex,trials_3.thisRepN,trials_3.thisTrialN,trials_3.thisN,trials_3.thisIndex,trials_4.thisRepN,trials_4.thisTrialN,trials_4.thisN,trials_4.thisIndex,trials_6.thisRepN,trials_6.thisTrialN,trials_6.thisN,trials_6.thisIndex,trials_9.thisRepN,trials_9.thisTrialN,trials_9.thisN,trials_9.thisIndex,trials_10.thisRepN,trials_10.thisTrialN,trials_10.thisN,trials_10.thisIndex,trials_12.thisRepN,trials_12.thisTrialN,trials_12.thisN,trials_12.thisIndex,trials_25.thisRepN,trials_25.thisTrialN,trials_25.thisN,trials_25.thisIndex,trials_15.thisRepN,trials_15.thisTrialN,trials_15.thisN,trials_15.thisIndex,trials_26.thisRepN,trials_26.thisTrialN,trials_26.thisN,trials_26.thisIndex,trials_11.thisRepN,trials_11.thisTrialN,trials_11.thisN,trials_11.thisIndex,story_list_block2,action_list_block2,textTrigger.started,textTrigger.stopped,getTrigger.keys,getTrigger.rt,getTrigger.started,getTrigger.stopped,triggerTime,text_76.started,text_76.stopped,text_77.started,text_77.stopped,startWait,endWait,image_23.started,image_23.stopped,text_55.started,text_55.stopped,text_56.started,text_56.stopped,key_resp_2.keys,key_resp_2.rt,key_resp_2.started,key_resp_2.stopped,text_82.started,text_82.stopped,text_64.started,text_64.stopped,key_resp_20.keys,key_resp_20.rt,key_resp_20.started,key_resp_20.stopped,storyImage_StartTime,storyImage_EndTime,clip_StartTime,clip_EndTime,text_67.started,text_67.stopped,text_68.started,text_68.stopped,text_57.started,text_57.stopped,key_resp_17.keys,key_resp_17.rt,key_resp_17.started,key_resp_17.stopped,text_83.started,text_83.stopped,text_60.started,text_60.stopped,image_2.started,image_2.stopped,text_58.started,text_58.stopped,key_resp_23.keys,key_resp_23.rt,key_resp_23.started,key_resp_23.stopped,text_62.started,text_62.stopped,key_resp_18.keys,key_resp_18.rt,key_resp_18.started,key_resp_18.stopped,text_84.started,text_84.stopped,question1_2.started,question1_2.stopped,question2_2.started,question2_2.stopped,question3_2.started,question3_2.stopped,question4_2.started,question4_2.stopped,question5_2.started,question5_2.stopped,question6_2.started,question6_2.stopped,image_15.started,image_15.stopped,text_59.started,text_59.stopped,key_resp_19.keys,key_resp_19.rt,key_resp_19.started,key_resp_19.stopped,text_85.started,text_85.stopped,text_61.started,text_61.stopped,image_17.started,image_17.stopped,text_63.started,text_63.stopped,key_resp_24.keys,key_resp_24.rt,key_resp_24.started,key_resp_24.stopped,participant,sA,sB,lA,lB,block_struct,play_stories,block,behavioral,random_seed,date,expName,psychopyVersion,frameRate,
0,parcelated_audio/34/34_1.ogg,,,,,,,,,0,0,0,0,0,0,0,0,0,0,0,0,,,,,,,,,0,0,0,0,0,0,0,0,,,,,,,,,[34 43 32 41 23 14 12 21],[4 4 2 2 1 1 3 3],30.126469113999974,None,equal,22.876168065,30.126469113999974,None,22.904602766000153,30.126469113999974,None,30.126469113999974,None,0.0003405379998184799,5.999041645000034,53.02692429600029,None,59.02668770800028,None,59.02668770800028,None,1,1.283776853999825,59.02668770800028,None,59.02668770800028,None,60.37641672200016,None,1,1.6060893940002643,60.37641672200016,None,8.990243502999874,11.999147258999983,12.004115787000046,20.712387923999813,,,,,,,,,,,,,,,,,,,,,,,,,,,,,,,,,,,,,,,,,,,,,,,,,,,,,,,,,,,,,,,021020,0,1,0,1,1,1,2,0,2,2020_Feb_10_1403,listening_fmri,3.2.4,60.24377208614247,
0,parcelated_audio/34/34_2.ogg,,,,,,,,,0,0,0,0,0,0,0,0,0,0,0,0,,,,,,,,,0,0,0,0,0,1,1,1,,,,,,,,,,,,,,,,,,,,,,,,,,,,,,,,,,,,,,,,,,,,20.712733697999738,25.265985221999927,,,,,,,,,,,,,,,,,,,,,,,,,,,,,,,,,,,,,,,,,,,,,,,,,,,,,,,,,,,,,,,021020,0,1,0,1,1,1,2,0,2,2020_Feb_10_1403,listening_fmri,3.2.4,60.24377208614247,
0,parcelated_audio/34/34_3.ogg,,,,,,,,,0,0,0,0,0,0,0,0,0,0,0,0,,,,,,,,,0,0,0,0,0,2,2,2,,,,,,,,,,,,,,,,,,,,,,,,,,,,,,,,,,,,,,,,,,,,25.266324431999692,29.911139521999758,,,,,,,,,,,,,,,,,,,,,,,,,,,,,,,,,,,,,,,,,,,,,,,,,,,,,,,,,,,,,,,021020,0,1,0,1,1,1,2,0,2,2020_Feb_10_1403,listening_fmri,3.2.4,60.24377208614247,
0,parcelated_audio/34/34_4.ogg,,,,,,,,,0,0,0,0,0,0,0,0,0,0,0,0,,,,,,,,,0,0,0,0,0,3,3,3,,,,,,,,,,,,,,,,,,,,,,,,,,,,,,,,,,,,,,,,,,,,29.911480554999798,39.52561390599976,,,,,,,,,,,,,,,,,,,,,,,,,,,,,,,,,,,,,,,,,,,,,,,,,,,,,,,,,,,,,,,021020,0,1,0,1,1,1,2,0,2,2020_Feb_10_1403,listening_fmri,3.2.4,60.24377208614247,
0,parcelated_audio/34/34_5.ogg,,,,,,,,,0,0,0,0,0,0,0,0,0,0,0,0,,,,,,,,,0,0,0,0,0,4,4,4,,,,,,,,,,,,,,,,,,,,,,,,,,,,,,,,,,,,,,,,,,,,39.525966614000026,49.93631079399984,,,,,,,,,,,,,,,,,,,,,,,,,,,,,,,,,,,,,,,,,,,,,,,,,,,,,,,,,,,,,,,021020,0,1,0,1,1,1,2,0,2,2020_Feb_10_1403,listening_fmri,3.2.4,60.24377208614247,
0,parcelated_audio/34/34_6.ogg,,,,,,,,,0,0,0,0,0,0,0,0,0,0,0,0,,,,,,,,,0,0,0,0,0,5,5,5,,,,,,,,,,,,,,,,,,,,,,,,,,,,,,,,,,,,,,,,,,,,49.93664393600011,58.625582590999784,,,,,,,,,,,,,,,,,,,,,,,,,,,,,,,,,,,,,,,,,,,,,,,,,,,,,,,,,,,,,,,021020,0,1,0,1,1,1,2,0,2,2020_Feb_10_1403,listening_fmri,3.2.4,60.24377208614247,
0,parcelated_audio/34/34_7.ogg,,,,,,,,,0,0,0,0,0,0,0,0,0,0,0,0,,,,,,,,,0,0,0,0,0,6,6,6,,,,,,,,,,,,,,,,,,,,,,,,,,,,,,,,,,,,,,,,,,,,58.62592827499975,64.612250571,,,,,,,,,,,,,,,,,,,,,,,,,,,,,,,,,,,,,,,,,,,,,,,,,,,,,,,,,,,,,,,021020,0,1,0,1,1,1,2,0,2,2020_Feb_10_1403,listening_fmri,3.2.4,60.24377208614247,
0,parcelated_audio/34/34_8.ogg,,,,,,,,,0,0,0,0,0,0,0,0,0,0,0,0,,,,,,,,,0,0,0,0,0,7,7,7,,,,,,,,,,,,,,,,,,,,,,,,,,,,,,,,,,,,,,,,,,,,64.61286955600008,72.59849976499981,,,,,,,,,,,,,,,,,,,,,,,,,,,,,,,,,,,,,,,,,,,,,,,,,,,,,,,,,,,,,,,021020,0,1,0,1,1,1,2,0,2,2020_Feb_10_1403,listening_fmri,3.2.4,60.24377208614247,
0,parcelated_audio/34/34_9.ogg,,,,,,,,,0,0,0,0,0,0,0,0,0,0,0,0,,,,,,,,,0,0,0,0,0,8,8,8,,,,,,,,,,,,,,,,,,,,,,,,,,,,,,,,,,,,,,,,,,,,72.59886281299987,77.3923004620001,,,,,,,,,,,,,,,,,,,,,,,,,,,,,,,,,,,,,,,,,,,,,,,,,,,,,,,,,,,,,,,021020,0,1,0,1,1,1,2,0,2,2020_Feb_10_1403,listening_fmri,3.2.4,60.24377208614247,
0,parcelated_audio/34/34_10.ogg,,,,,,,,,0,0,0,0,0,0,0,0,0,0,0,0,,,,,,,,,0,0,0,0,0,9,9,9,,,,,,,,,,,,,,,,,,,,,,,,,,,,,,,,,,,,,,,,,,,,77.39264074899984,84.41242637799996,,,,,,,,,,,,,,,,,,,,,,,,,,,,,,,,,,,,,,,,,,,,,,,,,,,,,,,,,,,,,,,021020,0,1,0,1,1,1,2,0,2,2020_Feb_10_1403,listening_fmri,3.2.4,60.24377208614247,
0,parcelated_audio/34/34_11.ogg,,,,,,,,,0,0,0,0,0,0,0,0,0,0,0,0,,,,,,,,,0,0,0,0,0,10,10,10,,,,,,,,,,,,,,,,,,,,,,,,,,,,,,,,,,,,,,,,,,,,84.41276504799998,87.85111086400002,,,,,,,,,,,,,,,,,,,,,,,,,,,,,,,,,,,,,,,,,,,,,,,,,,,,,,,,,,,,,,,021020,0,1,0,1,1,1,2,0,2,2020_Feb_10_1403,listening_fmri,3.2.4,60.24377208614247,
0,parcelated_audio/34/34_12.ogg,,,,,,,,,0,0,0,0,0,0,0,0,0,0,0,0,,,,,,,,,0,0,0,0,0,11,11,11,,,,,,,,,,,,,,,,,,,,,,,,,,,,,,,,,,,,,,,,,,,,87.8514596760001,96.00046090299975,,,,,,,,,,,,,,,,,,,,,,,,,,,,,,,,,,,,,,,,,,,,,,,,,,,,,,,,,,,,,,,021020,0,1,0,1,1,1,2,0,2,2020_Feb_10_1403,listening_fmri,3.2.4,60.24377208614247,
0,parcelated_audio/34/34_13.ogg,,,,,,,,,0,0,0,0,0,0,0,0,0,0,0,0,,,,,,,,,0,0,0,0,0,12,12,12,,,,,,,,,,,,,,,,,,,,,,,,,,,,,,,,,,,,,,,,,,,,96.00084146500012,99.88303808599994,,,,,,,,,,,,,,,,,,,,,,,,,,,,,,,,,,,,,,,,,,,,,,,,,,,,,,,,,,,,,,,021020,0,1,0,1,1,1,2,0,2,2020_Feb_10_1403,listening_fmri,3.2.4,60.24377208614247,
0,parcelated_audio/34/34_14.ogg,,,,,,,,,0,0,0,0,0,0,0,0,0,0,0,0,,,,,,,,,0,0,0,0,0,13,13,13,,,,,,,,,,,,,,,,,,,,,,,,,,,,,,,,,,,,,,,,,,,,99.88344913999981,104.52430145299968,,,,,,,,,,,,,,,,,,,,,,,,,,,,,,,,,,,,,,,,,,,,,,,,,,,,,,,,,,,,,,,021020,0,1,0,1,1,1,2,0,2,2020_Feb_10_1403,listening_fmri,3.2.4,60.24377208614247,
0,parcelated_audio/34/34_15.ogg,,,,,,,,,0,0,0,0,0,0,0,0,0,0,0,0,,,,,,,,,0,0,0,0,0,14,14,14,,,,,,,,,,,,,,,,,,,,,,,,,,,,,,,,,,,,,,,,,,,,104.5247675769997,108.70130265099988,,,,,,,,,,,,,,,,,,,,,,,,,,,,,,,,,,,,,,,,,,,,,,,,,,,,,,,,,,,,,,,021020,0,1,0,1,1,1,2,0,2,2020_Feb_10_1403,listening_fmri,3.2.4,60.24377208614247,
0,parcelated_audio/34/34_16.ogg,,,,,,,,,0,0,0,0,0,0,0,0,0,0,0,0,,,,,,,,,0,0,0,0,0,15,15,15,,,,,,,,,,,,,,,,,,,,,,,,,,,,,,,,,,,,,,,,,,,,108.70168086400008,121.70862599800012,,,,,,,,,,,,,,,,,,,,,,,,,,,,,,,,,,,,,,,,,,,,,,,,,,,,,,,,,,,,,,,021020,0,1,0,1,1,1,2,0,2,2020_Feb_10_1403,listening_fmri,3.2.4,60.24377208614247,
0,parcelated_audio/34/34_17.ogg,,,,,,,,,0,0,0,0,0,0,0,0,0,0,0,0,,,,,,,,,0,0,0,0,0,16,16,16,,,,,,,,,,,,,,,,,,,,,,,,,,,,,,,,,,,,,,,,,,,,121.708975044,130.64624076499967,,,,,,,,,,,,,,,,,,,,,,,,,,,,,,,,,,,,,,,,,,,,,,,,,,,,,,,,,,,,,,,021020,0,1,0,1,1,1,2,0,2,2020_Feb_10_1403,listening_fmri,3.2.4,60.24377208614247,
0,parcelated_audio/34/34_18.ogg,,,,,,,,,0,0,0,0,0,0,0,0,0,0,0,0,,,,,,,,,0,0,0,0,0,17,17,17,,,,,,,,,,,,,,,,,,,,,,,,,,,,,,,,,,,,,,,,,,,,130.64659192399995,136.50438494799982,,,,,,,,,,,,,,,,,,,,,,,,,,,,,,,,,,,,,,,,,,,,,,,,,,,,,,,,,,,,,,,021020,0,1,0,1,1,1,2,0,2,2020_Feb_10_1403,listening_fmri,3.2.4,60.24377208614247,
0,parcelated_audio/34/34_19.ogg,,,,,,,,,0,0,0,0,0,0,0,0,0,0,0,0,,,,,,,,,0,0,0,0,0,18,18,18,,,,,,,,,,,,,,,,,,,,,,,,,,,,,,,,,,,,,,,,,,,,136.5047262009998,142.73278495499972,,,,,,,,,,,,,,,,,,,,,,,,,,,,,,,,,,,,,,,,,,,,,,,,,,,,,,,,,,,,,,,021020,0,1,0,1,1,1,2,0,2,2020_Feb_10_1403,listening_fmri,3.2.4,60.24377208614247,
0,parcelated_audio/34/34_20.ogg,,,,,,,,,0,0,0,0,0,0,0,0,0,0,0,0,,,,,,,,,0,0,0,0,0,19,19,19,,,,,,,,,,,,,,,,,,,,,,,,,,,,,,,,,,,,,,,,,,,,142.73312489299997,151.17140475899987,,,,,,,,,,,,,,,,,,,,,,,,,,,,,,,,,,,,,,,,,,,,,,,,,,,,,,,,,,,,,,,021020,0,1,0,1,1,1,2,0,2,2020_Feb_10_1403,listening_fmri,3.2.4,60.24377208614247,
0,parcelated_audio/34/34_21.ogg,,,,,,,,,0,0,0,0,0,0,0,0,0,0,0,0,,,,,,,,,0,0,0,0,0,20,20,20,,,,,,,,,,,,,,,,,,,,,,,,,,,,,,,,,,,,,,,,,,,,151.17170501500004,157.52721360099986,,,,,,,,,,,,,,,,,,,,,,,,,,,,,,,,,,,,,,,,,,,,,,,,,,,,,,,,,,,,,,,021020,0,1,0,1,1,1,2,0,2,2020_Feb_10_1403,listening_fmri,3.2.4,60.24377208614247,
0,parcelated_audio/34/34_22.ogg,,,,,,,,,0,0,0,0,0,0,0,0,0,0,0,0,,,,,,,,,0,0,0,0,0,21,21,21,,,,,,,,,,,,,,,,,,,,,,,,,,,,,,,,,,,,,,,,,,,,157.52852176399983,162.63939769499984,,,,,,,,,,,,,,,,,,,,,,,,,,,,,,,,,,,,,,,,,,,,,,,,,,,,,,,,,,,,,,,021020,0,1,0,1,1,1,2,0,2,2020_Feb_10_1403,listening_fmri,3.2.4,60.24377208614247,
0,parcelated_audio/34/34_23.ogg,,,,,,,,,0,0,0,0,0,0,0,0,0,0,0,0,,,,,,,,,0,0,0,0,0,22,22,22,,,,,,,,,,,,,,,,,,,,,,,,,,,,,,,,,,,,,,,,,,,,162.6397375229999,170.4113587679999,,,,,,,,,,,,,,,,,,,,,,,,,,,,,,,,,,,,,,,,,,,,,,,,,,,,,,,,,,,,,,,021020,0,1,0,1,1,1,2,0,2,2020_Feb_10_1403,listening_fmri,3.2.4,60.24377208614247,
0,parcelated_audio/34/34_24.ogg,,,,,,,,,0,0,0,0,0,0,0,0,0,0,0,0,,,,,,,,,0,0,0,0,0,23,23,23,,,,,,,,,,,,,,,,,,,,,,,,,,,,,,,,,,,,,,,,,,,,170.41192865699986,176.1990971340001,,,,,,,,,,,,,,,,,,,,,,,,,,,,,,,,,,,,,,,,,,,,,,,,,,,,,,,,,,,,,,,021020,0,1,0,1,1,1,2,0,2,2020_Feb_10_1403,listening_fmri,3.2.4,60.24377208614247,
0,parcelated_audio/34/34_25.ogg,,,,,,,,,0,0,0,0,0,0,0,0,0,0,0,0,,,,,,,,,0,0,0,0,0,24,24,24,,,,,,,,,,,,,,,,,,,,,,,,,,,,,,,,,,,,,,,,,,,,176.19944190199976,182.76042844199992,,,,,,,,,,,,,,,,,,,,,,,,,,,,,,,,,,,,,,,,,,,,,,,,,,,,,,,,,,,,,,,021020,0,1,0,1,1,1,2,0,2,2020_Feb_10_1403,listening_fmri,3.2.4,60.24377208614247,
0,parcelated_audio/34/34_26.ogg,,,,,,,,,0,0,0,0,0,0,0,0,0,0,0,0,,,,,,,,,0,0,0,0,0,25,25,25,,,,,,,,,,,,,,,,,,,,,,,,,,,,,,,,,,,,,,,,,,,,182.7607332749999,192.4083733739999,,,,,,,,,,,,,,,,,,,,,,,,,,,,,,,,,,,,,,,,,,,,,,,,,,,,,,,,,,,,,,,021020,0,1,0,1,1,1,2,0,2,2020_Feb_10_1403,listening_fmri,3.2.4,60.24377208614247,
0,parcelated_audio/34/34_27.ogg,,,,,,,,,0,0,0,0,0,0,0,0,0,0,0,0,,,,,,,,,0,0,0,0,0,26,26,26,,,,,,,,,,,,,,,,,,,,,,,,,,,,,,,,,,,,,,,,,,,,192.40866257900007,199.8949745330001,,,,,,,,,,,,,,,,,,,,,,,,,,,,,,,,,,,,,,,,,,,,,,,,,,,,,,,,,,,,,,,021020,0,1,0,1,1,1,2,0,2,2020_Feb_10_1403,listening_fmri,3.2.4,60.24377208614247,
0,,,,,,,,,,0,0,0,0,0,0,0,0,0,0,0,0,,,,,,,,,0,0,0,0,,,,,,,,,,,,,,,,,,,,,,,,,,,,,,,,,,,,,,,,,,,,,,,,,,,,,,,,,,,,,,,,,,,,,,,,,,,,,,,,,,,,,,,,,,,,,,,,,,,,,,,,,,,,,,,,021020,0,1,0,1,1,1,2,0,2,2020_Feb_10_1403,listening_fmri,3.2.4,60.24377208614247,
0,,,,,,,,,,0,0,0,0,0,0,0,0,0,0,0,0,,,,,,,,,,,,,,,,,,,,,,,,,,,,,,,,,,,,,,199.89537167299977,205.8824748789998,252.90978774700034,None,,,,,,,,,,,,,,,,,,,,,258.9108328880002,None,258.9108328880002,None,,,,,,,,,,,,,,,,,,,,,,,,,,,,,,,,,,,,,,,,,,,,,,,,,,,,,,,,,,,021020,0,1,0,1,1,1,2,0,2,2020_Feb_10_1403,listening_fmri,3.2.4,60.24377208614247,
0,,,,,,,,,,0,0,0,0,0,0,0,0,,,,,,,,,,,,,,,,,,,,,,,,,,,,,,,,,,,,,,,,,,,,,,,,,,,,,,,,,,,,,,,,,,,,,,,,,,,,,,,,,,,,,,,,,,,,,,,,,,,,,,,,,,,,,,,,,,,,,,,,,,,,,,,,021020,0,1,0,1,1,1,2,0,2,2020_Feb_10_1403,listening_fmri,3.2.4,60.24377208614247,
1,parcelated_audio/43/43_1.ogg,,,,,,,,,0,0,0,0,0,1,1,1,0,0,0,0,,,,,,,,,0,0,0,0,0,0,0,0,,,,,,,,,,,,,,,,,,,,,,,,,,259.9100841270001,None,259.9100841270001,None,1,1.158543663999808,259.9100841270001,None,259.9100841270001,None,261.09381848600015,None,1,2.362774894999802,261.09381848600015,None,210.4567731789998,213.4668476480001,213.4738888669999,221.05134693399987,,,,,,,,,,,,,,,,,,,,,,,,,,,,,,,,,,,,,,,,,,,,,,,,,,,,,,,,,,,,,,,021020,0,1,0,1,1,1,2,0,2,2020_Feb_10_1403,listening_fmri,3.2.4,60.24377208614247,
1,parcelated_audio/43/43_2.ogg,,,,,,,,,0,0,0,0,0,1,1,1,0,0,0,0,,,,,,,,,0,0,0,0,0,1,1,1,,,,,,,,,,,,,,,,,,,,,,,,,,,,,,,,,,,,,,,,,,,,221.05163396099988,224.82434734199978,,,,,,,,,,,,,,,,,,,,,,,,,,,,,,,,,,,,,,,,,,,,,,,,,,,,,,,,,,,,,,,021020,0,1,0,1,1,1,2,0,2,2020_Feb_10_1403,listening_fmri,3.2.4,60.24377208614247,
1,parcelated_audio/43/43_3.ogg,,,,,,,,,0,0,0,0,0,1,1,1,0,0,0,0,,,,,,,,,0,0,0,0,0,2,2,2,,,,,,,,,,,,,,,,,,,,,,,,,,,,,,,,,,,,,,,,,,,,224.8248918270001,233.69936835599992,,,,,,,,,,,,,,,,,,,,,,,,,,,,,,,,,,,,,,,,,,,,,,,,,,,,,,,,,,,,,,,021020,0,1,0,1,1,1,2,0,2,2020_Feb_10_1403,listening_fmri,3.2.4,60.24377208614247,
1,parcelated_audio/43/43_4.ogg,,,,,,,,,0,0,0,0,0,1,1,1,0,0,0,0,,,,,,,,,0,0,0,0,0,3,3,3,,,,,,,,,,,,,,,,,,,,,,,,,,,,,,,,,,,,,,,,,,,,233.69983238199984,242.1953836949997,,,,,,,,,,,,,,,,,,,,,,,,,,,,,,,,,,,,,,,,,,,,,,,,,,,,,,,,,,,,,,,021020,0,1,0,1,1,1,2,0,2,2020_Feb_10_1403,listening_fmri,3.2.4,60.24377208614247,
1,parcelated_audio/43/43_5.ogg,,,,,,,,,0,0,0,0,0,1,1,1,0,0,0,0,,,,,,,,,0,0,0,0,0,4,4,4,,,,,,,,,,,,,,,,,,,,,,,,,,,,,,,,,,,,,,,,,,,,242.19599260799987,251.43026783699997,,,,,,,,,,,,,,,,,,,,,,,,,,,,,,,,,,,,,,,,,,,,,,,,,,,,,,,,,,,,,,,021020,0,1,0,1,1,1,2,0,2,2020_Feb_10_1403,listening_fmri,3.2.4,60.24377208614247,
1,parcelated_audio/43/43_6.ogg,,,,,,,,,0,0,0,0,0,1,1,1,0,0,0,0,,,,,,,,,0,0,0,0,0,5,5,5,,,,,,,,,,,,,,,,,,,,,,,,,,,,,,,,,,,,,,,,,,,,251.43066880800006,260.5659514179997,,,,,,,,,,,,,,,,,,,,,,,,,,,,,,,,,,,,,,,,,,,,,,,,,,,,,,,,,,,,,,,021020,0,1,0,1,1,1,2,0,2,2020_Feb_10_1403,listening_fmri,3.2.4,60.24377208614247,
1,parcelated_audio/43/43_7.ogg,,,,,,,,,0,0,0,0,0,1,1,1,0,0,0,0,,,,,,,,,0,0,0,0,0,6,6,6,,,,,,,,,,,,,,,,,,,,,,,,,,,,,,,,,,,,,,,,,,,,260.5663954659999,265.3111355709998,,,,,,,,,,,,,,,,,,,,,,,,,,,,,,,,,,,,,,,,,,,,,,,,,,,,,,,,,,,,,,,021020,0,1,0,1,1,1,2,0,2,2020_Feb_10_1403,listening_fmri,3.2.4,60.24377208614247,
1,parcelated_audio/43/43_8.ogg,,,,,,,,,0,0,0,0,0,1,1,1,0,0,0,0,,,,,,,,,0,0,0,0,0,7,7,7,,,,,,,,,,,,,,,,,,,,,,,,,,,,,,,,,,,,,,,,,,,,265.31164523300004,271.861204324,,,,,,,,,,,,,,,,,,,,,,,,,,,,,,,,,,,,,,,,,,,,,,,,,,,,,,,,,,,,,,,021020,0,1,0,1,1,1,2,0,2,2020_Feb_10_1403,listening_fmri,3.2.4,60.24377208614247,
1,parcelated_audio/43/43_9.ogg,,,,,,,,,0,0,0,0,0,1,1,1,0,0,0,0,,,,,,,,,0,0,0,0,0,8,8,8,,,,,,,,,,,,,,,,,,,,,,,,,,,,,,,,,,,,,,,,,,,,271.86154216399973,276.46035245799976,,,,,,,,,,,,,,,,,,,,,,,,,,,,,,,,,,,,,,,,,,,,,,,,,,,,,,,,,,,,,,,021020,0,1,0,1,1,1,2,0,2,2020_Feb_10_1403,listening_fmri,3.2.4,60.24377208614247,
1,parcelated_audio/43/43_10.ogg,,,,,,,,,0,0,0,0,0,1,1,1,0,0,0,0,,,,,,,,,0,0,0,0,0,9,9,9,,,,,,,,,,,,,,,,,,,,,,,,,,,,,,,,,,,,,,,,,,,,276.460881129,281.32789042800005,,,,,,,,,,,,,,,,,,,,,,,,,,,,,,,,,,,,,,,,,,,,,,,,,,,,,,,,,,,,,,,021020,0,1,0,1,1,1,2,0,2,2020_Feb_10_1403,listening_fmri,3.2.4,60.24377208614247,
1,parcelated_audio/43/43_11.ogg,,,,,,,,,0,0,0,0,0,1,1,1,0,0,0,0,,,,,,,,,0,0,0,0,0,10,10,10,,,,,,,,,,,,,,,,,,,,,,,,,,,,,,,,,,,,,,,,,,,,281.32823463199975,292.36957189899977,,,,,,,,,,,,,,,,,,,,,,,,,,,,,,,,,,,,,,,,,,,,,,,,,,,,,,,,,,,,,,,021020,0,1,0,1,1,1,2,0,2,2020_Feb_10_1403,listening_fmri,3.2.4,60.24377208614247,
1,parcelated_audio/43/43_12.ogg,,,,,,,,,0,0,0,0,0,1,1,1,0,0,0,0,,,,,,,,,0,0,0,0,0,11,11,11,,,,,,,,,,,,,,,,,,,,,,,,,,,,,,,,,,,,,,,,,,,,292.3699296679997,298.4489007070001,,,,,,,,,,,,,,,,,,,,,,,,,,,,,,,,,,,,,,,,,,,,,,,,,,,,,,,,,,,,,,,021020,0,1,0,1,1,1,2,0,2,2020_Feb_10_1403,listening_fmri,3.2.4,60.24377208614247,
1,parcelated_audio/43/43_13.ogg,,,,,,,,,0,0,0,0,0,1,1,1,0,0,0,0,,,,,,,,,0,0,0,0,0,12,12,12,,,,,,,,,,,,,,,,,,,,,,,,,,,,,,,,,,,,,,,,,,,,298.44924610199996,306.69891311799984,,,,,,,,,,,,,,,,,,,,,,,,,,,,,,,,,,,,,,,,,,,,,,,,,,,,,,,,,,,,,,,021020,0,1,0,1,1,1,2,0,2,2020_Feb_10_1403,listening_fmri,3.2.4,60.24377208614247,
1,parcelated_audio/43/43_14.ogg,,,,,,,,,0,0,0,0,0,1,1,1,0,0,0,0,,,,,,,,,0,0,0,0,0,13,13,13,,,,,,,,,,,,,,,,,,,,,,,,,,,,,,,,,,,,,,,,,,,,306.6992105909999,315.21250080599975,,,,,,,,,,,,,,,,,,,,,,,,,,,,,,,,,,,,,,,,,,,,,,,,,,,,,,,,,,,,,,,021020,0,1,0,1,1,1,2,0,2,2020_Feb_10_1403,listening_fmri,3.2.4,60.24377208614247,
1,parcelated_audio/43/43_15.ogg,,,,,,,,,0,0,0,0,0,1,1,1,0,0,0,0,,,,,,,,,0,0,0,0,0,14,14,14,,,,,,,,,,,,,,,,,,,,,,,,,,,,,,,,,,,,,,,,,,,,315.21286710799995,319.5595502880001,,,,,,,,,,,,,,,,,,,,,,,,,,,,,,,,,,,,,,,,,,,,,,,,,,,,,,,,,,,,,,,021020,0,1,0,1,1,1,2,0,2,2020_Feb_10_1403,listening_fmri,3.2.4,60.24377208614247,
1,parcelated_audio/43/43_16.ogg,,,,,,,,,0,0,0,0,0,1,1,1,0,0,0,0,,,,,,,,,0,0,0,0,0,15,15,15,,,,,,,,,,,,,,,,,,,,,,,,,,,,,,,,,,,,,,,,,,,,319.5599101069997,324.09234526599994,,,,,,,,,,,,,,,,,,,,,,,,,,,,,,,,,,,,,,,,,,,,,,,,,,,,,,,,,,,,,,,021020,0,1,0,1,1,1,2,0,2,2020_Feb_10_1403,listening_fmri,3.2.4,60.24377208614247,
1,parcelated_audio/43/43_17.ogg,,,,,,,,,0,0,0,0,0,1,1,1,0,0,0,0,,,,,,,,,0,0,0,0,0,16,16,16,,,,,,,,,,,,,,,,,,,,,,,,,,,,,,,,,,,,,,,,,,,,324.092690294,327.8650975999999,,,,,,,,,,,,,,,,,,,,,,,,,,,,,,,,,,,,,,,,,,,,,,,,,,,,,,,,,,,,,,,021020,0,1,0,1,1,1,2,0,2,2020_Feb_10_1403,listening_fmri,3.2.4,60.24377208614247,
1,parcelated_audio/43/43_18.ogg,,,,,,,,,0,0,0,0,0,1,1,1,0,0,0,0,,,,,,,,,0,0,0,0,0,17,17,17,,,,,,,,,,,,,,,,,,,,,,,,,,,,,,,,,,,,,,,,,,,,327.865454793,330.071199641,,,,,,,,,,,,,,,,,,,,,,,,,,,,,,,,,,,,,,,,,,,,,,,,,,,,,,,,,,,,,,,021020,0,1,0,1,1,1,2,0,2,2020_Feb_10_1403,listening_fmri,3.2.4,60.24377208614247,
1,parcelated_audio/43/43_19.ogg,,,,,,,,,0,0,0,0,0,1,1,1,0,0,0,0,,,,,,,,,0,0,0,0,0,18,18,18,,,,,,,,,,,,,,,,,,,,,,,,,,,,,,,,,,,,,,,,,,,,330.0715438110001,333.70521357300004,,,,,,,,,,,,,,,,,,,,,,,,,,,,,,,,,,,,,,,,,,,,,,,,,,,,,,,,,,,,,,,021020,0,1,0,1,1,1,2,0,2,2020_Feb_10_1403,listening_fmri,3.2.4,60.24377208614247,
1,parcelated_audio/43/43_20.ogg,,,,,,,,,0,0,0,0,0,1,1,1,0,0,0,0,,,,,,,,,0,0,0,0,0,19,19,19,,,,,,,,,,,,,,,,,,,,,,,,,,,,,,,,,,,,,,,,,,,,333.705558269,340.89950991399974,,,,,,,,,,,,,,,,,,,,,,,,,,,,,,,,,,,,,,,,,,,,,,,,,,,,,,,,,,,,,,,021020,0,1,0,1,1,1,2,0,2,2020_Feb_10_1403,listening_fmri,3.2.4,60.24377208614247,
1,parcelated_audio/43/43_21.ogg,,,,,,,,,0,0,0,0,0,1,1,1,0,0,0,0,,,,,,,,,0,0,0,0,0,20,20,20,,,,,,,,,,,,,,,,,,,,,,,,,,,,,,,,,,,,,,,,,,,,340.8997647279998,343.3682168979999,,,,,,,,,,,,,,,,,,,,,,,,,,,,,,,,,,,,,,,,,,,,,,,,,,,,,,,,,,,,,,,021020,0,1,0,1,1,1,2,0,2,2020_Feb_10_1403,listening_fmri,3.2.4,60.24377208614247,
1,parcelated_audio/43/43_22.ogg,,,,,,,,,0,0,0,0,0,1,1,1,0,0,0,0,,,,,,,,,0,0,0,0,0,21,21,21,,,,,,,,,,,,,,,,,,,,,,,,,,,,,,,,,,,,,,,,,,,,343.3685605749997,346.8509069900001,,,,,,,,,,,,,,,,,,,,,,,,,,,,,,,,,,,,,,,,,,,,,,,,,,,,,,,,,,,,,,,021020,0,1,0,1,1,1,2,0,2,2020_Feb_10_1403,listening_fmri,3.2.4,60.24377208614247,
1,parcelated_audio/43/43_23.ogg,,,,,,,,,0,0,0,0,0,1,1,1,0,0,0,0,,,,,,,,,0,0,0,0,0,22,22,22,,,,,,,,,,,,,,,,,,,,,,,,,,,,,,,,,,,,,,,,,,,,346.8513166550001,352.88189389399986,,,,,,,,,,,,,,,,,,,,,,,,,,,,,,,,,,,,,,,,,,,,,,,,,,,,,,,,,,,,,,,021020,0,1,0,1,1,1,2,0,2,2020_Feb_10_1403,listening_fmri,3.2.4,60.24377208614247,
1,parcelated_audio/43/43_24.ogg,,,,,,,,,0,0,0,0,0,1,1,1,0,0,0,0,,,,,,,,,0,0,0,0,0,23,23,23,,,,,,,,,,,,,,,,,,,,,,,,,,,,,,,,,,,,,,,,,,,,352.8821938279998,359.20193737399995,,,,,,,,,,,,,,,,,,,,,,,,,,,,,,,,,,,,,,,,,,,,,,,,,,,,,,,,,,,,,,,021020,0,1,0,1,1,1,2,0,2,2020_Feb_10_1403,listening_fmri,3.2.4,60.24377208614247,
1,parcelated_audio/43/43_25.ogg,,,,,,,,,0,0,0,0,0,1,1,1,0,0,0,0,,,,,,,,,0,0,0,0,0,24,24,24,,,,,,,,,,,,,,,,,,,,,,,,,,,,,,,,,,,,,,,,,,,,359.2022823289999,364.23333152999976,,,,,,,,,,,,,,,,,,,,,,,,,,,,,,,,,,,,,,,,,,,,,,,,,,,,,,,,,,,,,,,021020,0,1,0,1,1,1,2,0,2,2020_Feb_10_1403,listening_fmri,3.2.4,60.24377208614247,
1,parcelated_audio/43/43_26.ogg,,,,,,,,,0,0,0,0,0,1,1,1,0,0,0,0,,,,,,,,,0,0,0,0,0,25,25,25,,,,,,,,,,,,,,,,,,,,,,,,,,,,,,,,,,,,,,,,,,,,364.2336779289999,372.8134607709999,,,,,,,,,,,,,,,,,,,,,,,,,,,,,,,,,,,,,,,,,,,,,,,,,,,,,,,,,,,,,,,021020,0,1,0,1,1,1,2,0,2,2020_Feb_10_1403,listening_fmri,3.2.4,60.24377208614247,
1,parcelated_audio/43/43_27.ogg,,,,,,,,,0,0,0,0,0,1,1,1,0,0,0,0,,,,,,,,,0,0,0,0,0,26,26,26,,,,,,,,,,,,,,,,,,,,,,,,,,,,,,,,,,,,,,,,,,,,372.8138012659997,377.1952065129999,,,,,,,,,,,,,,,,,,,,,,,,,,,,,,,,,,,,,,,,,,,,,,,,,,,,,,,,,,,,,,,021020,0,1,0,1,1,1,2,0,2,2020_Feb_10_1403,listening_fmri,3.2.4,60.24377208614247,
1,parcelated_audio/43/43_28.ogg,,,,,,,,,0,0,0,0,0,1,1,1,0,0,0,0,,,,,,,,,0,0,0,0,0,27,27,27,,,,,,,,,,,,,,,,,,,,,,,,,,,,,,,,,,,,,,,,,,,,377.19554961999984,382.176257306,,,,,,,,,,,,,,,,,,,,,,,,,,,,,,,,,,,,,,,,,,,,,,,,,,,,,,,,,,,,,,,021020,0,1,0,1,1,1,2,0,2,2020_Feb_10_1403,listening_fmri,3.2.4,60.24377208614247,
1,parcelated_audio/43/43_29.ogg,,,,,,,,,0,0,0,0,0,1,1,1,0,0,0,0,,,,,,,,,0,0,0,0,0,28,28,28,,,,,,,,,,,,,,,,,,,,,,,,,,,,,,,,,,,,,,,,,,,,382.17660037999985,388.32198246400003,,,,,,,,,,,,,,,,,,,,,,,,,,,,,,,,,,,,,,,,,,,,,,,,,,,,,,,,,,,,,,,021020,0,1,0,1,1,1,2,0,2,2020_Feb_10_1403,listening_fmri,3.2.4,60.24377208614247,
1,,,,,,,,,,0,0,0,0,0,1,1,1,0,0,0,0,,,,,,,,,0,0,0,0,,,,,,,,,,,,,,,,,,,,,,,,,,,,,,,,,,,,,,,,,,,,,,,,,,,,,,,,,,,,,,,,,,,,,,,,,,,,,,,,,,,,,,,,,,,,,,,,,,,,,,,,,,,,,,,,021020,0,1,0,1,1,1,2,0,2,2020_Feb_10_1403,listening_fmri,3.2.4,60.24377208614247,
1,,,,,,,,,,0,0,0,0,0,1,1,1,0,0,0,0,,,,,,,,,,,,,,,,,,,,,,,,,,,,,,,,,,,,,,388.32247862899976,394.32856704799997,441.338472553,None,,,,,,,,,,,,,,,,,,,,,447.3562181880002,None,447.3562181880002,None,,,,,,,,,,,,,,,,,,,,,,,,,,,,,,,,,,,,,,,,,,,,,,,,,,,,,,,,,,,021020,0,1,0,1,1,1,2,0,2,2020_Feb_10_1403,listening_fmri,3.2.4,60.24377208614247,
1,,,,,,,,,,0,0,0,0,0,1,1,1,,,,,,,,,,,,,,,,,,,,,,,,,,,,,,,,,,,,,,,,,,,,,,,,,,,,,,,,,,,,,,,,,,,,,,,,,,,,,,,,,,,,,,,,,,,,,,,,,,,,,,,,,,,,,,,,,,,,,,,,,,,,,,,,021020,0,1,0,1,1,1,2,0,2,2020_Feb_10_1403,listening_fmri,3.2.4,60.24377208614247,
2,,,,,,,,,,0,0,0,0,0,2,2,2,0,0,0,0,0,0,0,0,,,,,,,,,,,,,,,,,0,0,0,0,,,,,,,,,,,,,,,,,,448.36008863899997,None,448.36008863899997,None,1,1.319548677000057,448.36008863899997,None,448.36008863899997,None,,,,,,,,,,,,,,,449.71125592199996,None,1,2.3474002160000964,449.71125592199996,None,449.71125592199996,None,452.10629575400026,None,452.10629575400026,None,452.10629575400026,None,1,1.672235168000043,452.10629575400026,None,453.80537550200006,None,1,1.480278890000136,453.80537550200006,None,453.80537550200006,None,455.3884427480002,None,455.3884427480002,None,455.3884427480002,None,455.3884427480002,None,455.3884427480002,None,455.3884427480002,None,455.3884427480002,None,,,,,,,,,,,,,,,,,,,021020,0,1,0,1,1,1,2,0,2,2020_Feb_10_1403,listening_fmri,3.2.4,60.24377208614247,
2,,,,,,,,,,0,0,0,0,0,2,2,2,0,0,0,0,0,0,0,0,,,,,,,,,,,,,,,,,,,,,,,,,,,,,,,,,,,,,,,,,,,,,,,,,,,,,,,,,,,,,,,,,,,,,,,,,,,,,,,,,,,,,,,,,,,,,,,,,,,,,,472.921846876,None,1,1.1307928910000555,472.921846876,None,472.921846876,None,474.0932375699999,None,474.0932375699999,None,474.0932375699999,None,1,1.7493978080001398,474.0932375699999,None,021020,0,1,0,1,1,1,2,0,2,2020_Feb_10_1403,listening_fmri,3.2.4,60.24377208614247,
2,parcelated_audio/32/32_1.ogg,,,,,,,,,0,0,0,0,0,2,2,2,0,0,0,0,,,,,,,,,0,0,0,0,0,0,0,0,,,,,,,,,,,,,,,,,,,,,,,,,,,,,,,,,,,,475.8602374500001,None,1,2.2543862829998034,475.8602374500001,None,425.11838937599987,428.13377099399986,428.146409596,439.504602085,,,,,,,,,,,,,,,,,,,,,,,,,,,,,,,,,,,,,,,,,,,,,,,,,,,,,,,,,,,,,,,021020,0,1,0,1,1,1,2,0,2,2020_Feb_10_1403,listening_fmri,3.2.4,60.24377208614247,
2,parcelated_audio/32/32_2.ogg,,,,,,,,,0,0,0,0,0,2,2,2,0,0,0,0,,,,,,,,,0,0,0,0,0,1,1,1,,,,,,,,,,,,,,,,,,,,,,,,,,,,,,,,,,,,,,,,,,,,439.5053094929999,447.82734465099975,,,,,,,,,,,,,,,,,,,,,,,,,,,,,,,,,,,,,,,,,,,,,,,,,,,,,,,,,,,,,,,021020,0,1,0,1,1,1,2,0,2,2020_Feb_10_1403,listening_fmri,3.2.4,60.24377208614247,
2,parcelated_audio/32/32_3.ogg,,,,,,,,,0,0,0,0,0,2,2,2,0,0,0,0,,,,,,,,,0,0,0,0,0,2,2,2,,,,,,,,,,,,,,,,,,,,,,,,,,,,,,,,,,,,,,,,,,,,447.8277334559998,453.40127682499997,,,,,,,,,,,,,,,,,,,,,,,,,,,,,,,,,,,,,,,,,,,,,,,,,,,,,,,,,,,,,,,021020,0,1,0,1,1,1,2,0,2,2020_Feb_10_1403,listening_fmri,3.2.4,60.24377208614247,
2,parcelated_audio/32/32_4.ogg,,,,,,,,,0,0,0,0,0,2,2,2,0,0,0,0,,,,,,,,,0,0,0,0,0,3,3,3,,,,,,,,,,,,,,,,,,,,,,,,,,,,,,,,,,,,,,,,,,,,453.4016718130001,460.10143558599975,,,,,,,,,,,,,,,,,,,,,,,,,,,,,,,,,,,,,,,,,,,,,,,,,,,,,,,,,,,,,,,021020,0,1,0,1,1,1,2,0,2,2020_Feb_10_1403,listening_fmri,3.2.4,60.24377208614247,
2,parcelated_audio/32/32_5.ogg,,,,,,,,,0,0,0,0,0,2,2,2,0,0,0,0,,,,,,,,,0,0,0,0,0,4,4,4,,,,,,,,,,,,,,,,,,,,,,,,,,,,,,,,,,,,,,,,,,,,460.101795263,471.7785602449999,,,,,,,,,,,,,,,,,,,,,,,,,,,,,,,,,,,,,,,,,,,,,,,,,,,,,,,,,,,,,,,021020,0,1,0,1,1,1,2,0,2,2020_Feb_10_1403,listening_fmri,3.2.4,60.24377208614247,
2,parcelated_audio/32/32_6.ogg,,,,,,,,,0,0,0,0,0,2,2,2,0,0,0,0,,,,,,,,,0,0,0,0,0,5,5,5,,,,,,,,,,,,,,,,,,,,,,,,,,,,,,,,,,,,,,,,,,,,471.7789757219998,480.26228907199993,,,,,,,,,,,,,,,,,,,,,,,,,,,,,,,,,,,,,,,,,,,,,,,,,,,,,,,,,,,,,,,021020,0,1,0,1,1,1,2,0,2,2020_Feb_10_1403,listening_fmri,3.2.4,60.24377208614247,
2,parcelated_audio/32/32_7.ogg,,,,,,,,,0,0,0,0,0,2,2,2,0,0,0,0,,,,,,,,,0,0,0,0,0,6,6,6,,,,,,,,,,,,,,,,,,,,,,,,,,,,,,,,,,,,,,,,,,,,480.2626276269998,483.66599697699985,,,,,,,,,,,,,,,,,,,,,,,,,,,,,,,,,,,,,,,,,,,,,,,,,,,,,,,,,,,,,,,021020,0,1,0,1,1,1,2,0,2,2020_Feb_10_1403,listening_fmri,3.2.4,60.24377208614247,
2,parcelated_audio/32/32_8.ogg,,,,,,,,,0,0,0,0,0,2,2,2,0,0,0,0,,,,,,,,,0,0,0,0,0,7,7,7,,,,,,,,,,,,,,,,,,,,,,,,,,,,,,,,,,,,,,,,,,,,483.66630275399984,488.13359053099975,,,,,,,,,,,,,,,,,,,,,,,,,,,,,,,,,,,,,,,,,,,,,,,,,,,,,,,,,,,,,,,021020,0,1,0,1,1,1,2,0,2,2020_Feb_10_1403,listening_fmri,3.2.4,60.24377208614247,
2,parcelated_audio/32/32_9.ogg,,,,,,,,,0,0,0,0,0,2,2,2,0,0,0,0,,,,,,,,,0,0,0,0,0,8,8,8,,,,,,,,,,,,,,,,,,,,,,,,,,,,,,,,,,,,,,,,,,,,488.1340654119999,496.8074899029998,,,,,,,,,,,,,,,,,,,,,,,,,,,,,,,,,,,,,,,,,,,,,,,,,,,,,,,,,,,,,,,021020,0,1,0,1,1,1,2,0,2,2020_Feb_10_1403,listening_fmri,3.2.4,60.24377208614247,
2,parcelated_audio/32/32_10.ogg,,,,,,,,,0,0,0,0,0,2,2,2,0,0,0,0,,,,,,,,,0,0,0,0,0,9,9,9,,,,,,,,,,,,,,,,,,,,,,,,,,,,,,,,,,,,,,,,,,,,496.8079912959997,501.47336232099997,,,,,,,,,,,,,,,,,,,,,,,,,,,,,,,,,,,,,,,,,,,,,,,,,,,,,,,,,,,,,,,021020,0,1,0,1,1,1,2,0,2,2020_Feb_10_1403,listening_fmri,3.2.4,60.24377208614247,
2,parcelated_audio/32/32_11.ogg,,,,,,,,,0,0,0,0,0,2,2,2,0,0,0,0,,,,,,,,,0,0,0,0,0,10,10,10,,,,,,,,,,,,,,,,,,,,,,,,,,,,,,,,,,,,,,,,,,,,501.4737076030001,507.64444152299984,,,,,,,,,,,,,,,,,,,,,,,,,,,,,,,,,,,,,,,,,,,,,,,,,,,,,,,,,,,,,,,021020,0,1,0,1,1,1,2,0,2,2020_Feb_10_1403,listening_fmri,3.2.4,60.24377208614247,
2,parcelated_audio/32/32_12.ogg,,,,,,,,,0,0,0,0,0,2,2,2,0,0,0,0,,,,,,,,,0,0,0,0,0,11,11,11,,,,,,,,,,,,,,,,,,,,,,,,,,,,,,,,,,,,,,,,,,,,507.644797554,517.1022009869998,,,,,,,,,,,,,,,,,,,,,,,,,,,,,,,,,,,,,,,,,,,,,,,,,,,,,,,,,,,,,,,021020,0,1,0,1,1,1,2,0,2,2020_Feb_10_1403,listening_fmri,3.2.4,60.24377208614247,
2,parcelated_audio/32/32_13.ogg,,,,,,,,,0,0,0,0,0,2,2,2,0,0,0,0,,,,,,,,,0,0,0,0,0,12,12,12,,,,,,,,,,,,,,,,,,,,,,,,,,,,,,,,,,,,,,,,,,,,517.1027112219999,526.7110353109997,,,,,,,,,,,,,,,,,,,,,,,,,,,,,,,,,,,,,,,,,,,,,,,,,,,,,,,,,,,,,,,021020,0,1,0,1,1,1,2,0,2,2020_Feb_10_1403,listening_fmri,3.2.4,60.24377208614247,
2,parcelated_audio/32/32_14.ogg,,,,,,,,,0,0,0,0,0,2,2,2,0,0,0,0,,,,,,,,,0,0,0,0,0,13,13,13,,,,,,,,,,,,,,,,,,,,,,,,,,,,,,,,,,,,,,,,,,,,526.711375333,534.8124220179998,,,,,,,,,,,,,,,,,,,,,,,,,,,,,,,,,,,,,,,,,,,,,,,,,,,,,,,,,,,,,,,021020,0,1,0,1,1,1,2,0,2,2020_Feb_10_1403,listening_fmri,3.2.4,60.24377208614247,
2,parcelated_audio/32/32_15.ogg,,,,,,,,,0,0,0,0,0,2,2,2,0,0,0,0,,,,,,,,,0,0,0,0,0,14,14,14,,,,,,,,,,,,,,,,,,,,,,,,,,,,,,,,,,,,,,,,,,,,534.8129265749999,541.6872574280001,,,,,,,,,,,,,,,,,,,,,,,,,,,,,,,,,,,,,,,,,,,,,,,,,,,,,,,,,,,,,,,021020,0,1,0,1,1,1,2,0,2,2020_Feb_10_1403,listening_fmri,3.2.4,60.24377208614247,
2,parcelated_audio/32/32_16.ogg,,,,,,,,,0,0,0,0,0,2,2,2,0,0,0,0,,,,,,,,,0,0,0,0,0,15,15,15,,,,,,,,,,,,,,,,,,,,,,,,,,,,,,,,,,,,,,,,,,,,541.687658281,549.3048344640001,,,,,,,,,,,,,,,,,,,,,,,,,,,,,,,,,,,,,,,,,,,,,,,,,,,,,,,,,,,,,,,021020,0,1,0,1,1,1,2,0,2,2020_Feb_10_1403,listening_fmri,3.2.4,60.24377208614247,
2,parcelated_audio/32/32_17.ogg,,,,,,,,,0,0,0,0,0,2,2,2,0,0,0,0,,,,,,,,,0,0,0,0,0,16,16,16,,,,,,,,,,,,,,,,,,,,,,,,,,,,,,,,,,,,,,,,,,,,549.3052171469999,557.5983352059998,,,,,,,,,,,,,,,,,,,,,,,,,,,,,,,,,,,,,,,,,,,,,,,,,,,,,,,,,,,,,,,021020,0,1,0,1,1,1,2,0,2,2020_Feb_10_1403,listening_fmri,3.2.4,60.24377208614247,
2,parcelated_audio/32/32_18.ogg,,,,,,,,,0,0,0,0,0,2,2,2,0,0,0,0,,,,,,,,,0,0,0,0,0,17,17,17,,,,,,,,,,,,,,,,,,,,,,,,,,,,,,,,,,,,,,,,,,,,557.598669683,561.8723347609998,,,,,,,,,,,,,,,,,,,,,,,,,,,,,,,,,,,,,,,,,,,,,,,,,,,,,,,,,,,,,,,021020,0,1,0,1,1,1,2,0,2,2020_Feb_10_1403,listening_fmri,3.2.4,60.24377208614247,
2,parcelated_audio/32/32_19.ogg,,,,,,,,,0,0,0,0,0,2,2,2,0,0,0,0,,,,,,,,,0,0,0,0,0,18,18,18,,,,,,,,,,,,,,,,,,,,,,,,,,,,,,,,,,,,,,,,,,,,561.874643569,569.920660018,,,,,,,,,,,,,,,,,,,,,,,,,,,,,,,,,,,,,,,,,,,,,,,,,,,,,,,,,,,,,,,021020,0,1,0,1,1,1,2,0,2,2020_Feb_10_1403,listening_fmri,3.2.4,60.24377208614247,
2,parcelated_audio/32/32_20.ogg,,,,,,,,,0,0,0,0,0,2,2,2,0,0,0,0,,,,,,,,,0,0,0,0,0,19,19,19,,,,,,,,,,,,,,,,,,,,,,,,,,,,,,,,,,,,,,,,,,,,569.9212741420001,580.8047105999999,,,,,,,,,,,,,,,,,,,,,,,,,,,,,,,,,,,,,,,,,,,,,,,,,,,,,,,,,,,,,,,021020,0,1,0,1,1,1,2,0,2,2020_Feb_10_1403,listening_fmri,3.2.4,60.24377208614247,
2,parcelated_audio/32/32_21.ogg,,,,,,,,,0,0,0,0,0,2,2,2,0,0,0,0,,,,,,,,,0,0,0,0,0,20,20,20,,,,,,,,,,,,,,,,,,,,,,,,,,,,,,,,,,,,,,,,,,,,580.8050586119998,589.6474688479998,,,,,,,,,,,,,,,,,,,,,,,,,,,,,,,,,,,,,,,,,,,,,,,,,,,,,,,,,,,,,,,021020,0,1,0,1,1,1,2,0,2,2020_Feb_10_1403,listening_fmri,3.2.4,60.24377208614247,
2,parcelated_audio/32/32_22.ogg,,,,,,,,,0,0,0,0,0,2,2,2,0,0,0,0,,,,,,,,,0,0,0,0,0,21,21,21,,,,,,,,,,,,,,,,,,,,,,,,,,,,,,,,,,,,,,,,,,,,589.6478141110001,603.6815013350001,,,,,,,,,,,,,,,,,,,,,,,,,,,,,,,,,,,,,,,,,,,,,,,,,,,,,,,,,,,,,,,021020,0,1,0,1,1,1,2,0,2,2020_Feb_10_1403,listening_fmri,3.2.4,60.24377208614247,
2,parcelated_audio/32/32_23.ogg,,,,,,,,,0,0,0,0,0,2,2,2,0,0,0,0,,,,,,,,,0,0,0,0,0,22,22,22,,,,,,,,,,,,,,,,,,,,,,,,,,,,,,,,,,,,,,,,,,,,603.6818595639998,612.7135034909998,,,,,,,,,,,,,,,,,,,,,,,,,,,,,,,,,,,,,,,,,,,,,,,,,,,,,,,,,,,,,,,021020,0,1,0,1,1,1,2,0,2,2020_Feb_10_1403,listening_fmri,3.2.4,60.24377208614247,
2,parcelated_audio/32/32_24.ogg,,,,,,,,,0,0,0,0,0,2,2,2,0,0,0,0,,,,,,,,,0,0,0,0,0,23,23,23,,,,,,,,,,,,,,,,,,,,,,,,,,,,,,,,,,,,,,,,,,,,612.7138539849998,624.019242933,,,,,,,,,,,,,,,,,,,,,,,,,,,,,,,,,,,,,,,,,,,,,,,,,,,,,,,,,,,,,,,021020,0,1,0,1,1,1,2,0,2,2020_Feb_10_1403,listening_fmri,3.2.4,60.24377208614247,
2,parcelated_audio/32/32_25.ogg,,,,,,,,,0,0,0,0,0,2,2,2,0,0,0,0,,,,,,,,,0,0,0,0,0,24,24,24,,,,,,,,,,,,,,,,,,,,,,,,,,,,,,,,,,,,,,,,,,,,624.01961639,630.0778294009997,,,,,,,,,,,,,,,,,,,,,,,,,,,,,,,,,,,,,,,,,,,,,,,,,,,,,,,,,,,,,,,021020,0,1,0,1,1,1,2,0,2,2020_Feb_10_1403,listening_fmri,3.2.4,60.24377208614247,
2,parcelated_audio/32/32_26.ogg,,,,,,,,,0,0,0,0,0,2,2,2,0,0,0,0,,,,,,,,,0,0,0,0,0,25,25,25,,,,,,,,,,,,,,,,,,,,,,,,,,,,,,,,,,,,,,,,,,,,630.0781439259999,643.4366475719999,,,,,,,,,,,,,,,,,,,,,,,,,,,,,,,,,,,,,,,,,,,,,,,,,,,,,,,,,,,,,,,021020,0,1,0,1,1,1,2,0,2,2020_Feb_10_1403,listening_fmri,3.2.4,60.24377208614247,
2,parcelated_audio/32/32_27.ogg,,,,,,,,,0,0,0,0,0,2,2,2,0,0,0,0,,,,,,,,,0,0,0,0,0,26,26,26,,,,,,,,,,,,,,,,,,,,,,,,,,,,,,,,,,,,,,,,,,,,643.4370793819999,650.3747747409998,,,,,,,,,,,,,,,,,,,,,,,,,,,,,,,,,,,,,,,,,,,,,,,,,,,,,,,,,,,,,,,021020,0,1,0,1,1,1,2,0,2,2020_Feb_10_1403,listening_fmri,3.2.4,60.24377208614247,
2,parcelated_audio/32/32_28.ogg,,,,,,,,,0,0,0,0,0,2,2,2,0,0,0,0,,,,,,,,,0,0,0,0,0,27,27,27,,,,,,,,,,,,,,,,,,,,,,,,,,,,,,,,,,,,,,,,,,,,650.3751065339998,657.0574674079999,,,,,,,,,,,,,,,,,,,,,,,,,,,,,,,,,,,,,,,,,,,,,,,,,,,,,,,,,,,,,,,021020,0,1,0,1,1,1,2,0,2,2020_Feb_10_1403,listening_fmri,3.2.4,60.24377208614247,
2,parcelated_audio/32/32_29.ogg,,,,,,,,,0,0,0,0,0,2,2,2,0,0,0,0,,,,,,,,,0,0,0,0,0,28,28,28,,,,,,,,,,,,,,,,,,,,,,,,,,,,,,,,,,,,,,,,,,,,657.057789122,659.7123560089999,,,,,,,,,,,,,,,,,,,,,,,,,,,,,,,,,,,,,,,,,,,,,,,,,,,,,,,,,,,,,,,021020,0,1,0,1,1,1,2,0,2,2020_Feb_10_1403,listening_fmri,3.2.4,60.24377208614247,
2,parcelated_audio/32/32_30.ogg,,,,,,,,,0,0,0,0,0,2,2,2,0,0,0,0,,,,,,,,,0,0,0,0,0,29,29,29,,,,,,,,,,,,,,,,,,,,,,,,,,,,,,,,,,,,,,,,,,,,659.7127058819997,666.7552875239999,,,,,,,,,,,,,,,,,,,,,,,,,,,,,,,,,,,,,,,,,,,,,,,,,,,,,,,,,,,,,,,021020,0,1,0,1,1,1,2,0,2,2020_Feb_10_1403,listening_fmri,3.2.4,60.24377208614247,
2,parcelated_audio/32/32_31.ogg,,,,,,,,,0,0,0,0,0,2,2,2,0,0,0,0,,,,,,,,,0,0,0,0,0,30,30,30,,,,,,,,,,,,,,,,,,,,,,,,,,,,,,,,,,,,,,,,,,,,666.7556555789997,673.1042966159998,,,,,,,,,,,,,,,,,,,,,,,,,,,,,,,,,,,,,,,,,,,,,,,,,,,,,,,,,,,,,,,021020,0,1,0,1,1,1,2,0,2,2020_Feb_10_1403,listening_fmri,3.2.4,60.24377208614247,
2,parcelated_audio/32/32_32.ogg,,,,,,,,,0,0,0,0,0,2,2,2,0,0,0,0,,,,,,,,,0,0,0,0,0,31,31,31,,,,,,,,,,,,,,,,,,,,,,,,,,,,,,,,,,,,,,,,,,,,673.10459369,682.805491181,,,,,,,,,,,,,,,,,,,,,,,,,,,,,,,,,,,,,,,,,,,,,,,,,,,,,,,,,,,,,,,021020,0,1,0,1,1,1,2,0,2,2020_Feb_10_1403,listening_fmri,3.2.4,60.24377208614247,
2,parcelated_audio/32/32_33.ogg,,,,,,,,,0,0,0,0,0,2,2,2,0,0,0,0,,,,,,,,,0,0,0,0,0,32,32,32,,,,,,,,,,,,,,,,,,,,,,,,,,,,,,,,,,,,,,,,,,,,682.8058312170001,688.5567656170001,,,,,,,,,,,,,,,,,,,,,,,,,,,,,,,,,,,,,,,,,,,,,,,,,,,,,,,,,,,,,,,021020,0,1,0,1,1,1,2,0,2,2020_Feb_10_1403,listening_fmri,3.2.4,60.24377208614247,
2,,,,,,,,,,0,0,0,0,0,2,2,2,0,0,0,0,,,,,,,,,0,0,0,0,,,,,,,,,,,,,,,,,,,,,,,,,,,,,,,,,,,,,,,,,,,,,,,,,,,,,,,,,,,,,,,,,,,,,,,,,,,,,,,,,,,,,,,,,,,,,,,,,,,,,,,,,,,,,,,,021020,0,1,0,1,1,1,2,0,2,2020_Feb_10_1403,listening_fmri,3.2.4,60.24377208614247,
,,,,,,,,,,,,,,,,,,,,,,,,,,,,,,,,,,,,,,,,,,,,,,,,,,,,,,,,,,,688.5572553659999,694.557079871,741.5769963309999,None,,,,,,,,,,,,,,,,,,,,,747.5778850730003,None,747.5778850730003,None,,,,,,,,,,,,,,,,,,,,,,,,,,,,,,,,,,,,,,,,,,,,,,,,,,,,,,,,,,,,,,,,,,,,,,,,,
﻿count,audio,trials_14.thisRepN,trials_14.thisTrialN,trials_14.thisN,trials_14.thisIndex,trials_3.thisRepN,trials_3.thisTrialN,trials_3.thisN,trials_3.thisIndex,trials_4.thisRepN,trials_4.thisTrialN,trials_4.thisN,trials_4.thisIndex,trials_6.thisRepN,trials_6.thisTrialN,trials_6.thisN,trials_6.thisIndex,trials_9.thisRepN,trials_9.thisTrialN,trials_9.thisN,trials_9.thisIndex,trials_10.thisRepN,trials_10.thisTrialN,trials_10.thisN,trials_10.thisIndex,trials_12.thisRepN,trials_12.thisTrialN,trials_12.thisN,trials_12.thisIndex,trials_25.thisRepN,trials_25.thisTrialN,trials_25.thisN,trials_25.thisIndex,trials_15.thisRepN,trials_15.thisTrialN,trials_15.thisN,trials_15.thisIndex,trials_26.thisRepN,trials_26.thisTrialN,trials_26.thisN,trials_26.thisIndex,trials_11.thisRepN,trials_11.thisTrialN,trials_11.thisN,trials_11.thisIndex,story_list_block2,action_list_block2,textTrigger.started,textTrigger.stopped,getTrigger.keys,getTrigger.rt,getTrigger.started,getTrigger.stopped,triggerTime,text_76.started,text_76.stopped,text_77.started,text_77.stopped,startWait,endWait,image_23.started,image_23.stopped,text_55.started,text_55.stopped,text_56.started,text_56.stopped,key_resp_2.keys,key_resp_2.rt,key_resp_2.started,key_resp_2.stopped,text_82.started,text_82.stopped,text_64.started,text_64.stopped,key_resp_20.keys,key_resp_20.rt,key_resp_20.started,key_resp_20.stopped,storyImage_StartTime,storyImage_EndTime,clip_StartTime,clip_EndTime,text_67.started,text_67.stopped,text_68.started,text_68.stopped,text_57.started,text_57.stopped,key_resp_17.keys,key_resp_17.rt,key_resp_17.started,key_resp_17.stopped,text_83.started,text_83.stopped,text_60.started,text_60.stopped,image_2.started,image_2.stopped,text_58.started,text_58.stopped,key_resp_23.keys,key_resp_23.rt,key_resp_23.started,key_resp_23.stopped,text_62.started,text_62.stopped,key_resp_18.keys,key_resp_18.rt,key_resp_18.started,key_resp_18.stopped,text_84.started,text_84.stopped,question1_2.started,question1_2.stopped,question2_2.started,question2_2.stopped,question3_2.started,question3_2.stopped,question4_2.started,question4_2.stopped,question5_2.started,question5_2.stopped,question6_2.started,question6_2.stopped,image_15.started,image_15.stopped,text_59.started,text_59.stopped,key_resp_19.keys,key_resp_19.rt,key_resp_19.started,key_resp_19.stopped,text_85.started,text_85.stopped,text_61.started,text_61.stopped,image_17.started,image_17.stopped,text_63.started,text_63.stopped,key_resp_24.keys,key_resp_24.rt,key_resp_24.started,key_resp_24.stopped,participant,sA,sB,lA,lB,block_struct,play_stories,block,behavioral,random_seed,date,expName,psychopyVersion,frameRate,
0,parcelated_audio/34/34_1.ogg,,,,,,,,,0,0,0,0,0,0,0,0,0,0,0,0,,,,,,,,,0,0,0,0,0,0,0,0,,,,,,,,,[34 43 32 41 23 14 12 21],[4 4 2 2 1 1 3 3],30.126469113999974,None,equal,22.876168065,30.126469113999974,None,22.904602766000153,30.126469113999974,None,30.126469113999974,None,0.0003405379998184799,5.999041645000034,53.02692429600029,None,59.02668770800028,None,59.02668770800028,None,1,1.283776853999825,59.02668770800028,None,59.02668770800028,None,60.37641672200016,None,1,1.6060893940002643,60.37641672200016,None,8.990243502999874,11.999147258999983,12.004115787000046,20.712387923999813,,,,,,,,,,,,,,,,,,,,,,,,,,,,,,,,,,,,,,,,,,,,,,,,,,,,,,,,,,,,,,,021020,0,1,0,1,1,1,2,0,2,2020_Feb_10_1403,listening_fmri,3.2.4,60.24377208614247,
0,parcelated_audio/34/34_2.ogg,,,,,,,,,0,0,0,0,0,0,0,0,0,0,0,0,,,,,,,,,0,0,0,0,0,1,1,1,,,,,,,,,,,,,,,,,,,,,,,,,,,,,,,,,,,,,,,,,,,,20.712733697999738,25.265985221999927,,,,,,,,,,,,,,,,,,,,,,,,,,,,,,,,,,,,,,,,,,,,,,,,,,,,,,,,,,,,,,,021020,0,1,0,1,1,1,2,0,2,2020_Feb_10_1403,listening_fmri,3.2.4,60.24377208614247,
0,parcelated_audio/34/34_3.ogg,,,,,,,,,0,0,0,0,0,0,0,0,0,0,0,0,,,,,,,,,0,0,0,0,0,2,2,2,,,,,,,,,,,,,,,,,,,,,,,,,,,,,,,,,,,,,,,,,,,,25.266324431999692,29.911139521999758,,,,,,,,,,,,,,,,,,,,,,,,,,,,,,,,,,,,,,,,,,,,,,,,,,,,,,,,,,,,,,,021020,0,1,0,1,1,1,2,0,2,2020_Feb_10_1403,listening_fmri,3.2.4,60.24377208614247,
0,parcelated_audio/34/34_4.ogg,,,,,,,,,0,0,0,0,0,0,0,0,0,0,0,0,,,,,,,,,0,0,0,0,0,3,3,3,,,,,,,,,,,,,,,,,,,,,,,,,,,,,,,,,,,,,,,,,,,,29.911480554999798,39.52561390599976,,,,,,,,,,,,,,,,,,,,,,,,,,,,,,,,,,,,,,,,,,,,,,,,,,,,,,,,,,,,,,,021020,0,1,0,1,1,1,2,0,2,2020_Feb_10_1403,listening_fmri,3.2.4,60.24377208614247,
0,parcelated_audio/34/34_5.ogg,,,,,,,,,0,0,0,0,0,0,0,0,0,0,0,0,,,,,,,,,0,0,0,0,0,4,4,4,,,,,,,,,,,,,,,,,,,,,,,,,,,,,,,,,,,,,,,,,,,,39.525966614000026,49.93631079399984,,,,,,,,,,,,,,,,,,,,,,,,,,,,,,,,,,,,,,,,,,,,,,,,,,,,,,,,,,,,,,,021020,0,1,0,1,1,1,2,0,2,2020_Feb_10_1403,listening_fmri,3.2.4,60.24377208614247,
0,parcelated_audio/34/34_6.ogg,,,,,,,,,0,0,0,0,0,0,0,0,0,0,0,0,,,,,,,,,0,0,0,0,0,5,5,5,,,,,,,,,,,,,,,,,,,,,,,,,,,,,,,,,,,,,,,,,,,,49.93664393600011,58.625582590999784,,,,,,,,,,,,,,,,,,,,,,,,,,,,,,,,,,,,,,,,,,,,,,,,,,,,,,,,,,,,,,,021020,0,1,0,1,1,1,2,0,2,2020_Feb_10_1403,listening_fmri,3.2.4,60.24377208614247,
0,parcelated_audio/34/34_7.ogg,,,,,,,,,0,0,0,0,0,0,0,0,0,0,0,0,,,,,,,,,0,0,0,0,0,6,6,6,,,,,,,,,,,,,,,,,,,,,,,,,,,,,,,,,,,,,,,,,,,,58.62592827499975,64.612250571,,,,,,,,,,,,,,,,,,,,,,,,,,,,,,,,,,,,,,,,,,,,,,,,,,,,,,,,,,,,,,,021020,0,1,0,1,1,1,2,0,2,2020_Feb_10_1403,listening_fmri,3.2.4,60.24377208614247,
0,parcelated_audio/34/34_8.ogg,,,,,,,,,0,0,0,0,0,0,0,0,0,0,0,0,,,,,,,,,0,0,0,0,0,7,7,7,,,,,,,,,,,,,,,,,,,,,,,,,,,,,,,,,,,,,,,,,,,,64.61286955600008,72.59849976499981,,,,,,,,,,,,,,,,,,,,,,,,,,,,,,,,,,,,,,,,,,,,,,,,,,,,,,,,,,,,,,,021020,0,1,0,1,1,1,2,0,2,2020_Feb_10_1403,listening_fmri,3.2.4,60.24377208614247,
0,parcelated_audio/34/34_9.ogg,,,,,,,,,0,0,0,0,0,0,0,0,0,0,0,0,,,,,,,,,0,0,0,0,0,8,8,8,,,,,,,,,,,,,,,,,,,,,,,,,,,,,,,,,,,,,,,,,,,,72.59886281299987,77.3923004620001,,,,,,,,,,,,,,,,,,,,,,,,,,,,,,,,,,,,,,,,,,,,,,,,,,,,,,,,,,,,,,,021020,0,1,0,1,1,1,2,0,2,2020_Feb_10_1403,listening_fmri,3.2.4,60.24377208614247,
0,parcelated_audio/34/34_10.ogg,,,,,,,,,0,0,0,0,0,0,0,0,0,0,0,0,,,,,,,,,0,0,0,0,0,9,9,9,,,,,,,,,,,,,,,,,,,,,,,,,,,,,,,,,,,,,,,,,,,,77.39264074899984,84.41242637799996,,,,,,,,,,,,,,,,,,,,,,,,,,,,,,,,,,,,,,,,,,,,,,,,,,,,,,,,,,,,,,,021020,0,1,0,1,1,1,2,0,2,2020_Feb_10_1403,listening_fmri,3.2.4,60.24377208614247,
0,parcelated_audio/34/34_11.ogg,,,,,,,,,0,0,0,0,0,0,0,0,0,0,0,0,,,,,,,,,0,0,0,0,0,10,10,10,,,,,,,,,,,,,,,,,,,,,,,,,,,,,,,,,,,,,,,,,,,,84.41276504799998,87.85111086400002,,,,,,,,,,,,,,,,,,,,,,,,,,,,,,,,,,,,,,,,,,,,,,,,,,,,,,,,,,,,,,,021020,0,1,0,1,1,1,2,0,2,2020_Feb_10_1403,listening_fmri,3.2.4,60.24377208614247,
0,parcelated_audio/34/34_12.ogg,,,,,,,,,0,0,0,0,0,0,0,0,0,0,0,0,,,,,,,,,0,0,0,0,0,11,11,11,,,,,,,,,,,,,,,,,,,,,,,,,,,,,,,,,,,,,,,,,,,,87.8514596760001,96.00046090299975,,,,,,,,,,,,,,,,,,,,,,,,,,,,,,,,,,,,,,,,,,,,,,,,,,,,,,,,,,,,,,,021020,0,1,0,1,1,1,2,0,2,2020_Feb_10_1403,listening_fmri,3.2.4,60.24377208614247,
0,parcelated_audio/34/34_13.ogg,,,,,,,,,0,0,0,0,0,0,0,0,0,0,0,0,,,,,,,,,0,0,0,0,0,12,12,12,,,,,,,,,,,,,,,,,,,,,,,,,,,,,,,,,,,,,,,,,,,,96.00084146500012,99.88303808599994,,,,,,,,,,,,,,,,,,,,,,,,,,,,,,,,,,,,,,,,,,,,,,,,,,,,,,,,,,,,,,,021020,0,1,0,1,1,1,2,0,2,2020_Feb_10_1403,listening_fmri,3.2.4,60.24377208614247,
0,parcelated_audio/34/34_14.ogg,,,,,,,,,0,0,0,0,0,0,0,0,0,0,0,0,,,,,,,,,0,0,0,0,0,13,13,13,,,,,,,,,,,,,,,,,,,,,,,,,,,,,,,,,,,,,,,,,,,,99.88344913999981,104.52430145299968,,,,,,,,,,,,,,,,,,,,,,,,,,,,,,,,,,,,,,,,,,,,,,,,,,,,,,,,,,,,,,,021020,0,1,0,1,1,1,2,0,2,2020_Feb_10_1403,listening_fmri,3.2.4,60.24377208614247,
0,parcelated_audio/34/34_15.ogg,,,,,,,,,0,0,0,0,0,0,0,0,0,0,0,0,,,,,,,,,0,0,0,0,0,14,14,14,,,,,,,,,,,,,,,,,,,,,,,,,,,,,,,,,,,,,,,,,,,,104.5247675769997,108.70130265099988,,,,,,,,,,,,,,,,,,,,,,,,,,,,,,,,,,,,,,,,,,,,,,,,,,,,,,,,,,,,,,,021020,0,1,0,1,1,1,2,0,2,2020_Feb_10_1403,listening_fmri,3.2.4,60.24377208614247,
0,parcelated_audio/34/34_16.ogg,,,,,,,,,0,0,0,0,0,0,0,0,0,0,0,0,,,,,,,,,0,0,0,0,0,15,15,15,,,,,,,,,,,,,,,,,,,,,,,,,,,,,,,,,,,,,,,,,,,,108.70168086400008,121.70862599800012,,,,,,,,,,,,,,,,,,,,,,,,,,,,,,,,,,,,,,,,,,,,,,,,,,,,,,,,,,,,,,,021020,0,1,0,1,1,1,2,0,2,2020_Feb_10_1403,listening_fmri,3.2.4,60.24377208614247,
0,parcelated_audio/34/34_17.ogg,,,,,,,,,0,0,0,0,0,0,0,0,0,0,0,0,,,,,,,,,0,0,0,0,0,16,16,16,,,,,,,,,,,,,,,,,,,,,,,,,,,,,,,,,,,,,,,,,,,,121.708975044,130.64624076499967,,,,,,,,,,,,,,,,,,,,,,,,,,,,,,,,,,,,,,,,,,,,,,,,,,,,,,,,,,,,,,,021020,0,1,0,1,1,1,2,0,2,2020_Feb_10_1403,listening_fmri,3.2.4,60.24377208614247,
0,parcelated_audio/34/34_18.ogg,,,,,,,,,0,0,0,0,0,0,0,0,0,0,0,0,,,,,,,,,0,0,0,0,0,17,17,17,,,,,,,,,,,,,,,,,,,,,,,,,,,,,,,,,,,,,,,,,,,,130.64659192399995,136.50438494799982,,,,,,,,,,,,,,,,,,,,,,,,,,,,,,,,,,,,,,,,,,,,,,,,,,,,,,,,,,,,,,,021020,0,1,0,1,1,1,2,0,2,2020_Feb_10_1403,listening_fmri,3.2.4,60.24377208614247,
0,parcelated_audio/34/34_19.ogg,,,,,,,,,0,0,0,0,0,0,0,0,0,0,0,0,,,,,,,,,0,0,0,0,0,18,18,18,,,,,,,,,,,,,,,,,,,,,,,,,,,,,,,,,,,,,,,,,,,,136.5047262009998,142.73278495499972,,,,,,,,,,,,,,,,,,,,,,,,,,,,,,,,,,,,,,,,,,,,,,,,,,,,,,,,,,,,,,,021020,0,1,0,1,1,1,2,0,2,2020_Feb_10_1403,listening_fmri,3.2.4,60.24377208614247,
0,parcelated_audio/34/34_20.ogg,,,,,,,,,0,0,0,0,0,0,0,0,0,0,0,0,,,,,,,,,0,0,0,0,0,19,19,19,,,,,,,,,,,,,,,,,,,,,,,,,,,,,,,,,,,,,,,,,,,,142.73312489299997,151.17140475899987,,,,,,,,,,,,,,,,,,,,,,,,,,,,,,,,,,,,,,,,,,,,,,,,,,,,,,,,,,,,,,,021020,0,1,0,1,1,1,2,0,2,2020_Feb_10_1403,listening_fmri,3.2.4,60.24377208614247,
0,parcelated_audio/34/34_21.ogg,,,,,,,,,0,0,0,0,0,0,0,0,0,0,0,0,,,,,,,,,0,0,0,0,0,20,20,20,,,,,,,,,,,,,,,,,,,,,,,,,,,,,,,,,,,,,,,,,,,,151.17170501500004,157.52721360099986,,,,,,,,,,,,,,,,,,,,,,,,,,,,,,,,,,,,,,,,,,,,,,,,,,,,,,,,,,,,,,,021020,0,1,0,1,1,1,2,0,2,2020_Feb_10_1403,listening_fmri,3.2.4,60.24377208614247,
0,parcelated_audio/34/34_22.ogg,,,,,,,,,0,0,0,0,0,0,0,0,0,0,0,0,,,,,,,,,0,0,0,0,0,21,21,21,,,,,,,,,,,,,,,,,,,,,,,,,,,,,,,,,,,,,,,,,,,,157.52852176399983,162.63939769499984,,,,,,,,,,,,,,,,,,,,,,,,,,,,,,,,,,,,,,,,,,,,,,,,,,,,,,,,,,,,,,,021020,0,1,0,1,1,1,2,0,2,2020_Feb_10_1403,listening_fmri,3.2.4,60.24377208614247,
0,parcelated_audio/34/34_23.ogg,,,,,,,,,0,0,0,0,0,0,0,0,0,0,0,0,,,,,,,,,0,0,0,0,0,22,22,22,,,,,,,,,,,,,,,,,,,,,,,,,,,,,,,,,,,,,,,,,,,,162.6397375229999,170.4113587679999,,,,,,,,,,,,,,,,,,,,,,,,,,,,,,,,,,,,,,,,,,,,,,,,,,,,,,,,,,,,,,,021020,0,1,0,1,1,1,2,0,2,2020_Feb_10_1403,listening_fmri,3.2.4,60.24377208614247,
0,parcelated_audio/34/34_24.ogg,,,,,,,,,0,0,0,0,0,0,0,0,0,0,0,0,,,,,,,,,0,0,0,0,0,23,23,23,,,,,,,,,,,,,,,,,,,,,,,,,,,,,,,,,,,,,,,,,,,,170.41192865699986,176.1990971340001,,,,,,,,,,,,,,,,,,,,,,,,,,,,,,,,,,,,,,,,,,,,,,,,,,,,,,,,,,,,,,,021020,0,1,0,1,1,1,2,0,2,2020_Feb_10_1403,listening_fmri,3.2.4,60.24377208614247,
0,parcelated_audio/34/34_25.ogg,,,,,,,,,0,0,0,0,0,0,0,0,0,0,0,0,,,,,,,,,0,0,0,0,0,24,24,24,,,,,,,,,,,,,,,,,,,,,,,,,,,,,,,,,,,,,,,,,,,,176.19944190199976,182.76042844199992,,,,,,,,,,,,,,,,,,,,,,,,,,,,,,,,,,,,,,,,,,,,,,,,,,,,,,,,,,,,,,,021020,0,1,0,1,1,1,2,0,2,2020_Feb_10_1403,listening_fmri,3.2.4,60.24377208614247,
0,parcelated_audio/34/34_26.ogg,,,,,,,,,0,0,0,0,0,0,0,0,0,0,0,0,,,,,,,,,0,0,0,0,0,25,25,25,,,,,,,,,,,,,,,,,,,,,,,,,,,,,,,,,,,,,,,,,,,,182.7607332749999,192.4083733739999,,,,,,,,,,,,,,,,,,,,,,,,,,,,,,,,,,,,,,,,,,,,,,,,,,,,,,,,,,,,,,,021020,0,1,0,1,1,1,2,0,2,2020_Feb_10_1403,listening_fmri,3.2.4,60.24377208614247,
0,parcelated_audio/34/34_27.ogg,,,,,,,,,0,0,0,0,0,0,0,0,0,0,0,0,,,,,,,,,0,0,0,0,0,26,26,26,,,,,,,,,,,,,,,,,,,,,,,,,,,,,,,,,,,,,,,,,,,,192.40866257900007,199.8949745330001,,,,,,,,,,,,,,,,,,,,,,,,,,,,,,,,,,,,,,,,,,,,,,,,,,,,,,,,,,,,,,,021020,0,1,0,1,1,1,2,0,2,2020_Feb_10_1403,listening_fmri,3.2.4,60.24377208614247,
0,,,,,,,,,,0,0,0,0,0,0,0,0,0,0,0,0,,,,,,,,,0,0,0,0,,,,,,,,,,,,,,,,,,,,,,,,,,,,,,,,,,,,,,,,,,,,,,,,,,,,,,,,,,,,,,,,,,,,,,,,,,,,,,,,,,,,,,,,,,,,,,,,,,,,,,,,,,,,,,,,021020,0,1,0,1,1,1,2,0,2,2020_Feb_10_1403,listening_fmri,3.2.4,60.24377208614247,
0,,,,,,,,,,0,0,0,0,0,0,0,0,0,0,0,0,,,,,,,,,,,,,,,,,,,,,,,,,,,,,,,,,,,,,,199.89537167299977,205.8824748789998,252.90978774700034,None,,,,,,,,,,,,,,,,,,,,,258.9108328880002,None,258.9108328880002,None,,,,,,,,,,,,,,,,,,,,,,,,,,,,,,,,,,,,,,,,,,,,,,,,,,,,,,,,,,,021020,0,1,0,1,1,1,2,0,2,2020_Feb_10_1403,listening_fmri,3.2.4,60.24377208614247,
0,,,,,,,,,,0,0,0,0,0,0,0,0,,,,,,,,,,,,,,,,,,,,,,,,,,,,,,,,,,,,,,,,,,,,,,,,,,,,,,,,,,,,,,,,,,,,,,,,,,,,,,,,,,,,,,,,,,,,,,,,,,,,,,,,,,,,,,,,,,,,,,,,,,,,,,,,021020,0,1,0,1,1,1,2,0,2,2020_Feb_10_1403,listening_fmri,3.2.4,60.24377208614247,
1,parcelated_audio/43/43_1.ogg,,,,,,,,,0,0,0,0,0,1,1,1,0,0,0,0,,,,,,,,,0,0,0,0,0,0,0,0,,,,,,,,,,,,,,,,,,,,,,,,,,259.9100841270001,None,259.9100841270001,None,1,1.158543663999808,259.9100841270001,None,259.9100841270001,None,261.09381848600015,None,1,2.362774894999802,261.09381848600015,None,210.4567731789998,213.4668476480001,213.4738888669999,221.05134693399987,,,,,,,,,,,,,,,,,,,,,,,,,,,,,,,,,,,,,,,,,,,,,,,,,,,,,,,,,,,,,,,021020,0,1,0,1,1,1,2,0,2,2020_Feb_10_1403,listening_fmri,3.2.4,60.24377208614247,
1,parcelated_audio/43/43_2.ogg,,,,,,,,,0,0,0,0,0,1,1,1,0,0,0,0,,,,,,,,,0,0,0,0,0,1,1,1,,,,,,,,,,,,,,,,,,,,,,,,,,,,,,,,,,,,,,,,,,,,221.05163396099988,224.82434734199978,,,,,,,,,,,,,,,,,,,,,,,,,,,,,,,,,,,,,,,,,,,,,,,,,,,,,,,,,,,,,,,021020,0,1,0,1,1,1,2,0,2,2020_Feb_10_1403,listening_fmri,3.2.4,60.24377208614247,
1,parcelated_audio/43/43_3.ogg,,,,,,,,,0,0,0,0,0,1,1,1,0,0,0,0,,,,,,,,,0,0,0,0,0,2,2,2,,,,,,,,,,,,,,,,,,,,,,,,,,,,,,,,,,,,,,,,,,,,224.8248918270001,233.69936835599992,,,,,,,,,,,,,,,,,,,,,,,,,,,,,,,,,,,,,,,,,,,,,,,,,,,,,,,,,,,,,,,021020,0,1,0,1,1,1,2,0,2,2020_Feb_10_1403,listening_fmri,3.2.4,60.24377208614247,
1,parcelated_audio/43/43_4.ogg,,,,,,,,,0,0,0,0,0,1,1,1,0,0,0,0,,,,,,,,,0,0,0,0,0,3,3,3,,,,,,,,,,,,,,,,,,,,,,,,,,,,,,,,,,,,,,,,,,,,233.69983238199984,242.1953836949997,,,,,,,,,,,,,,,,,,,,,,,,,,,,,,,,,,,,,,,,,,,,,,,,,,,,,,,,,,,,,,,021020,0,1,0,1,1,1,2,0,2,2020_Feb_10_1403,listening_fmri,3.2.4,60.24377208614247,
1,parcelated_audio/43/43_5.ogg,,,,,,,,,0,0,0,0,0,1,1,1,0,0,0,0,,,,,,,,,0,0,0,0,0,4,4,4,,,,,,,,,,,,,,,,,,,,,,,,,,,,,,,,,,,,,,,,,,,,242.19599260799987,251.43026783699997,,,,,,,,,,,,,,,,,,,,,,,,,,,,,,,,,,,,,,,,,,,,,,,,,,,,,,,,,,,,,,,021020,0,1,0,1,1,1,2,0,2,2020_Feb_10_1403,listening_fmri,3.2.4,60.24377208614247,
1,parcelated_audio/43/43_6.ogg,,,,,,,,,0,0,0,0,0,1,1,1,0,0,0,0,,,,,,,,,0,0,0,0,0,5,5,5,,,,,,,,,,,,,,,,,,,,,,,,,,,,,,,,,,,,,,,,,,,,251.43066880800006,260.5659514179997,,,,,,,,,,,,,,,,,,,,,,,,,,,,,,,,,,,,,,,,,,,,,,,,,,,,,,,,,,,,,,,021020,0,1,0,1,1,1,2,0,2,2020_Feb_10_1403,listening_fmri,3.2.4,60.24377208614247,
1,parcelated_audio/43/43_7.ogg,,,,,,,,,0,0,0,0,0,1,1,1,0,0,0,0,,,,,,,,,0,0,0,0,0,6,6,6,,,,,,,,,,,,,,,,,,,,,,,,,,,,,,,,,,,,,,,,,,,,260.5663954659999,265.3111355709998,,,,,,,,,,,,,,,,,,,,,,,,,,,,,,,,,,,,,,,,,,,,,,,,,,,,,,,,,,,,,,,021020,0,1,0,1,1,1,2,0,2,2020_Feb_10_1403,listening_fmri,3.2.4,60.24377208614247,
1,parcelated_audio/43/43_8.ogg,,,,,,,,,0,0,0,0,0,1,1,1,0,0,0,0,,,,,,,,,0,0,0,0,0,7,7,7,,,,,,,,,,,,,,,,,,,,,,,,,,,,,,,,,,,,,,,,,,,,265.31164523300004,271.861204324,,,,,,,,,,,,,,,,,,,,,,,,,,,,,,,,,,,,,,,,,,,,,,,,,,,,,,,,,,,,,,,021020,0,1,0,1,1,1,2,0,2,2020_Feb_10_1403,listening_fmri,3.2.4,60.24377208614247,
1,parcelated_audio/43/43_9.ogg,,,,,,,,,0,0,0,0,0,1,1,1,0,0,0,0,,,,,,,,,0,0,0,0,0,8,8,8,,,,,,,,,,,,,,,,,,,,,,,,,,,,,,,,,,,,,,,,,,,,271.86154216399973,276.46035245799976,,,,,,,,,,,,,,,,,,,,,,,,,,,,,,,,,,,,,,,,,,,,,,,,,,,,,,,,,,,,,,,021020,0,1,0,1,1,1,2,0,2,2020_Feb_10_1403,listening_fmri,3.2.4,60.24377208614247,
1,parcelated_audio/43/43_10.ogg,,,,,,,,,0,0,0,0,0,1,1,1,0,0,0,0,,,,,,,,,0,0,0,0,0,9,9,9,,,,,,,,,,,,,,,,,,,,,,,,,,,,,,,,,,,,,,,,,,,,276.460881129,281.32789042800005,,,,,,,,,,,,,,,,,,,,,,,,,,,,,,,,,,,,,,,,,,,,,,,,,,,,,,,,,,,,,,,021020,0,1,0,1,1,1,2,0,2,2020_Feb_10_1403,listening_fmri,3.2.4,60.24377208614247,
1,parcelated_audio/43/43_11.ogg,,,,,,,,,0,0,0,0,0,1,1,1,0,0,0,0,,,,,,,,,0,0,0,0,0,10,10,10,,,,,,,,,,,,,,,,,,,,,,,,,,,,,,,,,,,,,,,,,,,,281.32823463199975,292.36957189899977,,,,,,,,,,,,,,,,,,,,,,,,,,,,,,,,,,,,,,,,,,,,,,,,,,,,,,,,,,,,,,,021020,0,1,0,1,1,1,2,0,2,2020_Feb_10_1403,listening_fmri,3.2.4,60.24377208614247,
1,parcelated_audio/43/43_12.ogg,,,,,,,,,0,0,0,0,0,1,1,1,0,0,0,0,,,,,,,,,0,0,0,0,0,11,11,11,,,,,,,,,,,,,,,,,,,,,,,,,,,,,,,,,,,,,,,,,,,,292.3699296679997,298.4489007070001,,,,,,,,,,,,,,,,,,,,,,,,,,,,,,,,,,,,,,,,,,,,,,,,,,,,,,,,,,,,,,,021020,0,1,0,1,1,1,2,0,2,2020_Feb_10_1403,listening_fmri,3.2.4,60.24377208614247,
1,parcelated_audio/43/43_13.ogg,,,,,,,,,0,0,0,0,0,1,1,1,0,0,0,0,,,,,,,,,0,0,0,0,0,12,12,12,,,,,,,,,,,,,,,,,,,,,,,,,,,,,,,,,,,,,,,,,,,,298.44924610199996,306.69891311799984,,,,,,,,,,,,,,,,,,,,,,,,,,,,,,,,,,,,,,,,,,,,,,,,,,,,,,,,,,,,,,,021020,0,1,0,1,1,1,2,0,2,2020_Feb_10_1403,listening_fmri,3.2.4,60.24377208614247,
1,parcelated_audio/43/43_14.ogg,,,,,,,,,0,0,0,0,0,1,1,1,0,0,0,0,,,,,,,,,0,0,0,0,0,13,13,13,,,,,,,,,,,,,,,,,,,,,,,,,,,,,,,,,,,,,,,,,,,,306.6992105909999,315.21250080599975,,,,,,,,,,,,,,,,,,,,,,,,,,,,,,,,,,,,,,,,,,,,,,,,,,,,,,,,,,,,,,,021020,0,1,0,1,1,1,2,0,2,2020_Feb_10_1403,listening_fmri,3.2.4,60.24377208614247,
1,parcelated_audio/43/43_15.ogg,,,,,,,,,0,0,0,0,0,1,1,1,0,0,0,0,,,,,,,,,0,0,0,0,0,14,14,14,,,,,,,,,,,,,,,,,,,,,,,,,,,,,,,,,,,,,,,,,,,,315.21286710799995,319.5595502880001,,,,,,,,,,,,,,,,,,,,,,,,,,,,,,,,,,,,,,,,,,,,,,,,,,,,,,,,,,,,,,,021020,0,1,0,1,1,1,2,0,2,2020_Feb_10_1403,listening_fmri,3.2.4,60.24377208614247,
1,parcelated_audio/43/43_16.ogg,,,,,,,,,0,0,0,0,0,1,1,1,0,0,0,0,,,,,,,,,0,0,0,0,0,15,15,15,,,,,,,,,,,,,,,,,,,,,,,,,,,,,,,,,,,,,,,,,,,,319.5599101069997,324.09234526599994,,,,,,,,,,,,,,,,,,,,,,,,,,,,,,,,,,,,,,,,,,,,,,,,,,,,,,,,,,,,,,,021020,0,1,0,1,1,1,2,0,2,2020_Feb_10_1403,listening_fmri,3.2.4,60.24377208614247,
1,parcelated_audio/43/43_17.ogg,,,,,,,,,0,0,0,0,0,1,1,1,0,0,0,0,,,,,,,,,0,0,0,0,0,16,16,16,,,,,,,,,,,,,,,,,,,,,,,,,,,,,,,,,,,,,,,,,,,,324.092690294,327.8650975999999,,,,,,,,,,,,,,,,,,,,,,,,,,,,,,,,,,,,,,,,,,,,,,,,,,,,,,,,,,,,,,,021020,0,1,0,1,1,1,2,0,2,2020_Feb_10_1403,listening_fmri,3.2.4,60.24377208614247,
1,parcelated_audio/43/43_18.ogg,,,,,,,,,0,0,0,0,0,1,1,1,0,0,0,0,,,,,,,,,0,0,0,0,0,17,17,17,,,,,,,,,,,,,,,,,,,,,,,,,,,,,,,,,,,,,,,,,,,,327.865454793,330.071199641,,,,,,,,,,,,,,,,,,,,,,,,,,,,,,,,,,,,,,,,,,,,,,,,,,,,,,,,,,,,,,,021020,0,1,0,1,1,1,2,0,2,2020_Feb_10_1403,listening_fmri,3.2.4,60.24377208614247,
1,parcelated_audio/43/43_19.ogg,,,,,,,,,0,0,0,0,0,1,1,1,0,0,0,0,,,,,,,,,0,0,0,0,0,18,18,18,,,,,,,,,,,,,,,,,,,,,,,,,,,,,,,,,,,,,,,,,,,,330.0715438110001,333.70521357300004,,,,,,,,,,,,,,,,,,,,,,,,,,,,,,,,,,,,,,,,,,,,,,,,,,,,,,,,,,,,,,,021020,0,1,0,1,1,1,2,0,2,2020_Feb_10_1403,listening_fmri,3.2.4,60.24377208614247,
1,parcelated_audio/43/43_20.ogg,,,,,,,,,0,0,0,0,0,1,1,1,0,0,0,0,,,,,,,,,0,0,0,0,0,19,19,19,,,,,,,,,,,,,,,,,,,,,,,,,,,,,,,,,,,,,,,,,,,,333.705558269,340.89950991399974,,,,,,,,,,,,,,,,,,,,,,,,,,,,,,,,,,,,,,,,,,,,,,,,,,,,,,,,,,,,,,,021020,0,1,0,1,1,1,2,0,2,2020_Feb_10_1403,listening_fmri,3.2.4,60.24377208614247,
1,parcelated_audio/43/43_21.ogg,,,,,,,,,0,0,0,0,0,1,1,1,0,0,0,0,,,,,,,,,0,0,0,0,0,20,20,20,,,,,,,,,,,,,,,,,,,,,,,,,,,,,,,,,,,,,,,,,,,,340.8997647279998,343.3682168979999,,,,,,,,,,,,,,,,,,,,,,,,,,,,,,,,,,,,,,,,,,,,,,,,,,,,,,,,,,,,,,,021020,0,1,0,1,1,1,2,0,2,2020_Feb_10_1403,listening_fmri,3.2.4,60.24377208614247,
1,parcelated_audio/43/43_22.ogg,,,,,,,,,0,0,0,0,0,1,1,1,0,0,0,0,,,,,,,,,0,0,0,0,0,21,21,21,,,,,,,,,,,,,,,,,,,,,,,,,,,,,,,,,,,,,,,,,,,,343.3685605749997,346.8509069900001,,,,,,,,,,,,,,,,,,,,,,,,,,,,,,,,,,,,,,,,,,,,,,,,,,,,,,,,,,,,,,,021020,0,1,0,1,1,1,2,0,2,2020_Feb_10_1403,listening_fmri,3.2.4,60.24377208614247,
1,parcelated_audio/43/43_23.ogg,,,,,,,,,0,0,0,0,0,1,1,1,0,0,0,0,,,,,,,,,0,0,0,0,0,22,22,22,,,,,,,,,,,,,,,,,,,,,,,,,,,,,,,,,,,,,,,,,,,,346.8513166550001,352.88189389399986,,,,,,,,,,,,,,,,,,,,,,,,,,,,,,,,,,,,,,,,,,,,,,,,,,,,,,,,,,,,,,,021020,0,1,0,1,1,1,2,0,2,2020_Feb_10_1403,listening_fmri,3.2.4,60.24377208614247,
1,parcelated_audio/43/43_24.ogg,,,,,,,,,0,0,0,0,0,1,1,1,0,0,0,0,,,,,,,,,0,0,0,0,0,23,23,23,,,,,,,,,,,,,,,,,,,,,,,,,,,,,,,,,,,,,,,,,,,,352.8821938279998,359.20193737399995,,,,,,,,,,,,,,,,,,,,,,,,,,,,,,,,,,,,,,,,,,,,,,,,,,,,,,,,,,,,,,,021020,0,1,0,1,1,1,2,0,2,2020_Feb_10_1403,listening_fmri,3.2.4,60.24377208614247,
1,parcelated_audio/43/43_25.ogg,,,,,,,,,0,0,0,0,0,1,1,1,0,0,0,0,,,,,,,,,0,0,0,0,0,24,24,24,,,,,,,,,,,,,,,,,,,,,,,,,,,,,,,,,,,,,,,,,,,,359.2022823289999,364.23333152999976,,,,,,,,,,,,,,,,,,,,,,,,,,,,,,,,,,,,,,,,,,,,,,,,,,,,,,,,,,,,,,,021020,0,1,0,1,1,1,2,0,2,2020_Feb_10_1403,listening_fmri,3.2.4,60.24377208614247,
1,parcelated_audio/43/43_26.ogg,,,,,,,,,0,0,0,0,0,1,1,1,0,0,0,0,,,,,,,,,0,0,0,0,0,25,25,25,,,,,,,,,,,,,,,,,,,,,,,,,,,,,,,,,,,,,,,,,,,,364.2336779289999,372.8134607709999,,,,,,,,,,,,,,,,,,,,,,,,,,,,,,,,,,,,,,,,,,,,,,,,,,,,,,,,,,,,,,,021020,0,1,0,1,1,1,2,0,2,2020_Feb_10_1403,listening_fmri,3.2.4,60.24377208614247,
1,parcelated_audio/43/43_27.ogg,,,,,,,,,0,0,0,0,0,1,1,1,0,0,0,0,,,,,,,,,0,0,0,0,0,26,26,26,,,,,,,,,,,,,,,,,,,,,,,,,,,,,,,,,,,,,,,,,,,,372.8138012659997,377.1952065129999,,,,,,,,,,,,,,,,,,,,,,,,,,,,,,,,,,,,,,,,,,,,,,,,,,,,,,,,,,,,,,,021020,0,1,0,1,1,1,2,0,2,2020_Feb_10_1403,listening_fmri,3.2.4,60.24377208614247,
1,parcelated_audio/43/43_28.ogg,,,,,,,,,0,0,0,0,0,1,1,1,0,0,0,0,,,,,,,,,0,0,0,0,0,27,27,27,,,,,,,,,,,,,,,,,,,,,,,,,,,,,,,,,,,,,,,,,,,,377.19554961999984,382.176257306,,,,,,,,,,,,,,,,,,,,,,,,,,,,,,,,,,,,,,,,,,,,,,,,,,,,,,,,,,,,,,,021020,0,1,0,1,1,1,2,0,2,2020_Feb_10_1403,listening_fmri,3.2.4,60.24377208614247,
1,parcelated_audio/43/43_29.ogg,,,,,,,,,0,0,0,0,0,1,1,1,0,0,0,0,,,,,,,,,0,0,0,0,0,28,28,28,,,,,,,,,,,,,,,,,,,,,,,,,,,,,,,,,,,,,,,,,,,,382.17660037999985,388.32198246400003,,,,,,,,,,,,,,,,,,,,,,,,,,,,,,,,,,,,,,,,,,,,,,,,,,,,,,,,,,,,,,,021020,0,1,0,1,1,1,2,0,2,2020_Feb_10_1403,listening_fmri,3.2.4,60.24377208614247,
1,,,,,,,,,,0,0,0,0,0,1,1,1,0,0,0,0,,,,,,,,,0,0,0,0,,,,,,,,,,,,,,,,,,,,,,,,,,,,,,,,,,,,,,,,,,,,,,,,,,,,,,,,,,,,,,,,,,,,,,,,,,,,,,,,,,,,,,,,,,,,,,,,,,,,,,,,,,,,,,,,021020,0,1,0,1,1,1,2,0,2,2020_Feb_10_1403,listening_fmri,3.2.4,60.24377208614247,
1,,,,,,,,,,0,0,0,0,0,1,1,1,0,0,0,0,,,,,,,,,,,,,,,,,,,,,,,,,,,,,,,,,,,,,,388.32247862899976,394.32856704799997,441.338472553,None,,,,,,,,,,,,,,,,,,,,,447.3562181880002,None,447.3562181880002,None,,,,,,,,,,,,,,,,,,,,,,,,,,,,,,,,,,,,,,,,,,,,,,,,,,,,,,,,,,,021020,0,1,0,1,1,1,2,0,2,2020_Feb_10_1403,listening_fmri,3.2.4,60.24377208614247,
1,,,,,,,,,,0,0,0,0,0,1,1,1,,,,,,,,,,,,,,,,,,,,,,,,,,,,,,,,,,,,,,,,,,,,,,,,,,,,,,,,,,,,,,,,,,,,,,,,,,,,,,,,,,,,,,,,,,,,,,,,,,,,,,,,,,,,,,,,,,,,,,,,,,,,,,,,021020,0,1,0,1,1,1,2,0,2,2020_Feb_10_1403,listening_fmri,3.2.4,60.24377208614247,
2,,,,,,,,,,0,0,0,0,0,2,2,2,0,0,0,0,0,0,0,0,,,,,,,,,,,,,,,,,0,0,0,0,,,,,,,,,,,,,,,,,,448.36008863899997,None,448.36008863899997,None,1,1.319548677000057,448.36008863899997,None,448.36008863899997,None,,,,,,,,,,,,,,,449.71125592199996,None,1,2.3474002160000964,449.71125592199996,None,449.71125592199996,None,452.10629575400026,None,452.10629575400026,None,452.10629575400026,None,1,1.672235168000043,452.10629575400026,None,453.80537550200006,None,1,1.480278890000136,453.80537550200006,None,453.80537550200006,None,455.3884427480002,None,455.3884427480002,None,455.3884427480002,None,455.3884427480002,None,455.3884427480002,None,455.3884427480002,None,455.3884427480002,None,,,,,,,,,,,,,,,,,,,021020,0,1,0,1,1,1,2,0,2,2020_Feb_10_1403,listening_fmri,3.2.4,60.24377208614247,
2,,,,,,,,,,0,0,0,0,0,2,2,2,0,0,0,0,0,0,0,0,,,,,,,,,,,,,,,,,,,,,,,,,,,,,,,,,,,,,,,,,,,,,,,,,,,,,,,,,,,,,,,,,,,,,,,,,,,,,,,,,,,,,,,,,,,,,,,,,,,,,,472.921846876,None,1,1.1307928910000555,472.921846876,None,472.921846876,None,474.0932375699999,None,474.0932375699999,None,474.0932375699999,None,1,1.7493978080001398,474.0932375699999,None,021020,0,1,0,1,1,1,2,0,2,2020_Feb_10_1403,listening_fmri,3.2.4,60.24377208614247,
2,parcelated_audio/32/32_1.ogg,,,,,,,,,0,0,0,0,0,2,2,2,0,0,0,0,,,,,,,,,0,0,0,0,0,0,0,0,,,,,,,,,,,,,,,,,,,,,,,,,,,,,,,,,,,,475.8602374500001,None,1,2.2543862829998034,475.8602374500001,None,425.11838937599987,428.13377099399986,428.146409596,439.504602085,,,,,,,,,,,,,,,,,,,,,,,,,,,,,,,,,,,,,,,,,,,,,,,,,,,,,,,,,,,,,,,021020,0,1,0,1,1,1,2,0,2,2020_Feb_10_1403,listening_fmri,3.2.4,60.24377208614247,
2,parcelated_audio/32/32_2.ogg,,,,,,,,,0,0,0,0,0,2,2,2,0,0,0,0,,,,,,,,,0,0,0,0,0,1,1,1,,,,,,,,,,,,,,,,,,,,,,,,,,,,,,,,,,,,,,,,,,,,439.5053094929999,447.82734465099975,,,,,,,,,,,,,,,,,,,,,,,,,,,,,,,,,,,,,,,,,,,,,,,,,,,,,,,,,,,,,,,021020,0,1,0,1,1,1,2,0,2,2020_Feb_10_1403,listening_fmri,3.2.4,60.24377208614247,
2,parcelated_audio/32/32_3.ogg,,,,,,,,,0,0,0,0,0,2,2,2,0,0,0,0,,,,,,,,,0,0,0,0,0,2,2,2,,,,,,,,,,,,,,,,,,,,,,,,,,,,,,,,,,,,,,,,,,,,447.8277334559998,453.40127682499997,,,,,,,,,,,,,,,,,,,,,,,,,,,,,,,,,,,,,,,,,,,,,,,,,,,,,,,,,,,,,,,021020,0,1,0,1,1,1,2,0,2,2020_Feb_10_1403,listening_fmri,3.2.4,60.24377208614247,
2,parcelated_audio/32/32_4.ogg,,,,,,,,,0,0,0,0,0,2,2,2,0,0,0,0,,,,,,,,,0,0,0,0,0,3,3,3,,,,,,,,,,,,,,,,,,,,,,,,,,,,,,,,,,,,,,,,,,,,453.4016718130001,460.10143558599975,,,,,,,,,,,,,,,,,,,,,,,,,,,,,,,,,,,,,,,,,,,,,,,,,,,,,,,,,,,,,,,021020,0,1,0,1,1,1,2,0,2,2020_Feb_10_1403,listening_fmri,3.2.4,60.24377208614247,
2,parcelated_audio/32/32_5.ogg,,,,,,,,,0,0,0,0,0,2,2,2,0,0,0,0,,,,,,,,,0,0,0,0,0,4,4,4,,,,,,,,,,,,,,,,,,,,,,,,,,,,,,,,,,,,,,,,,,,,460.101795263,471.7785602449999,,,,,,,,,,,,,,,,,,,,,,,,,,,,,,,,,,,,,,,,,,,,,,,,,,,,,,,,,,,,,,,021020,0,1,0,1,1,1,2,0,2,2020_Feb_10_1403,listening_fmri,3.2.4,60.24377208614247,
2,parcelated_audio/32/32_6.ogg,,,,,,,,,0,0,0,0,0,2,2,2,0,0,0,0,,,,,,,,,0,0,0,0,0,5,5,5,,,,,,,,,,,,,,,,,,,,,,,,,,,,,,,,,,,,,,,,,,,,471.7789757219998,480.26228907199993,,,,,,,,,,,,,,,,,,,,,,,,,,,,,,,,,,,,,,,,,,,,,,,,,,,,,,,,,,,,,,,021020,0,1,0,1,1,1,2,0,2,2020_Feb_10_1403,listening_fmri,3.2.4,60.24377208614247,
2,parcelated_audio/32/32_7.ogg,,,,,,,,,0,0,0,0,0,2,2,2,0,0,0,0,,,,,,,,,0,0,0,0,0,6,6,6,,,,,,,,,,,,,,,,,,,,,,,,,,,,,,,,,,,,,,,,,,,,480.2626276269998,483.66599697699985,,,,,,,,,,,,,,,,,,,,,,,,,,,,,,,,,,,,,,,,,,,,,,,,,,,,,,,,,,,,,,,021020,0,1,0,1,1,1,2,0,2,2020_Feb_10_1403,listening_fmri,3.2.4,60.24377208614247,
2,parcelated_audio/32/32_8.ogg,,,,,,,,,0,0,0,0,0,2,2,2,0,0,0,0,,,,,,,,,0,0,0,0,0,7,7,7,,,,,,,,,,,,,,,,,,,,,,,,,,,,,,,,,,,,,,,,,,,,483.66630275399984,488.13359053099975,,,,,,,,,,,,,,,,,,,,,,,,,,,,,,,,,,,,,,,,,,,,,,,,,,,,,,,,,,,,,,,021020,0,1,0,1,1,1,2,0,2,2020_Feb_10_1403,listening_fmri,3.2.4,60.24377208614247,
2,parcelated_audio/32/32_9.ogg,,,,,,,,,0,0,0,0,0,2,2,2,0,0,0,0,,,,,,,,,0,0,0,0,0,8,8,8,,,,,,,,,,,,,,,,,,,,,,,,,,,,,,,,,,,,,,,,,,,,488.1340654119999,496.8074899029998,,,,,,,,,,,,,,,,,,,,,,,,,,,,,,,,,,,,,,,,,,,,,,,,,,,,,,,,,,,,,,,021020,0,1,0,1,1,1,2,0,2,2020_Feb_10_1403,listening_fmri,3.2.4,60.24377208614247,
2,parcelated_audio/32/32_10.ogg,,,,,,,,,0,0,0,0,0,2,2,2,0,0,0,0,,,,,,,,,0,0,0,0,0,9,9,9,,,,,,,,,,,,,,,,,,,,,,,,,,,,,,,,,,,,,,,,,,,,496.8079912959997,501.47336232099997,,,,,,,,,,,,,,,,,,,,,,,,,,,,,,,,,,,,,,,,,,,,,,,,,,,,,,,,,,,,,,,021020,0,1,0,1,1,1,2,0,2,2020_Feb_10_1403,listening_fmri,3.2.4,60.24377208614247,
2,parcelated_audio/32/32_11.ogg,,,,,,,,,0,0,0,0,0,2,2,2,0,0,0,0,,,,,,,,,0,0,0,0,0,10,10,10,,,,,,,,,,,,,,,,,,,,,,,,,,,,,,,,,,,,,,,,,,,,501.4737076030001,507.64444152299984,,,,,,,,,,,,,,,,,,,,,,,,,,,,,,,,,,,,,,,,,,,,,,,,,,,,,,,,,,,,,,,021020,0,1,0,1,1,1,2,0,2,2020_Feb_10_1403,listening_fmri,3.2.4,60.24377208614247,
2,parcelated_audio/32/32_12.ogg,,,,,,,,,0,0,0,0,0,2,2,2,0,0,0,0,,,,,,,,,0,0,0,0,0,11,11,11,,,,,,,,,,,,,,,,,,,,,,,,,,,,,,,,,,,,,,,,,,,,507.644797554,517.1022009869998,,,,,,,,,,,,,,,,,,,,,,,,,,,,,,,,,,,,,,,,,,,,,,,,,,,,,,,,,,,,,,,021020,0,1,0,1,1,1,2,0,2,2020_Feb_10_1403,listening_fmri,3.2.4,60.24377208614247,
2,parcelated_audio/32/32_13.ogg,,,,,,,,,0,0,0,0,0,2,2,2,0,0,0,0,,,,,,,,,0,0,0,0,0,12,12,12,,,,,,,,,,,,,,,,,,,,,,,,,,,,,,,,,,,,,,,,,,,,517.1027112219999,526.7110353109997,,,,,,,,,,,,,,,,,,,,,,,,,,,,,,,,,,,,,,,,,,,,,,,,,,,,,,,,,,,,,,,021020,0,1,0,1,1,1,2,0,2,2020_Feb_10_1403,listening_fmri,3.2.4,60.24377208614247,
2,parcelated_audio/32/32_14.ogg,,,,,,,,,0,0,0,0,0,2,2,2,0,0,0,0,,,,,,,,,0,0,0,0,0,13,13,13,,,,,,,,,,,,,,,,,,,,,,,,,,,,,,,,,,,,,,,,,,,,526.711375333,534.8124220179998,,,,,,,,,,,,,,,,,,,,,,,,,,,,,,,,,,,,,,,,,,,,,,,,,,,,,,,,,,,,,,,021020,0,1,0,1,1,1,2,0,2,2020_Feb_10_1403,listening_fmri,3.2.4,60.24377208614247,
2,parcelated_audio/32/32_15.ogg,,,,,,,,,0,0,0,0,0,2,2,2,0,0,0,0,,,,,,,,,0,0,0,0,0,14,14,14,,,,,,,,,,,,,,,,,,,,,,,,,,,,,,,,,,,,,,,,,,,,534.8129265749999,541.6872574280001,,,,,,,,,,,,,,,,,,,,,,,,,,,,,,,,,,,,,,,,,,,,,,,,,,,,,,,,,,,,,,,021020,0,1,0,1,1,1,2,0,2,2020_Feb_10_1403,listening_fmri,3.2.4,60.24377208614247,
2,parcelated_audio/32/32_16.ogg,,,,,,,,,0,0,0,0,0,2,2,2,0,0,0,0,,,,,,,,,0,0,0,0,0,15,15,15,,,,,,,,,,,,,,,,,,,,,,,,,,,,,,,,,,,,,,,,,,,,541.687658281,549.3048344640001,,,,,,,,,,,,,,,,,,,,,,,,,,,,,,,,,,,,,,,,,,,,,,,,,,,,,,,,,,,,,,,021020,0,1,0,1,1,1,2,0,2,2020_Feb_10_1403,listening_fmri,3.2.4,60.24377208614247,
2,parcelated_audio/32/32_17.ogg,,,,,,,,,0,0,0,0,0,2,2,2,0,0,0,0,,,,,,,,,0,0,0,0,0,16,16,16,,,,,,,,,,,,,,,,,,,,,,,,,,,,,,,,,,,,,,,,,,,,549.3052171469999,557.5983352059998,,,,,,,,,,,,,,,,,,,,,,,,,,,,,,,,,,,,,,,,,,,,,,,,,,,,,,,,,,,,,,,021020,0,1,0,1,1,1,2,0,2,2020_Feb_10_1403,listening_fmri,3.2.4,60.24377208614247,
2,parcelated_audio/32/32_18.ogg,,,,,,,,,0,0,0,0,0,2,2,2,0,0,0,0,,,,,,,,,0,0,0,0,0,17,17,17,,,,,,,,,,,,,,,,,,,,,,,,,,,,,,,,,,,,,,,,,,,,557.598669683,561.8723347609998,,,,,,,,,,,,,,,,,,,,,,,,,,,,,,,,,,,,,,,,,,,,,,,,,,,,,,,,,,,,,,,021020,0,1,0,1,1,1,2,0,2,2020_Feb_10_1403,listening_fmri,3.2.4,60.24377208614247,
2,parcelated_audio/32/32_19.ogg,,,,,,,,,0,0,0,0,0,2,2,2,0,0,0,0,,,,,,,,,0,0,0,0,0,18,18,18,,,,,,,,,,,,,,,,,,,,,,,,,,,,,,,,,,,,,,,,,,,,561.874643569,569.920660018,,,,,,,,,,,,,,,,,,,,,,,,,,,,,,,,,,,,,,,,,,,,,,,,,,,,,,,,,,,,,,,021020,0,1,0,1,1,1,2,0,2,2020_Feb_10_1403,listening_fmri,3.2.4,60.24377208614247,
2,parcelated_audio/32/32_20.ogg,,,,,,,,,0,0,0,0,0,2,2,2,0,0,0,0,,,,,,,,,0,0,0,0,0,19,19,19,,,,,,,,,,,,,,,,,,,,,,,,,,,,,,,,,,,,,,,,,,,,569.9212741420001,580.8047105999999,,,,,,,,,,,,,,,,,,,,,,,,,,,,,,,,,,,,,,,,,,,,,,,,,,,,,,,,,,,,,,,021020,0,1,0,1,1,1,2,0,2,2020_Feb_10_1403,listening_fmri,3.2.4,60.24377208614247,
2,parcelated_audio/32/32_21.ogg,,,,,,,,,0,0,0,0,0,2,2,2,0,0,0,0,,,,,,,,,0,0,0,0,0,20,20,20,,,,,,,,,,,,,,,,,,,,,,,,,,,,,,,,,,,,,,,,,,,,580.8050586119998,589.6474688479998,,,,,,,,,,,,,,,,,,,,,,,,,,,,,,,,,,,,,,,,,,,,,,,,,,,,,,,,,,,,,,,021020,0,1,0,1,1,1,2,0,2,2020_Feb_10_1403,listening_fmri,3.2.4,60.24377208614247,
2,parcelated_audio/32/32_22.ogg,,,,,,,,,0,0,0,0,0,2,2,2,0,0,0,0,,,,,,,,,0,0,0,0,0,21,21,21,,,,,,,,,,,,,,,,,,,,,,,,,,,,,,,,,,,,,,,,,,,,589.6478141110001,603.6815013350001,,,,,,,,,,,,,,,,,,,,,,,,,,,,,,,,,,,,,,,,,,,,,,,,,,,,,,,,,,,,,,,021020,0,1,0,1,1,1,2,0,2,2020_Feb_10_1403,listening_fmri,3.2.4,60.24377208614247,
2,parcelated_audio/32/32_23.ogg,,,,,,,,,0,0,0,0,0,2,2,2,0,0,0,0,,,,,,,,,0,0,0,0,0,22,22,22,,,,,,,,,,,,,,,,,,,,,,,,,,,,,,,,,,,,,,,,,,,,603.6818595639998,612.7135034909998,,,,,,,,,,,,,,,,,,,,,,,,,,,,,,,,,,,,,,,,,,,,,,,,,,,,,,,,,,,,,,,021020,0,1,0,1,1,1,2,0,2,2020_Feb_10_1403,listening_fmri,3.2.4,60.24377208614247,
2,parcelated_audio/32/32_24.ogg,,,,,,,,,0,0,0,0,0,2,2,2,0,0,0,0,,,,,,,,,0,0,0,0,0,23,23,23,,,,,,,,,,,,,,,,,,,,,,,,,,,,,,,,,,,,,,,,,,,,612.7138539849998,624.019242933,,,,,,,,,,,,,,,,,,,,,,,,,,,,,,,,,,,,,,,,,,,,,,,,,,,,,,,,,,,,,,,021020,0,1,0,1,1,1,2,0,2,2020_Feb_10_1403,listening_fmri,3.2.4,60.24377208614247,
2,parcelated_audio/32/32_25.ogg,,,,,,,,,0,0,0,0,0,2,2,2,0,0,0,0,,,,,,,,,0,0,0,0,0,24,24,24,,,,,,,,,,,,,,,,,,,,,,,,,,,,,,,,,,,,,,,,,,,,624.01961639,630.0778294009997,,,,,,,,,,,,,,,,,,,,,,,,,,,,,,,,,,,,,,,,,,,,,,,,,,,,,,,,,,,,,,,021020,0,1,0,1,1,1,2,0,2,2020_Feb_10_1403,listening_fmri,3.2.4,60.24377208614247,
2,parcelated_audio/32/32_26.ogg,,,,,,,,,0,0,0,0,0,2,2,2,0,0,0,0,,,,,,,,,0,0,0,0,0,25,25,25,,,,,,,,,,,,,,,,,,,,,,,,,,,,,,,,,,,,,,,,,,,,630.0781439259999,643.4366475719999,,,,,,,,,,,,,,,,,,,,,,,,,,,,,,,,,,,,,,,,,,,,,,,,,,,,,,,,,,,,,,,021020,0,1,0,1,1,1,2,0,2,2020_Feb_10_1403,listening_fmri,3.2.4,60.24377208614247,
2,parcelated_audio/32/32_27.ogg,,,,,,,,,0,0,0,0,0,2,2,2,0,0,0,0,,,,,,,,,0,0,0,0,0,26,26,26,,,,,,,,,,,,,,,,,,,,,,,,,,,,,,,,,,,,,,,,,,,,643.4370793819999,650.3747747409998,,,,,,,,,,,,,,,,,,,,,,,,,,,,,,,,,,,,,,,,,,,,,,,,,,,,,,,,,,,,,,,021020,0,1,0,1,1,1,2,0,2,2020_Feb_10_1403,listening_fmri,3.2.4,60.24377208614247,
2,parcelated_audio/32/32_28.ogg,,,,,,,,,0,0,0,0,0,2,2,2,0,0,0,0,,,,,,,,,0,0,0,0,0,27,27,27,,,,,,,,,,,,,,,,,,,,,,,,,,,,,,,,,,,,,,,,,,,,650.3751065339998,657.0574674079999,,,,,,,,,,,,,,,,,,,,,,,,,,,,,,,,,,,,,,,,,,,,,,,,,,,,,,,,,,,,,,,021020,0,1,0,1,1,1,2,0,2,2020_Feb_10_1403,listening_fmri,3.2.4,60.24377208614247,
2,parcelated_audio/32/32_29.ogg,,,,,,,,,0,0,0,0,0,2,2,2,0,0,0,0,,,,,,,,,0,0,0,0,0,28,28,28,,,,,,,,,,,,,,,,,,,,,,,,,,,,,,,,,,,,,,,,,,,,657.057789122,659.7123560089999,,,,,,,,,,,,,,,,,,,,,,,,,,,,,,,,,,,,,,,,,,,,,,,,,,,,,,,,,,,,,,,021020,0,1,0,1,1,1,2,0,2,2020_Feb_10_1403,listening_fmri,3.2.4,60.24377208614247,
2,parcelated_audio/32/32_30.ogg,,,,,,,,,0,0,0,0,0,2,2,2,0,0,0,0,,,,,,,,,0,0,0,0,0,29,29,29,,,,,,,,,,,,,,,,,,,,,,,,,,,,,,,,,,,,,,,,,,,,659.7127058819997,666.7552875239999,,,,,,,,,,,,,,,,,,,,,,,,,,,,,,,,,,,,,,,,,,,,,,,,,,,,,,,,,,,,,,,021020,0,1,0,1,1,1,2,0,2,2020_Feb_10_1403,listening_fmri,3.2.4,60.24377208614247,
2,parcelated_audio/32/32_31.ogg,,,,,,,,,0,0,0,0,0,2,2,2,0,0,0,0,,,,,,,,,0,0,0,0,0,30,30,30,,,,,,,,,,,,,,,,,,,,,,,,,,,,,,,,,,,,,,,,,,,,666.7556555789997,673.1042966159998,,,,,,,,,,,,,,,,,,,,,,,,,,,,,,,,,,,,,,,,,,,,,,,,,,,,,,,,,,,,,,,021020,0,1,0,1,1,1,2,0,2,2020_Feb_10_1403,listening_fmri,3.2.4,60.24377208614247,
2,parcelated_audio/32/32_32.ogg,,,,,,,,,0,0,0,0,0,2,2,2,0,0,0,0,,,,,,,,,0,0,0,0,0,31,31,31,,,,,,,,,,,,,,,,,,,,,,,,,,,,,,,,,,,,,,,,,,,,673.10459369,682.805491181,,,,,,,,,,,,,,,,,,,,,,,,,,,,,,,,,,,,,,,,,,,,,,,,,,,,,,,,,,,,,,,021020,0,1,0,1,1,1,2,0,2,2020_Feb_10_1403,listening_fmri,3.2.4,60.24377208614247,
2,parcelated_audio/32/32_33.ogg,,,,,,,,,0,0,0,0,0,2,2,2,0,0,0,0,,,,,,,,,0,0,0,0,0,32,32,32,,,,,,,,,,,,,,,,,,,,,,,,,,,,,,,,,,,,,,,,,,,,682.8058312170001,688.5567656170001,,,,,,,,,,,,,,,,,,,,,,,,,,,,,,,,,,,,,,,,,,,,,,,,,,,,,,,,,,,,,,,021020,0,1,0,1,1,1,2,0,2,2020_Feb_10_1403,listening_fmri,3.2.4,60.24377208614247,
2,,,,,,,,,,0,0,0,0,0,2,2,2,0,0,0,0,,,,,,,,,0,0,0,0,,,,,,,,,,,,,,,,,,,,,,,,,,,,,,,,,,,,,,,,,,,,,,,,,,,,,,,,,,,,,,,,,,,,,,,,,,,,,,,,,,,,,,,,,,,,,,,,,,,,,,,,,,,,,,,,021020,0,1,0,1,1,1,2,0,2,2020_Feb_10_1403,listening_fmri,3.2.4,60.24377208614247,
2,,,,,,,,,,0,0,0,0,0,2,2,2,0,0,0,0,,,,,,,,,,,,,,,,,,,,,,,,,,,,,,,,,,,,,,688.5572553659999,694.557079871,741.5769963309999,None,,,,,,,,,,,,,,,,,,,,,747.5778850730003,None,747.5778850730003,None,,,,,,,,,,,,,,,,,,,,,,,,,,,,,,,,,,,,,,,,,,,,,,,,,,,,,,,,,,,021020,0,1,0,1,1,1,2,0,2,2020_Feb_10_1403,listening_fmri,3.2.4,60.24377208614247,
2,,,,,,,,,,0,0,0,0,0,2,2,2,,,,,,,,,,,,,,,,,,,,,,,,,,,,,,,,,,,,,,,,,,,,,,,,,,,,,,,,,,,,,,,,,,,,,,,,,,,,,,,,,,,,,,,,,,,,,,,,,,,,,,,,,,,,,,,,,,,,,,,,,,,,,,,,021020,0,1,0,1,1,1,2,0,2,2020_Feb_10_1403,listening_fmri,3.2.4,60.24377208614247,
3,,,,,,,,,,0,0,0,0,0,3,3,3,0,0,0,0,0,0,0,0,,,,,,,,,,,,,,,,,0,0,0,0,,,,,,,,,,,,,,,,,,748.5933287960002,None,748.5933287960002,None,1,3.9543175960002372,748.5933287960002,None,748.5933287960002,None,,,,,,,,,,,,,,,752.5770725860002,None,1,0.9513939010003014,752.5770725860002,None,752.5770725860002,None,753.577420089,None,753.577420089,None,753.577420089,None,1,1.543214610999712,753.577420089,None,755.14426529,None,1,0.9482499020000432,755.14426529,None,755.14426529,None,756.1771770270002,None,756.1771770270002,None,756.1771770270002,None,756.1771770270002,None,756.1771770270002,None,756.1771770270002,None,756.1771770270002,None,,,,,,,,,,,,,,,,,,,021020,0,1,0,1,1,1,2,0,2,2020_Feb_10_1403,listening_fmri,3.2.4,60.24377208614247,
3,,,,,,,,,,0,0,0,0,0,3,3,3,0,0,0,0,0,0,0,0,,,,,,,,,,,,,,,,,,,,,,,,,,,,,,,,,,,,,,,,,,,,,,,,,,,,,,,,,,,,,,,,,,,,,,,,,,,,,,,,,,,,,,,,,,,,,,,,,,,,,,770.910809294,None,1,1.6666868890001751,770.910809294,None,770.910809294,None,772.6270892440002,None,772.6270892440002,None,772.6270892440002,None,1,2.6045511610000176,772.6270892440002,None,021020,0,1,0,1,1,1,2,0,2,2020_Feb_10_1403,listening_fmri,3.2.4,60.24377208614247,
3,parcelated_audio/41/41_1.ogg,,,,,,,,,0,0,0,0,0,3,3,3,0,0,0,0,,,,,,,,,0,0,0,0,0,0,0,0,,,,,,,,,,,,,,,,,,,,,,,,,,,,,,,,,,,,775.260702687,None,1,4.519783059000019,775.260702687,None,726.8496929869998,729.8504190449999,729.8561730060001,738.9672513840001,,,,,,,,,,,,,,,,,,,,,,,,,,,,,,,,,,,,,,,,,,,,,,,,,,,,,,,,,,,,,,,021020,0,1,0,1,1,1,2,0,2,2020_Feb_10_1403,listening_fmri,3.2.4,60.24377208614247,
3,parcelated_audio/41/41_2.ogg,,,,,,,,,0,0,0,0,0,3,3,3,0,0,0,0,,,,,,,,,0,0,0,0,0,1,1,1,,,,,,,,,,,,,,,,,,,,,,,,,,,,,,,,,,,,,,,,,,,,738.9676005359997,746.209367769,,,,,,,,,,,,,,,,,,,,,,,,,,,,,,,,,,,,,,,,,,,,,,,,,,,,,,,,,,,,,,,021020,0,1,0,1,1,1,2,0,2,2020_Feb_10_1403,listening_fmri,3.2.4,60.24377208614247,
3,parcelated_audio/41/41_3.ogg,,,,,,,,,0,0,0,0,0,3,3,3,0,0,0,0,,,,,,,,,0,0,0,0,0,2,2,2,,,,,,,,,,,,,,,,,,,,,,,,,,,,,,,,,,,,,,,,,,,,746.209713573,750.5053007689999,,,,,,,,,,,,,,,,,,,,,,,,,,,,,,,,,,,,,,,,,,,,,,,,,,,,,,,,,,,,,,,021020,0,1,0,1,1,1,2,0,2,2020_Feb_10_1403,listening_fmri,3.2.4,60.24377208614247,
3,parcelated_audio/41/41_4.ogg,,,,,,,,,0,0,0,0,0,3,3,3,0,0,0,0,,,,,,,,,0,0,0,0,0,3,3,3,,,,,,,,,,,,,,,,,,,,,,,,,,,,,,,,,,,,,,,,,,,,750.5056410930001,754.4550665439997,,,,,,,,,,,,,,,,,,,,,,,,,,,,,,,,,,,,,,,,,,,,,,,,,,,,,,,,,,,,,,,021020,0,1,0,1,1,1,2,0,2,2020_Feb_10_1403,listening_fmri,3.2.4,60.24377208614247,
3,parcelated_audio/41/41_5.ogg,,,,,,,,,0,0,0,0,0,3,3,3,0,0,0,0,,,,,,,,,0,0,0,0,0,4,4,4,,,,,,,,,,,,,,,,,,,,,,,,,,,,,,,,,,,,,,,,,,,,754.4554353869999,760.5782442109999,,,,,,,,,,,,,,,,,,,,,,,,,,,,,,,,,,,,,,,,,,,,,,,,,,,,,,,,,,,,,,,021020,0,1,0,1,1,1,2,0,2,2020_Feb_10_1403,listening_fmri,3.2.4,60.24377208614247,
3,parcelated_audio/41/41_6.ogg,,,,,,,,,0,0,0,0,0,3,3,3,0,0,0,0,,,,,,,,,0,0,0,0,0,5,5,5,,,,,,,,,,,,,,,,,,,,,,,,,,,,,,,,,,,,,,,,,,,,760.5786624869997,770.501936876,,,,,,,,,,,,,,,,,,,,,,,,,,,,,,,,,,,,,,,,,,,,,,,,,,,,,,,,,,,,,,,021020,0,1,0,1,1,1,2,0,2,2020_Feb_10_1403,listening_fmri,3.2.4,60.24377208614247,
3,parcelated_audio/41/41_7.ogg,,,,,,,,,0,0,0,0,0,3,3,3,0,0,0,0,,,,,,,,,0,0,0,0,0,6,6,6,,,,,,,,,,,,,,,,,,,,,,,,,,,,,,,,,,,,,,,,,,,,770.5022606719999,778.2408635419997,,,,,,,,,,,,,,,,,,,,,,,,,,,,,,,,,,,,,,,,,,,,,,,,,,,,,,,,,,,,,,,021020,0,1,0,1,1,1,2,0,2,2020_Feb_10_1403,listening_fmri,3.2.4,60.24377208614247,
3,parcelated_audio/41/41_8.ogg,,,,,,,,,0,0,0,0,0,3,3,3,0,0,0,0,,,,,,,,,0,0,0,0,0,7,7,7,,,,,,,,,,,,,,,,,,,,,,,,,,,,,,,,,,,,,,,,,,,,778.241597794,782.4670735199998,,,,,,,,,,,,,,,,,,,,,,,,,,,,,,,,,,,,,,,,,,,,,,,,,,,,,,,,,,,,,,,021020,0,1,0,1,1,1,2,0,2,2020_Feb_10_1403,listening_fmri,3.2.4,60.24377208614247,
3,parcelated_audio/41/41_9.ogg,,,,,,,,,0,0,0,0,0,3,3,3,0,0,0,0,,,,,,,,,0,0,0,0,0,8,8,8,,,,,,,,,,,,,,,,,,,,,,,,,,,,,,,,,,,,,,,,,,,,782.4674117099999,792.1313423849997,,,,,,,,,,,,,,,,,,,,,,,,,,,,,,,,,,,,,,,,,,,,,,,,,,,,,,,,,,,,,,,021020,0,1,0,1,1,1,2,0,2,2020_Feb_10_1403,listening_fmri,3.2.4,60.24377208614247,
3,parcelated_audio/41/41_10.ogg,,,,,,,,,0,0,0,0,0,3,3,3,0,0,0,0,,,,,,,,,0,0,0,0,0,9,9,9,,,,,,,,,,,,,,,,,,,,,,,,,,,,,,,,,,,,,,,,,,,,792.1322092679998,798.6351957339998,,,,,,,,,,,,,,,,,,,,,,,,,,,,,,,,,,,,,,,,,,,,,,,,,,,,,,,,,,,,,,,021020,0,1,0,1,1,1,2,0,2,2020_Feb_10_1403,listening_fmri,3.2.4,60.24377208614247,
