count,storyText,locationEvent,socialEvent,locationEventSize,socialEventSize,instructText,trials.thisRepN,trials.thisTrialN,trials.thisN,trials.thisIndex,trials_7.thisRepN,trials_7.thisTrialN,trials_7.thisN,trials_7.thisIndex,trials_2.thisRepN,trials_2.thisTrialN,trials_2.thisN,trials_2.thisIndex,trials_3.thisRepN,trials_3.thisTrialN,trials_3.thisN,trials_3.thisIndex,trials_4.thisRepN,trials_4.thisTrialN,trials_4.thisN,trials_4.thisIndex,trials_5.thisRepN,trials_5.thisTrialN,trials_5.thisN,trials_5.thisIndex,trials_6.thisRepN,trials_6.thisTrialN,trials_6.thisN,trials_6.thisIndex,trials_8.thisRepN,trials_8.thisTrialN,trials_8.thisN,trials_8.thisIndex,order of stories,order of perspectives,key_resp_8.keys,key_resp_8.rt,key_resp_5.keys,key_resp_5.rt,key_resp_7.keys,key_resp_7.rt,story_presses.keys,story_presses.rt,story time,key_resp_6.keys,key_resp_6.rt,key_resp_2.keys,key_resp_2.rt,key_resp_10.keys,key_resp_10.rt,recall,recall time,key_resp_12.keys,key_resp_12.rt,key_resp_3.keys,key_resp_3.rt,key_resp_11.keys,key_resp_11.rt,question1_answer,order of question,question2_answer,question3_answer,question4_answer,question5_answer,question6_answer,question7_answer,question8_answer,questions time,key_resp_13.keys,key_resp_13.rt,participant,session,date,expName,psychopyVersion,frameRate,
0,,,,,,,0,0,0,0,0,0,0,0,,,,,,,,,,,,,,,,,,,,,,,,,[24 43 11 32 34 13 22 41],"['Social' 'Social' 'Social' 'Social' 'Location' 'Location' 'Location'
 'Location']",space,11.622540381998988,space,1.2697770200029481,space,0.9030076600029133,,,,,,,,,,,,,,,,,,,,,,,,,,,,,,030519_p2,001,2019_Mar_05_1146,body_behavioural,3.0.4,59.837507656181195,
0,"Lana walked into lecture holding hands with her boyfriend, Aaron, who was trying to contain his excitement and anticipation for proposing to Lana in this class. ",1,1,,,,0,0,0,0,,,,,0,0,0,0,,,,,,,,,,,,,,,,,,,,,,,,,,,,,9,13.0513951920002,,,,,,,,,,,,,,,,,,,,,,,,,,,,030519_p2,001,2019_Mar_05_1146,body_behavioural,3.0.4,59.837507656181195,
0,"Lana was lost in thought, still puzzling over a calculus problem on her problem set due that night.",1,1,,,,0,0,0,0,,,,,0,1,1,1,,,,,,,,,,,,,,,,,,,,,,,,,,,,,1,3.686574004997965,,,,,,,,,,,,,,,,,,,,,,,,,,,,030519_p2,001,2019_Mar_05_1146,body_behavioural,3.0.4,59.837507656181195,
0,"The lecture hall was the fanciest one at Princeton, with chandeliers, high ceilings, wood floors and double-decker chalkboards.",1,1,,,,0,0,0,0,,,,,0,2,2,2,,,,,,,,,,,,,,,,,,,,,,,,,,,,,1,6.519750724997721,,,,,,,,,,,,,,,,,,,,,,,,,,,,030519_p2,001,2019_Mar_05_1146,body_behavioural,3.0.4,59.837507656181195,
0,"This is where Aaron and Lana had met two years ago during an economics class, and now they were back together in the same lecture hall for their Chemistry class. ",1,1,,,,0,0,0,0,,,,,0,3,3,3,,,,,,,,,,,,,,,,,,,,,,,,,,,,,1,9.401286605003406,,,,,,,,,,,,,,,,,,,,,,,,,,,,030519_p2,001,2019_Mar_05_1146,body_behavioural,3.0.4,59.837507656181195,
0,The professor caught Aaron's eye as he walked up to the front of the classroom and gave him a wink before the lecture began. ,1,1,,,,0,0,0,0,,,,,0,4,4,4,,,,,,,,,,,,,,,,,,,,,,,,,,,,,1,4.451013900004909,,,,,,,,,,,,,,,,,,,,,,,,,,,,030519_p2,001,2019_Mar_05_1146,body_behavioural,3.0.4,59.837507656181195,
0,Aaron responded with a huge grin. ,1,1,,,,0,0,0,0,,,,,0,5,5,5,,,,,,,,,,,,,,,,,,,,,,,,,,,,,1,2.1698439469910227,,,,,,,,,,,,,,,,,,,,,,,,,,,,030519_p2,001,2019_Mar_05_1146,body_behavioural,3.0.4,59.837507656181195,
0,"The professor cleared his throat and said,“Alright, good afternoon, everyone!",2,1,,,,0,0,0,0,,,,,0,6,6,6,,,,,,,,,,,,,,,,,,,,,,,,,,,,,9,4.803184641990811,,,,,,,,,,,,,,,,,,,,,,,,,,,,030519_p2,001,2019_Mar_05_1146,body_behavioural,3.0.4,59.837507656181195,
0,"Last week we talked about the structure of the periodic table, and this week the topic is ions.",2,1,,,,0,0,0,0,,,,,0,7,7,7,,,,,,,,,,,,,,,,,,,,,,,,,,,,,9,5.134408081998117,,,,,,,,,,,,,,,,,,,,,,,,,,,,030519_p2,001,2019_Mar_05_1146,body_behavioural,3.0.4,59.837507656181195,
0,These are atoms or molecules in which the number of electrons does not equal the number of protons.,2,1,,,,0,0,0,0,,,,,0,8,8,8,,,,,,,,,,,,,,,,,,,,,,,,,,,,,9,4.219865966995712,,,,,,,,,,,,,,,,,,,,,,,,,,,,030519_p2,001,2019_Mar_05_1146,body_behavioural,3.0.4,59.837507656181195,
0,"Now, let me get my computer set up, one moment, class.”",2,1,,,,0,0,0,0,,,,,0,9,9,9,,,,,,,,,,,,,,,,,,,,,,,,,,,,,9,2.8365820749895647,,,,,,,,,,,,,,,,,,,,,,,,,,,,030519_p2,001,2019_Mar_05_1146,body_behavioural,3.0.4,59.837507656181195,
0,Lana pulled out her Calculus problem set and puzzled over it.,2,1,,,,0,0,0,0,,,,,0,10,10,10,,,,,,,,,,,,,,,,,,,,,,,,,,,,,1,8.12025526999787,,,,,,,,,,,,,,,,,,,,,,,,,,,,030519_p2,001,2019_Mar_05_1146,body_behavioural,3.0.4,59.837507656181195,
0,"While she was distracted, Aaron unzipped the small pocket in his backpack and pulled out the ring box.",2,2,,,,0,0,0,0,,,,,0,11,11,11,,,,,,,,,,,,,,,,,,,,,,,,,,,,,1,9.63688479999837,,,,,,,,,,,,,,,,,,,,,,,,,,,,030519_p2,001,2019_Mar_05_1146,body_behavioural,3.0.4,59.837507656181195,
0,He opened it up and looked at the ring.,2,2,,,,0,0,0,0,,,,,0,12,12,12,,,,,,,,,,,,,,,,,,,,,,,,,,,,,1,2.719782430009218,,,,,,,,,,,,,,,,,,,,,,,,,,,,030519_p2,001,2019_Mar_05_1146,body_behavioural,3.0.4,59.837507656181195,
0,"Instead of one large diamond, there were 5 diamonds embedded in a thick band. ",2,2,,,,0,0,0,0,,,,,0,13,13,13,,,,,,,,,,,,,,,,,,,,,,,,,,,,,1,4.936642166998354,,,,,,,,,,,,,,,,,,,,,,,,,,,,030519_p2,001,2019_Mar_05_1146,body_behavioural,3.0.4,59.837507656181195,
0,He knew Lana would like this because her style was not flashy but more about simple elegance.,2,2,,,,0,0,0,0,,,,,0,14,14,14,,,,,,,,,,,,,,,,,,,,,,,,,,,,,1,3.5191676399990683,,,,,,,,,,,,,,,,,,,,,,,,,,,,030519_p2,001,2019_Mar_05_1146,body_behavioural,3.0.4,59.837507656181195,
0,Aaron put the ring back into the bag as the professor began the lecture. ,3,2,,,,0,0,0,0,,,,,0,15,15,15,,,,,,,,,,,,,,,,,,,,,,,,,,,,,1,1.6872537860035663,,,,,,,,,,,,,,,,,,,,,,,,,,,,030519_p2,001,2019_Mar_05_1146,body_behavioural,3.0.4,59.837507656181195,
0,“Recall from previous lectures that the number of protons determines the identity of the element. ,3,2,,,,0,0,0,0,,,,,0,16,16,16,,,,,,,,,,,,,,,,,,,,,,,,,,,,,9,2.8195570670068264,,,,,,,,,,,,,,,,,,,,,,,,,,,,030519_p2,001,2019_Mar_05_1146,body_behavioural,3.0.4,59.837507656181195,
0,"So for example, all atoms of sodium have 11 protons in the nucleus. ",3,2,,,,0,0,0,0,,,,,0,17,17,17,,,,,,,,,,,,,,,,,,,,,,,,,,,,,1,9.403678471993771,,,,,,,,,,,,,,,,,,,,,,,,,,,,030519_p2,001,2019_Mar_05_1146,body_behavioural,3.0.4,59.837507656181195,
0,"And if you look on the periodic table, the atomic number for sodium, the symbol is Na, is eleven.”",3,2,,,,0,0,0,0,,,,,0,18,18,18,,,,,,,,,,,,,,,,,,,,,,,,,,,,,1,4.353485176994582,,,,,,,,,,,,,,,,,,,,,,,,,,,,030519_p2,001,2019_Mar_05_1146,body_behavioural,3.0.4,59.837507656181195,
0,Lana was taking notes while Aaron was texting all of his friends in the class to get ready for the proposal. ,3,2,,,,0,0,0,0,,,,,0,19,19,19,,,,,,,,,,,,,,,,,,,,,,,,,,,,,1,2.936468155006878,,,,,,,,,,,,,,,,,,,,,,,,,,,,030519_p2,001,2019_Mar_05_1146,body_behavioural,3.0.4,59.837507656181195,
0,"Right after talking about how two ions bond into one stable molecule by covalent bonds, the professor stopped the lecture and asked Lana to come to the front of the class to do a demonstration. ",3,2,,,,0,0,0,0,,,,,0,20,20,20,,,,,,,,,,,,,,,,,,,,,,,,,,,,,9,20.087814419995993,,,,,,,,,,,,,,,,,,,,,,,,,,,,030519_p2,001,2019_Mar_05_1146,body_behavioural,3.0.4,59.837507656181195,
0,"She walked to the front of the class confused, and the professor asked her to stand in the middle of the stage.",3,2,,,,0,0,0,0,,,,,0,21,21,21,,,,,,,,,,,,,,,,,,,,,,,,,,,,,1,3.2531608720018994,,,,,,,,,,,,,,,,,,,,,,,,,,,,030519_p2,001,2019_Mar_05_1146,body_behavioural,3.0.4,59.837507656181195,
0,"Then Aaron walked up and, taking Lana’s hand, got down on one knee. ",3,3,,,,0,0,0,0,,,,,0,22,22,22,,,,,,,,,,,,,,,,,,,,,,,,,,,,,1,4.369362039986299,,,,,,,,,,,,,,,,,,,,,,,,,,,,030519_p2,001,2019_Mar_05_1146,body_behavioural,3.0.4,59.837507656181195,
0,"“It's time for us to make a bond of our own, Lana.",3,3,,,,0,0,0,0,,,,,0,23,23,23,,,,,,,,,,,,,,,,,,,,,,,,,,,,,1,3.1365824900130974,,,,,,,,,,,,,,,,,,,,,,,,,,,,030519_p2,001,2019_Mar_05_1146,body_behavioural,3.0.4,59.837507656181195,
0,Will you marry me?” ,3,3,,,,0,0,0,0,,,,,0,24,24,24,,,,,,,,,,,,,,,,,,,,,,,,,,,,,1,1.086829656996997,,,,,,,,,,,,,,,,,,,,,,,,,,,,030519_p2,001,2019_Mar_05_1146,body_behavioural,3.0.4,59.837507656181195,
0,Lana gasped and put her other hand to her mouth and started looking around the room as if trying to convince herself that this was really happening.,3,3,,,,0,0,0,0,,,,,0,25,25,25,,,,,,,,,,,,,,,,,,,,,,,,,,,,,9,4.184034689998953,,,,,,,,,,,,,,,,,,,,,,,,,,,,030519_p2,001,2019_Mar_05_1146,body_behavioural,3.0.4,59.837507656181195,
0,For a few moments everyone was in suspense waiting for the Lana’s shock to wear off and for her to answer. ,3,3,,,,0,0,0,0,,,,,0,26,26,26,,,,,,,,,,,,,,,,,,,,,,,,,,,,,1,13.820601726998575,,,,,,,,,,,,,,,,,,,,,,,,,,,,030519_p2,001,2019_Mar_05_1146,body_behavioural,3.0.4,59.837507656181195,
0,"Finally, she said, “Yes!”",3,4,,,,0,0,0,0,,,,,0,27,27,27,,,,,,,,,,,,,,,,,,,,,,,,,,,,,9,5.519364598003449,,,,,,,,,,,,,,,,,,,,,,,,,,,,030519_p2,001,2019_Mar_05_1146,body_behavioural,3.0.4,59.837507656181195,
0,"Aaron put the ring on her finger, and they hugged while the whole class clapped. ",3,4,,,,0,0,0,0,,,,,0,28,28,28,,,,,,,,,,,,,,,,,,,,,,,,,,,,,1,4.951874714999576,,,,,,,,,,,,,,,,,,,,,,,,,,,,030519_p2,001,2019_Mar_05_1146,body_behavioural,3.0.4,59.837507656181195,
0,"Their friends came up and hugged both of them, and the professor gave Aaron a celebratory handshake.",3,4,,,,0,0,0,0,,,,,0,29,29,29,,,,,,,,,,,,,,,,,,,,,,,,,,,,,1,2.753250020003179,,,,,,,,,,,,,,,,,,,,,,,,,,,,030519_p2,001,2019_Mar_05_1146,body_behavioural,3.0.4,59.837507656181195,
0,"They made their way back to their seats, Lana and Aaron hand-in-hand and beaming. ",3,4,,,,0,0,0,0,,,,,0,30,30,30,,,,,,,,,,,,,,,,,,,,,,,,,,,,,1,2.703267920005601,,,,,,,,,,,,,,,,,,,,,,,,,,,,030519_p2,001,2019_Mar_05_1146,body_behavioural,3.0.4,59.837507656181195,
0,"The professor then dismissed the class, saying, “That was enough excitement for today!",4,4,,,,0,0,0,0,,,,,0,31,31,31,,,,,,,,,,,,,,,,,,,,,,,,,,,,,1,1.920023967002635,,,,,,,,,,,,,,,,,,,,,,,,,,,,030519_p2,001,2019_Mar_05_1146,body_behavioural,3.0.4,59.837507656181195,
0,Don’t forget there’s an exam next week on the first two chapters of the textbook.”,4,4,,,,0,0,0,0,,,,,0,32,32,32,,,,,,,,,,,,,,,,,,,,,,,,,,,,,1,4.55314376699971,,,,,,,,,,,,,,,,,,,,,,,,,,,,030519_p2,001,2019_Mar_05_1146,body_behavioural,3.0.4,59.837507656181195,
0,"As everyone was packing up their notebooks and leaving, Lana was already on her phone calling her family members to tell them the exciting news.",4,4,,,,0,0,0,0,,,,,0,33,33,33,,,,,,,,,,,,,,,,,,,,,,,,,,,,,1,4.119467156997416,,,,,,,,,,,,,,,,,,,,,,,,,,,,030519_p2,001,2019_Mar_05_1146,body_behavioural,3.0.4,59.837507656181195,
0,,,,,,,0,0,0,0,,,,,,,,,,,,,,,,,,,,,,,,,,,,,,,,,,,,,,,,,,,,,,,,,,,,,,,,,,,,,,,,,,030519_p2,001,2019_Mar_05_1146,body_behavioural,3.0.4,59.837507656181195,
1,,,,,,,0,1,1,1,0,0,0,0,,,,,,,,,,,,,,,,,,,,,,,,,,,space,2.9866681420098757,space,0.6527883649978321,space,3.7697047500114422,,,,,,,,,,,,,,,,,,,,,,,,,,,,,,030519_p2,001,2019_Mar_05_1146,body_behavioural,3.0.4,59.837507656181195,
1,"Simon and Carina noticed each other as they walked into the grocery store at the same time, their carts nearly colliding as they squeezed into the entrance.",1,1,,,,0,1,1,1,,,,,0,0,0,0,,,,,,,,,,,,,,,,,,,,,,,,,,,,,9,11.371112009990611,,,,,,,,,,,,,,,,,,,,,,,,,,,,030519_p2,001,2019_Mar_05_1146,body_behavioural,3.0.4,59.837507656181195,
1,"They were both new to the Boston area, and this was their first time in this store. ",1,1,,,,0,1,1,1,,,,,0,1,1,1,,,,,,,,,,,,,,,,,,,,,,,,,,,,,1,4.269937639997806,,,,,,,,,,,,,,,,,,,,,,,,,,,,030519_p2,001,2019_Mar_05_1146,body_behavioural,3.0.4,59.837507656181195,
1,"It kind of looked like a large warehouse, with high unfurnished ceilings, industrial lights, and large packages of food. ",1,1,,,,0,1,1,1,,,,,0,2,2,2,,,,,,,,,,,,,,,,,,,,,,,,,,,,,1,8.85369003500091,,,,,,,,,,,,,,,,,,,,,,,,,,,,030519_p2,001,2019_Mar_05_1146,body_behavioural,3.0.4,59.837507656181195,
1,"They went off along separate routes, but soon ended up back together in the meat section. ",2,1,,,,0,1,1,1,,,,,0,3,3,3,,,,,,,,,,,,,,,,,,,,,,,,,,,,,1,5.086157122001168,,,,,,,,,,,,,,,,,,,,,,,,,,,,030519_p2,001,2019_Mar_05_1146,body_behavioural,3.0.4,59.837507656181195,
1,"They were both preparing for barbecues, so they were looking over the same cuts of meat. ",2,1,,,,0,1,1,1,,,,,0,4,4,4,,,,,,,,,,,,,,,,,,,,,,,,,,,,,1,2.436007599986624,,,,,,,,,,,,,,,,,,,,,,,,,,,,030519_p2,001,2019_Mar_05_1146,body_behavioural,3.0.4,59.837507656181195,
1,"Simon really wanted to talk to Carina, and Carina really wanted to say something to Simon, but they felt embarrassed striking up a conversation with a stranger.",2,1,,,,0,1,1,1,,,,,0,5,5,5,,,,,,,,,,,,,,,,,,,,,,,,,,,,,1,4.434306680006557,,,,,,,,,,,,,,,,,,,,,,,,,,,,030519_p2,001,2019_Mar_05_1146,body_behavioural,3.0.4,59.837507656181195,
1,"Carina suddenly turned to Simon and, pointing at a Cornish hen, asked, “Isn’t this meat cute?”",2,2,,,,0,1,1,1,,,,,0,6,6,6,,,,,,,,,,,,,,,,,,,,,,,,,,,,,9,4.901104921998922,,,,,,,,,,,,,,,,,,,,,,,,,,,,030519_p2,001,2019_Mar_05_1146,body_behavioural,3.0.4,59.837507656181195,
1,"He laughed, and said, “It is very cute.",2,2,,,,0,1,1,1,,,,,0,7,7,7,,,,,,,,,,,,,,,,,,,,,,,,,,,,,1,0.9533327980025206,,,,,,,,,,,,,,,,,,,,,,,,,,,,030519_p2,001,2019_Mar_05_1146,body_behavioural,3.0.4,59.837507656181195,
1,"Probably the younger brother of this guy,” and he picked up a regular-sized chicken.",2,2,,,,0,1,1,1,,,,,0,8,8,8,,,,,,,,,,,,,,,,,,,,,,,,,,,,,1,1.68679113300459,,,,,,,,,,,,,,,,,,,,,,,,,,,,030519_p2,001,2019_Mar_05_1146,body_behavioural,3.0.4,59.837507656181195,
1,"“Unlucky family,” she responded. ",2,2,,,,0,1,1,1,,,,,0,9,9,9,,,,,,,,,,,,,,,,,,,,,,,,,,,,,1,1.2530482419970213,,,,,,,,,,,,,,,,,,,,,,,,,,,,030519_p2,001,2019_Mar_05_1146,body_behavioural,3.0.4,59.837507656181195,
1,They continued to chat as they picked out their groceries.,2,2,,,,0,1,1,1,,,,,0,10,10,10,,,,,,,,,,,,,,,,,,,,,,,,,,,,,1,1.9359147470095195,,,,,,,,,,,,,,,,,,,,,,,,,,,,030519_p2,001,2019_Mar_05_1146,body_behavioural,3.0.4,59.837507656181195,
1,"Simon helped Carina pick out the best ribs and his personal favorite barbeque sauce, and she helped him gather the  peppers, onions, and spices for a vegetable kabob she recommended.",2,2,,,,0,1,1,1,,,,,0,11,11,11,,,,,,,,,,,,,,,,,,,,,,,,,,,,,1,4.486328432991286,,,,,,,,,,,,,,,,,,,,,,,,,,,,030519_p2,001,2019_Mar_05_1146,body_behavioural,3.0.4,59.837507656181195,
1,"When they were both finished shopping, they went to the checkout area.",3,2,,,,0,1,1,1,,,,,0,12,12,12,,,,,,,,,,,,,,,,,,,,,,,,,,,,,1,2.585929036999005,,,,,,,,,,,,,,,,,,,,,,,,,,,,030519_p2,001,2019_Mar_05_1146,body_behavioural,3.0.4,59.837507656181195,
1,"Simon was disappointed to see that the lines were short, since he had been hoping for an excuse to spend more time with Carina.",3,2,,,,0,1,1,1,,,,,0,13,13,13,,,,,,,,,,,,,,,,,,,,,,,,,,,,,1,4.834367998002563,,,,,,,,,,,,,,,,,,,,,,,,,,,,030519_p2,001,2019_Mar_05_1146,body_behavioural,3.0.4,59.837507656181195,
1,"They had real chemistry, and both of them could definitely see a future together despite having just met.",3,2,,,,0,1,1,1,,,,,0,14,14,14,,,,,,,,,,,,,,,,,,,,,,,,,,,,,1,5.019908920003218,,,,,,,,,,,,,,,,,,,,,,,,,,,,030519_p2,001,2019_Mar_05_1146,body_behavioural,3.0.4,59.837507656181195,
1,"“So you haven’t been around the city much?”, Simon asked. ",3,2,,,,0,1,1,1,,,,,0,15,15,15,,,,,,,,,,,,,,,,,,,,,,,,,,,,,1,3.719989555000211,,,,,,,,,,,,,,,,,,,,,,,,,,,,030519_p2,001,2019_Mar_05_1146,body_behavioural,3.0.4,59.837507656181195,
1,"“No, not really.",3,2,,,,0,1,1,1,,,,,0,16,16,16,,,,,,,,,,,,,,,,,,,,,,,,,,,,,1,0.7197258369997144,,,,,,,,,,,,,,,,,,,,,,,,,,,,030519_p2,001,2019_Mar_05_1146,body_behavioural,3.0.4,59.837507656181195,
1,I’ve mainly been working and setting up my apartment.”,3,2,,,,0,1,1,1,,,,,0,17,17,17,,,,,,,,,,,,,,,,,,,,,,,,,,,,,1,1.1368150280031841,,,,,,,,,,,,,,,,,,,,,,,,,,,,030519_p2,001,2019_Mar_05_1146,body_behavioural,3.0.4,59.837507656181195,
1,"Simon asked her, “Ok well, if you’d like I could pick you up next weekend, and we could go around Harvard Square and get dinner.",3,3,,,,0,1,1,1,,,,,0,18,18,18,,,,,,,,,,,,,,,,,,,,,,,,,,,,,9,3.952625680001802,,,,,,,,,,,,,,,,,,,,,,,,,,,,030519_p2,001,2019_Mar_05_1146,body_behavioural,3.0.4,59.837507656181195,
1,"There are a lot of great places around there, and it’s really nice during the summer.",3,3,,,,0,1,1,1,,,,,0,19,19,19,,,,,,,,,,,,,,,,,,,,,,,,,,,,,1,1.7527359550003894,,,,,,,,,,,,,,,,,,,,,,,,,,,,030519_p2,001,2019_Mar_05_1146,body_behavioural,3.0.4,59.837507656181195,
1,The Harvard campus is also beautiful.” ,3,3,,,,0,1,1,1,,,,,0,20,20,20,,,,,,,,,,,,,,,,,,,,,,,,,,,,,1,1.1202129750017775,,,,,,,,,,,,,,,,,,,,,,,,,,,,030519_p2,001,2019_Mar_05_1146,body_behavioural,3.0.4,59.837507656181195,
1,"Carina smiled, “I’d love to: that sounds great!”",3,3,,,,0,1,1,1,,,,,0,21,21,21,,,,,,,,,,,,,,,,,,,,,,,,,,,,,1,1.5699266170122428,,,,,,,,,,,,,,,,,,,,,,,,,,,,030519_p2,001,2019_Mar_05_1146,body_behavioural,3.0.4,59.837507656181195,
1,"She quickly entered her number in his phone, since they only had to wait a couple minutes in line.",3,3,,,,0,1,1,1,,,,,0,22,22,22,,,,,,,,,,,,,,,,,,,,,,,,,,,,,1,2.403386367004714,,,,,,,,,,,,,,,,,,,,,,,,,,,,030519_p2,001,2019_Mar_05_1146,body_behavioural,3.0.4,59.837507656181195,
1,Then it was her turn to check out with the cashier. ,4,3,,,,0,1,1,1,,,,,0,23,23,23,,,,,,,,,,,,,,,,,,,,,,,,,,,,,1,2.1863883400073973,,,,,,,,,,,,,,,,,,,,,,,,,,,,030519_p2,001,2019_Mar_05_1146,body_behavioural,3.0.4,59.837507656181195,
1,"Simon, wanting to make a gesture of his affection, lifted up the divider on the conveyor belt and said to the cashier, “Actually these are together.",4,3,,,,0,1,1,1,,,,,0,24,24,24,,,,,,,,,,,,,,,,,,,,,,,,,,,,,1,10.353716455007088,,,,,,,,,,,,,,,,,,,,,,,,,,,,030519_p2,001,2019_Mar_05_1146,body_behavioural,3.0.4,59.837507656181195,
1,"Carina, I’ve got it.",4,3,,,,0,1,1,1,,,,,0,25,25,25,,,,,,,,,,,,,,,,,,,,,,,,,,,,,1,2.6675024020078126,,,,,,,,,,,,,,,,,,,,,,,,,,,,030519_p2,001,2019_Mar_05_1146,body_behavioural,3.0.4,59.837507656181195,
1,This was kind-of a date today.”,4,3,,,,0,1,1,1,,,,,0,26,26,26,,,,,,,,,,,,,,,,,,,,,,,,,,,,,1,3.0864357920072507,,,,,,,,,,,,,,,,,,,,,,,,,,,,030519_p2,001,2019_Mar_05_1146,body_behavioural,3.0.4,59.837507656181195,
1,Carina blushed and laughed; she thought this was ridiculous but also very sweet. ,4,3,,,,0,1,1,1,,,,,0,27,27,27,,,,,,,,,,,,,,,,,,,,,,,,,,,,,1,5.11993302499468,,,,,,,,,,,,,,,,,,,,,,,,,,,,030519_p2,001,2019_Mar_05_1146,body_behavioural,3.0.4,59.837507656181195,
1,"The cashier rolled her eyes when they weren’t looking, and she scanned the rest of his items. ",4,3,,,,0,1,1,1,,,,,0,28,28,28,,,,,,,,,,,,,,,,,,,,,,,,,,,,,1,3.369900930003496,,,,,,,,,,,,,,,,,,,,,,,,,,,,030519_p2,001,2019_Mar_05_1146,body_behavioural,3.0.4,59.837507656181195,
1,"The total came to $120, and he paid with his credit card.",4,3,,,,0,1,1,1,,,,,0,29,29,29,,,,,,,,,,,,,,,,,,,,,,,,,,,,,1,2.187125666998327,,,,,,,,,,,,,,,,,,,,,,,,,,,,030519_p2,001,2019_Mar_05_1146,body_behavioural,3.0.4,59.837507656181195,
1,"Carina thanked him, and they took the groceries and walked out.",4,3,,,,0,1,1,1,,,,,0,30,30,30,,,,,,,,,,,,,,,,,,,,,,,,,,,,,1,2.7039332329877652,,,,,,,,,,,,,,,,,,,,,,,,,,,,030519_p2,001,2019_Mar_05_1146,body_behavioural,3.0.4,59.837507656181195,
1,"As they were walking towards the exit, Carina reluctantly said goodbye since she was running late for the barbeque she was hosting that afternoon.",4,4,,,,0,1,1,1,,,,,0,31,31,31,,,,,,,,,,,,,,,,,,,,,,,,,,,,,9,6.386893326998688,,,,,,,,,,,,,,,,,,,,,,,,,,,,030519_p2,001,2019_Mar_05_1146,body_behavioural,3.0.4,59.837507656181195,
1,"They hugged and parted ways, stealing glances at each other as they both walked back to their cars.",4,4,,,,0,1,1,1,,,,,0,32,32,32,,,,,,,,,,,,,,,,,,,,,,,,,,,,,1,2.25327168199874,,,,,,,,,,,,,,,,,,,,,,,,,,,,030519_p2,001,2019_Mar_05_1146,body_behavioural,3.0.4,59.837507656181195,
1,,,,,,,0,1,1,1,,,,,,,,,,,,,,,,,,,,,,,,,,,,,,,,,,,,,,,,,,,,,,,,,,,,,,,,,,,,,,,,,,030519_p2,001,2019_Mar_05_1146,body_behavioural,3.0.4,59.837507656181195,
2,,,,,,,0,2,2,2,0,0,0,0,,,,,,,,,,,,,,,,,,,,,,,,,,,space,0.9530988399928901,space,0.6531439349928405,space,0.5696400970045943,,,,,,,,,,,,,,,,,,,,,,,,,,,,,,030519_p2,001,2019_Mar_05_1146,body_behavioural,3.0.4,59.837507656181195,
2,"Thomas, dreading the conversation he was about to have, got to Annika’s Finer Diner early.",1,1,None,None,,0,2,2,2,,,,,0,0,0,0,,,,,,,,,,,,,,,,,,,,,,,,,,,,,9,11.170558152007288,,,,,,,,,,,,,,,,,,,,,,,,,,,,030519_p2,001,2019_Mar_05_1146,body_behavioural,3.0.4,59.837507656181195,
2,The restaurant had a kitschy charm and was reminiscent of a diner from the 70’s. ,1,1,None,None,,0,2,2,2,,,,,0,1,1,1,,,,,,,,,,,,,,,,,,,,,,,,,,,,,1,2.536389839995536,,,,,,,,,,,,,,,,,,,,,,,,,,,,030519_p2,001,2019_Mar_05_1146,body_behavioural,3.0.4,59.837507656181195,
2,A bell chimed as the door swung open and Sadie entered to find Thomas deep in thought on a bench by the door.,1,1,None,None,,0,2,2,2,,,,,0,2,2,2,,,,,,,,,,,,,,,,,,,,,,,,,,,,,1,10.153621680001379,,,,,,,,,,,,,,,,,,,,,,,,,,,,030519_p2,001,2019_Mar_05_1146,body_behavioural,3.0.4,59.837507656181195,
2,He jumped up and gave her a side hug. ,1,1,None,None,,0,2,2,2,,,,,0,3,3,3,,,,,,,,,,,,,,,,,,,,,,,,,,,,,1,3.7675959970074473,,,,,,,,,,,,,,,,,,,,,,,,,,,,030519_p2,001,2019_Mar_05_1146,body_behavioural,3.0.4,59.837507656181195,
2,"“How was your day?”, he asked.",1,1,None,None,,0,2,2,2,,,,,0,4,4,4,,,,,,,,,,,,,,,,,,,,,,,,,,,,,1,1.7863751749973744,,,,,,,,,,,,,,,,,,,,,,,,,,,,030519_p2,001,2019_Mar_05_1146,body_behavioural,3.0.4,59.837507656181195,
2,"She clung onto him, “It was okay.",1,1,None,None,,0,2,2,2,,,,,0,5,5,5,,,,,,,,,,,,,,,,,,,,,,,,,,,,,1,0.9195178349909838,,,,,,,,,,,,,,,,,,,,,,,,,,,,030519_p2,001,2019_Mar_05_1146,body_behavioural,3.0.4,59.837507656181195,
2,I missed you today.”,1,1,None,None,,0,2,2,2,,,,,0,6,6,6,,,,,,,,,,,,,,,,,,,,,,,,,,,,,1,0.9696626329969149,,,,,,,,,,,,,,,,,,,,,,,,,,,,030519_p2,001,2019_Mar_05_1146,body_behavioural,3.0.4,59.837507656181195,
2,He looked at the hostess coming towards them.,1,1,None,None,,0,2,2,2,,,,,0,7,7,7,,,,,,,,,,,,,,,,,,,,,,,,,,,,,1,1.2526682299940148,,,,,,,,,,,,,,,,,,,,,,,,,,,,030519_p2,001,2019_Mar_05_1146,body_behavioural,3.0.4,59.837507656181195,
2,"“Can we have a table in the back?”, Thomas asked.",1,1,None,None,,0,2,2,2,,,,,0,8,8,8,,,,,,,,,,,,,,,,,,,,,,,,,,,,,1,2.6509098850074224,,,,,,,,,,,,,,,,,,,,,,,,,,,,030519_p2,001,2019_Mar_05_1146,body_behavioural,3.0.4,59.837507656181195,
2,"She shrugged and, as she loudly popped her bubblegum, replied, “Sure, honey, this way.”",1,1,9.0,None,,0,2,2,2,,,,,0,9,9,9,,,,,,,,,,,,,,,,,,,,,,,,,,,,,1,2.0841178970003966,,,,,,,,,,,,,,,,,,,,,,,,,,,,030519_p2,001,2019_Mar_05_1146,body_behavioural,3.0.4,59.837507656181195,
2,She led them to the back of the restaurant where there were dimly lit tables. ,2,1,None,None,,0,2,2,2,,,,,0,10,10,10,,,,,,,,,,,,,,,,,,,,,,,,,,,,,1,1.3863444750022609,,,,,,,,,,,,,,,,,,,,,,,,,,,,030519_p2,001,2019_Mar_05_1146,body_behavioural,3.0.4,59.837507656181195,
2,"“Is this alright?”, the hostess asked.",2,1,None,None,,0,2,2,2,,,,,0,11,11,11,,,,,,,,,,,,,,,,,,,,,,,,,,,,,1,1.1340741500025615,,,,,,,,,,,,,,,,,,,,,,,,,,,,030519_p2,001,2019_Mar_05_1146,body_behavioural,3.0.4,59.837507656181195,
2,Thomas cleared his throat and tried not to grimace at the stained fabric that lined the booth.,2,1,None,None,,0,2,2,2,,,,,0,12,12,12,,,,,,,,,,,,,,,,,,,,,,,,,,,,,1,4.086537245006184,,,,,,,,,,,,,,,,,,,,,,,,,,,,030519_p2,001,2019_Mar_05_1146,body_behavioural,3.0.4,59.837507656181195,
2,“This is great.,2,1,None,None,,0,2,2,2,,,,,0,13,13,13,,,,,,,,,,,,,,,,,,,,,,,,,,,,,1,0.719513857999118,,,,,,,,,,,,,,,,,,,,,,,,,,,,030519_p2,001,2019_Mar_05_1146,body_behavioural,3.0.4,59.837507656181195,
2,"Thank you,” Thomas said.",2,1,None,None,,0,2,2,2,,,,,0,14,14,14,,,,,,,,,,,,,,,,,,,,,,,,,,,,,1,0.4868685080000432,,,,,,,,,,,,,,,,,,,,,,,,,,,,030519_p2,001,2019_Mar_05_1146,body_behavioural,3.0.4,59.837507656181195,
2,Sadie slipped into the cushioned seat and grabbed Thomas’ hand.,2,1,None,None,,0,2,2,2,,,,,0,15,15,15,,,,,,,,,,,,,,,,,,,,,,,,,,,,,1,7.41861863899976,,,,,,,,,,,,,,,,,,,,,,,,,,,,030519_p2,001,2019_Mar_05_1146,body_behavioural,3.0.4,59.837507656181195,
2,"“Tell me about your day!”, Sadie sang as Thomas sat down.",2,1,None,None,,0,2,2,2,,,,,0,16,16,16,,,,,,,,,,,,,,,,,,,,,,,,,,,,,1,1.9848551869945368,,,,,,,,,,,,,,,,,,,,,,,,,,,,030519_p2,001,2019_Mar_05_1146,body_behavioural,3.0.4,59.837507656181195,
2,He looked at her silently and pulled his hand slowly from hers.,2,1,None,None,,0,2,2,2,,,,,0,17,17,17,,,,,,,,,,,,,,,,,,,,,,,,,,,,,1,4.55325210999581,,,,,,,,,,,,,,,,,,,,,,,,,,,,030519_p2,001,2019_Mar_05_1146,body_behavioural,3.0.4,59.837507656181195,
2,Sadie gave him a puzzled look.,2,1,None,None,,0,2,2,2,,,,,0,18,18,18,,,,,,,,,,,,,,,,,,,,,,,,,,,,,1,1.787330806007958,,,,,,,,,,,,,,,,,,,,,,,,,,,,030519_p2,001,2019_Mar_05_1146,body_behavioural,3.0.4,59.837507656181195,
2,Thomas looked away and took a deep breath. ,2,1,None,None,,0,2,2,2,,,,,0,19,19,19,,,,,,,,,,,,,,,,,,,,,,,,,,,,,1,2.319822657009354,,,,,,,,,,,,,,,,,,,,,,,,,,,,030519_p2,001,2019_Mar_05_1146,body_behavioural,3.0.4,59.837507656181195,
2,"Sadie asked, “What’s wrong?” ",2,1,None,None,,0,2,2,2,,,,,0,20,20,20,,,,,,,,,,,,,,,,,,,,,,,,,,,,,1,3.7033258470037254,,,,,,,,,,,,,,,,,,,,,,,,,,,,030519_p2,001,2019_Mar_05_1146,body_behavioural,3.0.4,59.837507656181195,
2,Thomas picked at his fingernails.,2,1,None,22.0,,0,2,2,2,,,,,0,21,21,21,,,,,,,,,,,,,,,,,,,,,,,,,,,,,1,0.7696554249996552,,,,,,,,,,,,,,,,,,,,,,,,,,,,030519_p2,001,2019_Mar_05_1146,body_behavioural,3.0.4,59.837507656181195,
2,"“Sadie, I’ve been thinking, and I need to figure out some stuff… on my own.”",2,2,None,None,,0,2,2,2,,,,,0,22,22,22,,,,,,,,,,,,,,,,,,,,,,,,,,,,,9,1.320393891990534,,,,,,,,,,,,,,,,,,,,,,,,,,,,030519_p2,001,2019_Mar_05_1146,body_behavioural,3.0.4,59.837507656181195,
2,Sadie’s mouth popped open for a moment.,2,2,None,None,,0,2,2,2,,,,,0,23,23,23,,,,,,,,,,,,,,,,,,,,,,,,,,,,,1,1.2008366800000658,,,,,,,,,,,,,,,,,,,,,,,,,,,,030519_p2,001,2019_Mar_05_1146,body_behavioural,3.0.4,59.837507656181195,
2,Then she swallowed and shifted back in her seat.,2,2,None,None,,0,2,2,2,,,,,0,24,24,24,,,,,,,,,,,,,,,,,,,,,,,,,,,,,9,14.687348899999051,,,,,,,,,,,,,,,,,,,,,,,,,,,,030519_p2,001,2019_Mar_05_1146,body_behavioural,3.0.4,59.837507656181195,
2,“Things have been really picking up at work.,2,2,None,None,,0,2,2,2,,,,,0,25,25,25,,,,,,,,,,,,,,,,,,,,,,,,,,,,,1,3.2365602369973203,,,,,,,,,,,,,,,,,,,,,,,,,,,,030519_p2,001,2019_Mar_05_1146,body_behavioural,3.0.4,59.837507656181195,
2,And I’m not sure that this is the job I want to do anymore.,2,2,None,None,,0,2,2,2,,,,,0,26,26,26,,,,,,,,,,,,,,,,,,,,,,,,,,,,,1,2.7197508399985963,,,,,,,,,,,,,,,,,,,,,,,,,,,,030519_p2,001,2019_Mar_05_1146,body_behavioural,3.0.4,59.837507656181195,
2,It’s been really overwhelming between working and figuring out if I should change careers.” ,2,2,17.0,None,,0,2,2,2,,,,,0,27,27,27,,,,,,,,,,,,,,,,,,,,,,,,,,,,,1,1.1695197299995925,,,,,,,,,,,,,,,,,,,,,,,,,,,,030519_p2,001,2019_Mar_05_1146,body_behavioural,3.0.4,59.837507656181195,
2,The waiter appeared and interrupted the speech Thomas had been practicing.,3,2,None,None,,0,2,2,2,,,,,0,28,28,28,,,,,,,,,,,,,,,,,,,,,,,,,,,,,1,2.5029814270092174,,,,,,,,,,,,,,,,,,,,,,,,,,,,030519_p2,001,2019_Mar_05_1146,body_behavioural,3.0.4,59.837507656181195,
2,"“Hello you two!”, the waiter said.",3,2,None,None,,0,2,2,2,,,,,0,29,29,29,,,,,,,,,,,,,,,,,,,,,,,,,,,,,1,1.1529665400012163,,,,,,,,,,,,,,,,,,,,,,,,,,,,030519_p2,001,2019_Mar_05_1146,body_behavioural,3.0.4,59.837507656181195,
2,“Have you decided what you would like?”,3,2,None,None,,0,2,2,2,,,,,0,30,30,30,,,,,,,,,,,,,,,,,,,,,,,,,,,,,1,0.9006365629902575,,,,,,,,,,,,,,,,,,,,,,,,,,,,030519_p2,001,2019_Mar_05_1146,body_behavioural,3.0.4,59.837507656181195,
2,"Thomas and Sadie realized there were menus on the table, and they glanced at the lengthy list quickly.",3,2,None,None,,0,2,2,2,,,,,0,31,31,31,,,,,,,,,,,,,,,,,,,,,,,,,,,,,1,3.0031408020004164,,,,,,,,,,,,,,,,,,,,,,,,,,,,030519_p2,001,2019_Mar_05_1146,body_behavioural,3.0.4,59.837507656181195,
2,"There were so many strange dishes they had never heard of before, so they settled on familiar orders.",3,2,None,None,,0,2,2,2,,,,,0,32,32,32,,,,,,,,,,,,,,,,,,,,,,,,,,,,,1,1.6533806100051152,,,,,,,,,,,,,,,,,,,,,,,,,,,,030519_p2,001,2019_Mar_05_1146,body_behavioural,3.0.4,59.837507656181195,
2,"“I’ll have a burger, no tomatoes,” Thomas said.",3,2,None,None,,0,2,2,2,,,,,0,33,33,33,,,,,,,,,,,,,,,,,,,,,,,,,,,,,1,1.8011497219995363,,,,,,,,,,,,,,,,,,,,,,,,,,,,030519_p2,001,2019_Mar_05_1146,body_behavioural,3.0.4,59.837507656181195,
2,"Sadie asked about the reuben, and the waiter told her it was excellent.",3,2,None,None,,0,2,2,2,,,,,0,34,34,34,,,,,,,,,,,,,,,,,,,,,,,,,,,,,1,1.8366583669994725,,,,,,,,,,,,,,,,,,,,,,,,,,,,030519_p2,001,2019_Mar_05_1146,body_behavioural,3.0.4,59.837507656181195,
2,"Once she agreed to get that, he walked away. ",3,2,None,None,,0,2,2,2,,,,,0,35,35,35,,,,,,,,,,,,,,,,,,,,,,,,,,,,,1,1.0333492450008634,,,,,,,,,,,,,,,,,,,,,,,,,,,,030519_p2,001,2019_Mar_05_1146,body_behavioural,3.0.4,59.837507656181195,
2,Sadie and Thomas looked at each other. ,3,2,None,None,,0,2,2,2,,,,,0,36,36,36,,,,,,,,,,,,,,,,,,,,,,,,,,,,,1,0.9533283329947153,,,,,,,,,,,,,,,,,,,,,,,,,,,,030519_p2,001,2019_Mar_05_1146,body_behavioural,3.0.4,59.837507656181195,
2,"“So what are you saying?”, Sadie asked. ",3,2,None,None,,0,2,2,2,,,,,0,37,37,37,,,,,,,,,,,,,,,,,,,,,,,,,,,,,9,2.153076257003704,,,,,,,,,,,,,,,,,,,,,,,,,,,,030519_p2,001,2019_Mar_05_1146,body_behavioural,3.0.4,59.837507656181195,
2,"Thomas replied, “I want to take a break for awhile.",3,2,None,None,,0,2,2,2,,,,,0,38,38,38,,,,,,,,,,,,,,,,,,,,,,,,,,,,,1,0.8696812569978647,,,,,,,,,,,,,,,,,,,,,,,,,,,,030519_p2,001,2019_Mar_05_1146,body_behavioural,3.0.4,59.837507656181195,
2,"You know, have space to figure out what I’m supposed to be doing.”",3,2,None,17.0,,0,2,2,2,,,,,0,39,39,39,,,,,,,,,,,,,,,,,,,,,,,,,,,,,1,1.2526310749963159,,,,,,,,,,,,,,,,,,,,,,,,,,,,030519_p2,001,2019_Mar_05_1146,body_behavioural,3.0.4,59.837507656181195,
2,Sadie quietly burst into tears. ,3,3,None,None,,0,2,2,2,,,,,0,40,40,40,,,,,,,,,,,,,,,,,,,,,,,,,,,,,9,1.2196897719986737,,,,,,,,,,,,,,,,,,,,,,,,,,,,030519_p2,001,2019_Mar_05_1146,body_behavioural,3.0.4,59.837507656181195,
2,"Nevertheless, people sitting at the adjacent table looked over and quickly averted their gaze as they realized what was happening. ",3,3,None,None,,0,2,2,2,,,,,0,41,41,41,,,,,,,,,,,,,,,,,,,,,,,,,,,,,1,2.2860760649928125,,,,,,,,,,,,,,,,,,,,,,,,,,,,030519_p2,001,2019_Mar_05_1146,body_behavioural,3.0.4,59.837507656181195,
2,“Is this really what you want?,3,3,None,None,,0,2,2,2,,,,,0,42,42,42,,,,,,,,,,,,,,,,,,,,,,,,,,,,,1,1.8865286619984545,,,,,,,,,,,,,,,,,,,,,,,,,,,,030519_p2,001,2019_Mar_05_1146,body_behavioural,3.0.4,59.837507656181195,
2,I don’t understand.,3,3,None,None,,0,2,2,2,,,,,0,43,43,43,,,,,,,,,,,,,,,,,,,,,,,,,,,,,1,0.5196199970087036,,,,,,,,,,,,,,,,,,,,,,,,,,,,030519_p2,001,2019_Mar_05_1146,body_behavioural,3.0.4,59.837507656181195,
2,I don’t understand.,3,3,None,None,,0,2,2,2,,,,,0,44,44,44,,,,,,,,,,,,,,,,,,,,,,,,,,,,,1,1.1507438749977155,,,,,,,,,,,,,,,,,,,,,,,,,,,,030519_p2,001,2019_Mar_05_1146,body_behavioural,3.0.4,59.837507656181195,
2,Things were fine. ,3,3,None,None,,0,2,2,2,,,,,0,45,45,45,,,,,,,,,,,,,,,,,,,,,,,,,,,,,1,1.1530835970042972,,,,,,,,,,,,,,,,,,,,,,,,,,,,030519_p2,001,2019_Mar_05_1146,body_behavioural,3.0.4,59.837507656181195,
2,"We don’t have to hang out all the time, or as much as we do now.”",3,3,None,None,,0,2,2,2,,,,,0,46,46,46,,,,,,,,,,,,,,,,,,,,,,,,,,,,,1,3.502857254992705,,,,,,,,,,,,,,,,,,,,,,,,,,,,030519_p2,001,2019_Mar_05_1146,body_behavioural,3.0.4,59.837507656181195,
2,Thomas chewed on his bottom lip and picked at his now bleeding hangnail. ,3,3,20.0,None,,0,2,2,2,,,,,0,47,47,47,,,,,,,,,,,,,,,,,,,,,,,,,,,,,1,8.70348283200292,,,,,,,,,,,,,,,,,,,,,,,,,,,,030519_p2,001,2019_Mar_05_1146,body_behavioural,3.0.4,59.837507656181195,
2,"At that moment, the waiter arrived with the burger and reuben and set them on the table.",4,3,None,None,,0,2,2,2,,,,,0,48,48,48,,,,,,,,,,,,,,,,,,,,,,,,,,,,,1,1.6192539229959948,,,,,,,,,,,,,,,,,,,,,,,,,,,,030519_p2,001,2019_Mar_05_1146,body_behavioural,3.0.4,59.837507656181195,
2,“Is there anything else I can get for you two?,4,3,None,None,,0,2,2,2,,,,,0,49,49,49,,,,,,,,,,,,,,,,,,,,,,,,,,,,,1,2.4175337920023594,,,,,,,,,,,,,,,,,,,,,,,,,,,,030519_p2,001,2019_Mar_05_1146,body_behavioural,3.0.4,59.837507656181195,
2,"Will you be getting dessert tonight?”, he asked.",4,3,None,None,,0,2,2,2,,,,,0,50,50,50,,,,,,,,,,,,,,,,,,,,,,,,,,,,,1,1.569585402001394,,,,,,,,,,,,,,,,,,,,,,,,,,,,030519_p2,001,2019_Mar_05_1146,body_behavioural,3.0.4,59.837507656181195,
2,"“Oh no, we’re good, thanks,” Thomas said.",4,3,None,None,,0,2,2,2,,,,,0,51,51,51,,,,,,,,,,,,,,,,,,,,,,,,,,,,,1,0.9697648279980058,,,,,,,,,,,,,,,,,,,,,,,,,,,,030519_p2,001,2019_Mar_05_1146,body_behavioural,3.0.4,59.837507656181195,
2,"Once the waiter had walked away still oblivious to the situation, Thomas sighed and said, “Sadie, I’m sorry.",4,3,None,None,,0,2,2,2,,,,,0,52,52,52,,,,,,,,,,,,,,,,,,,,,,,,,,,,,1,3.953607404997456,,,,,,,,,,,,,,,,,,,,,,,,,,,,030519_p2,001,2019_Mar_05_1146,body_behavioural,3.0.4,59.837507656181195,
2,"You are so great, and I love hanging out with you.",4,3,None,None,,0,2,2,2,,,,,0,53,53,53,,,,,,,,,,,,,,,,,,,,,,,,,,,,,1,1.3531574999942677,,,,,,,,,,,,,,,,,,,,,,,,,,,,030519_p2,001,2019_Mar_05_1146,body_behavioural,3.0.4,59.837507656181195,
2,But I need some time.,4,3,None,None,,0,2,2,2,,,,,0,54,54,54,,,,,,,,,,,,,,,,,,,,,,,,,,,,,1,0.7031472849921556,,,,,,,,,,,,,,,,,,,,,,,,,,,,030519_p2,001,2019_Mar_05_1146,body_behavioural,3.0.4,59.837507656181195,
2,I’m so sorry.”,4,3,None,None,,0,2,2,2,,,,,0,55,55,55,,,,,,,,,,,,,,,,,,,,,,,,,,,,,1,1.5697739930037642,,,,,,,,,,,,,,,,,,,,,,,,,,,,030519_p2,001,2019_Mar_05_1146,body_behavioural,3.0.4,59.837507656181195,
2,"He grabbed her hand, and she pulled it out of his.",4,3,None,None,,0,2,2,2,,,,,0,56,56,56,,,,,,,,,,,,,,,,,,,,,,,,,,,,,9,3.619219800006249,,,,,,,,,,,,,,,,,,,,,,,,,,,,030519_p2,001,2019_Mar_05_1146,body_behavioural,3.0.4,59.837507656181195,
2,"“Sadie,” he said.",4,3,None,17.0,,0,2,2,2,,,,,0,57,57,57,,,,,,,,,,,,,,,,,,,,,,,,,,,,,1,1.3361010670050746,,,,,,,,,,,,,,,,,,,,,,,,,,,,030519_p2,001,2019_Mar_05_1146,body_behavioural,3.0.4,59.837507656181195,
2," She stood up, grabbed half of the reuben and shook it at him as she growled, “Don’t follow me, and don’t talk to me anymore!”",4,4,None,None,,0,2,2,2,,,,,0,58,58,58,,,,,,,,,,,,,,,,,,,,,,,,,,,,,1,1.4864194900001166,,,,,,,,,,,,,,,,,,,,,,,,,,,,030519_p2,001,2019_Mar_05_1146,body_behavioural,3.0.4,59.837507656181195,
2,"Sadie's heels clacked loudly against the black and white linoleum, and the bell above the door jingled cheerfully as the door closed behind her.",4,4,None,None,,0,2,2,2,,,,,0,59,59,59,,,,,,,,,,,,,,,,,,,,,,,,,,,,,1,1.2698636069981148,,,,,,,,,,,,,,,,,,,,,,,,,,,,030519_p2,001,2019_Mar_05_1146,body_behavioural,3.0.4,59.837507656181195,
2,Thomas sat there for awhile in shock at how quickly everything transpired. ,4,4,None,None,,0,2,2,2,,,,,0,60,60,60,,,,,,,,,,,,,,,,,,,,,,,,,,,,,1,1.0696286899910774,,,,,,,,,,,,,,,,,,,,,,,,,,,,030519_p2,001,2019_Mar_05_1146,body_behavioural,3.0.4,59.837507656181195,
2,"He grabbed his burger and took a bite of it, creating a dry and fishy taste in his mouth.",4,4,None,None,,0,2,2,2,,,,,0,61,61,61,,,,,,,,,,,,,,,,,,,,,,,,,,,,,1,1.236455156991724,,,,,,,,,,,,,,,,,,,,,,,,,,,,030519_p2,001,2019_Mar_05_1146,body_behavioural,3.0.4,59.837507656181195,
2,He dropped it back on his plate and wondered if the restaurant was responsible for the foul taste. ,4,4,13.0,5.0,,0,2,2,2,,,,,0,62,62,62,,,,,,,,,,,,,,,,,,,,,,,,,,,,,1,2.3036866150068818,,,,,,,,,,,,,,,,,,,,,,,,,,,,030519_p2,001,2019_Mar_05_1146,body_behavioural,3.0.4,59.837507656181195,
2,,,,,,,0,2,2,2,,,,,,,,,,,,,,,,,,,,,,,,,,,,,,,,,,,,,,,,,,,,,,,,,,,,,,,,,,,,,,,,,,030519_p2,001,2019_Mar_05_1146,body_behavioural,3.0.4,59.837507656181195,
3,,,,,,,0,3,3,3,0,0,0,0,,,,,,,,,,,,,,,,,,,,,,,,,,,space,0.8528560569975525,space,0.48631013500562403,space,0.4673988599970471,,,,,,,,,,,,,,,,,,,,,,,,,,,,,,030519_p2,001,2019_Mar_05_1146,body_behavioural,3.0.4,59.837507656181195,
3,"Jeff, hoping that today would be a pivotal day for his new business, had only been waiting inside the doors of the airport for a few minutes when he saw William and eagerly waved him over. ",1,1,,,,0,3,3,3,,,,,0,0,0,0,,,,,,,,,,,,,,,,,,,,,,,,,,,,,9,10.253844909995678,,,,,,,,,,,,,,,,,,,,,,,,,,,,030519_p2,001,2019_Mar_05_1146,body_behavioural,3.0.4,59.837507656181195,
3,"Jeff, checking his watch, was pleased to see that the two of them had two hours to discuss business before their flights left Boston.",1,1,,,,0,3,3,3,,,,,0,1,1,1,,,,,,,,,,,,,,,,,,,,,,,,,,,,,1,3.2864600569882896,,,,,,,,,,,,,,,,,,,,,,,,,,,,030519_p2,001,2019_Mar_05_1146,body_behavioural,3.0.4,59.837507656181195,
3,The two had met the night before in line for the bathroom at a local bar. ,1,1,,,,0,3,3,3,,,,,0,2,2,2,,,,,,,,,,,,,,,,,,,,,,,,,,,,,1,12.03700698200555,,,,,,,,,,,,,,,,,,,,,,,,,,,,030519_p2,001,2019_Mar_05_1146,body_behavioural,3.0.4,59.837507656181195,
3,Jeff had delivered some surprisingly-detailed complaints to William about the wine selection.,1,1,,,,0,3,3,3,,,,,0,3,3,3,,,,,,,,,,,,,,,,,,,,,,,,,,,,,1,3.469941729999846,,,,,,,,,,,,,,,,,,,,,,,,,,,,030519_p2,001,2019_Mar_05_1146,body_behavioural,3.0.4,59.837507656181195,
3,They quickly learned about each other that Jeff was a representative for wine vineyards in the Northeast and William was a wine buyer for corporate events.,1,1,,,,0,3,3,3,,,,,0,4,4,4,,,,,,,,,,,,,,,,,,,,,,,,,,,,,9,5.419486444996437,,,,,,,,,,,,,,,,,,,,,,,,,,,,030519_p2,001,2019_Mar_05_1146,body_behavioural,3.0.4,59.837507656181195,
3,"Since they both had flights out of Boston at the same time, they had agreed to meet at the airport and talk about potentially doing business. ",1,1,,,,0,3,3,3,,,,,0,5,5,5,,,,,,,,,,,,,,,,,,,,,,,,,,,,,1,18.137499980002758,,,,,,,,,,,,,,,,,,,,,,,,,,,,030519_p2,001,2019_Mar_05_1146,body_behavioural,3.0.4,59.837507656181195,
3,"They headed to security together, pleased to find that the line was not so long, and they chatted a little as they were waiting. ",2,1,,,,0,3,3,3,,,,,0,6,6,6,,,,,,,,,,,,,,,,,,,,,,,,,,,,,1,2.719957922003232,,,,,,,,,,,,,,,,,,,,,,,,,,,,030519_p2,001,2019_Mar_05_1146,body_behavioural,3.0.4,59.837507656181195,
3,"“It’s crazy that we met last night,” William said, “I am flying out right now to meet my boss, and was worried that I was going to show up empty handed without any local retailer prepared.” ",2,1,,,,0,3,3,3,,,,,0,7,7,7,,,,,,,,,,,,,,,,,,,,,,,,,,,,,1,9.203194815010647,,,,,,,,,,,,,,,,,,,,,,,,,,,,030519_p2,001,2019_Mar_05_1146,body_behavioural,3.0.4,59.837507656181195,
3,"“I know, what are the chances, right?” Jeff said.",2,1,,,,0,3,3,3,,,,,0,8,8,8,,,,,,,,,,,,,,,,,,,,,,,,,,,,,1,0.8360347229900071,,,,,,,,,,,,,,,,,,,,,,,,,,,,030519_p2,001,2019_Mar_05_1146,body_behavioural,3.0.4,59.837507656181195,
3,"William laughed and said, “I’m glad our shared complaining can come in handy.",2,1,,,,0,3,3,3,,,,,0,9,9,9,,,,,,,,,,,,,,,,,,,,,,,,,,,,,1,3.0198588450002717,,,,,,,,,,,,,,,,,,,,,,,,,,,,030519_p2,001,2019_Mar_05_1146,body_behavioural,3.0.4,59.837507656181195,
3,"I know this is fast, but I'd like to get right down to specifics.",2,2,,,,0,3,3,3,,,,,0,10,10,10,,,,,,,,,,,,,,,,,,,,,,,,,,,,,1,2.936624864989426,,,,,,,,,,,,,,,,,,,,,,,,,,,,030519_p2,001,2019_Mar_05_1146,body_behavioural,3.0.4,59.837507656181195,
3,I'd like to order a couple of sample shipments from you and present them to our corporate buyers.,2,2,,,,0,3,3,3,,,,,0,11,11,11,,,,,,,,,,,,,,,,,,,,,,,,,,,,,9,5.569715072007966,,,,,,,,,,,,,,,,,,,,,,,,,,,,030519_p2,001,2019_Mar_05_1146,body_behavioural,3.0.4,59.837507656181195,
3,"Typically we expect to get these kinds of samples at a deep discount, at least half-off the label price.",2,2,,,,0,3,3,3,,,,,0,12,12,12,,,,,,,,,,,,,,,,,,,,,,,,,,,,,1,3.3695059070014395,,,,,,,,,,,,,,,,,,,,,,,,,,,,030519_p2,001,2019_Mar_05_1146,body_behavioural,3.0.4,59.837507656181195,
3,"This is nothing, okay, compared to what you will be making if one of these buyers makes a contract.",2,2,,,,0,3,3,3,,,,,0,13,13,13,,,,,,,,,,,,,,,,,,,,,,,,,,,,,1,6.267836137005361,,,,,,,,,,,,,,,,,,,,,,,,,,,,030519_p2,001,2019_Mar_05_1146,body_behavioural,3.0.4,59.837507656181195,
3,So I propose that you send us $600 worth of wine shipments for a price of $300.”,2,2,,,,0,3,3,3,,,,,0,14,14,14,,,,,,,,,,,,,,,,,,,,,,,,,,,,,1,3.3532871499919565,,,,,,,,,,,,,,,,,,,,,,,,,,,,030519_p2,001,2019_Mar_05_1146,body_behavioural,3.0.4,59.837507656181195,
3,"When it was their turn to go through the metal detector, they took off their shoes and pulled out their laptops.",2,2,,,,0,3,3,3,,,,,0,15,15,15,,,,,,,,,,,,,,,,,,,,,,,,,,,,,1,4.803628074994776,,,,,,,,,,,,,,,,,,,,,,,,,,,,030519_p2,001,2019_Mar_05_1146,body_behavioural,3.0.4,59.837507656181195,
3,"Jeff mulled over the offer, nodding noncommittally to William's pitch as they proceeded through the metal detector and retrieved their belongings.",2,2,,,,0,3,3,3,,,,,0,16,16,16,,,,,,,,,,,,,,,,,,,,,,,,,,,,,1,5.469901680000476,,,,,,,,,,,,,,,,,,,,,,,,,,,,030519_p2,001,2019_Mar_05_1146,body_behavioural,3.0.4,59.837507656181195,
3,"They began to walk through the concourse, and William handed some printed spreadsheets to Jeff as they navigated toward their gates at the end of the terminal.",3,2,,,,0,3,3,3,,,,,0,17,17,17,,,,,,,,,,,,,,,,,,,,,,,,,,,,,1,14.903632268004003,,,,,,,,,,,,,,,,,,,,,,,,,,,,030519_p2,001,2019_Mar_05_1146,body_behavioural,3.0.4,59.837507656181195,
3,"Jeff, weaving through the crowds of travelers, squinted at William's rosy projections of the number of bottles he could be able to purchase in the future.",3,2,,,,0,3,3,3,,,,,0,18,18,18,,,,,,,,,,,,,,,,,,,,,,,,,,,,,1,5.7034374849899905,,,,,,,,,,,,,,,,,,,,,,,,,,,,030519_p2,001,2019_Mar_05_1146,body_behavioural,3.0.4,59.837507656181195,
3,"Finally Jeff said, “I don’t know, we’re not coming from corporate vineyards, so gambling with sample shipments is the kind of risk we can’t necessarily make. ",3,3,,,,0,3,3,3,,,,,0,19,19,19,,,,,,,,,,,,,,,,,,,,,,,,,,,,,9,13.270589959996869,,,,,,,,,,,,,,,,,,,,,,,,,,,,030519_p2,001,2019_Mar_05_1146,body_behavioural,3.0.4,59.837507656181195,
3,"These corporate purchases would have to be huge and practically guaranteed, to offset the loss from selling sample shipments at this price.”",3,3,,,,0,3,3,3,,,,,0,20,20,20,,,,,,,,,,,,,,,,,,,,,,,,,,,,,1,6.46763190200727,,,,,,,,,,,,,,,,,,,,,,,,,,,,030519_p2,001,2019_Mar_05_1146,body_behavioural,3.0.4,59.837507656181195,
3,"They walked to the gates very slowly, barely registering the hubbub of the airport since they were so caught up in figuring out this deal before their flights left.",3,3,,,,0,3,3,3,,,,,0,21,21,21,,,,,,,,,,,,,,,,,,,,,,,,,,,,,1,4.653481007000664,,,,,,,,,,,,,,,,,,,,,,,,,,,,030519_p2,001,2019_Mar_05_1146,body_behavioural,3.0.4,59.837507656181195,
3,"At the end of their long walk, they got to Jeff’s gate first, which had begun boarding passengers.",3,3,,,,0,3,3,3,,,,,0,22,22,22,,,,,,,,,,,,,,,,,,,,,,,,,,,,,1,6.503357035006047,,,,,,,,,,,,,,,,,,,,,,,,,,,,030519_p2,001,2019_Mar_05_1146,body_behavioural,3.0.4,59.837507656181195,
3,"In these last minutes, William and Jeff agreed on a compromise rate on the sample shipment, paying $400 for a $600 shipment, and they finalized the deal with a handshake. ",3,4,,,,0,3,3,3,,,,,0,23,23,23,,,,,,,,,,,,,,,,,,,,,,,,,,,,,9,6.03429932500876,,,,,,,,,,,,,,,,,,,,,,,,,,,,030519_p2,001,2019_Mar_05_1146,body_behavioural,3.0.4,59.837507656181195,
3,"“Well, what a tremendous pleasure to do business with you and to have all this work out,” William said.",3,4,,,,0,3,3,3,,,,,0,24,24,24,,,,,,,,,,,,,,,,,,,,,,,,,,,,,1,1.8359353749983711,,,,,,,,,,,,,,,,,,,,,,,,,,,,030519_p2,001,2019_Mar_05_1146,body_behavioural,3.0.4,59.837507656181195,
3,"Jeff nodded enthusiastically, and responded, “Likewise, this has been great.  ",3,4,,,,0,3,3,3,,,,,0,25,25,25,,,,,,,,,,,,,,,,,,,,,,,,,,,,,1,1.053078277996974,,,,,,,,,,,,,,,,,,,,,,,,,,,,030519_p2,001,2019_Mar_05_1146,body_behavioural,3.0.4,59.837507656181195,
3,I'll let you get to your gate.,3,4,,,,0,3,3,3,,,,,0,26,26,26,,,,,,,,,,,,,,,,,,,,,,,,,,,,,1,1.2697083200037014,,,,,,,,,,,,,,,,,,,,,,,,,,,,030519_p2,001,2019_Mar_05_1146,body_behavioural,3.0.4,59.837507656181195,
3,"Once we’re both back on the ground, we can get all the shipments in the books.”",3,4,,,,0,3,3,3,,,,,0,27,27,27,,,,,,,,,,,,,,,,,,,,,,,,,,,,,1,6.486814322008286,,,,,,,,,,,,,,,,,,,,,,,,,,,,030519_p2,001,2019_Mar_05_1146,body_behavioural,3.0.4,59.837507656181195,
3,They parted with a wave as Jeff scanned his boarding pass at the gate. ,3,4,,,,0,3,3,3,,,,,0,28,28,28,,,,,,,,,,,,,,,,,,,,,,,,,,,,,1,1.2530731000006199,,,,,,,,,,,,,,,,,,,,,,,,,,,,030519_p2,001,2019_Mar_05_1146,body_behavioural,3.0.4,59.837507656181195,
3,He walked onto the plane and sat down in his aisle seat in the business class section.,4,4,,,,0,3,3,3,,,,,0,29,29,29,,,,,,,,,,,,,,,,,,,,,,,,,,,,,1,2.053034367010696,,,,,,,,,,,,,,,,,,,,,,,,,,,,030519_p2,001,2019_Mar_05_1146,body_behavioural,3.0.4,59.837507656181195,
3,He typed out a quick email on his phone letting the rest of his team know the good news. ,4,4,,,,0,3,3,3,,,,,0,30,30,30,,,,,,,,,,,,,,,,,,,,,,,,,,,,,1,2.5032665750040906,,,,,,,,,,,,,,,,,,,,,,,,,,,,030519_p2,001,2019_Mar_05_1146,body_behavioural,3.0.4,59.837507656181195,
3,"When the flight attendant came by, he ordered a glass of champagne to celebrate.",4,4,,,,0,3,3,3,,,,,0,31,31,31,,,,,,,,,,,,,,,,,,,,,,,,,,,,,1,1.9197514950064942,,,,,,,,,,,,,,,,,,,,,,,,,,,,030519_p2,001,2019_Mar_05_1146,body_behavioural,3.0.4,59.837507656181195,
3,,,,,,,0,3,3,3,,,,,,,,,,,,,,,,,,,,,,,,,,,,,,,,,,,,,,,,,,,,,,,,,,,,,,,,,,,,,,,,,,030519_p2,001,2019_Mar_05_1146,body_behavioural,3.0.4,59.837507656181195,
4,,,,,,,0,4,4,4,0,0,0,0,,,,,,,,,,,,,,,,,,,,,,,,,,,space,0.9181532779912231,space,1.5020298399904277,space,0.7185589330038056,,,,,,,,,,,,,,,,,,,,,,,,,,,,,,030519_p2,001,2019_Mar_05_1146,body_behavioural,3.0.4,59.837507656181195,
4,Charlie saw Alma as they walked into class and he motioned for her to come sit in the back next to him: they had business to discuss.,1,1,,,,0,4,4,4,,,,,0,0,0,0,,,,,,,,,,,,,,,,,,,,,,,,,,,,,9,24.638485959992977,,,,,,,,,,,,,,,,,,,,,,,,,,,,030519_p2,001,2019_Mar_05_1146,body_behavioural,3.0.4,59.837507656181195,
4,Charlie and Alma were both economics students with entrepreneurial bents.,1,1,,,,0,4,4,4,,,,,0,1,1,1,,,,,,,,,,,,,,,,,,,,,,,,,,,,,1,2.669414805000997,,,,,,,,,,,,,,,,,,,,,,,,,,,,030519_p2,001,2019_Mar_05_1146,body_behavioural,3.0.4,59.837507656181195,
4,They were also both very busy and in the same class.,1,1,,,,0,4,4,4,,,,,0,2,2,2,,,,,,,,,,,,,,,,,,,,,,,,,,,,,1,1.785726836998947,,,,,,,,,,,,,,,,,,,,,,,,,,,,030519_p2,001,2019_Mar_05_1146,body_behavioural,3.0.4,59.837507656181195,
4,"After talking at a party, Charlie had discovered that Alma was looking for financing for her web development company.",1,1,,,,0,4,4,4,,,,,0,3,3,3,,,,,,,,,,,,,,,,,,,,,,,,,,,,,1,4.937251324998215,,,,,,,,,,,,,,,,,,,,,,,,,,,,030519_p2,001,2019_Mar_05_1146,body_behavioural,3.0.4,59.837507656181195,
4,It was serendipitous because he had been talking with other members of his venture capital group about making an investment. ,1,1,,,,0,4,4,4,,,,,0,4,4,4,,,,,,,,,,,,,,,,,,,,,,,,,,,,,1,3.569892526997137,,,,,,,,,,,,,,,,,,,,,,,,,,,,030519_p2,001,2019_Mar_05_1146,body_behavioural,3.0.4,59.837507656181195,
4,"His financial group had come to a decision that morning about Alma’s idea, and he didn't want to wait until after class to discuss the proposal with her. ",1,1,,,,0,4,4,4,,,,,0,5,5,5,,,,,,,,,,,,,,,,,,,,,,,,,,,,,1,6.353395165002439,,,,,,,,,,,,,,,,,,,,,,,,,,,,030519_p2,001,2019_Mar_05_1146,body_behavioural,3.0.4,59.837507656181195,
4,"The class was in a large auditorium with small, foldable desks on the side of each cushioned chair. ",1,1,,,,0,4,4,4,,,,,0,6,6,6,,,,,,,,,,,,,,,,,,,,,,,,,,,,,1,7.6702135800005635,,,,,,,,,,,,,,,,,,,,,,,,,,,,030519_p2,001,2019_Mar_05_1146,body_behavioural,3.0.4,59.837507656181195,
4,"There were large windows on both sides of the hall, and they could see the first flurries of a winter storm starting outside. ",1,1,,,,0,4,4,4,,,,,0,7,7,7,,,,,,,,,,,,,,,,,,,,,,,,,,,,,9,7.953469871994457,,,,,,,,,,,,,,,,,,,,,,,,,,,,030519_p2,001,2019_Mar_05_1146,body_behavioural,3.0.4,59.837507656181195,
4,"“Here we are at Lecture Seven already in History of the Eternal City,” said the professor. ",2,1,,,,0,4,4,4,,,,,0,8,8,8,,,,,,,,,,,,,,,,,,,,,,,,,,,,,1,1.9694062070047949,,,,,,,,,,,,,,,,,,,,,,,,,,,,030519_p2,001,2019_Mar_05_1146,body_behavioural,3.0.4,59.837507656181195,
4,“We're going to talk today about the age of the first Roman emperor: Augustus.” ,2,1,,,,0,4,4,4,,,,,0,9,9,9,,,,,,,,,,,,,,,,,,,,,,,,,,,,,9,2.3198038120026467,,,,,,,,,,,,,,,,,,,,,,,,,,,,030519_p2,001,2019_Mar_05_1146,body_behavioural,3.0.4,59.837507656181195,
4,"She went into some recap of the last lecture, and Charlie took this as an opportunity to start talking to Alma.",2,1,,,,0,4,4,4,,,,,0,10,10,10,,,,,,,,,,,,,,,,,,,,,,,,,,,,,1,3.553353262002929,,,,,,,,,,,,,,,,,,,,,,,,,,,,030519_p2,001,2019_Mar_05_1146,body_behavioural,3.0.4,59.837507656181195,
4,"“Okay so I’ve been thinking about your startup idea, and I have talked about it with my fellow investors.",2,2,,,,0,4,4,4,,,,,0,11,11,11,,,,,,,,,,,,,,,,,,,,,,,,,,,,,1,2.7675120319909183,,,,,,,,,,,,,,,,,,,,,,,,,,,,030519_p2,001,2019_Mar_05_1146,body_behavioural,3.0.4,59.837507656181195,
4,We’d like to invest half of what you originally suggested.,2,2,,,,0,4,4,4,,,,,0,12,12,12,,,,,,,,,,,,,,,,,,,,,,,,,,,,,1,2.3031325970077887,,,,,,,,,,,,,,,,,,,,,,,,,,,,030519_p2,001,2019_Mar_05_1146,body_behavioural,3.0.4,59.837507656181195,
4,"Rather than $30,000, we start with $15,000.",2,2,,,,0,4,4,4,,,,,0,13,13,13,,,,,,,,,,,,,,,,,,,,,,,,,,,,,1,2.103286967991153,,,,,,,,,,,,,,,,,,,,,,,,,,,,030519_p2,001,2019_Mar_05_1146,body_behavioural,3.0.4,59.837507656181195,
4,We would see how the company does and then invest the other half later.” ,2,2,,,,0,4,4,4,,,,,0,14,14,14,,,,,,,,,,,,,,,,,,,,,,,,,,,,,1,10.837141915006214,,,,,,,,,,,,,,,,,,,,,,,,,,,,030519_p2,001,2019_Mar_05_1146,body_behavioural,3.0.4,59.837507656181195,
4,"Alma, tapping her pen on her notebook, narrowed her eyes and pursed her lips.",2,2,,,,0,4,4,4,,,,,0,15,15,15,,,,,,,,,,,,,,,,,,,,,,,,,,,,,1,2.3534355699957814,,,,,,,,,,,,,,,,,,,,,,,,,,,,030519_p2,001,2019_Mar_05_1146,body_behavioural,3.0.4,59.837507656181195,
4,She turned back to the lecture as she considered this.,2,2,,,,0,4,4,4,,,,,0,16,16,16,,,,,,,,,,,,,,,,,,,,,,,,,,,,,1,3.702877414994873,,,,,,,,,,,,,,,,,,,,,,,,,,,,030519_p2,001,2019_Mar_05_1146,body_behavioural,3.0.4,59.837507656181195,
4,"The professor was going on: “The senate had conferred upon him the title of Augustus the sacred and revered one, the restorer of traditional values, the city’s new religious leader, the restorer of temples. ",3,2,,,,0,4,4,4,,,,,0,17,17,17,,,,,,,,,,,,,,,,,,,,,,,,,,,,,9,8.403185971998028,,,,,,,,,,,,,,,,,,,,,,,,,,,,030519_p2,001,2019_Mar_05_1146,body_behavioural,3.0.4,59.837507656181195,
4,"Augustus also sought to beautify Rome, make it into a new Athens, and dispel the criticisms of Rome as disorganized and ugly.”",3,2,,,,0,4,4,4,,,,,0,18,18,18,,,,,,,,,,,,,,,,,,,,,,,,,,,,,1,1.6196991900069406,,,,,,,,,,,,,,,,,,,,,,,,,,,,030519_p2,001,2019_Mar_05_1146,body_behavioural,3.0.4,59.837507656181195,
4,"Alma turned back to Charlie and offered her rebuttal, “I don’t know about that: it’s not going to be possible to implement our ideas effectively unless the project is fully funded. ",3,3,,,,0,4,4,4,,,,,0,19,19,19,,,,,,,,,,,,,,,,,,,,,,,,,,,,,1,4.034188015008112,,,,,,,,,,,,,,,,,,,,,,,,,,,,030519_p2,001,2019_Mar_05_1146,body_behavioural,3.0.4,59.837507656181195,
4,We would have to find other investors and that would set us back in our timeline. ,3,3,,,,0,4,4,4,,,,,0,20,20,20,,,,,,,,,,,,,,,,,,,,,,,,,,,,,1,3.1034423779929057,,,,,,,,,,,,,,,,,,,,,,,,,,,,030519_p2,001,2019_Mar_05_1146,body_behavioural,3.0.4,59.837507656181195,
4,"Our profit projections assumed we'd be starting relatively soon, not months down the line.” ",3,3,,,,0,4,4,4,,,,,0,21,21,21,,,,,,,,,,,,,,,,,,,,,,,,,,,,,1,1.4195876500016311,,,,,,,,,,,,,,,,,,,,,,,,,,,,030519_p2,001,2019_Mar_05_1146,body_behavioural,3.0.4,59.837507656181195,
4,They whispered back and forth during the whole class in order to work out a compromise. ,3,3,,,,0,4,4,4,,,,,0,22,22,22,,,,,,,,,,,,,,,,,,,,,,,,,,,,,1,2.217406444993685,,,,,,,,,,,,,,,,,,,,,,,,,,,,030519_p2,001,2019_Mar_05_1146,body_behavioural,3.0.4,59.837507656181195,
4,"Finally, the class ended, and the professor dismissed the students with a reminder that the midterm paper was due on Thursday and that they should email their papers to the TA.",4,3,,,,0,4,4,4,,,,,0,23,23,23,,,,,,,,,,,,,,,,,,,,,,,,,,,,,9,3.4532996350026224,,,,,,,,,,,,,,,,,,,,,,,,,,,,030519_p2,001,2019_Mar_05_1146,body_behavioural,3.0.4,59.837507656181195,
4,"Everyone, except Charlie and Alma, packed up their things and headed out of the lecture hall to get to their next class. ",4,3,,,,0,4,4,4,,,,,0,24,24,24,,,,,,,,,,,,,,,,,,,,,,,,,,,,,1,2.119750882004155,,,,,,,,,,,,,,,,,,,,,,,,,,,,030519_p2,001,2019_Mar_05_1146,body_behavioural,3.0.4,59.837507656181195,
4,"“Alright, so we’ll have the $30,000 wired to you by tomorrow,” Charlie said. ",4,4,,,,0,4,4,4,,,,,0,25,25,25,,,,,,,,,,,,,,,,,,,,,,,,,,,,,1,3.586986540001817,,,,,,,,,,,,,,,,,,,,,,,,,,,,030519_p2,001,2019_Mar_05_1146,body_behavioural,3.0.4,59.837507656181195,
4,"This wasn't ideal for Charlie, but Alma had refused to budge, and his investment group had told him they were willing to pay the full amount if necessary. ",4,4,,,,0,4,4,4,,,,,0,26,26,26,,,,,,,,,,,,,,,,,,,,,,,,,,,,,1,5.753071945000556,,,,,,,,,,,,,,,,,,,,,,,,,,,,030519_p2,001,2019_Mar_05_1146,body_behavioural,3.0.4,59.837507656181195,
4,"They shook hands, walked out of the now-empty lecture hall, and made plans to sign the official paperwork the next day.",4,4,,,,0,4,4,4,,,,,0,27,27,27,,,,,,,,,,,,,,,,,,,,,,,,,,,,,1,4.353263375000097,,,,,,,,,,,,,,,,,,,,,,,,,,,,030519_p2,001,2019_Mar_05_1146,body_behavioural,3.0.4,59.837507656181195,
4,,,,,,,0,4,4,4,,,,,,,,,,,,,,,,,,,,,,,,,,,,,,,,,,,,,,,,,,,,,,,,,,,,,,,,,,,,,,,,,,030519_p2,001,2019_Mar_05_1146,body_behavioural,3.0.4,59.837507656181195,
5,,,,,,,0,5,5,5,0,0,0,0,,,,,,,,,,,,,,,,,,,,,,,,,,,space,0.8363953219959512,space,0.6696510250039864,space,0.8673615369916661,,,,,,,,,,,,,,,,,,,,,,,,,,,,,,030519_p2,001,2019_Mar_05_1146,body_behavioural,3.0.4,59.837507656181195,
5,The grocery store was not the place Emmanuella and Liam wanted to be at the moment considering they had been fighting beforehand to the point where Emmanuella was thinking of breaking up with Liam.,1,1,,,,0,5,5,5,,,,,0,0,0,0,,,,,,,,,,,,,,,,,,,,,,,,,,,,,1,11.85173163699801,,,,,,,,,,,,,,,,,,,,,,,,,,,,030519_p2,001,2019_Mar_05_1146,body_behavioural,3.0.4,59.837507656181195,
5,"However, they had to go grocery shopping because they were hosting a dinner party for friends that evening and had no groceries. ",1,1,,,,0,5,5,5,,,,,0,1,1,1,,,,,,,,,,,,,,,,,,,,,,,,,,,,,1,6.753290665001259,,,,,,,,,,,,,,,,,,,,,,,,,,,,030519_p2,001,2019_Mar_05_1146,body_behavioural,3.0.4,59.837507656181195,
5,The grocery store was dimly lit and had dark wood paneling for all the shelves.,1,1,,,,0,5,5,5,,,,,0,2,2,2,,,,,,,,,,,,,,,,,,,,,,,,,,,,,9,1.0529577120032627,,,,,,,,,,,,,,,,,,,,,,,,,,,,030519_p2,001,2019_Mar_05_1146,body_behavioural,3.0.4,59.837507656181195,
5,"The store specialized in organic produce and products catering to desires for high-end products, such as imported cheeses and sauces. ",1,1,,,,0,5,5,5,,,,,0,3,3,3,,,,,,,,,,,,,,,,,,,,,,,,,,,,,1,11.470492197011481,,,,,,,,,,,,,,,,,,,,,,,,,,,,030519_p2,001,2019_Mar_05_1146,body_behavioural,3.0.4,59.837507656181195,
5,"Emmanuella felt angry as she headed immediately for the pasta section, and Liam trailed behind her. ",2,1,,,,0,5,5,5,,,,,0,4,4,4,,,,,,,,,,,,,,,,,,,,,,,,,,,,,1,1.8031242870056303,,,,,,,,,,,,,,,,,,,,,,,,,,,,030519_p2,001,2019_Mar_05_1146,body_behavioural,3.0.4,59.837507656181195,
5,Emmanuella selected a few boxes of linguine.,2,1,,,,0,5,5,5,,,,,0,5,5,5,,,,,,,,,,,,,,,,,,,,,,,,,,,,,9,1.3197676569980104,,,,,,,,,,,,,,,,,,,,,,,,,,,,030519_p2,001,2019_Mar_05_1146,body_behavioural,3.0.4,59.837507656181195,
5,"“I guess we are having pasta tonight,” Liam said.",2,1,,,,0,5,5,5,,,,,0,6,6,6,,,,,,,,,,,,,,,,,,,,,,,,,,,,,1,1.053248860000167,,,,,,,,,,,,,,,,,,,,,,,,,,,,030519_p2,001,2019_Mar_05_1146,body_behavioural,3.0.4,59.837507656181195,
5,"Emmanuella looked back at him and said, “Well if you were going to actually help cook, I would be fine with something else.”",2,1,,,,0,5,5,5,,,,,0,7,7,7,,,,,,,,,,,,,,,,,,,,,,,,,,,,,1,5.502993119996972,,,,,,,,,,,,,,,,,,,,,,,,,,,,030519_p2,001,2019_Mar_05_1146,body_behavioural,3.0.4,59.837507656181195,
5,"Liam sighed, and finally said, “You don’t want me to help.",2,1,,,,0,5,5,5,,,,,0,8,8,8,,,,,,,,,,,,,,,,,,,,,,,,,,,,,1,1.6697436020040186,,,,,,,,,,,,,,,,,,,,,,,,,,,,030519_p2,001,2019_Mar_05_1146,body_behavioural,3.0.4,59.837507656181195,
5,"I try to, but it seems like I always get in the way!” ",2,1,,,,0,5,5,5,,,,,0,9,9,9,,,,,,,,,,,,,,,,,,,,,,,,,,,,,1,1.1363404849980725,,,,,,,,,,,,,,,,,,,,,,,,,,,,030519_p2,001,2019_Mar_05_1146,body_behavioural,3.0.4,59.837507656181195,
5,"Emmanuella angrily threw the pasta into the cart, losing her temper.",2,1,,,,0,5,5,5,,,,,0,10,10,10,,,,,,,,,,,,,,,,,,,,,,,,,,,,,1,2.1864945569977863,,,,,,,,,,,,,,,,,,,,,,,,,,,,030519_p2,001,2019_Mar_05_1146,body_behavioural,3.0.4,59.837507656181195,
5," “Liam, you don’t even try!",2,1,,,,0,5,5,5,,,,,0,11,11,11,,,,,,,,,,,,,,,,,,,,,,,,,,,,,1,0.5863740600034362,,,,,,,,,,,,,,,,,,,,,,,,,,,,030519_p2,001,2019_Mar_05_1146,body_behavioural,3.0.4,59.837507656181195,
5,You know what?,2,1,,,,0,5,5,5,,,,,0,12,12,12,,,,,,,,,,,,,,,,,,,,,,,,,,,,,1,0.41917985198961105,,,,,,,,,,,,,,,,,,,,,,,,,,,,030519_p2,001,2019_Mar_05_1146,body_behavioural,3.0.4,59.837507656181195,
5,I don’t think I can do this anymore. ,2,2,,,,0,5,5,5,,,,,0,13,13,13,,,,,,,,,,,,,,,,,,,,,,,,,,,,,1,0.5363858049968258,,,,,,,,,,,,,,,,,,,,,,,,,,,,030519_p2,001,2019_Mar_05_1146,body_behavioural,3.0.4,59.837507656181195,
5,"I was going to wait until after this unfortunately-timed dinner party tonight to talk about this, but I might as well say it now: I don’t want to be in a relationship with you anymore.",2,2,,,,0,5,5,5,,,,,0,14,14,14,,,,,,,,,,,,,,,,,,,,,,,,,,,,,1,4.8676381269906415,,,,,,,,,,,,,,,,,,,,,,,,,,,,030519_p2,001,2019_Mar_05_1146,body_behavioural,3.0.4,59.837507656181195,
5," I’m tired of the constant fighting, and I feel like when we try to do anything fun anymore it ends up unpleasant for the stupidest reasons, and I am just past  trying to work things out.”",2,2,,,,0,5,5,5,,,,,0,15,15,15,,,,,,,,,,,,,,,,,,,,,,,,,,,,,1,2.9675229319982463,,,,,,,,,,,,,,,,,,,,,,,,,,,,030519_p2,001,2019_Mar_05_1146,body_behavioural,3.0.4,59.837507656181195,
5,"Liam refused to look at her as she picked out sauces for the pasta, and then she threw up her hands, saying, “You know what, if this party is still happening we are going to just eat pasta.”",2,2,,,,0,5,5,5,,,,,0,16,16,16,,,,,,,,,,,,,,,,,,,,,,,,,,,,,9,4.284265005000634,,,,,,,,,,,,,,,,,,,,,,,,,,,,030519_p2,001,2019_Mar_05_1146,body_behavioural,3.0.4,59.837507656181195,
5,They headed to the checkout area where there was only one station open but it was not crowded at all.,3,2,,,,0,5,5,5,,,,,0,17,17,17,,,,,,,,,,,,,,,,,,,,,,,,,,,,,9,3.9861550130008254,,,,,,,,,,,,,,,,,,,,,,,,,,,,030519_p2,001,2019_Mar_05_1146,body_behavioural,3.0.4,59.837507656181195,
5,Emmanuella sighed and got in line while Liam pretended to be interested in the magazine racks as he thought. ,3,2,,,,0,5,5,5,,,,,0,18,18,18,,,,,,,,,,,,,,,,,,,,,,,,,,,,,1,2.053414963011164,,,,,,,,,,,,,,,,,,,,,,,,,,,,030519_p2,001,2019_Mar_05_1146,body_behavioural,3.0.4,59.837507656181195,
5,"Finally he turned to her and sighed, “Yes, I was thinking the same thing - I think we could definitely be happier with other people.” ",3,3,,,,0,5,5,5,,,,,0,19,19,19,,,,,,,,,,,,,,,,,,,,,,,,,,,,,1,3.667543654999463,,,,,,,,,,,,,,,,,,,,,,,,,,,,030519_p2,001,2019_Mar_05_1146,body_behavioural,3.0.4,59.837507656181195,
5,"As if she hadn't heard him, Emmanuella looked at their cart and said, “I'm not sure this will be enough, could you grab another box of pasta?”",3,3,,,,0,5,5,5,,,,,0,20,20,20,,,,,,,,,,,,,,,,,,,,,,,,,,,,,1,5.370053020000341,,,,,,,,,,,,,,,,,,,,,,,,,,,,030519_p2,001,2019_Mar_05_1146,body_behavioural,3.0.4,59.837507656181195,
5, Liam scoffed and walked off to quickly get it.,3,3,,,,0,5,5,5,,,,,0,21,21,21,,,,,,,,,,,,,,,,,,,,,,,,,,,,,1,2.4364576770021813,,,,,,,,,,,,,,,,,,,,,,,,,,,,030519_p2,001,2019_Mar_05_1146,body_behavioural,3.0.4,59.837507656181195,
5,"As Emmanuella waited in line, she took a moment to compose herself, deciding that there was no reason to continue making a scene in the store. ",3,3,,,,0,5,5,5,,,,,0,22,22,22,,,,,,,,,,,,,,,,,,,,,,,,,,,,,1,3.3866357219958445,,,,,,,,,,,,,,,,,,,,,,,,,,,,030519_p2,001,2019_Mar_05_1146,body_behavioural,3.0.4,59.837507656181195,
5," Right when Liam came back with the pasta, the cashier started scanning their groceries.",4,3,,,,0,5,5,5,,,,,0,23,23,23,,,,,,,,,,,,,,,,,,,,,,,,,,,,,1,24.553875815006904,,,,,,,,,,,,,,,,,,,,,,,,,,,,030519_p2,001,2019_Mar_05_1146,body_behavioural,3.0.4,59.837507656181195,
5,"The cost came to $30, and Emmanuella paid with her credit card.",4,3,,,,0,5,5,5,,,,,0,24,24,24,,,,,,,,,,,,,,,,,,,,,,,,,,,,,9,1.2539174899866339,,,,,,,,,,,,,,,,,,,,,,,,,,,,030519_p2,001,2019_Mar_05_1146,body_behavioural,3.0.4,59.837507656181195,
5,"She asked Liam politely to take the bags, and he obliged, following her to toward the exit. ",4,3,,,,0,5,5,5,,,,,0,25,25,25,,,,,,,,,,,,,,,,,,,,,,,,,,,,,1,3.3370823400036898,,,,,,,,,,,,,,,,,,,,,,,,,,,,030519_p2,001,2019_Mar_05_1146,body_behavioural,3.0.4,59.837507656181195,
5,"“Liam, I think we are making the right decision.",4,4,,,,0,5,5,5,,,,,0,26,26,26,,,,,,,,,,,,,,,,,,,,,,,,,,,,,1,4.135944396999548,,,,,,,,,,,,,,,,,,,,,,,,,,,,030519_p2,001,2019_Mar_05_1146,body_behavioural,3.0.4,59.837507656181195,
5,This is good.” ,4,4,,,,0,5,5,5,,,,,0,27,27,27,,,,,,,,,,,,,,,,,,,,,,,,,,,,,1,0.5369510300079128,,,,,,,,,,,,,,,,,,,,,,,,,,,,030519_p2,001,2019_Mar_05_1146,body_behavioural,3.0.4,59.837507656181195,
5,"“I agree,” he said, visibly relieved at the thought that they had gotten through the last fight they would ever need to have.",4,4,,,,0,5,5,5,,,,,0,28,28,28,,,,,,,,,,,,,,,,,,,,,,,,,,,,,1,1.0507302549958695,,,,,,,,,,,,,,,,,,,,,,,,,,,,030519_p2,001,2019_Mar_05_1146,body_behavioural,3.0.4,59.837507656181195,
5,"“I think we can still host this dinner tonight, as long as you're still on board,” Emmanuella said.",4,4,,,,0,5,5,5,,,,,0,29,29,29,,,,,,,,,,,,,,,,,,,,,,,,,,,,,1,1.703162757010432,,,,,,,,,,,,,,,,,,,,,,,,,,,,030519_p2,001,2019_Mar_05_1146,body_behavioural,3.0.4,59.837507656181195,
5,"Liam nodded, “Yes, let’s just not tell anyone yet.” ",4,4,,,,0,5,5,5,,,,,0,30,30,30,,,,,,,,,,,,,,,,,,,,,,,,,,,,,1,1.5694497650110861,,,,,,,,,,,,,,,,,,,,,,,,,,,,030519_p2,001,2019_Mar_05_1146,body_behavioural,3.0.4,59.837507656181195,
5,"Emmanuella laughed, “Whoever leaks it loses their rights to the cat.”",4,4,,,,0,5,5,5,,,,,0,31,31,31,,,,,,,,,,,,,,,,,,,,,,,,,,,,,1,4.603144558001077,,,,,,,,,,,,,,,,,,,,,,,,,,,,030519_p2,001,2019_Mar_05_1146,body_behavioural,3.0.4,59.837507656181195,
5,"Liam rolled his eyes and managed a weak chuckle, knowing the cat would be a whole other issue to sort out later.
",4,4,,,,0,5,5,5,,,,,0,32,32,32,,,,,,,,,,,,,,,,,,,,,,,,,,,,,1,2.536258235006244,,,,,,,,,,,,,,,,,,,,,,,,,,,,030519_p2,001,2019_Mar_05_1146,body_behavioural,3.0.4,59.837507656181195,
5,,,,,,,0,5,5,5,,,,,,,,,,,,,,,,,,,,,,,,,,,,,,,,,,,,,,,,,,,,,,,,,,,,,,,,,,,,,,,,,,030519_p2,001,2019_Mar_05_1146,body_behavioural,3.0.4,59.837507656181195,
6,,,,,,,0,6,6,6,0,0,0,0,,,,,,,,,,,,,,,,,,,,,,,,,,,space,0.7530065370083321,space,0.7696345399890561,space,0.5695991449902067,,,,,,,,,,,,,,,,,,,,,,,,,,,,,,030519_p2,001,2019_Mar_05_1146,body_behavioural,3.0.4,59.837507656181195,
6,,,,,,,0,6,6,6,1,0,1,0,,,,,,,,,,,,,,,,,,,,,,,,,,,,,,,space,1.5525864569935948,,,,,,,,,,,,,,,,,,,,,,,,,,,,,,030519_p2,001,2019_Mar_05_1146,body_behavioural,3.0.4,59.837507656181195,
6,"Sven and Isabel walked hurriedly from the cab into the Barcelona Airport after an incredible weekend with Isabel’s family, which had wiped away any doubts Sven had had about his decision to propose. ",1,1,,,,0,6,6,6,,,,,0,0,0,0,,,,,,,,,,,,,,,,,,,,,,,,,,,,,9,14.520424514994374,,,,,,,,,,,,,,,,,,,,,,,,,,,,030519_p2,001,2019_Mar_05_1146,body_behavioural,3.0.4,59.837507656181195,
6,"They were a little pressed for time, with only a little over an hour until their flight would take off to go back to the US, but they already had their online boarding passes and no checked luggage. ",1,1,,,,0,6,6,6,,,,,0,1,1,1,,,,,,,,,,,,,,,,,,,,,,,,,,,,,9,39.956393276996096,,,,,,,,,,,,,,,,,,,,,,,,,,,,030519_p2,001,2019_Mar_05_1146,body_behavioural,3.0.4,59.837507656181195,
6,"When Isabel stopped to rummage through her purse looking for her phone, Sven turned his back to her and took the velvet box out of his backpack, opening it to look at the ring he bought her.",1,2,,,,0,6,6,6,,,,,0,2,2,2,,,,,,,,,,,,,,,,,,,,,,,,,,,,,1,7.88666988699697,,,,,,,,,,,,,,,,,,,,,,,,,,,,030519_p2,001,2019_Mar_05_1146,body_behavioural,3.0.4,59.837507656181195,
6,"He had received her parents’ blessing during the trip, and he was almost giddy with excitement. ",1,2,,,,0,6,6,6,,,,,0,3,3,3,,,,,,,,,,,,,,,,,,,,,,,,,,,,,1,3.0698601469921414,,,,,,,,,,,,,,,,,,,,,,,,,,,,030519_p2,001,2019_Mar_05_1146,body_behavioural,3.0.4,59.837507656181195,
6,"He tilted the ring backward and forward, despite having already studied it daily since he had purchased it a few weeks ago. ",1,2,,,,0,6,6,6,,,,,0,4,4,4,,,,,,,,,,,,,,,,,,,,,,,,,,,,,1,3.169871191988932,,,,,,,,,,,,,,,,,,,,,,,,,,,,030519_p2,001,2019_Mar_05_1146,body_behavioural,3.0.4,59.837507656181195,
6,"It was a simple design, with a clear, white diamond on a thin silver band.",1,2,,,,0,6,6,6,,,,,0,5,5,5,,,,,,,,,,,,,,,,,,,,,,,,,,,,,1,0.8506640050036367,,,,,,,,,,,,,,,,,,,,,,,,,,,,030519_p2,001,2019_Mar_05_1146,body_behavioural,3.0.4,59.837507656181195,
6,"“Sven, let’s go! ” Isabel said. ",1,2,,,,0,6,6,6,,,,,0,6,6,6,,,,,,,,,,,,,,,,,,,,,,,,,,,,,1,1.119970519997878,,,,,,,,,,,,,,,,,,,,,,,,,,,,030519_p2,001,2019_Mar_05_1146,body_behavioural,3.0.4,59.837507656181195,
6,Sven discretely closed the box and put it in his pocket.,1,2,,,,0,6,6,6,,,,,0,7,7,7,,,,,,,,,,,,,,,,,,,,,,,,,,,,,1,2.0705197030038107,,,,,,,,,,,,,,,,,,,,,,,,,,,,030519_p2,001,2019_Mar_05_1146,body_behavioural,3.0.4,59.837507656181195,
6," They entered the security line, weaving through the roped walkways to the front. ",2,2,,,,0,6,6,6,,,,,0,8,8,8,,,,,,,,,,,,,,,,,,,,,,,,,,,,,9,3.9200783429987496,,,,,,,,,,,,,,,,,,,,,,,,,,,,030519_p2,001,2019_Mar_05_1146,body_behavioural,3.0.4,59.837507656181195,
6,"When they were up, Isabel realized her laptop was buried somewhere in her duffle bag. ",2,2,,,,0,6,6,6,,,,,0,9,9,9,,,,,,,,,,,,,,,,,,,,,,,,,,,,,1,1.8341673919931054,,,,,,,,,,,,,,,,,,,,,,,,,,,,030519_p2,001,2019_Mar_05_1146,body_behavioural,3.0.4,59.837507656181195,
6,Sven had to hold the growing mound of objects she pulled from her bag until she unearthed the laptop.,2,2,,,,0,6,6,6,,,,,0,10,10,10,,,,,,,,,,,,,,,,,,,,,,,,,,,,,1,2.0693169470032444,,,,,,,,,,,,,,,,,,,,,,,,,,,,030519_p2,001,2019_Mar_05_1146,body_behavioural,3.0.4,59.837507656181195,
6,She set it into a bin and then had to unstrap her leather boots and put everything else into the bins.,2,2,,,,0,6,6,6,,,,,0,11,11,11,,,,,,,,,,,,,,,,,,,,,,,,,,,,,1,2.303736852001748,,,,,,,,,,,,,,,,,,,,,,,,,,,,030519_p2,001,2019_Mar_05_1146,body_behavioural,3.0.4,59.837507656181195,
6,"Finally, she relieved Sven of his holding duties, and he hurriedly deposited his own backpack on the belt as the people behind them glared without shame. ",2,2,,,,0,6,6,6,,,,,0,12,12,12,,,,,,,,,,,,,,,,,,,,,,,,,,,,,1,3.6032145600038348,,,,,,,,,,,,,,,,,,,,,,,,,,,,030519_p2,001,2019_Mar_05_1146,body_behavioural,3.0.4,59.837507656181195,
6,"Sven went into the millimeter wave scanner after Isabel, put his hands up, and the metal bars whirled around him.",2,2,,,,0,6,6,6,,,,,0,13,13,13,,,,,,,,,,,,,,,,,,,,,,,,,,,,,1,6.20308094000211,,,,,,,,,,,,,,,,,,,,,,,,,,,,030519_p2,001,2019_Mar_05_1146,body_behavioural,3.0.4,59.837507656181195,
6,"“Sir, please step to the side.",2,2,,,,0,6,6,6,,,,,0,14,14,14,,,,,,,,,,,,,,,,,,,,,,,,,,,,,1,1.187333164998563,,,,,,,,,,,,,,,,,,,,,,,,,,,,030519_p2,001,2019_Mar_05_1146,body_behavioural,3.0.4,59.837507656181195,
6,"You need to empty your pockets,” the security guard said.",2,2,,,,0,6,6,6,,,,,0,15,15,15,,,,,,,,,,,,,,,,,,,,,,,,,,,,,1,4.636090216998127,,,,,,,,,,,,,,,,,,,,,,,,,,,,030519_p2,001,2019_Mar_05_1146,body_behavioural,3.0.4,59.837507656181195,
6,"With a sinking feeling Sven realized the mistake he had made forgetting to put the ring back in his bag, as Isabel and the guard both looked at him expectantly.",2,2,,,,0,6,6,6,,,,,0,16,16,16,,,,,,,,,,,,,,,,,,,,,,,,,,,,,1,6.353465264997794,,,,,,,,,,,,,,,,,,,,,,,,,,,,030519_p2,001,2019_Mar_05_1146,body_behavioural,3.0.4,59.837507656181195,
6,"Sven,  deciding he would make the best of the situation, grabbed Isabel's hand as he reached into his pocket.",2,2,,,,0,6,6,6,,,,,0,17,17,17,,,,,,,,,,,,,,,,,,,,,,,,,,,,,1,5.720140257006278,,,,,,,,,,,,,,,,,,,,,,,,,,,,030519_p2,001,2019_Mar_05_1146,body_behavioural,3.0.4,59.837507656181195,
6,"He got down on one knee and, giggling slightly at her confused look, said, “Isabel, this isn't quite how I'd planned this, but - will you marry me?”",2,3,,,,0,6,6,6,,,,,0,18,18,18,,,,,,,,,,,,,,,,,,,,,,,,,,,,,9,6.886827729991637,,,,,,,,,,,,,,,,,,,,,,,,,,,,030519_p2,001,2019_Mar_05_1146,body_behavioural,3.0.4,59.837507656181195,
6,The security guard gasped.,2,3,,,,0,6,6,6,,,,,0,19,19,19,,,,,,,,,,,,,,,,,,,,,,,,,,,,,9,4.636655345006147,,,,,,,,,,,,,,,,,,,,,,,,,,,,030519_p2,001,2019_Mar_05_1146,body_behavioural,3.0.4,59.837507656181195,
6,All the people who were putting their shoes back on and gathering their belongings stopped what they were doing and walked closer to the couple.,2,3,,,,0,6,6,6,,,,,0,20,20,20,,,,,,,,,,,,,,,,,,,,,,,,,,,,,1,2.4364842919894727,,,,,,,,,,,,,,,,,,,,,,,,,,,,030519_p2,001,2019_Mar_05_1146,body_behavioural,3.0.4,59.837507656181195,
6,"Isabel was astonished, and far too shy to respond in front of the backup of passengers waiting behind them.",2,3,,,,0,6,6,6,,,,,0,21,21,21,,,,,,,,,,,,,,,,,,,,,,,,,,,,,1,5.603567176993238,,,,,,,,,,,,,,,,,,,,,,,,,,,,030519_p2,001,2019_Mar_05_1146,body_behavioural,3.0.4,59.837507656181195,
6,"She attempted to stammer a response as she frantically grabbed her and Sven’s shoes, leaving Sven to retrieve their bags.",2,3,,,,0,6,6,6,,,,,0,22,22,22,,,,,,,,,,,,,,,,,,,,,,,,,,,,,1,5.90354331000708,,,,,,,,,,,,,,,,,,,,,,,,,,,,030519_p2,001,2019_Mar_05_1146,body_behavioural,3.0.4,59.837507656181195,
6,"Both of them slipping in their socked feet, she fled onto the concourse with Sven trying to catch up behind her.",3,3,,,,0,6,6,6,,,,,0,23,23,23,,,,,,,,,,,,,,,,,,,,,,,,,,,,,1,4.7197631020098925,,,,,,,,,,,,,,,,,,,,,,,,,,,,030519_p2,001,2019_Mar_05_1146,body_behavioural,3.0.4,59.837507656181195,
6,"Everyone in the terminal was looking at them with confusion as Sven, holding the bags in one hand and the open ring box in the other, finally caught up to her.",3,3,,,,0,6,6,6,,,,,0,24,24,24,,,,,,,,,,,,,,,,,,,,,,,,,,,,,1,7.303540452005109,,,,,,,,,,,,,,,,,,,,,,,,,,,,030519_p2,001,2019_Mar_05_1146,body_behavioural,3.0.4,59.837507656181195,
6,“Isabel?”,3,3,,,,0,6,6,6,,,,,0,25,25,25,,,,,,,,,,,,,,,,,,,,,,,,,,,,,1,1.986525412008632,,,,,,,,,,,,,,,,,,,,,,,,,,,,030519_p2,001,2019_Mar_05_1146,body_behavioural,3.0.4,59.837507656181195,
6,"He watched her face as she turned, trying to read her expression.",3,3,,,,0,6,6,6,,,,,0,26,26,26,,,,,,,,,,,,,,,,,,,,,,,,,,,,,1,2.384108345009736,,,,,,,,,,,,,,,,,,,,,,,,,,,,030519_p2,001,2019_Mar_05_1146,body_behavioural,3.0.4,59.837507656181195,
6,"Her eyes were wide, but she was smiling as she hyperventilated, “Of course yes, Sven, yes!” ",3,4,,,,0,6,6,6,,,,,0,27,27,27,,,,,,,,,,,,,,,,,,,,,,,,,,,,,1,4.150934635006706,,,,,,,,,,,,,,,,,,,,,,,,,,,,030519_p2,001,2019_Mar_05_1146,body_behavioural,3.0.4,59.837507656181195,
6,"They dropped their belongings and hugged, and Sven slipped the ring onto Isabel’s finger. ",3,4,,,,0,6,6,6,,,,,0,28,28,28,,,,,,,,,,,,,,,,,,,,,,,,,,,,,1,2.053119060001336,,,,,,,,,,,,,,,,,,,,,,,,,,,,030519_p2,001,2019_Mar_05_1146,body_behavioural,3.0.4,59.837507656181195,
6,"After getting their shoes back on, they practically skipped to the gate, filled with joy.",3,4,,,,0,6,6,6,,,,,0,29,29,29,,,,,,,,,,,,,,,,,,,,,,,,,,,,,1,1.9527903569978662,,,,,,,,,,,,,,,,,,,,,,,,,,,,030519_p2,001,2019_Mar_05_1146,body_behavioural,3.0.4,59.837507656181195,
6,Sven high-fived a confused shoe-shine attendant as they passed.,3,4,,,,0,6,6,6,,,,,0,30,30,30,,,,,,,,,,,,,,,,,,,,,,,,,,,,,1,4.35342091799248,,,,,,,,,,,,,,,,,,,,,,,,,,,,030519_p2,001,2019_Mar_05_1146,body_behavioural,3.0.4,59.837507656181195,
6,"They sat down outside their gate, having actually made good time, until the attendant called for passengers.",3,4,,,,0,6,6,6,,,,,0,31,31,31,,,,,,,,,,,,,,,,,,,,,,,,,,,,,1,4.553308495000238,,,,,,,,,,,,,,,,,,,,,,,,,,,,030519_p2,001,2019_Mar_05_1146,body_behavioural,3.0.4,59.837507656181195,
6,"They boarded, sitting together in first class, and had a glass of champagne to celebrate the departure into their new life together.",4,4,,,,0,6,6,6,,,,,0,32,32,32,,,,,,,,,,,,,,,,,,,,,,,,,,,,,1,4.836705354988226,,,,,,,,,,,,,,,,,,,,,,,,,,,,030519_p2,001,2019_Mar_05_1146,body_behavioural,3.0.4,59.837507656181195,
6,"Some of their neighboring passengers who had witnessed the proposal congratulated them, and a woman next to them showed them that she had been live-tweeting the whole event and that it was already going viral online.",4,4,,,,0,6,6,6,,,,,0,33,33,33,,,,,,,,,,,,,,,,,,,,,,,,,,,,,9,7.834520275006071,,,,,,,,,,,,,,,,,,,,,,,,,,,,030519_p2,001,2019_Mar_05_1146,body_behavioural,3.0.4,59.837507656181195,
6,"Isabel slid down in her seat with her hands over her face, both embarrassed and overjoyed at the same time.
",4,4,,,,0,6,6,6,,,,,0,34,34,34,,,,,,,,,,,,,,,,,,,,,,,,,,,,,1,3.250866443006089,,,,,,,,,,,,,,,,,,,,,,,,,,,,030519_p2,001,2019_Mar_05_1146,body_behavioural,3.0.4,59.837507656181195,
6,,,,,,,0,6,6,6,,,,,,,,,,,,,,,,,,,,,,,,,,,,,,,,,,,,,,,,,,,,,,,,,,,,,,,,,,,,,,,,,,030519_p2,001,2019_Mar_05_1146,body_behavioural,3.0.4,59.837507656181195,
7,,,,,,,0,7,7,7,0,0,0,0,,,,,,,,,,,,,,,,,,,,,,,,,,,space,0.8024972150014946,space,0.4371044389990857,space,1.3693630100024166,,,,,,,,,,,,,,,,,,,,,,,,,,,,,,030519_p2,001,2019_Mar_05_1146,body_behavioural,3.0.4,59.837507656181195,
7,"James noticed Teresa immediately as she walked into the restaurant - or, more accurately as she attempted to walk into the restaurant. ",1,1,,,,0,7,7,7,,,,,0,0,0,0,,,,,,,,,,,,,,,,,,,,,,,,,,,,,9,7.453615527992952,,,,,,,,,,,,,,,,,,,,,,,,,,,,030519_p2,001,2019_Mar_05_1146,body_behavioural,3.0.4,59.837507656181195,
7,"She was typing intently on her phone and ran straight into the diner's clear, glass door with an echoing thud. ",1,1,,,,0,7,7,7,,,,,0,1,1,1,,,,,,,,,,,,,,,,,,,,,,,,,,,,,1,5.803662886988604,,,,,,,,,,,,,,,,,,,,,,,,,,,,030519_p2,001,2019_Mar_05_1146,body_behavioural,3.0.4,59.837507656181195,
7,Everyone waiting around the cash register turned to see if she was okay.,1,1,,,,0,7,7,7,,,,,0,2,2,2,,,,,,,,,,,,,,,,,,,,,,,,,,,,,1,1.6364056549937231,,,,,,,,,,,,,,,,,,,,,,,,,,,,030519_p2,001,2019_Mar_05_1146,body_behavioural,3.0.4,59.837507656181195,
7,Teresa rubbed her head.,1,1,,,,0,7,7,7,,,,,0,3,3,3,,,,,,,,,,,,,,,,,,,,,,,,,,,,,1,1.3863297699863324,,,,,,,,,,,,,,,,,,,,,,,,,,,,030519_p2,001,2019_Mar_05_1146,body_behavioural,3.0.4,59.837507656181195,
7,"While being both confused and unembarrassed, she looked mostly indignant that the door had been in her way. ",1,1,,,,0,7,7,7,,,,,0,4,4,4,,,,,,,,,,,,,,,,,,,,,,,,,,,,,1,2.2873535560065648,,,,,,,,,,,,,,,,,,,,,,,,,,,,030519_p2,001,2019_Mar_05_1146,body_behavioural,3.0.4,59.837507656181195,
7,James found this quite charming and stole a couple glances at her until she noticed and wrinkled her eyebrows at him in suspicion. ,1,1,,,,0,7,7,7,,,,,0,5,5,5,,,,,,,,,,,,,,,,,,,,,,,,,,,,,1,3.119858526988537,,,,,,,,,,,,,,,,,,,,,,,,,,,,030519_p2,001,2019_Mar_05_1146,body_behavioural,3.0.4,59.837507656181195,
7,"The restaurant they were in was a cabin-themed diner with wooden booths and bar, walls covered in plaid blankets, and antler decorations. ",1,1,,,,0,7,7,7,,,,,0,6,6,6,,,,,,,,,,,,,,,,,,,,,,,,,,,,,9,1.703044852009043,,,,,,,,,,,,,,,,,,,,,,,,,,,,030519_p2,001,2019_Mar_05_1146,body_behavioural,3.0.4,59.837507656181195,
7,The waiter saw that James and Teresa were both alone and motioned to both of them. ,1,1,,,,0,7,7,7,,,,,0,7,7,7,,,,,,,,,,,,,,,,,,,,,,,,,,,,,1,2.50277975499921,,,,,,,,,,,,,,,,,,,,,,,,,,,,030519_p2,001,2019_Mar_05_1146,body_behavioural,3.0.4,59.837507656181195,
7,“Right this way.,2,1,,,,0,7,7,7,,,,,0,8,8,8,,,,,,,,,,,,,,,,,,,,,,,,,,,,,1,0.8863057279959321,,,,,,,,,,,,,,,,,,,,,,,,,,,,030519_p2,001,2019_Mar_05_1146,body_behavioural,3.0.4,59.837507656181195,
7,You two don't mind sitting at the counter?” ,2,1,,,,0,7,7,7,,,,,0,9,9,9,,,,,,,,,,,,,,,,,,,,,,,,,,,,,1,1.30318233500293,,,,,,,,,,,,,,,,,,,,,,,,,,,,030519_p2,001,2019_Mar_05_1146,body_behavioural,3.0.4,59.837507656181195,
7,They sat a seat apart from each other on the split tree trunk that served as a bench.,2,1,,,,0,7,7,7,,,,,0,10,10,10,,,,,,,,,,,,,,,,,,,,,,,,,,,,,1,5.036322614992969,,,,,,,,,,,,,,,,,,,,,,,,,,,,030519_p2,001,2019_Mar_05_1146,body_behavioural,3.0.4,59.837507656181195,
7, The waitress behind the counter gave them bright neon menus that were filled with breakfast items.,2,1,,,,0,7,7,7,,,,,0,11,11,11,,,,,,,,,,,,,,,,,,,,,,,,,,,,,9,4.2509636000031605,,,,,,,,,,,,,,,,,,,,,,,,,,,,030519_p2,001,2019_Mar_05_1146,body_behavioural,3.0.4,59.837507656181195,
7,"Teresa quickly glanced through it, then pulled out a book and started reading it while James played with the salt and pepper shakers as he tried to think of an excuse to talk to Teresa.",2,1,,,,0,7,7,7,,,,,0,12,12,12,,,,,,,,,,,,,,,,,,,,,,,,,,,,,1,4.319912484992528,,,,,,,,,,,,,,,,,,,,,,,,,,,,030519_p2,001,2019_Mar_05_1146,body_behavioural,3.0.4,59.837507656181195,
7,"James eventually turned to her and asked, “Your forehead alright?”",2,2,,,,0,7,7,7,,,,,0,13,13,13,,,,,,,,,,,,,,,,,,,,,,,,,,,,,1,2.7517649899964454,,,,,,,,,,,,,,,,,,,,,,,,,,,,030519_p2,001,2019_Mar_05_1146,body_behavioural,3.0.4,59.837507656181195,
7,She put down her book and gave him a smirk.,2,2,,,,0,7,7,7,,,,,0,14,14,14,,,,,,,,,,,,,,,,,,,,,,,,,,,,,1,5.120236171991564,,,,,,,,,,,,,,,,,,,,,,,,,,,,030519_p2,001,2019_Mar_05_1146,body_behavioural,3.0.4,59.837507656181195,
7,"“Have you ever been stung by a scorpion?”, she asked him, tilting her head.",2,2,,,,0,7,7,7,,,,,0,15,15,15,,,,,,,,,,,,,,,,,,,,,,,,,,,,,1,1.9204690869955812,,,,,,,,,,,,,,,,,,,,,,,,,,,,030519_p2,001,2019_Mar_05_1146,body_behavioural,3.0.4,59.837507656181195,
7,"“What?”, he asked confusedly.",2,2,,,,0,7,7,7,,,,,0,16,16,16,,,,,,,,,,,,,,,,,,,,,,,,,,,,,1,0.8030847100017127,,,,,,,,,,,,,,,,,,,,,,,,,,,,030519_p2,001,2019_Mar_05_1146,body_behavioural,3.0.4,59.837507656181195,
7, “A scorpion.”,2,2,,,,0,7,7,7,,,,,0,17,17,17,,,,,,,,,,,,,,,,,,,,,,,,,,,,,1,0.8007265600026585,,,,,,,,,,,,,,,,,,,,,,,,,,,,030519_p2,001,2019_Mar_05_1146,body_behavioural,3.0.4,59.837507656181195,
7,James began to worry that Teresa had possibly suffered a concussion in the door crash.,2,2,,,,0,7,7,7,,,,,0,18,18,18,,,,,,,,,,,,,,,,,,,,,,,,,,,,,1,3.6033307149918983,,,,,,,,,,,,,,,,,,,,,,,,,,,,030519_p2,001,2019_Mar_05_1146,body_behavioural,3.0.4,59.837507656181195,
7,"“Uh no, why?” ",2,2,,,,0,7,7,7,,,,,0,19,19,19,,,,,,,,,,,,,,,,,,,,,,,,,,,,,1,1.13615387500613,,,,,,,,,,,,,,,,,,,,,,,,,,,,030519_p2,001,2019_Mar_05_1146,body_behavioural,3.0.4,59.837507656181195,
7,"“Because I’ve been stung by one, and since then, things like bumping into doors seem like pretty small potatoes.” ",2,2,,,,0,7,7,7,,,,,0,20,20,20,,,,,,,,,,,,,,,,,,,,,,,,,,,,,1,4.567636849998962,,,,,,,,,,,,,,,,,,,,,,,,,,,,030519_p2,001,2019_Mar_05_1146,body_behavioural,3.0.4,59.837507656181195,
7,"They carried on talking, and Teresa told him all about her encounter with a Deathstalker scorpion while she was studying abroad in Egypt.",2,2,,,,0,7,7,7,,,,,0,21,21,21,,,,,,,,,,,,,,,,,,,,,,,,,,,,,1,3.019962515012594,,,,,,,,,,,,,,,,,,,,,,,,,,,,030519_p2,001,2019_Mar_05_1146,body_behavioural,3.0.4,59.837507656181195,
7,"After a few minutes, the waitress behind the counter came up to them, “Alrighty, can I take you order?” ",3,3,,,,0,7,7,7,,,,,0,22,22,22,,,,,,,,,,,,,,,,,,,,,,,,,,,,,1,2.3698086219956167,,,,,,,,,,,,,,,,,,,,,,,,,,,,030519_p2,001,2019_Mar_05_1146,body_behavioural,3.0.4,59.837507656181195,
7,"She first looked at Teresa who answered, “I’ll have a Western Omelette and a glass of milk.”",3,3,,,,0,7,7,7,,,,,0,23,23,23,,,,,,,,,,,,,,,,,,,,,,,,,,,,,9,2.602511385004618,,,,,,,,,,,,,,,,,,,,,,,,,,,,030519_p2,001,2019_Mar_05_1146,body_behavioural,3.0.4,59.837507656181195,
7,Then the waitress turned to James.,3,3,,,,0,7,7,7,,,,,0,24,24,24,,,,,,,,,,,,,,,,,,,,,,,,,,,,,1,0.7363224000000628,,,,,,,,,,,,,,,,,,,,,,,,,,,,030519_p2,001,2019_Mar_05_1146,body_behavioural,3.0.4,59.837507656181195,
7,"James said, “I’ll have the chocolate chip pancakes and a coffee.” ",3,3,,,,0,7,7,7,,,,,0,25,25,25,,,,,,,,,,,,,,,,,,,,,,,,,,,,,1,0.7194399979925947,,,,,,,,,,,,,,,,,,,,,,,,,,,,030519_p2,001,2019_Mar_05_1146,body_behavioural,3.0.4,59.837507656181195,
7,"“Alrighty, comin’ right up!”",3,3,,,,0,7,7,7,,,,,0,26,26,26,,,,,,,,,,,,,,,,,,,,,,,,,,,,,1,0.8363539620040683,,,,,,,,,,,,,,,,,,,,,,,,,,,,030519_p2,001,2019_Mar_05_1146,body_behavioural,3.0.4,59.837507656181195,
7,"They picked up their conversation, and James ended up telling Teresa about a concert he was going to later. ",3,3,,,,0,7,7,7,,,,,0,27,27,27,,,,,,,,,,,,,,,,,,,,,,,,,,,,,1,6.302672306002933,,,,,,,,,,,,,,,,,,,,,,,,,,,,030519_p2,001,2019_Mar_05_1146,body_behavioural,3.0.4,59.837507656181195,
7,"He invited her to come along, promising her that the concert would be indoors and absolutely free of venomous insects.",3,3,,,,0,7,7,7,,,,,0,28,28,28,,,,,,,,,,,,,,,,,,,,,,,,,,,,,1,3.003252344991779,,,,,,,,,,,,,,,,,,,,,,,,,,,,030519_p2,001,2019_Mar_05_1146,body_behavioural,3.0.4,59.837507656181195,
7,"Teresa agreed, gave him her number, and they worked out that James would pick her up before the concert and drive them there.",3,3,,,,0,7,7,7,,,,,0,29,29,29,,,,,,,,,,,,,,,,,,,,,,,,,,,,,1,2.6865378849906847,,,,,,,,,,,,,,,,,,,,,,,,,,,,030519_p2,001,2019_Mar_05_1146,body_behavioural,3.0.4,59.837507656181195,
7,"This was not what they had expected from their solitary lunch plans and were both excited, even though Teresa was doing a much better job of hiding it than James. ",3,3,,,,0,7,7,7,,,,,0,30,30,30,,,,,,,,,,,,,,,,,,,,,,,,,,,,,1,4.053256193001289,,,,,,,,,,,,,,,,,,,,,,,,,,,,030519_p2,001,2019_Mar_05_1146,body_behavioural,3.0.4,59.837507656181195,
7," After awhile,  the waitress brought out their food, and James took this opportunity to scoot closer to her on the log bench. ",4,4,,,,0,7,7,7,,,,,0,31,31,31,,,,,,,,,,,,,,,,,,,,,,,,,,,,,1,3.9360965249943547,,,,,,,,,,,,,,,,,,,,,,,,,,,,030519_p2,001,2019_Mar_05_1146,body_behavioural,3.0.4,59.837507656181195,
7,"Teresa was happy to share the meal with James, despite their food tasting pretty bad. ",4,4,,,,0,7,7,7,,,,,0,32,32,32,,,,,,,,,,,,,,,,,,,,,,,,,,,,,1,2.6360442849982064,,,,,,,,,,,,,,,,,,,,,,,,,,,,030519_p2,001,2019_Mar_05_1146,body_behavioural,3.0.4,59.837507656181195,
7,"Judging by how salty the pancakes tasted, they suspected that the chef had confused the salt and sugar.",4,4,,,,0,7,7,7,,,,,0,33,33,33,,,,,,,,,,,,,,,,,,,,,,,,,,,,,9,4.987448162995861,,,,,,,,,,,,,,,,,,,,,,,,,,,,030519_p2,001,2019_Mar_05_1146,body_behavioural,3.0.4,59.837507656181195,
7,"When the meal was over, they got up, hugged, and parted ways. ",4,4,,,,0,7,7,7,,,,,0,34,34,34,,,,,,,,,,,,,,,,,,,,,,,,,,,,,1,2.353145704997587,,,,,,,,,,,,,,,,,,,,,,,,,,,,030519_p2,001,2019_Mar_05_1146,body_behavioural,3.0.4,59.837507656181195,
7,"James said,“I have to run, got to get to work.",4,4,,,,0,7,7,7,,,,,0,35,35,35,,,,,,,,,,,,,,,,,,,,,,,,,,,,,1,1.5030029000045033,,,,,,,,,,,,,,,,,,,,,,,,,,,,030519_p2,001,2019_Mar_05_1146,body_behavioural,3.0.4,59.837507656181195,
7,See you tonight!”,4,4,,,,0,7,7,7,,,,,0,36,36,36,,,,,,,,,,,,,,,,,,,,,,,,,,,,,1,1.3860320200037677,,,,,,,,,,,,,,,,,,,,,,,,,,,,030519_p2,001,2019_Mar_05_1146,body_behavioural,3.0.4,59.837507656181195,
7,"Teresa smiled and walked towards the door without looking, and almost ran into the door again. ",4,4,,,,0,7,7,7,,,,,0,37,37,37,,,,,,,,,,,,,,,,,,,,,,,,,,,,,1,1.8861969249992399,,,,,,,,,,,,,,,,,,,,,,,,,,,,030519_p2,001,2019_Mar_05_1146,body_behavioural,3.0.4,59.837507656181195,
7,They both laughed and smiled once more goodbye. ,4,4,,,,0,7,7,7,,,,,0,38,38,38,,,,,,,,,,,,,,,,,,,,,,,,,,,,,1,0.9528980699979002,,,,,,,,,,,,,,,,,,,,,,,,,,,,030519_p2,001,2019_Mar_05_1146,body_behavioural,3.0.4,59.837507656181195,
7,,,,,,,0,7,7,7,,,,,,,,,,,,,,,,,,,,,,,,,,,,,,,,,,,,,,,,,,,,,,,,,,,,,,,,,,,,,,,,,,030519_p2,001,2019_Mar_05_1146,body_behavioural,3.0.4,59.837507656181195,
,,,,,,,,,,,,,,,,,,,,,,,,,,,,,,,,,,,,,,,,,,,,,,,,,1427.033296685011,space,1.5508585749921622,,,,,,,,,,,,,,,,,,,,,,,,,030519_p2,001,2019_Mar_05_1146,body_behavioural,3.0.4,59.837507656181195,
,,,,,,The next task in the experiment is to recall each story to the best of your ability.,,,,,,,,,,,,,0,0,0,0,,,,,,,,,,,,,,,,,,,,,,,,,,,,,,space,4.751074184998288,,,,,,,,,,,,,,,,,,,,,,,030519_p2,001,2019_Mar_05_1146,body_behavioural,3.0.4,59.837507656181195,
,,,,,,"You will be presented with the story title, names, the images, and a blank text box for each story.",,,,,,,,,,,,,0,1,1,1,,,,,,,,,,,,,,,,,,,,,,,,,,,,,,space,5.91995461199258,,,,,,,,,,,,,,,,,,,,,,,030519_p2,001,2019_Mar_05_1146,body_behavioural,3.0.4,59.837507656181195,
,,,,,,Describe the story with as many details as you can remember in the space provided. ,,,,,,,,,,,,,0,2,2,2,,,,,,,,,,,,,,,,,,,,,,,,,,,,,,space,4.886486685005366,,,,,,,,,,,,,,,,,,,,,,,030519_p2,001,2019_Mar_05_1146,body_behavioural,3.0.4,59.837507656181195,
,,,,,,"When you are finished recalling one story, to move onto the next one hit ‘return’. ",,,,,,,,,,,,,0,3,3,3,,,,,,,,,,,,,,,,,,,,,,,,,,,,,,space,3.6032087899948237,,,,,,,,,,,,,,,,,,,,,,,030519_p2,001,2019_Mar_05_1146,body_behavioural,3.0.4,59.837507656181195,
,,,,,,There is a 5 minute time limit to make your response. ,,,,,,,,,,,,,0,4,4,4,,,,,,,,,,,,,,,,,,,,,,,,,,,,,,space,3.3194623649906134,,,,,,,,,,,,,,,,,,,,,,,030519_p2,001,2019_Mar_05_1146,body_behavioural,3.0.4,59.837507656181195,
0,,,,,,,,,,,,,,,,,,,,,,,0,0,0,0,,,,,,,,,,,,,,,,,,,,,,,,,,,,space,0.9193799200002104,"Aaron and landa met in economics class two years ago. they are now in chemistry together in the same lecture hall and aaron is planning on proposing to lana. the ring has five small diamonds instead of a big diamond, and he is confident that lana will like it. the professor helped in the proposal, calling lana up to the front of the class for a demonstration. then aaron surprised her by propsing in front of the whole class.",,,,,,,,,,,,,,,,,,,,030519_p2,001,2019_Mar_05_1146,body_behavioural,3.0.4,59.837507656181195,
1,,,,,,,,,,,,,,,,,,,,,,,0,1,1,1,,,,,,,,,,,,,,,,,,,,,,,,,,,,space,1.370103447989095,"Simon and carina, two strangers, first saw each other at the grocery store. they were both planning barbeques and starting talking while they were picking out meat. they were shopped for their ingredients together and then simon proposes that they go on an officail date the following week. the checkout line is short, and simon pays for carina's groceries and says that this was kind of like their first date. then they both leave to get ready for theire barbeques.",,,,,,,,,,,,,,,,,,,,030519_p2,001,2019_Mar_05_1146,body_behavioural,3.0.4,59.837507656181195,
2,,,,,,,,,,,,,,,,,,,,,,,0,2,2,2,,,,,,,,,,,,,,,,,,,,,,,,,,,,space,0.8202202200045576,"Thomas and saide are at the grocery store. they have been fighting, but they are having a dinner party that night. they argue about which food to buy and who is going to cook it before they decide that they should break up. the agreement is mutual. they decide to wait until after the dinner party to announce it. they leave the store making jokes, suggesting that they are on good terms. they discuss that they just think they will be happier with other people.",,,,,,,,,,,,,,,,,,,,030519_p2,001,2019_Mar_05_1146,body_behavioural,3.0.4,59.837507656181195,
3,,,,,,,,,,,,,,,,,,,,,,,0,3,3,3,,,,,,,,,,,,,,,,,,,,,,,,,,,,space,0.9863893199944869,"Jeff and william met at a bar last night. by coincidence, they realize that jeff is a vineyard owner and that william is a distributer. they also realize that they are both leaving for boston the next morning. interested in doing business, they decide to meet before their flight. they discuss costs, and jeff explains that he needs more guarentee than what william is proposing, since he is not a corporate vineyard. they make a compromise where william will pay $400 instead of the originally proposed $300 for $600 worth of wine. they were able to figure out a compromise because they both really wanted to make the deal. jeff celebrated with a glass of champagne and emailed his team the good news.",,,,,,,,,,,,,,,,,,,,030519_p2,001,2019_Mar_05_1146,body_behavioural,3.0.4,59.837507656181195,
4,,,,,,,,,,,,,,,,,,,,,,,0,4,4,4,,,,,,,,,,,,,,,,,,,,,,,,,,,,space,0.8033901600138051,"Charlie and alma are meeting in class to finalize a deal that they proposed at a party last night where they met. charlie originally offers alma $15,000, half of what she needs and explains that she will get more funding once the start up is successful. she wants to start a tech company and insists that she needs the full $30,000 to ensure the success of her project. charlie agrees to the full funding.",,,,,,,,,,,,,,,,,,,,030519_p2,001,2019_Mar_05_1146,body_behavioural,3.0.4,59.837507656181195,
5,,,,,,,,,,,,,,,,,,,,,,,0,5,5,5,,,,,,,,,,,,,,,,,,,,,,,,,,,,space,0.735961803002283,"Emmanuella and liam have been fighting. they are at the grocery store and they argue over which pasta to buy, and who will do the cooking. they are getting ready for their dinner party. while arguing, they mutually decide that they would like to split up and that they will announce this after their dinner party. they agree that they would be happier with other people. they leave the grocery store making jokes. their groceries cost $30.",,,,,,,,,,,,,,,,,,,,030519_p2,001,2019_Mar_05_1146,body_behavioural,3.0.4,59.837507656181195,
6,,,,,,,,,,,,,,,,,,,,,,,0,6,6,6,,,,,,,,,,,,,,,,,,,,,,,,,,,,space,0.869706049998058,"Sven and isabel were leaving spain after visiting with isabel's family. sven was planning to propose and had gotten isabel's families permission during the visit. at security, isabel dug through her bag to take out her laptop, but sven forgot to take the ring out of his pocket. he realizes his mistake and decides to propose right there at security. isabel is in shock, but says yes. they fly first class and drink champagne and some other passengers that were there when he proposed congratulate them aboard their plane.",,,,,,,,,,,,,,,,,,,,030519_p2,001,2019_Mar_05_1146,body_behavioural,3.0.4,59.837507656181195,
7,,,,,,,,,,,,,,,,,,,,,,,0,7,7,7,,,,,,,,,,,,,,,,,,,,,,,,,,,,space,0.8533066149975639,"Teresa walks into the glass when trying to get into a diner. when sitting at the counter, james asks teresa if her head feel ok. she starts explains that nothing hurts much after being stung by a scoripion while studying abroad in egypt. teresa orders an omelet and james orders pancakes. their food is really bad and they joke that maybe the chef switched the salt and the sugar accidentaly. james invites teresa to a concert later as a date, then has to leave to go to work. the menus were bright and flashy and the restaurant decor was cabin-like. ",,,,,,,,,,,,,,,,,,,,030519_p2,001,2019_Mar_05_1146,body_behavioural,3.0.4,59.837507656181195,
,,,,,,,,,,,,,,,,,,,,,,,,,,,,,,,,,,,,,,,,,,,,,,,,,,,,,,,,,2813.826874810009,space,1.036479361995589,,,,,,,,,,,,,,,,,030519_p2,001,2019_Mar_05_1146,body_behavioural,3.0.4,59.837507656181195,
,,,,,,The next part of the task is to answer 8 questions about each story.,,,,,,,,,,,,,,,,,,,,,0,0,0,0,,,,,,,,,,,,,,,,,,,,,,,,,,,,,,space,1.9026971479906933,,,,,,,,,,,,,,,030519_p2,001,2019_Mar_05_1146,body_behavioural,3.0.4,59.837507656181195,
,,,,,,Some of the questions are not related to the perspective you were asked to assume.,,,,,,,,,,,,,,,,,,,,,0,1,1,1,,,,,,,,,,,,,,,,,,,,,,,,,,,,,,space,1.753079100002651,,,,,,,,,,,,,,,030519_p2,001,2019_Mar_05_1146,body_behavioural,3.0.4,59.837507656181195,
,,,,,,"We realize that we did not tell you to think of these questions during the story, but do your best to answer them.",,,,,,,,,,,,,,,,,,,,,0,2,2,2,,,,,,,,,,,,,,,,,,,,,,,,,,,,,,space,4.01994817800005,,,,,,,,,,,,,,,030519_p2,001,2019_Mar_05_1146,body_behavioural,3.0.4,59.837507656181195,
,,,,,,"When you have finished typing your answer, hit ‘return’ to submit your answer and move onto the next question. ",,,,,,,,,,,,,,,,,,,,,0,3,3,3,,,,,,,,,,,,,,,,,,,,,,,,,,,,,,space,1.6197504430019762,,,,,,,,,,,,,,,030519_p2,001,2019_Mar_05_1146,body_behavioural,3.0.4,59.837507656181195,
0,,,,,,,,,,,,,,,,,,,,,,,,,,,,,,,0,0,0,0,,,,,,,,,,,,,,,,,,,,,,A midterm ,,,,,,space,0.8031272650114261,"Excitedr, optimistic",primed first,It has five small diamonds instead of one big one ,The chemistry professor ,The entire chem class,One of the most beautiful at princeton,"Chemistry, the lecture is about ions",Something about bonds ,A midterm ,,,,030519_p2,001,2019_Mar_05_1146,body_behavioural,3.0.4,59.837507656181195,
1,,,,,,,,,,,,,,,,,,,,,,,,,,,,,,,0,1,1,1,,,,,,,,,,,,,,,,,,,,,,Simon pays for carina's groceries and they are $120 all together. he uses a credit card,,,,,,space,0.8863555179996183,They both first notice each other while entering the grocery store because they find each other attractive,primed first,"At the meat section, carina says doublequoteisn't this meat cutedoublequote",Simon proposes a meal a few days later,They both leave to get ready for their barbeques ,,Meat and barbeque sauce ,The line is short. they did not have much time to chat in line,Simon pays for carina's groceries and they are $120 all together. he uses a credit card,,,,030519_p2,001,2019_Mar_05_1146,body_behavioural,3.0.4,59.837507656181195,
2,,,,,,,,,,,,,,,,,,,,,,,,,,,,,,,0,2,2,2,,,,,,,,,,,,,,,,,,,,,,No,,,,,,space,0.6531152079987805,Shabby,non-primed first,"They dont notice them at first, they have a lot of weird dishes, but also normal things like burgers and reubens ","A burger with no tomato and a reuben, which the server says is excellent","Sadie does not eat her, and thomas thinks the burger is gross",They feel nervous about how sadie will take it ,He wants time alone,Not well,No,,,,030519_p2,001,2019_Mar_05_1146,body_behavioural,3.0.4,59.837507656181195,
3,,,,,,,,,,,,,,,,,,,,,,,,,,,,,,,0,3,3,3,,,,,,,,,,,,,,,,,,,,,,Jeff sits in an aisle seat in business class,,,,,,space,1.3518814780109096,"Wine, one makes it and one sells it",primed first,"A distribution deal is being negotiated. a lot of money could come from the deal, but right now, only $600 is at stake",They negotiate because jeff says it is too little ,They agree on $400 and make the deal to buy samples ,2 hours,Take out their laptops,They are still busy discussing their deal,Jeff sits in an aisle seat in business class,,,,030519_p2,001,2019_Mar_05_1146,body_behavioural,3.0.4,59.837507656181195,
4,,,,,,,,,,,,,,,,,,,,,,,,,,,,,,,0,4,4,4,,,,,,,,,,,,,,,,,,,,,,A midterm,,,,,,space,0.9696719249914167,Web development and investing,non-primed first,"A deal to fund a new start up is being negotiated. $30,000 is at stake",Alma refuses the original offer for only half the funding. she says she needs more to ensure succes,They agree on full funding and agree to sign the deal tomorrow,Large ,They are in history,,A midterm,,,,030519_p2,001,2019_Mar_05_1146,body_behavioural,3.0.4,59.837507656181195,
5,,,,,,,,,,,,,,,,,,,,,,,,,,,,,,,0,5,5,5,,,,,,,,,,,,,,,,,,,,,,Yes,,,,,,space,0.7698206730128732,,primed first,Linguinie and pasta sauce,The line is long ,The groceries are $30 and they pay with a credit card,He feels frustrated with his relationship,He feels like he would be happier with other people,She agrees and wants to break up,Yes,,,,030519_p2,001,2019_Mar_05_1146,body_behavioural,3.0.4,59.837507656181195,
6,,,,,,,,,,,,,,,,,,,,,,,,,,,,,,,0,6,6,6,,,,,,,,,,,,,,,,,,,,,,First class,,,,,,space,0.6836739349964773,Cofident and optimistic. his desire to propose was confirmed over their visit ,non-primed first,,The security guard involuntarily helps,Everyone at airport security,,Isabel takes out her laptop and removes her boots. sven forgets to take the ring out of his pocket,"Excited, filled with joy",First class,,,,030519_p2,001,2019_Mar_05_1146,body_behavioural,3.0.4,59.837507656181195,
7,,,,,,,,,,,,,,,,,,,,,,,,,,,,,,,0,7,7,7,,,,,,,,,,,,,,,,,,,,,,It was terrible,,,,,,space,0.6527723869949114,James notices teresa because she walking into the window and hit her head,non-primed first,James asks if teresa's head is alright,James invites teresa to a concert,James has to go to work,A diner,Neon with breakfast items,An omelet and pancakes,It was terrible,,,,030519_p2,001,2019_Mar_05_1146,body_behavioural,3.0.4,59.837507656181195,
,,,,,,,,,,,,,,,,,,,,,,,,,,,,,,,,,,,,,,,,,,,,,,,,,,,,,,,,,,,,,,,,,,,,,,,,,3656.001487057001,space,0.636138886999106,030519_p2,001,2019_Mar_05_1146,body_behavioural,3.0.4,59.837507656181195,
,,,,,,,,,,,,,,,,,,,,,,,,,,,,,,,,,,,0,0,0,0,,,,,,,,,,,,,,,,,,,,,,,,,,,,,,,,,,,,,,030519_p2,001,2019_Mar_05_1146,body_behavioural,3.0.4,59.837507656181195,
,,,,,,,,,,,,,,,,,,,,,,,,,,,,,,,,,,,1,0,1,0,,,,,,,,,,,,,,,,,,,,,,,,,,,,,,,,,,,,,,030519_p2,001,2019_Mar_05_1146,body_behavioural,3.0.4,59.837507656181195,
,,,,,,,,,,,,,,,,,,,,,,,,,,,,,,,,,,,2,0,2,0,,,,,,,,,,,,,,,,,,,,,,,,,,,,,,,,,,,,,,030519_p2,001,2019_Mar_05_1146,body_behavioural,3.0.4,59.837507656181195,
,,,,,,,,,,,,,,,,,,,,,,,,,,,,,,,,,,,3,0,3,0,,,,,,,,,,,,,,,,,,,,,,,,,,,,,,,,,,,,,,030519_p2,001,2019_Mar_05_1146,body_behavioural,3.0.4,59.837507656181195,
,,,,,,,,,,,,,,,,,,,,,,,,,,,,,,,,,,,4,0,4,0,,,,,,,,,,,,,,,,,,,,,,,,,,,,,,,,,,,,,,030519_p2,001,2019_Mar_05_1146,body_behavioural,3.0.4,59.837507656181195,
