count,storyText,locationEvent,socialEvent,instructText,trials.thisRepN,trials.thisTrialN,trials.thisN,trials.thisIndex,trials_7.thisRepN,trials_7.thisTrialN,trials_7.thisN,trials_7.thisIndex,trials_2.thisRepN,trials_2.thisTrialN,trials_2.thisN,trials_2.thisIndex,trials_3.thisRepN,trials_3.thisTrialN,trials_3.thisN,trials_3.thisIndex,trials_4.thisRepN,trials_4.thisTrialN,trials_4.thisN,trials_4.thisIndex,trials_5.thisRepN,trials_5.thisTrialN,trials_5.thisN,trials_5.thisIndex,trials_6.thisRepN,trials_6.thisTrialN,trials_6.thisN,trials_6.thisIndex,trials_8.thisRepN,trials_8.thisTrialN,trials_8.thisN,trials_8.thisIndex,order of stories,order of perspectives,participant 2 order - stories,participant 2 order  - schemas types,key_resp_8.keys,key_resp_8.rt,key_resp_5.keys,key_resp_5.rt,key_resp_7.keys,key_resp_7.rt,story_presses.keys,story_presses.rt,story time,key_resp_6.keys,key_resp_6.rt,key_resp_2.keys,key_resp_2.rt,key_resp_10.keys,key_resp_10.rt,recall,recall time,key_resp_12.keys,key_resp_12.rt,key_resp_3.keys,key_resp_3.rt,key_resp_11.keys,key_resp_11.rt,question1_answer,order of question,question2_answer,question3_answer,question4_answer,question5_answer,question6_answer,question7_answer,question8_answer,questions time,key_resp_13.keys,key_resp_13.rt,participant,session,date,expName,psychopyVersion,frameRate,
0,,,,,0,0,0,0,0,0,0,0,,,,,,,,,,,,,,,,,,,,,,,,,[23 31 32 13 41 14 42 24 21 34 12 44 43 11 33 22],"['Location' 'Social' 'Location' 'Social' 'Location' 'Location' 'Social'
 'Social' 'Location' 'Location' 'Location' 'Social' 'Location' 'Social'
 'Social' 'Social']",[21 34 12 44 43 11 33 22],"['Location' 'Location' 'Location' 'Social' 'Location' 'Social' 'Social'
 'Social']",space,9.306187852009316,space,1.5201939069957007,space,1.3863719549990492,,,,,,,,,,,,,,,,,,,,,,,,,,,,,,030719_p3,001,2019_Mar_07_1612,body_behavioural,3.0.4,59.81887788555824,
0,"Alex was a distracted, sweaty mess as he walked into the grocery store with Chloe; he was hoping that she wouldn't suspect that he was about to propose.",1,1,,0,0,0,0,,,,,0,0,0,0,,,,,,,,,,,,,,,,,,,,,,,,,,,,,,,9,14.470800701994449,,,,,,,,,,,,,,,,,,,,,,,,,,,,030719_p3,001,2019_Mar_07_1612,body_behavioural,3.0.4,59.81887788555824,
0,"The grocery store was brightly lit; this was one of the nicest grocery stores in Atlanta, and sunlight poured in through the glass walls.",1,1,,0,0,0,0,,,,,0,1,1,1,,,,,,,,,,,,,,,,,,,,,,,,,,,,,,,9,6.653051229994162,,,,,,,,,,,,,,,,,,,,,,,,,,,,030719_p3,001,2019_Mar_07_1612,body_behavioural,3.0.4,59.81887788555824,
0,"The atmosphere was also bright because tomorrow was Thanksgiving, and most shoppers had carts piled high with turkey, stuffing, and pies.",1,1,,0,0,0,0,,,,,0,2,2,2,,,,,,,,,,,,,,,,,,,,,,,,,,,,,,,9,5.984793188996264,,,,,,,,,,,,,,,,,,,,,,,,,,,,030719_p3,001,2019_Mar_07_1612,body_behavioural,3.0.4,59.81887788555824,
0,Alex wanted to propose to Chloe here because he knew she would not suspect it at all. ,1,1,,0,0,0,0,,,,,0,3,3,3,,,,,,,,,,,,,,,,,,,,,,,,,,,,,,,9,3.8697261849883944,,,,,,,,,,,,,,,,,,,,,,,,,,,,030719_p3,001,2019_Mar_07_1612,body_behavioural,3.0.4,59.81887788555824,
0,"Chloe loved surprises, and Alex loved the look on Chloe’s face when she was surprised. ",1,1,,0,0,0,0,,,,,0,4,4,4,,,,,,,,,,,,,,,,,,,,,,,,,,,,,,,9,6.636378694995074,,,,,,,,,,,,,,,,,,,,,,,,,,,,030719_p3,001,2019_Mar_07_1612,body_behavioural,3.0.4,59.81887788555824,
0,"“Alex, we need to get some cranberry sauce, so let’s go there first.” ",2,1,,0,0,0,0,,,,,0,5,5,5,,,,,,,,,,,,,,,,,,,,,,,,,,,,,,,1,4.3182380799989915,,,,,,,,,,,,,,,,,,,,,,,,,,,,030719_p3,001,2019_Mar_07_1612,body_behavioural,3.0.4,59.81887788555824,
0,She led the way to the section of the store that held the canned foods. ,2,1,,0,0,0,0,,,,,0,6,6,6,,,,,,,,,,,,,,,,,,,,,,,,,,,,,,,9,3.8206910870067077,,,,,,,,,,,,,,,,,,,,,,,,,,,,030719_p3,001,2019_Mar_07_1612,body_behavioural,3.0.4,59.81887788555824,
0,Alex looked like he was going to throw up. ,2,1,,0,0,0,0,,,,,0,7,7,7,,,,,,,,,,,,,,,,,,,,,,,,,,,,,,,9,3.4515349290013546,,,,,,,,,,,,,,,,,,,,,,,,,,,,030719_p3,001,2019_Mar_07_1612,body_behavioural,3.0.4,59.81887788555824,
0,"As they were walking there, Chloe asked him, “Is everything okay, dear?”",2,1,,0,0,0,0,,,,,0,8,8,8,,,,,,,,,,,,,,,,,,,,,,,,,,,,,,,9,5.087240447988734,,,,,,,,,,,,,,,,,,,,,,,,,,,,030719_p3,001,2019_Mar_07_1612,body_behavioural,3.0.4,59.81887788555824,
0,"“Oh yeah, for sure,” he said, unconvincingly. ",2,1,,0,0,0,0,,,,,0,9,9,9,,,,,,,,,,,,,,,,,,,,,,,,,,,,,,,1,8.57043281001097,,,,,,,,,,,,,,,,,,,,,,,,,,,,030719_p3,001,2019_Mar_07_1612,body_behavioural,3.0.4,59.81887788555824,
0,"She chuckled, “Alright, whatever you say.” ",2,1,,0,0,0,0,,,,,0,10,10,10,,,,,,,,,,,,,,,,,,,,,,,,,,,,,,,1,2.536702069992316,,,,,,,,,,,,,,,,,,,,,,,,,,,,030719_p3,001,2019_Mar_07_1612,body_behavioural,3.0.4,59.81887788555824,
0,"She was mulling over the different cans of cranberry sauce, and Alex knew she would be a while.",2,1,,0,0,0,0,,,,,0,11,11,11,,,,,,,,,,,,,,,,,,,,,,,,,,,,,,,1,3.7197326900059124,,,,,,,,,,,,,,,,,,,,,,,,,,,,030719_p3,001,2019_Mar_07_1612,body_behavioural,3.0.4,59.81887788555824,
0,He turned his back to her and pulled out the ring.,2,2,,0,0,0,0,,,,,0,12,12,12,,,,,,,,,,,,,,,,,,,,,,,,,,,,,,,9,3.402935628007981,,,,,,,,,,,,,,,,,,,,,,,,,,,,030719_p3,001,2019_Mar_07_1612,body_behavioural,3.0.4,59.81887788555824,
0,He had been saving up for this for a while. ,2,2,,0,0,0,0,,,,,0,13,13,13,,,,,,,,,,,,,,,,,,,,,,,,,,,,,,,1,5.020583773002727,,,,,,,,,,,,,,,,,,,,,,,,,,,,030719_p3,001,2019_Mar_07_1612,body_behavioural,3.0.4,59.81887788555824,
0,The ring had three large diamonds with smaller ones encircling each one: all of them sparkled in the light streaming in from the windows. ,2,2,,0,0,0,0,,,,,0,14,14,14,,,,,,,,,,,,,,,,,,,,,,,,,,,,,,,1,2.834196433002944,,,,,,,,,,,,,,,,,,,,,,,,,,,,030719_p3,001,2019_Mar_07_1612,body_behavioural,3.0.4,59.81887788555824,
0,"“Alex?”, Chloe said suspiciously. ",2,2,,0,0,0,0,,,,,0,15,15,15,,,,,,,,,,,,,,,,,,,,,,,,,,,,,,,1,3.185973179002758,,,,,,,,,,,,,,,,,,,,,,,,,,,,030719_p3,001,2019_Mar_07_1612,body_behavioural,3.0.4,59.81887788555824,
0,He closed the box and whipped around. “Yes?”,2,2,,0,0,0,0,,,,,0,16,16,16,,,,,,,,,,,,,,,,,,,,,,,,,,,,,,,9,4.054493499992532,,,,,,,,,,,,,,,,,,,,,,,,,,,,030719_p3,001,2019_Mar_07_1612,body_behavioural,3.0.4,59.81887788555824,
0,“Do we need anything else?”,2,2,,0,0,0,0,,,,,0,17,17,17,,,,,,,,,,,,,,,,,,,,,,,,,,,,,,,1,1.9840003219869686,,,,,,,,,,,,,,,,,,,,,,,,,,,,030719_p3,001,2019_Mar_07_1612,body_behavioural,3.0.4,59.81887788555824,
0,"“Yeah I don’t know, honey.” ",2,2,,0,0,0,0,,,,,0,18,18,18,,,,,,,,,,,,,,,,,,,,,,,,,,,,,,,1,1.1369046260078903,,,,,,,,,,,,,,,,,,,,,,,,,,,,030719_p3,001,2019_Mar_07_1612,body_behavioural,3.0.4,59.81887788555824,
0,They went to the checkout and waited in a long line.,3,2,,0,0,0,0,,,,,0,19,19,19,,,,,,,,,,,,,,,,,,,,,,,,,,,,,,,9,2.568757187007577,,,,,,,,,,,,,,,,,,,,,,,,,,,,030719_p3,001,2019_Mar_07_1612,body_behavioural,3.0.4,59.81887788555824,
0,Alex was staring intensely off into the distance. ,3,2,,0,0,0,0,,,,,0,20,20,20,,,,,,,,,,,,,,,,,,,,,,,,,,,,,,,1,3.63550800801022,,,,,,,,,,,,,,,,,,,,,,,,,,,,030719_p3,001,2019_Mar_07_1612,body_behavioural,3.0.4,59.81887788555824,
0,Chloe was watching him trying to decide whether he looked scared or confused. ,3,2,,0,0,0,0,,,,,0,21,21,21,,,,,,,,,,,,,,,,,,,,,,,,,,,,,,,1,2.402167334992555,,,,,,,,,,,,,,,,,,,,,,,,,,,,030719_p3,001,2019_Mar_07_1612,body_behavioural,3.0.4,59.81887788555824,
0,Alex looked over at their friends who were waiting by the entrance of the grocery store.,3,2,,0,0,0,0,,,,,0,22,22,22,,,,,,,,,,,,,,,,,,,,,,,,,,,,,,,1,3.1537374800100224,,,,,,,,,,,,,,,,,,,,,,,,,,,,030719_p3,001,2019_Mar_07_1612,body_behavioural,3.0.4,59.81887788555824,
0,They got the message and walked over slowly. ,3,2,,0,0,0,0,,,,,0,23,23,23,,,,,,,,,,,,,,,,,,,,,,,,,,,,,,,9,4.4537264950049575,,,,,,,,,,,,,,,,,,,,,,,,,,,,030719_p3,001,2019_Mar_07_1612,body_behavioural,3.0.4,59.81887788555824,
0,"“Honey,” he said to get her attention, “Look, Chloe, I love you so much and I want to be with you forever, I can’t imagine a day without you.”",3,2,,0,0,0,0,,,,,0,24,24,24,,,,,,,,,,,,,,,,,,,,,,,,,,,,,,,1,3.1208062399964547,,,,,,,,,,,,,,,,,,,,,,,,,,,,030719_p3,001,2019_Mar_07_1612,body_behavioural,3.0.4,59.81887788555824,
0,"“Awww, Alex, me too.”",3,2,,0,0,0,0,,,,,0,25,25,25,,,,,,,,,,,,,,,,,,,,,,,,,,,,,,,1,1.636382840006263,,,,,,,,,,,,,,,,,,,,,,,,,,,,030719_p3,001,2019_Mar_07_1612,body_behavioural,3.0.4,59.81887788555824,
0,"Alex got down on one knee, and Chloe gasped. ",3,3,,0,0,0,0,,,,,0,26,26,26,,,,,,,,,,,,,,,,,,,,,,,,,,,,,,,1,1.5361281450022943,,,,,,,,,,,,,,,,,,,,,,,,,,,,030719_p3,001,2019_Mar_07_1612,body_behavioural,3.0.4,59.81887788555824,
0,"“I am serious, Chloe. Will you marry me?”",3,3,,0,0,0,0,,,,,0,27,27,27,,,,,,,,,,,,,,,,,,,,,,,,,,,,,,,1,1.702930697996635,,,,,,,,,,,,,,,,,,,,,,,,,,,,030719_p3,001,2019_Mar_07_1612,body_behavioural,3.0.4,59.81887788555824,
0,"The people in line around them realized what was happening, stepped back, and started taking pictures.",3,3,,0,0,0,0,,,,,0,28,28,28,,,,,,,,,,,,,,,,,,,,,,,,,,,,,,,1,4.4032534549915,,,,,,,,,,,,,,,,,,,,,,,,,,,,030719_p3,001,2019_Mar_07_1612,body_behavioural,3.0.4,59.81887788555824,
0,Their friends were no longer trying to hide and were videotaping and taking pictures too. ,3,3,,0,0,0,0,,,,,0,29,29,29,,,,,,,,,,,,,,,,,,,,,,,,,,,,,,,1,2.2334748430002946,,,,,,,,,,,,,,,,,,,,,,,,,,,,030719_p3,001,2019_Mar_07_1612,body_behavioural,3.0.4,59.81887788555824,
0,Chloe looked around and laughed. ,3,3,,0,0,0,0,,,,,0,30,30,30,,,,,,,,,,,,,,,,,,,,,,,,,,,,,,,1,3.77008007200493,,,,,,,,,,,,,,,,,,,,,,,,,,,,030719_p3,001,2019_Mar_07_1612,body_behavioural,3.0.4,59.81887788555824,
0,"“Yes!” she shouted, and jumped to embrace Alex in a hug. ",3,4,,0,0,0,0,,,,,0,31,31,31,,,,,,,,,,,,,,,,,,,,,,,,,,,,,,,1,2.0701085799955763,,,,,,,,,,,,,,,,,,,,,,,,,,,,030719_p3,001,2019_Mar_07_1612,body_behavioural,3.0.4,59.81887788555824,
0,Everyone in line clapped and cheered. ,3,4,,0,0,0,0,,,,,0,32,32,32,,,,,,,,,,,,,,,,,,,,,,,,,,,,,,,1,1.2530130250088405,,,,,,,,,,,,,,,,,,,,,,,,,,,,030719_p3,001,2019_Mar_07_1612,body_behavioural,3.0.4,59.81887788555824,
0,"Alex put the ring on Chloe’s finger, who was nearly spinning in excitement.",3,4,,0,0,0,0,,,,,0,33,33,33,,,,,,,,,,,,,,,,,,,,,,,,,,,,,,,9,4.070606066990877,,,,,,,,,,,,,,,,,,,,,,,,,,,,030719_p3,001,2019_Mar_07_1612,body_behavioural,3.0.4,59.81887788555824,
0,"“I love it, oh my gosh, it’s so glittery!",3,4,,0,0,0,0,,,,,0,34,34,34,,,,,,,,,,,,,,,,,,,,,,,,,,,,,,,1,1.486184424997191,,,,,,,,,,,,,,,,,,,,,,,,,,,,030719_p3,001,2019_Mar_07_1612,body_behavioural,3.0.4,59.81887788555824,
0,Look at this!” she said as she shoved her hand in a stranger’s face.,3,4,,0,0,0,0,,,,,0,35,35,35,,,,,,,,,,,,,,,,,,,,,,,,,,,,,,,1,2.169798989998526,,,,,,,,,,,,,,,,,,,,,,,,,,,,030719_p3,001,2019_Mar_07_1612,body_behavioural,3.0.4,59.81887788555824,
0,Her friends came over and hugged them.,3,4,,0,0,0,0,,,,,0,36,36,36,,,,,,,,,,,,,,,,,,,,,,,,,,,,,,,1,1.2369016500015277,,,,,,,,,,,,,,,,,,,,,,,,,,,,030719_p3,001,2019_Mar_07_1612,body_behavioural,3.0.4,59.81887788555824,
0,The other people let them move up to the front of the checkout line. ,3,4,,0,0,0,0,,,,,0,37,37,37,,,,,,,,,,,,,,,,,,,,,,,,,,,,,,,1,7.286631060007494,,,,,,,,,,,,,,,,,,,,,,,,,,,,030719_p3,001,2019_Mar_07_1612,body_behavioural,3.0.4,59.81887788555824,
0,The cashier congratulated them and scanned their cranberry sauce. ,4,4,,0,0,0,0,,,,,0,38,38,38,,,,,,,,,,,,,,,,,,,,,,,,,,,,,,,1,1.453129125002306,,,,,,,,,,,,,,,,,,,,,,,,,,,,030719_p3,001,2019_Mar_07_1612,body_behavioural,3.0.4,59.81887788555824,
0,The total came to $4 and Chloe paid in cash while getting distracted and staring at the ring as she pulled out the bills.,4,4,,0,0,0,0,,,,,0,39,39,39,,,,,,,,,,,,,,,,,,,,,,,,,,,,,,,9,6.653288235000218,,,,,,,,,,,,,,,,,,,,,,,,,,,,030719_p3,001,2019_Mar_07_1612,body_behavioural,3.0.4,59.81887788555824,
0,"Alex grabbed the cans, and they walked out with their friends bunched around them. ",4,4,,0,0,0,0,,,,,0,40,40,40,,,,,,,,,,,,,,,,,,,,,,,,,,,,,,,1,6.534390942993923,,,,,,,,,,,,,,,,,,,,,,,,,,,,030719_p3,001,2019_Mar_07_1612,body_behavioural,3.0.4,59.81887788555824,
0,,,,,0,0,0,0,,,,,,,,,,,,,,,,,,,,,,,,,,,,,,,,,,,,,,,,,,,,,,,,,,,,,,,,,,,,,,,,,,,,030719_p3,001,2019_Mar_07_1612,body_behavioural,3.0.4,59.81887788555824,
1,,,,,0,1,1,1,0,0,0,0,,,,,,,,,,,,,,,,,,,,,,,,,,,,,space,4.503085764998104,space,1.2197070379916113,space,1.969276190007804,,,,,,,,,,,,,,,,,,,,,,,,,,,,,,030719_p3,001,2019_Mar_07_1612,body_behavioural,3.0.4,59.81887788555824,
1,Mr. Shelton and Mr. Gordon shook hands inside the foyer of the restaurant: lunch today was about big business. ,1,1,,0,1,1,1,,,,,0,0,0,0,,,,,,,,,,,,,,,,,,,,,,,,,,,,,,,9,17.201833048005938,,,,,,,,,,,,,,,,,,,,,,,,,,,,030719_p3,001,2019_Mar_07_1612,body_behavioural,3.0.4,59.81887788555824,
1,Mr. Shelton and Mr. Gordon both were CEOs of airplane manufacturing companies.,1,1,,0,1,1,1,,,,,0,1,1,1,,,,,,,,,,,,,,,,,,,,,,,,,,,,,,,1,8.937283546998515,,,,,,,,,,,,,,,,,,,,,,,,,,,,030719_p3,001,2019_Mar_07_1612,body_behavioural,3.0.4,59.81887788555824,
1,"Mr. Shelton was in charge of a larger, well-established company and had been in the aviation business for decades.",1,1,,0,1,1,1,,,,,0,2,2,2,,,,,,,,,,,,,,,,,,,,,,,,,,,,,,,1,3.902557692010305,,,,,,,,,,,,,,,,,,,,,,,,,,,,030719_p3,001,2019_Mar_07_1612,body_behavioural,3.0.4,59.81887788555824,
1,"On the other hand, Mr. Gordon led a smaller but technologically-advanced company that was projected to disrupt the airplane manufacturing market. ",1,1,,0,1,1,1,,,,,0,3,3,3,,,,,,,,,,,,,,,,,,,,,,,,,,,,,,,1,3.183892132001347,,,,,,,,,,,,,,,,,,,,,,,,,,,,030719_p3,001,2019_Mar_07_1612,body_behavioural,3.0.4,59.81887788555824,
1,"The restaurant they chose to meet at was old and fancy with high ceilings, dark wood paneling, and crystal chandeliers.",1,1,,0,1,1,1,,,,,0,4,4,4,,,,,,,,,,,,,,,,,,,,,,,,,,,,,,,9,3.286433262997889,,,,,,,,,,,,,,,,,,,,,,,,,,,,030719_p3,001,2019_Mar_07_1612,body_behavioural,3.0.4,59.81887788555824,
1,"The waitress led them to their table in the back, and they settled into a private table in the corner by the fireplace. ",2,1,,0,1,1,1,,,,,0,5,5,5,,,,,,,,,,,,,,,,,,,,,,,,,,,,,,,1,2.1842921650095377,,,,,,,,,,,,,,,,,,,,,,,,,,,,030719_p3,001,2019_Mar_07_1612,body_behavioural,3.0.4,59.81887788555824,
1,The waitress brought out the menus and they broke the ice with some small talk.,2,1,,0,1,1,1,,,,,0,6,6,6,,,,,,,,,,,,,,,,,,,,,,,,,,,,,,,1,2.202801172999898,,,,,,,,,,,,,,,,,,,,,,,,,,,,030719_p3,001,2019_Mar_07_1612,body_behavioural,3.0.4,59.81887788555824,
1,"Mr. Gordon took out a picture of his daughter and talked about her recent engagement, and Mr. Gordon boasted about his purchase of a Tesla. ",2,1,,0,1,1,1,,,,,0,7,7,7,,,,,,,,,,,,,,,,,,,,,,,,,,,,,,,9,4.6697932749957545,,,,,,,,,,,,,,,,,,,,,,,,,,,,030719_p3,001,2019_Mar_07_1612,body_behavioural,3.0.4,59.81887788555824,
1,"They looked at the menus as well, which were full of Italian classics like Carbonara and Tiramisu, and in the back section of the menu was a lengthy drink selection.",2,1,,0,1,1,1,,,,,0,8,8,8,,,,,,,,,,,,,,,,,,,,,,,,,,,,,,,9,8.85130267799832,,,,,,,,,,,,,,,,,,,,,,,,,,,,030719_p3,001,2019_Mar_07_1612,body_behavioural,3.0.4,59.81887788555824,
1,"After awhile, Mr. Shelton brought the conversation around to business.",2,2,,0,1,1,1,,,,,0,9,9,9,,,,,,,,,,,,,,,,,,,,,,,,,,,,,,,1,1.6196724850015016,,,,,,,,,,,,,,,,,,,,,,,,,,,,030719_p3,001,2019_Mar_07_1612,body_behavioural,3.0.4,59.81887788555824,
1,"“Mr. Gordon, we really admire what you’re doing at your company.",2,2,,0,1,1,1,,,,,0,10,10,10,,,,,,,,,,,,,,,,,,,,,,,,,,,,,,,1,3.553532930003712,,,,,,,,,,,,,,,,,,,,,,,,,,,,030719_p3,001,2019_Mar_07_1612,body_behavioural,3.0.4,59.81887788555824,
1,We think it’s genius; we want to support your vision and make this tiny company of yours internationally known.,2,2,,0,1,1,1,,,,,0,11,11,11,,,,,,,,,,,,,,,,,,,,,,,,,,,,,,,1,4.570021135004936,,,,,,,,,,,,,,,,,,,,,,,,,,,,030719_p3,001,2019_Mar_07_1612,body_behavioural,3.0.4,59.81887788555824,
1,"But honestly, your company doesn’t have the resources to reach international markets right now.",2,2,,0,1,1,1,,,,,0,12,12,12,,,,,,,,,,,,,,,,,,,,,,,,,,,,,,,1,3.8366285329975653,,,,,,,,,,,,,,,,,,,,,,,,,,,,030719_p3,001,2019_Mar_07_1612,body_behavioural,3.0.4,59.81887788555824,
1,"Maybe in a few years you could, but by that time, other companies may have already filled your niche.",2,2,,0,1,1,1,,,,,0,13,13,13,,,,,,,,,,,,,,,,,,,,,,,,,,,,,,,1,3.4528386619931553,,,,,,,,,,,,,,,,,,,,,,,,,,,,030719_p3,001,2019_Mar_07_1612,body_behavioural,3.0.4,59.81887788555824,
1,I think we should join forces.”,2,2,,0,1,1,1,,,,,0,14,14,14,,,,,,,,,,,,,,,,,,,,,,,,,,,,,,,1,1.800896782980999,,,,,,,,,,,,,,,,,,,,,,,,,,,,030719_p3,001,2019_Mar_07_1612,body_behavioural,3.0.4,59.81887788555824,
1,The waitress came up to them and asked if they were ready to order.,3,2,,0,1,1,1,,,,,0,15,15,15,,,,,,,,,,,,,,,,,,,,,,,,,,,,,,,9,2.3844991530058905,,,,,,,,,,,,,,,,,,,,,,,,,,,,030719_p3,001,2019_Mar_07_1612,body_behavioural,3.0.4,59.81887788555824,
1,"Mr. Gordon ordered a medium-rare steak and martini, and Mr. Shelton ordered veal and a manhattan. ",3,2,,0,1,1,1,,,,,0,16,16,16,,,,,,,,,,,,,,,,,,,,,,,,,,,,,,,1,2.783903229981661,,,,,,,,,,,,,,,,,,,,,,,,,,,,030719_p3,001,2019_Mar_07_1612,body_behavioural,3.0.4,59.81887788555824,
1,"Then Mr. Shelton continued, “Look, I’ve talked to other members of the board, and we are prepared to offer $600 million to buy your company. ",3,2,,0,1,1,1,,,,,0,17,17,17,,,,,,,,,,,,,,,,,,,,,,,,,,,,,,,9,4.620206727995537,,,,,,,,,,,,,,,,,,,,,,,,,,,,030719_p3,001,2019_Mar_07_1612,body_behavioural,3.0.4,59.81887788555824,
1,"We'd keep on all of your current employees, and you would join as the director of your company branch.” ",3,2,,0,1,1,1,,,,,0,18,18,18,,,,,,,,,,,,,,,,,,,,,,,,,,,,,,,1,8.15339590801159,,,,,,,,,,,,,,,,,,,,,,,,,,,,030719_p3,001,2019_Mar_07_1612,body_behavioural,3.0.4,59.81887788555824,
1,Mr. Gordon sat looking at Mr. Shelton for a few moments considering his response. ,3,2,,0,1,1,1,,,,,0,19,19,19,,,,,,,,,,,,,,,,,,,,,,,,,,,,,,,9,4.636480588000268,,,,,,,,,,,,,,,,,,,,,,,,,,,,030719_p3,001,2019_Mar_07_1612,body_behavioural,3.0.4,59.81887788555824,
1,He looked at Mr. Shelton skeptically.,3,2,,0,1,1,1,,,,,0,20,20,20,,,,,,,,,,,,,,,,,,,,,,,,,,,,,,,1,0.9699133600224741,,,,,,,,,,,,,,,,,,,,,,,,,,,,030719_p3,001,2019_Mar_07_1612,body_behavioural,3.0.4,59.81887788555824,
1,"He said, “Mr. Shelton, I think that you make a compelling offer, but there are definitely some disadvantages to attaching our small, streamlined productions to a large company like yours.",3,3,,0,1,1,1,,,,,0,21,21,21,,,,,,,,,,,,,,,,,,,,,,,,,,,,,,,1,6.686317440005951,,,,,,,,,,,,,,,,,,,,,,,,,,,,030719_p3,001,2019_Mar_07_1612,body_behavioural,3.0.4,59.81887788555824,
1,"We operate in a very different way than a large company, and the kind of administrative complexity that makes the scale of your productions possible would suffocate our business.",3,3,,0,1,1,1,,,,,0,22,22,22,,,,,,,,,,,,,,,,,,,,,,,,,,,,,,,1,6.170099288021447,,,,,,,,,,,,,,,,,,,,,,,,,,,,030719_p3,001,2019_Mar_07_1612,body_behavioural,3.0.4,59.81887788555824,
1,"With our product, scaling-up doesn’t necessarily make sense.” ",3,3,,0,1,1,1,,,,,0,23,23,23,,,,,,,,,,,,,,,,,,,,,,,,,,,,,,,1,3.0032305030035786,,,,,,,,,,,,,,,,,,,,,,,,,,,,030719_p3,001,2019_Mar_07_1612,body_behavioural,3.0.4,59.81887788555824,
1,Mr. Shelton had expected this response and had come prepared.,3,3,,0,1,1,1,,,,,0,24,24,24,,,,,,,,,,,,,,,,,,,,,,,,,,,,,,,1,4.186100078019081,,,,,,,,,,,,,,,,,,,,,,,,,,,,030719_p3,001,2019_Mar_07_1612,body_behavioural,3.0.4,59.81887788555824,
1,He began laying out the details of how he had handled similar acquisitions successfully in the past.,3,3,,0,1,1,1,,,,,0,25,25,25,,,,,,,,,,,,,,,,,,,,,,,,,,,,,,,9,2.8531370700220577,,,,,,,,,,,,,,,,,,,,,,,,,,,,030719_p3,001,2019_Mar_07_1612,body_behavioural,3.0.4,59.81887788555824,
1,"Mr. Gordon was impressed, and they went back and forth hashing out what the company configuration would look like post-merger. ",3,3,,0,1,1,1,,,,,0,26,26,26,,,,,,,,,,,,,,,,,,,,,,,,,,,,,,,1,3.8862402850063518,,,,,,,,,,,,,,,,,,,,,,,,,,,,030719_p3,001,2019_Mar_07_1612,body_behavioural,3.0.4,59.81887788555824,
1,"The waitress brought the food out, interrupting their animated conversation.",4,3,,0,1,1,1,,,,,0,27,27,27,,,,,,,,,,,,,,,,,,,,,,,,,,,,,,,9,2.819864314980805,,,,,,,,,,,,,,,,,,,,,,,,,,,,030719_p3,001,2019_Mar_07_1612,body_behavioural,3.0.4,59.81887788555824,
1,“Oh this looks so good!” Mr. Gordon said. ,4,3,,0,1,1,1,,,,,0,28,28,28,,,,,,,,,,,,,,,,,,,,,,,,,,,,,,,1,1.552559216012014,,,,,,,,,,,,,,,,,,,,,,,,,,,,030719_p3,001,2019_Mar_07_1612,body_behavioural,3.0.4,59.81887788555824,
1, “Can I get you anything else?” the waitress asked.,4,3,,0,1,1,1,,,,,0,29,29,29,,,,,,,,,,,,,,,,,,,,,,,,,,,,,,,1,1.553460256982362,,,,,,,,,,,,,,,,,,,,,,,,,,,,030719_p3,001,2019_Mar_07_1612,body_behavioural,3.0.4,59.81887788555824,
1,They declined and continued to talk.,4,3,,0,1,1,1,,,,,0,30,30,30,,,,,,,,,,,,,,,,,,,,,,,,,,,,,,,1,5.087346923013683,,,,,,,,,,,,,,,,,,,,,,,,,,,,030719_p3,001,2019_Mar_07_1612,body_behavioural,3.0.4,59.81887788555824,
1,"The meal lived up to the reputation of the restaurant, which was known for having the best cuts of meat in the area.",4,3,,0,1,1,1,,,,,0,31,31,31,,,,,,,,,,,,,,,,,,,,,,,,,,,,,,,9,4.28619236999657,,,,,,,,,,,,,,,,,,,,,,,,,,,,030719_p3,001,2019_Mar_07_1612,body_behavioural,3.0.4,59.81887788555824,
1,"Mr. Gordon, after taking a contemplative bite of his food, said, “Mr. Shelton, I think we have a deal. ",4,4,,0,1,1,1,,,,,0,32,32,32,,,,,,,,,,,,,,,,,,,,,,,,,,,,,,,1,4.286503333016299,,,,,,,,,,,,,,,,,,,,,,,,,,,,030719_p3,001,2019_Mar_07_1612,body_behavioural,3.0.4,59.81887788555824,
1,"If you can guarantee that I can still have the final say in the all the work done by my team, I think this could be beneficial for both of us.",4,4,,0,1,1,1,,,,,0,33,33,33,,,,,,,,,,,,,,,,,,,,,,,,,,,,,,,1,4.303062940016389,,,,,,,,,,,,,,,,,,,,,,,,,,,,030719_p3,001,2019_Mar_07_1612,body_behavioural,3.0.4,59.81887788555824,
1,I propose a toast to the merging of our companies.”,4,4,,0,1,1,1,,,,,0,34,34,34,,,,,,,,,,,,,,,,,,,,,,,,,,,,,,,1,1.9028739779896569,,,,,,,,,,,,,,,,,,,,,,,,,,,,030719_p3,001,2019_Mar_07_1612,body_behavioural,3.0.4,59.81887788555824,
1,Mr. Shelton grinned and lifted his martini to clink glasses.,4,4,,0,1,1,1,,,,,0,35,35,35,,,,,,,,,,,,,,,,,,,,,,,,,,,,,,,1,1.5862410920090042,,,,,,,,,,,,,,,,,,,,,,,,,,,,030719_p3,001,2019_Mar_07_1612,body_behavioural,3.0.4,59.81887788555824,
1,"He said, “Cheers to a lifelong partnership and to the growth of your company.” ",4,4,,0,1,1,1,,,,,0,36,36,36,,,,,,,,,,,,,,,,,,,,,,,,,,,,,,,1,2.217607863014564,,,,,,,,,,,,,,,,,,,,,,,,,,,,030719_p3,001,2019_Mar_07_1612,body_behavioural,3.0.4,59.81887788555824,
1,,,,,0,1,1,1,,,,,,,,,,,,,,,,,,,,,,,,,,,,,,,,,,,,,,,,,,,,,,,,,,,,,,,,,,,,,,,,,,,,030719_p3,001,2019_Mar_07_1612,body_behavioural,3.0.4,59.81887788555824,
2,,,,,0,2,2,2,0,0,0,0,,,,,,,,,,,,,,,,,,,,,,,,,,,,,space,1.0529221750039142,space,1.0674492780235596,space,4.4865880369907245,,,,,,,,,,,,,,,,,,,,,,,,,,,,,,030719_p3,001,2019_Mar_07_1612,body_behavioural,3.0.4,59.81887788555824,
2,"Jeff, hoping that today would be a pivotal day for his new business, had only been waiting inside the doors of the airport for a few minutes when he saw William and eagerly waved him over. ",1,1,,0,2,2,2,,,,,0,0,0,0,,,,,,,,,,,,,,,,,,,,,,,,,,,,,,,9,14.503784584987443,,,,,,,,,,,,,,,,,,,,,,,,,,,,030719_p3,001,2019_Mar_07_1612,body_behavioural,3.0.4,59.81887788555824,
2,"Jeff, checking his watch, was pleased to see that the two of them had two hours to discuss business before their flights left Boston.",1,1,,0,2,2,2,,,,,0,1,1,1,,,,,,,,,,,,,,,,,,,,,,,,,,,,,,,1,5.636712309991708,,,,,,,,,,,,,,,,,,,,,,,,,,,,030719_p3,001,2019_Mar_07_1612,body_behavioural,3.0.4,59.81887788555824,
2,The two had met the night before in line for the bathroom at a local bar. ,1,1,,0,2,2,2,,,,,0,2,2,2,,,,,,,,,,,,,,,,,,,,,,,,,,,,,,,9,3.55307843798073,,,,,,,,,,,,,,,,,,,,,,,,,,,,030719_p3,001,2019_Mar_07_1612,body_behavioural,3.0.4,59.81887788555824,
2,Jeff had delivered some surprisingly-detailed complaints to William about the wine selection.,1,1,,0,2,2,2,,,,,0,3,3,3,,,,,,,,,,,,,,,,,,,,,,,,,,,,,,,1,4.1697925880143885,,,,,,,,,,,,,,,,,,,,,,,,,,,,030719_p3,001,2019_Mar_07_1612,body_behavioural,3.0.4,59.81887788555824,
2,They quickly learned about each other that Jeff was a representative for wine vineyards in the Northeast and William was a wine buyer for corporate events.,1,1,,0,2,2,2,,,,,0,4,4,4,,,,,,,,,,,,,,,,,,,,,,,,,,,,,,,1,4.7200989079719875,,,,,,,,,,,,,,,,,,,,,,,,,,,,030719_p3,001,2019_Mar_07_1612,body_behavioural,3.0.4,59.81887788555824,
2,"Since they both had flights out of Boston at the same time, they had agreed to meet at the airport and talk about potentially doing business. ",1,1,,0,2,2,2,,,,,0,5,5,5,,,,,,,,,,,,,,,,,,,,,,,,,,,,,,,1,4.087110544991447,,,,,,,,,,,,,,,,,,,,,,,,,,,,030719_p3,001,2019_Mar_07_1612,body_behavioural,3.0.4,59.81887788555824,
2,"They headed to security together, pleased to find that the line was not so long, and they chatted a little as they were waiting. ",2,1,,0,2,2,2,,,,,0,6,6,6,,,,,,,,,,,,,,,,,,,,,,,,,,,,,,,9,5.653626557003008,,,,,,,,,,,,,,,,,,,,,,,,,,,,030719_p3,001,2019_Mar_07_1612,body_behavioural,3.0.4,59.81887788555824,
2,"“It’s crazy that we met last night,” William said, “I am flying out right now to meet my boss, and was worried that I was going to show up empty handed without any local retailer prepared.” ",2,1,,0,2,2,2,,,,,0,7,7,7,,,,,,,,,,,,,,,,,,,,,,,,,,,,,,,1,6.286705012986204,,,,,,,,,,,,,,,,,,,,,,,,,,,,030719_p3,001,2019_Mar_07_1612,body_behavioural,3.0.4,59.81887788555824,
2,"“I know, what are the chances, right?” Jeff said.",2,1,,0,2,2,2,,,,,0,8,8,8,,,,,,,,,,,,,,,,,,,,,,,,,,,,,,,1,1.5863877770025283,,,,,,,,,,,,,,,,,,,,,,,,,,,,030719_p3,001,2019_Mar_07_1612,body_behavioural,3.0.4,59.81887788555824,
2,"William laughed and said, “I’m glad our shared complaining can come in handy.",2,1,,0,2,2,2,,,,,0,9,9,9,,,,,,,,,,,,,,,,,,,,,,,,,,,,,,,1,4.200358457979746,,,,,,,,,,,,,,,,,,,,,,,,,,,,030719_p3,001,2019_Mar_07_1612,body_behavioural,3.0.4,59.81887788555824,
2,"I know this is fast, but I'd like to get right down to specifics.",2,2,,0,2,2,2,,,,,0,10,10,10,,,,,,,,,,,,,,,,,,,,,,,,,,,,,,,1,2.6872582400101237,,,,,,,,,,,,,,,,,,,,,,,,,,,,030719_p3,001,2019_Mar_07_1612,body_behavioural,3.0.4,59.81887788555824,
2,I'd like to order a couple of sample shipments from you and present them to our corporate buyers.,2,2,,0,2,2,2,,,,,0,11,11,11,,,,,,,,,,,,,,,,,,,,,,,,,,,,,,,9,5.352851197996642,,,,,,,,,,,,,,,,,,,,,,,,,,,,030719_p3,001,2019_Mar_07_1612,body_behavioural,3.0.4,59.81887788555824,
2,"Typically we expect to get these kinds of samples at a deep discount, at least half-off the label price.",2,2,,0,2,2,2,,,,,0,12,12,12,,,,,,,,,,,,,,,,,,,,,,,,,,,,,,,1,4.404180059995269,,,,,,,,,,,,,,,,,,,,,,,,,,,,030719_p3,001,2019_Mar_07_1612,body_behavioural,3.0.4,59.81887788555824,
2,"This is nothing, okay, compared to what you will be making if one of these buyers makes a contract.",2,2,,0,2,2,2,,,,,0,13,13,13,,,,,,,,,,,,,,,,,,,,,,,,,,,,,,,1,3.25315122801112,,,,,,,,,,,,,,,,,,,,,,,,,,,,030719_p3,001,2019_Mar_07_1612,body_behavioural,3.0.4,59.81887788555824,
2,So I propose that you send us $600 worth of wine shipments for a price of $300.”,2,2,,0,2,2,2,,,,,0,14,14,14,,,,,,,,,,,,,,,,,,,,,,,,,,,,,,,1,3.553218929999275,,,,,,,,,,,,,,,,,,,,,,,,,,,,030719_p3,001,2019_Mar_07_1612,body_behavioural,3.0.4,59.81887788555824,
2,"When it was their turn to go through the metal detector, they took off their shoes and pulled out their laptops.",2,2,,0,2,2,2,,,,,0,15,15,15,,,,,,,,,,,,,,,,,,,,,,,,,,,,,,,9,6.5535272150009405,,,,,,,,,,,,,,,,,,,,,,,,,,,,030719_p3,001,2019_Mar_07_1612,body_behavioural,3.0.4,59.81887788555824,
2,"Jeff mulled over the offer, nodding noncommittally to William's pitch as they proceeded through the metal detector and retrieved their belongings.",2,2,,0,2,2,2,,,,,0,16,16,16,,,,,,,,,,,,,,,,,,,,,,,,,,,,,,,1,6.388297507975949,,,,,,,,,,,,,,,,,,,,,,,,,,,,030719_p3,001,2019_Mar_07_1612,body_behavioural,3.0.4,59.81887788555824,
2,"They began to walk through the concourse, and William handed some printed spreadsheets to Jeff as they navigated toward their gates at the end of the terminal.",3,2,,0,2,2,2,,,,,0,17,17,17,,,,,,,,,,,,,,,,,,,,,,,,,,,,,,,1,4.734323715005303,,,,,,,,,,,,,,,,,,,,,,,,,,,,030719_p3,001,2019_Mar_07_1612,body_behavioural,3.0.4,59.81887788555824,
2,"Jeff, weaving through the crowds of travelers, squinted at William's rosy projections of the number of bottles he could be able to purchase in the future.",3,2,,0,2,2,2,,,,,0,18,18,18,,,,,,,,,,,,,,,,,,,,,,,,,,,,,,,9,6.820162187999813,,,,,,,,,,,,,,,,,,,,,,,,,,,,030719_p3,001,2019_Mar_07_1612,body_behavioural,3.0.4,59.81887788555824,
2,"Finally Jeff said, “I don’t know, we’re not coming from corporate vineyards, so gambling with sample shipments is the kind of risk we can’t necessarily make. ",3,3,,0,2,2,2,,,,,0,19,19,19,,,,,,,,,,,,,,,,,,,,,,,,,,,,,,,1,5.886888748005731,,,,,,,,,,,,,,,,,,,,,,,,,,,,030719_p3,001,2019_Mar_07_1612,body_behavioural,3.0.4,59.81887788555824,
2,"These corporate purchases would have to be huge and practically guaranteed, to offset the loss from selling sample shipments at this price.”",3,3,,0,2,2,2,,,,,0,20,20,20,,,,,,,,,,,,,,,,,,,,,,,,,,,,,,,1,5.353385775000788,,,,,,,,,,,,,,,,,,,,,,,,,,,,030719_p3,001,2019_Mar_07_1612,body_behavioural,3.0.4,59.81887788555824,
2,"They walked to the gates very slowly, barely registering the hubbub of the airport since they were so caught up in figuring out this deal before their flights left.",3,3,,0,2,2,2,,,,,0,21,21,21,,,,,,,,,,,,,,,,,,,,,,,,,,,,,,,1,8.567897564993473,,,,,,,,,,,,,,,,,,,,,,,,,,,,030719_p3,001,2019_Mar_07_1612,body_behavioural,3.0.4,59.81887788555824,
2,"At the end of their long walk, they got to Jeff’s gate first, which had begun boarding passengers.",3,3,,0,2,2,2,,,,,0,22,22,22,,,,,,,,,,,,,,,,,,,,,,,,,,,,,,,1,3.919814598019002,,,,,,,,,,,,,,,,,,,,,,,,,,,,030719_p3,001,2019_Mar_07_1612,body_behavioural,3.0.4,59.81887788555824,
2,"In these last minutes, William and Jeff agreed on a compromise rate on the sample shipment, paying $400 for a $600 shipment, and they finalized the deal with a handshake. ",3,4,,0,2,2,2,,,,,0,23,23,23,,,,,,,,,,,,,,,,,,,,,,,,,,,,,,,9,6.31754517799709,,,,,,,,,,,,,,,,,,,,,,,,,,,,030719_p3,001,2019_Mar_07_1612,body_behavioural,3.0.4,59.81887788555824,
2,"“Well, what a tremendous pleasure to do business with you and to have all this work out,” William said.",3,4,,0,2,2,2,,,,,0,24,24,24,,,,,,,,,,,,,,,,,,,,,,,,,,,,,,,1,3.186400495003909,,,,,,,,,,,,,,,,,,,,,,,,,,,,030719_p3,001,2019_Mar_07_1612,body_behavioural,3.0.4,59.81887788555824,
2,"Jeff nodded enthusiastically, and responded, “Likewise, this has been great.  ",3,4,,0,2,2,2,,,,,0,25,25,25,,,,,,,,,,,,,,,,,,,,,,,,,,,,,,,1,3.503393370017875,,,,,,,,,,,,,,,,,,,,,,,,,,,,030719_p3,001,2019_Mar_07_1612,body_behavioural,3.0.4,59.81887788555824,
2,I'll let you get to your gate.,3,4,,0,2,2,2,,,,,0,26,26,26,,,,,,,,,,,,,,,,,,,,,,,,,,,,,,,1,1.1534222229965962,,,,,,,,,,,,,,,,,,,,,,,,,,,,030719_p3,001,2019_Mar_07_1612,body_behavioural,3.0.4,59.81887788555824,
2,"Once we’re both back on the ground, we can get all the shipments in the books.”",3,4,,0,2,2,2,,,,,0,27,27,27,,,,,,,,,,,,,,,,,,,,,,,,,,,,,,,1,3.7023688679910265,,,,,,,,,,,,,,,,,,,,,,,,,,,,030719_p3,001,2019_Mar_07_1612,body_behavioural,3.0.4,59.81887788555824,
2,They parted with a wave as Jeff scanned his boarding pass at the gate. ,3,4,,0,2,2,2,,,,,0,28,28,28,,,,,,,,,,,,,,,,,,,,,,,,,,,,,,,1,2.6702275080024265,,,,,,,,,,,,,,,,,,,,,,,,,,,,030719_p3,001,2019_Mar_07_1612,body_behavioural,3.0.4,59.81887788555824,
2,He walked onto the plane and sat down in his aisle seat in the business class section.,4,4,,0,2,2,2,,,,,0,29,29,29,,,,,,,,,,,,,,,,,,,,,,,,,,,,,,,9,3.686776872986229,,,,,,,,,,,,,,,,,,,,,,,,,,,,030719_p3,001,2019_Mar_07_1612,body_behavioural,3.0.4,59.81887788555824,
2,He typed out a quick email on his phone letting the rest of his team know the good news. ,4,4,,0,2,2,2,,,,,0,30,30,30,,,,,,,,,,,,,,,,,,,,,,,,,,,,,,,1,3.1199088050052524,,,,,,,,,,,,,,,,,,,,,,,,,,,,030719_p3,001,2019_Mar_07_1612,body_behavioural,3.0.4,59.81887788555824,
2,"When the flight attendant came by, he ordered a glass of champagne to celebrate.",4,4,,0,2,2,2,,,,,0,31,31,31,,,,,,,,,,,,,,,,,,,,,,,,,,,,,,,9,3.3034285150060896,,,,,,,,,,,,,,,,,,,,,,,,,,,,030719_p3,001,2019_Mar_07_1612,body_behavioural,3.0.4,59.81887788555824,
2,,,,,0,2,2,2,,,,,,,,,,,,,,,,,,,,,,,,,,,,,,,,,,,,,,,,,,,,,,,,,,,,,,,,,,,,,,,,,,,,030719_p3,001,2019_Mar_07_1612,body_behavioural,3.0.4,59.81887788555824,
3,,,,,0,3,3,3,0,0,0,0,,,,,,,,,,,,,,,,,,,,,,,,,,,,,space,1.8865198279963806,space,1.3866501850134227,space,0.8692878630245104,,,,,,,,,,,,,,,,,,,,,,,,,,,,,,030719_p3,001,2019_Mar_07_1612,body_behavioural,3.0.4,59.81887788555824,
3,The grocery store was not the place Emmanuella and Liam wanted to be at the moment considering they had been fighting beforehand to the point where Emmanuella was thinking of breaking up with Liam.,1,1,,0,3,3,3,,,,,0,0,0,0,,,,,,,,,,,,,,,,,,,,,,,,,,,,,,,9,7.752469928993378,,,,,,,,,,,,,,,,,,,,,,,,,,,,030719_p3,001,2019_Mar_07_1612,body_behavioural,3.0.4,59.81887788555824,
3,"However, they had to go grocery shopping because they were hosting a dinner party for friends that evening and had no groceries. ",1,1,,0,3,3,3,,,,,0,1,1,1,,,,,,,,,,,,,,,,,,,,,,,,,,,,,,,1,4.987177608010825,,,,,,,,,,,,,,,,,,,,,,,,,,,,030719_p3,001,2019_Mar_07_1612,body_behavioural,3.0.4,59.81887788555824,
3,The grocery store was dimly lit and had dark wood paneling for all the shelves.,1,1,,0,3,3,3,,,,,0,2,2,2,,,,,,,,,,,,,,,,,,,,,,,,,,,,,,,1,3.2675704730208963,,,,,,,,,,,,,,,,,,,,,,,,,,,,030719_p3,001,2019_Mar_07_1612,body_behavioural,3.0.4,59.81887788555824,
3,"The store specialized in organic produce and products catering to desires for high-end products, such as imported cheeses and sauces. ",1,1,,0,3,3,3,,,,,0,3,3,3,,,,,,,,,,,,,,,,,,,,,,,,,,,,,,,1,4.619952640001429,,,,,,,,,,,,,,,,,,,,,,,,,,,,030719_p3,001,2019_Mar_07_1612,body_behavioural,3.0.4,59.81887788555824,
3,"Emmanuella felt angry as she headed immediately for the pasta section, and Liam trailed behind her. ",2,1,,0,3,3,3,,,,,0,4,4,4,,,,,,,,,,,,,,,,,,,,,,,,,,,,,,,9,5.420096066984115,,,,,,,,,,,,,,,,,,,,,,,,,,,,030719_p3,001,2019_Mar_07_1612,body_behavioural,3.0.4,59.81887788555824,
3,Emmanuella selected a few boxes of linguine.,2,1,,0,3,3,3,,,,,0,5,5,5,,,,,,,,,,,,,,,,,,,,,,,,,,,,,,,1,1.702945068012923,,,,,,,,,,,,,,,,,,,,,,,,,,,,030719_p3,001,2019_Mar_07_1612,body_behavioural,3.0.4,59.81887788555824,
3,"“I guess we are having pasta tonight,” Liam said.",2,1,,0,3,3,3,,,,,0,6,6,6,,,,,,,,,,,,,,,,,,,,,,,,,,,,,,,1,4.353225102997385,,,,,,,,,,,,,,,,,,,,,,,,,,,,030719_p3,001,2019_Mar_07_1612,body_behavioural,3.0.4,59.81887788555824,
3,"Emmanuella looked back at him and said, “Well if you were going to actually help cook, I would be fine with something else.”",2,1,,0,3,3,3,,,,,0,7,7,7,,,,,,,,,,,,,,,,,,,,,,,,,,,,,,,1,4.620524646015838,,,,,,,,,,,,,,,,,,,,,,,,,,,,030719_p3,001,2019_Mar_07_1612,body_behavioural,3.0.4,59.81887788555824,
3,"Liam sighed, and finally said, “You don’t want me to help.",2,1,,0,3,3,3,,,,,0,8,8,8,,,,,,,,,,,,,,,,,,,,,,,,,,,,,,,9,3.8367174379818607,,,,,,,,,,,,,,,,,,,,,,,,,,,,030719_p3,001,2019_Mar_07_1612,body_behavioural,3.0.4,59.81887788555824,
3,"I try to, but it seems like I always get in the way!” ",2,1,,0,3,3,3,,,,,0,9,9,9,,,,,,,,,,,,,,,,,,,,,,,,,,,,,,,1,2.4701731849927455,,,,,,,,,,,,,,,,,,,,,,,,,,,,030719_p3,001,2019_Mar_07_1612,body_behavioural,3.0.4,59.81887788555824,
3,"Emmanuella angrily threw the pasta into the cart, losing her temper.",2,1,,0,3,3,3,,,,,0,10,10,10,,,,,,,,,,,,,,,,,,,,,,,,,,,,,,,1,2.4675679999927524,,,,,,,,,,,,,,,,,,,,,,,,,,,,030719_p3,001,2019_Mar_07_1612,body_behavioural,3.0.4,59.81887788555824,
3," “Liam, you don’t even try!",2,1,,0,3,3,3,,,,,0,11,11,11,,,,,,,,,,,,,,,,,,,,,,,,,,,,,,,1,0.8864377480058465,,,,,,,,,,,,,,,,,,,,,,,,,,,,030719_p3,001,2019_Mar_07_1612,body_behavioural,3.0.4,59.81887788555824,
3,You know what?,2,1,,0,3,3,3,,,,,0,12,12,12,,,,,,,,,,,,,,,,,,,,,,,,,,,,,,,1,0.8859461130050477,,,,,,,,,,,,,,,,,,,,,,,,,,,,030719_p3,001,2019_Mar_07_1612,body_behavioural,3.0.4,59.81887788555824,
3,I don’t think I can do this anymore. ,2,2,,0,3,3,3,,,,,0,13,13,13,,,,,,,,,,,,,,,,,,,,,,,,,,,,,,,1,0.9840347880090121,,,,,,,,,,,,,,,,,,,,,,,,,,,,030719_p3,001,2019_Mar_07_1612,body_behavioural,3.0.4,59.81887788555824,
3,"I was going to wait until after this unfortunately-timed dinner party tonight to talk about this, but I might as well say it now: I don’t want to be in a relationship with you anymore.",2,2,,0,3,3,3,,,,,0,14,14,14,,,,,,,,,,,,,,,,,,,,,,,,,,,,,,,9,6.519611828989582,,,,,,,,,,,,,,,,,,,,,,,,,,,,030719_p3,001,2019_Mar_07_1612,body_behavioural,3.0.4,59.81887788555824,
3," I’m tired of the constant fighting, and I feel like when we try to do anything fun anymore it ends up unpleasant for the stupidest reasons, and I am just past  trying to work things out.”",2,2,,0,3,3,3,,,,,0,15,15,15,,,,,,,,,,,,,,,,,,,,,,,,,,,,,,,1,5.954243954998674,,,,,,,,,,,,,,,,,,,,,,,,,,,,030719_p3,001,2019_Mar_07_1612,body_behavioural,3.0.4,59.81887788555824,
3,"Liam refused to look at her as she picked out sauces for the pasta, and then she threw up her hands, saying, “You know what, if this party is still happening we are going to just eat pasta.”",2,2,,0,3,3,3,,,,,0,16,16,16,,,,,,,,,,,,,,,,,,,,,,,,,,,,,,,1,16.23791967300349,,,,,,,,,,,,,,,,,,,,,,,,,,,,030719_p3,001,2019_Mar_07_1612,body_behavioural,3.0.4,59.81887788555824,
3,They headed to the checkout area where there was only one station open but it was not crowded at all.,3,2,,0,3,3,3,,,,,0,17,17,17,,,,,,,,,,,,,,,,,,,,,,,,,,,,,,,1,9.235782022995409,,,,,,,,,,,,,,,,,,,,,,,,,,,,030719_p3,001,2019_Mar_07_1612,body_behavioural,3.0.4,59.81887788555824,
3,Emmanuella sighed and got in line while Liam pretended to be interested in the magazine racks as he thought. ,3,2,,0,3,3,3,,,,,0,18,18,18,,,,,,,,,,,,,,,,,,,,,,,,,,,,,,,9,2.987268936994951,,,,,,,,,,,,,,,,,,,,,,,,,,,,030719_p3,001,2019_Mar_07_1612,body_behavioural,3.0.4,59.81887788555824,
3,"Finally he turned to her and sighed, “Yes, I was thinking the same thing - I think we could definitely be happier with other people.” ",3,3,,0,3,3,3,,,,,0,19,19,19,,,,,,,,,,,,,,,,,,,,,,,,,,,,,,,1,4.136576921999222,,,,,,,,,,,,,,,,,,,,,,,,,,,,030719_p3,001,2019_Mar_07_1612,body_behavioural,3.0.4,59.81887788555824,
3,"As if she hadn't heard him, Emmanuella looked at their cart and said, “I'm not sure this will be enough, could you grab another box of pasta?”",3,3,,0,3,3,3,,,,,0,20,20,20,,,,,,,,,,,,,,,,,,,,,,,,,,,,,,,1,4.63637269398896,,,,,,,,,,,,,,,,,,,,,,,,,,,,030719_p3,001,2019_Mar_07_1612,body_behavioural,3.0.4,59.81887788555824,
3, Liam scoffed and walked off to quickly get it.,3,3,,0,3,3,3,,,,,0,21,21,21,,,,,,,,,,,,,,,,,,,,,,,,,,,,,,,1,2.0370708869886585,,,,,,,,,,,,,,,,,,,,,,,,,,,,030719_p3,001,2019_Mar_07_1612,body_behavioural,3.0.4,59.81887788555824,
3,"As Emmanuella waited in line, she took a moment to compose herself, deciding that there was no reason to continue making a scene in the store. ",3,3,,0,3,3,3,,,,,0,22,22,22,,,,,,,,,,,,,,,,,,,,,,,,,,,,,,,9,4.35326791999978,,,,,,,,,,,,,,,,,,,,,,,,,,,,030719_p3,001,2019_Mar_07_1612,body_behavioural,3.0.4,59.81887788555824,
3," Right when Liam came back with the pasta, the cashier started scanning their groceries.",4,3,,0,3,3,3,,,,,0,23,23,23,,,,,,,,,,,,,,,,,,,,,,,,,,,,,,,1,3.46874940500129,,,,,,,,,,,,,,,,,,,,,,,,,,,,030719_p3,001,2019_Mar_07_1612,body_behavioural,3.0.4,59.81887788555824,
3,"The cost came to $30, and Emmanuella paid with her credit card.",4,3,,0,3,3,3,,,,,0,24,24,24,,,,,,,,,,,,,,,,,,,,,,,,,,,,,,,1,3.4371613019902725,,,,,,,,,,,,,,,,,,,,,,,,,,,,030719_p3,001,2019_Mar_07_1612,body_behavioural,3.0.4,59.81887788555824,
3,"She asked Liam politely to take the bags, and he obliged, following her to toward the exit. ",4,3,,0,3,3,3,,,,,0,25,25,25,,,,,,,,,,,,,,,,,,,,,,,,,,,,,,,1,4.803491792001296,,,,,,,,,,,,,,,,,,,,,,,,,,,,030719_p3,001,2019_Mar_07_1612,body_behavioural,3.0.4,59.81887788555824,
3,"“Liam, I think we are making the right decision.",4,4,,0,3,3,3,,,,,0,26,26,26,,,,,,,,,,,,,,,,,,,,,,,,,,,,,,,9,1.9673822129843757,,,,,,,,,,,,,,,,,,,,,,,,,,,,030719_p3,001,2019_Mar_07_1612,body_behavioural,3.0.4,59.81887788555824,
3,This is good.” ,4,4,,0,3,3,3,,,,,0,27,27,27,,,,,,,,,,,,,,,,,,,,,,,,,,,,,,,1,0.9044753829948604,,,,,,,,,,,,,,,,,,,,,,,,,,,,030719_p3,001,2019_Mar_07_1612,body_behavioural,3.0.4,59.81887788555824,
3,"“I agree,” he said, visibly relieved at the thought that they had gotten through the last fight they would ever need to have.",4,4,,0,3,3,3,,,,,0,28,28,28,,,,,,,,,,,,,,,,,,,,,,,,,,,,,,,1,4.819651972007705,,,,,,,,,,,,,,,,,,,,,,,,,,,,030719_p3,001,2019_Mar_07_1612,body_behavioural,3.0.4,59.81887788555824,
3,"“I think we can still host this dinner tonight, as long as you're still on board,” Emmanuella said.",4,4,,0,3,3,3,,,,,0,29,29,29,,,,,,,,,,,,,,,,,,,,,,,,,,,,,,,1,3.7042719569872133,,,,,,,,,,,,,,,,,,,,,,,,,,,,030719_p3,001,2019_Mar_07_1612,body_behavioural,3.0.4,59.81887788555824,
3,"Liam nodded, “Yes, let’s just not tell anyone yet.” ",4,4,,0,3,3,3,,,,,0,30,30,30,,,,,,,,,,,,,,,,,,,,,,,,,,,,,,,1,1.3862850820005406,,,,,,,,,,,,,,,,,,,,,,,,,,,,030719_p3,001,2019_Mar_07_1612,body_behavioural,3.0.4,59.81887788555824,
3,"Emmanuella laughed, “Whoever leaks it loses their rights to the cat.”",4,4,,0,3,3,3,,,,,0,31,31,31,,,,,,,,,,,,,,,,,,,,,,,,,,,,,,,1,3.3036907420028,,,,,,,,,,,,,,,,,,,,,,,,,,,,030719_p3,001,2019_Mar_07_1612,body_behavioural,3.0.4,59.81887788555824,
3,"Liam rolled his eyes and managed a weak chuckle, knowing the cat would be a whole other issue to sort out later.
",4,4,,0,3,3,3,,,,,0,32,32,32,,,,,,,,,,,,,,,,,,,,,,,,,,,,,,,1,4.634235520003131,,,,,,,,,,,,,,,,,,,,,,,,,,,,030719_p3,001,2019_Mar_07_1612,body_behavioural,3.0.4,59.81887788555824,
3,,,,,0,3,3,3,,,,,,,,,,,,,,,,,,,,,,,,,,,,,,,,,,,,,,,,,,,,,,,,,,,,,,,,,,,,,,,,,,,,030719_p3,001,2019_Mar_07_1612,body_behavioural,3.0.4,59.81887788555824,
4,,,,,0,4,4,4,0,0,0,0,,,,,,,,,,,,,,,,,,,,,,,,,,,,,space,0.669424785010051,space,0.7364062830165494,space,0.7863434129976667,,,,,,,,,,,,,,,,,,,,,,,,,,,,,,030719_p3,001,2019_Mar_07_1612,body_behavioural,3.0.4,59.81887788555824,
4,"James noticed Teresa immediately as she walked into the restaurant - or, more accurately as she attempted to walk into the restaurant. ",1,1,,0,4,4,4,,,,,0,0,0,0,,,,,,,,,,,,,,,,,,,,,,,,,,,,,,,9,12.968231737992028,,,,,,,,,,,,,,,,,,,,,,,,,,,,030719_p3,001,2019_Mar_07_1612,body_behavioural,3.0.4,59.81887788555824,
4,"She was typing intently on her phone and ran straight into the diner's clear, glass door with an echoing thud. ",1,1,,0,4,4,4,,,,,0,1,1,1,,,,,,,,,,,,,,,,,,,,,,,,,,,,,,,1,5.2866753230046015,,,,,,,,,,,,,,,,,,,,,,,,,,,,030719_p3,001,2019_Mar_07_1612,body_behavioural,3.0.4,59.81887788555824,
4,Everyone waiting around the cash register turned to see if she was okay.,1,1,,0,4,4,4,,,,,0,2,2,2,,,,,,,,,,,,,,,,,,,,,,,,,,,,,,,1,2.2027821319934446,,,,,,,,,,,,,,,,,,,,,,,,,,,,030719_p3,001,2019_Mar_07_1612,body_behavioural,3.0.4,59.81887788555824,
4,Teresa rubbed her head.,1,1,,0,4,4,4,,,,,0,3,3,3,,,,,,,,,,,,,,,,,,,,,,,,,,,,,,,1,1.5038200090057217,,,,,,,,,,,,,,,,,,,,,,,,,,,,030719_p3,001,2019_Mar_07_1612,body_behavioural,3.0.4,59.81887788555824,
4,"While being both confused and unembarrassed, she looked mostly indignant that the door had been in her way. ",1,1,,0,4,4,4,,,,,0,4,4,4,,,,,,,,,,,,,,,,,,,,,,,,,,,,,,,1,4.003229327005101,,,,,,,,,,,,,,,,,,,,,,,,,,,,030719_p3,001,2019_Mar_07_1612,body_behavioural,3.0.4,59.81887788555824,
4,James found this quite charming and stole a couple glances at her until she noticed and wrinkled her eyebrows at him in suspicion. ,1,1,,0,4,4,4,,,,,0,5,5,5,,,,,,,,,,,,,,,,,,,,,,,,,,,,,,,1,5.652963987988187,,,,,,,,,,,,,,,,,,,,,,,,,,,,030719_p3,001,2019_Mar_07_1612,body_behavioural,3.0.4,59.81887788555824,
4,"The restaurant they were in was a cabin-themed diner with wooden booths and bar, walls covered in plaid blankets, and antler decorations. ",1,1,,0,4,4,4,,,,,0,6,6,6,,,,,,,,,,,,,,,,,,,,,,,,,,,,,,,9,12.384792575001484,,,,,,,,,,,,,,,,,,,,,,,,,,,,030719_p3,001,2019_Mar_07_1612,body_behavioural,3.0.4,59.81887788555824,
4,The waiter saw that James and Teresa were both alone and motioned to both of them. ,1,1,,0,4,4,4,,,,,0,7,7,7,,,,,,,,,,,,,,,,,,,,,,,,,,,,,,,1,3.66764337499626,,,,,,,,,,,,,,,,,,,,,,,,,,,,030719_p3,001,2019_Mar_07_1612,body_behavioural,3.0.4,59.81887788555824,
4,“Right this way.,2,1,,0,4,4,4,,,,,0,8,8,8,,,,,,,,,,,,,,,,,,,,,,,,,,,,,,,1,0.8694712130236439,,,,,,,,,,,,,,,,,,,,,,,,,,,,030719_p3,001,2019_Mar_07_1612,body_behavioural,3.0.4,59.81887788555824,
4,You two don't mind sitting at the counter?” ,2,1,,0,4,4,4,,,,,0,9,9,9,,,,,,,,,,,,,,,,,,,,,,,,,,,,,,,1,1.784145619982155,,,,,,,,,,,,,,,,,,,,,,,,,,,,030719_p3,001,2019_Mar_07_1612,body_behavioural,3.0.4,59.81887788555824,
4,They sat a seat apart from each other on the split tree trunk that served as a bench.,2,1,,0,4,4,4,,,,,0,10,10,10,,,,,,,,,,,,,,,,,,,,,,,,,,,,,,,1,4.950543863000348,,,,,,,,,,,,,,,,,,,,,,,,,,,,030719_p3,001,2019_Mar_07_1612,body_behavioural,3.0.4,59.81887788555824,
4, The waitress behind the counter gave them bright neon menus that were filled with breakfast items.,2,1,,0,4,4,4,,,,,0,11,11,11,,,,,,,,,,,,,,,,,,,,,,,,,,,,,,,9,5.118413491989486,,,,,,,,,,,,,,,,,,,,,,,,,,,,030719_p3,001,2019_Mar_07_1612,body_behavioural,3.0.4,59.81887788555824,
4,"Teresa quickly glanced through it, then pulled out a book and started reading it while James played with the salt and pepper shakers as he tried to think of an excuse to talk to Teresa.",2,1,,0,4,4,4,,,,,0,12,12,12,,,,,,,,,,,,,,,,,,,,,,,,,,,,,,,1,7.917000262008514,,,,,,,,,,,,,,,,,,,,,,,,,,,,030719_p3,001,2019_Mar_07_1612,body_behavioural,3.0.4,59.81887788555824,
4,"James eventually turned to her and asked, “Your forehead alright?”",2,2,,0,4,4,4,,,,,0,13,13,13,,,,,,,,,,,,,,,,,,,,,,,,,,,,,,,1,2.2175161959894467,,,,,,,,,,,,,,,,,,,,,,,,,,,,030719_p3,001,2019_Mar_07_1612,body_behavioural,3.0.4,59.81887788555824,
4,She put down her book and gave him a smirk.,2,2,,0,4,4,4,,,,,0,14,14,14,,,,,,,,,,,,,,,,,,,,,,,,,,,,,,,1,2.122467298991978,,,,,,,,,,,,,,,,,,,,,,,,,,,,030719_p3,001,2019_Mar_07_1612,body_behavioural,3.0.4,59.81887788555824,
4,"“Have you ever been stung by a scorpion?”, she asked him, tilting her head.",2,2,,0,4,4,4,,,,,0,15,15,15,,,,,,,,,,,,,,,,,,,,,,,,,,,,,,,1,2.9034936150128487,,,,,,,,,,,,,,,,,,,,,,,,,,,,030719_p3,001,2019_Mar_07_1612,body_behavioural,3.0.4,59.81887788555824,
4,"“What?”, he asked confusedly.",2,2,,0,4,4,4,,,,,0,16,16,16,,,,,,,,,,,,,,,,,,,,,,,,,,,,,,,1,1.2196825070132036,,,,,,,,,,,,,,,,,,,,,,,,,,,,030719_p3,001,2019_Mar_07_1612,body_behavioural,3.0.4,59.81887788555824,
4, “A scorpion.”,2,2,,0,4,4,4,,,,,0,17,17,17,,,,,,,,,,,,,,,,,,,,,,,,,,,,,,,1,0.5861673569888808,,,,,,,,,,,,,,,,,,,,,,,,,,,,030719_p3,001,2019_Mar_07_1612,body_behavioural,3.0.4,59.81887788555824,
4,James began to worry that Teresa had possibly suffered a concussion in the door crash.,2,2,,0,4,4,4,,,,,0,18,18,18,,,,,,,,,,,,,,,,,,,,,,,,,,,,,,,1,2.519380785000976,,,,,,,,,,,,,,,,,,,,,,,,,,,,030719_p3,001,2019_Mar_07_1612,body_behavioural,3.0.4,59.81887788555824,
4,"“Uh no, why?” ",2,2,,0,4,4,4,,,,,0,19,19,19,,,,,,,,,,,,,,,,,,,,,,,,,,,,,,,1,1.1869369380001444,,,,,,,,,,,,,,,,,,,,,,,,,,,,030719_p3,001,2019_Mar_07_1612,body_behavioural,3.0.4,59.81887788555824,
4,"“Because I’ve been stung by one, and since then, things like bumping into doors seem like pretty small potatoes.” ",2,2,,0,4,4,4,,,,,0,20,20,20,,,,,,,,,,,,,,,,,,,,,,,,,,,,,,,1,4.0022431689722,,,,,,,,,,,,,,,,,,,,,,,,,,,,030719_p3,001,2019_Mar_07_1612,body_behavioural,3.0.4,59.81887788555824,
4,"They carried on talking, and Teresa told him all about her encounter with a Deathstalker scorpion while she was studying abroad in Egypt.",2,2,,0,4,4,4,,,,,0,21,21,21,,,,,,,,,,,,,,,,,,,,,,,,,,,,,,,9,5.887518452014774,,,,,,,,,,,,,,,,,,,,,,,,,,,,030719_p3,001,2019_Mar_07_1612,body_behavioural,3.0.4,59.81887788555824,
4,"After a few minutes, the waitress behind the counter came up to them, “Alrighty, can I take you order?” ",3,3,,0,4,4,4,,,,,0,22,22,22,,,,,,,,,,,,,,,,,,,,,,,,,,,,,,,1,2.0532527869800106,,,,,,,,,,,,,,,,,,,,,,,,,,,,030719_p3,001,2019_Mar_07_1612,body_behavioural,3.0.4,59.81887788555824,
4,"She first looked at Teresa who answered, “I’ll have a Western Omelette and a glass of milk.”",3,3,,0,4,4,4,,,,,0,23,23,23,,,,,,,,,,,,,,,,,,,,,,,,,,,,,,,1,4.319413905002875,,,,,,,,,,,,,,,,,,,,,,,,,,,,030719_p3,001,2019_Mar_07_1612,body_behavioural,3.0.4,59.81887788555824,
4,Then the waitress turned to James.,3,3,,0,4,4,4,,,,,0,24,24,24,,,,,,,,,,,,,,,,,,,,,,,,,,,,,,,1,1.234652354993159,,,,,,,,,,,,,,,,,,,,,,,,,,,,030719_p3,001,2019_Mar_07_1612,body_behavioural,3.0.4,59.81887788555824,
4,"James said, “I’ll have the chocolate chip pancakes and a coffee.” ",3,3,,0,4,4,4,,,,,0,25,25,25,,,,,,,,,,,,,,,,,,,,,,,,,,,,,,,1,1.703413154988084,,,,,,,,,,,,,,,,,,,,,,,,,,,,030719_p3,001,2019_Mar_07_1612,body_behavioural,3.0.4,59.81887788555824,
4,"“Alrighty, comin’ right up!”",3,3,,0,4,4,4,,,,,0,26,26,26,,,,,,,,,,,,,,,,,,,,,,,,,,,,,,,1,0.7025429750210606,,,,,,,,,,,,,,,,,,,,,,,,,,,,030719_p3,001,2019_Mar_07_1612,body_behavioural,3.0.4,59.81887788555824,
4,"They picked up their conversation, and James ended up telling Teresa about a concert he was going to later. ",3,3,,0,4,4,4,,,,,0,27,27,27,,,,,,,,,,,,,,,,,,,,,,,,,,,,,,,9,3.9700686130090617,,,,,,,,,,,,,,,,,,,,,,,,,,,,030719_p3,001,2019_Mar_07_1612,body_behavioural,3.0.4,59.81887788555824,
4,"He invited her to come along, promising her that the concert would be indoors and absolutely free of venomous insects.",3,3,,0,4,4,4,,,,,0,28,28,28,,,,,,,,,,,,,,,,,,,,,,,,,,,,,,,1,3.93675356998574,,,,,,,,,,,,,,,,,,,,,,,,,,,,030719_p3,001,2019_Mar_07_1612,body_behavioural,3.0.4,59.81887788555824,
4,"Teresa agreed, gave him her number, and they worked out that James would pick her up before the concert and drive them there.",3,3,,0,4,4,4,,,,,0,29,29,29,,,,,,,,,,,,,,,,,,,,,,,,,,,,,,,1,5.251101150002796,,,,,,,,,,,,,,,,,,,,,,,,,,,,030719_p3,001,2019_Mar_07_1612,body_behavioural,3.0.4,59.81887788555824,
4,"This was not what they had expected from their solitary lunch plans and were both excited, even though Teresa was doing a much better job of hiding it than James. ",3,3,,0,4,4,4,,,,,0,30,30,30,,,,,,,,,,,,,,,,,,,,,,,,,,,,,,,1,7.236610784981167,,,,,,,,,,,,,,,,,,,,,,,,,,,,030719_p3,001,2019_Mar_07_1612,body_behavioural,3.0.4,59.81887788555824,
4," After awhile,  the waitress brought out their food, and James took this opportunity to scoot closer to her on the log bench. ",4,4,,0,4,4,4,,,,,0,31,31,31,,,,,,,,,,,,,,,,,,,,,,,,,,,,,,,9,7.085973498993553,,,,,,,,,,,,,,,,,,,,,,,,,,,,030719_p3,001,2019_Mar_07_1612,body_behavioural,3.0.4,59.81887788555824,
4,"Teresa was happy to share the meal with James, despite their food tasting pretty bad. ",4,4,,0,4,4,4,,,,,0,32,32,32,,,,,,,,,,,,,,,,,,,,,,,,,,,,,,,1,2.8706264570064377,,,,,,,,,,,,,,,,,,,,,,,,,,,,030719_p3,001,2019_Mar_07_1612,body_behavioural,3.0.4,59.81887788555824,
4,"Judging by how salty the pancakes tasted, they suspected that the chef had confused the salt and sugar.",4,4,,0,4,4,4,,,,,0,33,33,33,,,,,,,,,,,,,,,,,,,,,,,,,,,,,,,1,4.986091739992844,,,,,,,,,,,,,,,,,,,,,,,,,,,,030719_p3,001,2019_Mar_07_1612,body_behavioural,3.0.4,59.81887788555824,
4,"When the meal was over, they got up, hugged, and parted ways. ",4,4,,0,4,4,4,,,,,0,34,34,34,,,,,,,,,,,,,,,,,,,,,,,,,,,,,,,9,3.120564718992682,,,,,,,,,,,,,,,,,,,,,,,,,,,,030719_p3,001,2019_Mar_07_1612,body_behavioural,3.0.4,59.81887788555824,
4,"James said,“I have to run, got to get to work.",4,4,,0,4,4,4,,,,,0,35,35,35,,,,,,,,,,,,,,,,,,,,,,,,,,,,,,,1,1.5034438850125298,,,,,,,,,,,,,,,,,,,,,,,,,,,,030719_p3,001,2019_Mar_07_1612,body_behavioural,3.0.4,59.81887788555824,
4,See you tonight!”,4,4,,0,4,4,4,,,,,0,36,36,36,,,,,,,,,,,,,,,,,,,,,,,,,,,,,,,1,0.8364932950062212,,,,,,,,,,,,,,,,,,,,,,,,,,,,030719_p3,001,2019_Mar_07_1612,body_behavioural,3.0.4,59.81887788555824,
4,"Teresa smiled and walked towards the door without looking, and almost ran into the door again. ",4,4,,0,4,4,4,,,,,0,37,37,37,,,,,,,,,,,,,,,,,,,,,,,,,,,,,,,1,3.1365024999831803,,,,,,,,,,,,,,,,,,,,,,,,,,,,030719_p3,001,2019_Mar_07_1612,body_behavioural,3.0.4,59.81887788555824,
4,They both laughed and smiled once more goodbye. ,4,4,,0,4,4,4,,,,,0,38,38,38,,,,,,,,,,,,,,,,,,,,,,,,,,,,,,,1,2.2199602750188205,,,,,,,,,,,,,,,,,,,,,,,,,,,,030719_p3,001,2019_Mar_07_1612,body_behavioural,3.0.4,59.81887788555824,
4,,,,,0,4,4,4,,,,,,,,,,,,,,,,,,,,,,,,,,,,,,,,,,,,,,,,,,,,,,,,,,,,,,,,,,,,,,,,,,,,030719_p3,001,2019_Mar_07_1612,body_behavioural,3.0.4,59.81887788555824,
5,,,,,0,5,5,5,0,0,0,0,,,,,,,,,,,,,,,,,,,,,,,,,,,,,space,1.0530143580108415,space,0.6174871099938173,space,0.6862952530209441,,,,,,,,,,,,,,,,,,,,,,,,,,,,,,030719_p3,001,2019_Mar_07_1612,body_behavioural,3.0.4,59.81887788555824,
5,"Maria walked into lecture beside Henry, and she was mentally rehearsing what she should say to break up with him.",1,1,,0,5,5,5,,,,,0,0,0,0,,,,,,,,,,,,,,,,,,,,,,,,,,,,,,,9,13.387639088003198,,,,,,,,,,,,,,,,,,,,,,,,,,,,030719_p3,001,2019_Mar_07_1612,body_behavioural,3.0.4,59.81887788555824,
5,"She had been putting it off with a growing sense of dread, and now this lecture was the last chance before she had to leave campus. ",1,1,,0,5,5,5,,,,,0,1,1,1,,,,,,,,,,,,,,,,,,,,,,,,,,,,,,,1,6.170391347986879,,,,,,,,,,,,,,,,,,,,,,,,,,,,030719_p3,001,2019_Mar_07_1612,body_behavioural,3.0.4,59.81887788555824,
5,"The lecture hall was large, with a stage for the lecturer in the front of the room, and tiered seats that stretched up in 15 stacked rows. ",1,1,,0,5,5,5,,,,,0,2,2,2,,,,,,,,,,,,,,,,,,,,,,,,,,,,,,,9,8.053481665003346,,,,,,,,,,,,,,,,,,,,,,,,,,,,030719_p3,001,2019_Mar_07_1612,body_behavioural,3.0.4,59.81887788555824,
5,"The clock struck 3 pm, and Maria and Henry slid into neighboring seats near the back of the room.",1,1,,0,5,5,5,,,,,0,3,3,3,,,,,,,,,,,,,,,,,,,,,,,,,,,,,,,1,4.169963860011194,,,,,,,,,,,,,,,,,,,,,,,,,,,,030719_p3,001,2019_Mar_07_1612,body_behavioural,3.0.4,59.81887788555824,
5,"“Good afternoon, everybody,” said the professor, fiddling to connect his laptop with the projector.",2,1,,0,5,5,5,,,,,0,4,4,4,,,,,,,,,,,,,,,,,,,,,,,,,,,,,,,1,2.734643372008577,,,,,,,,,,,,,,,,,,,,,,,,,,,,030719_p3,001,2019_Mar_07_1612,body_behavioural,3.0.4,59.81887788555824,
5,“Welcome to week 4 of Intro to Ancient Philosophy. ,2,1,,0,5,5,5,,,,,0,5,5,5,,,,,,,,,,,,,,,,,,,,,,,,,,,,,,,1,3.553033192001749,,,,,,,,,,,,,,,,,,,,,,,,,,,,030719_p3,001,2019_Mar_07_1612,body_behavioural,3.0.4,59.81887788555824,
5,Today we are going to continue our lecture on Aristotelian Philosophy.”,2,1,,0,5,5,5,,,,,0,6,6,6,,,,,,,,,,,,,,,,,,,,,,,,,,,,,,,1,2.6528938229894266,,,,,,,,,,,,,,,,,,,,,,,,,,,,030719_p3,001,2019_Mar_07_1612,body_behavioural,3.0.4,59.81887788555824,
5,Everyone in class pulled out their notebooks and settled in their seats as the slides appeared on the large front screens.,2,1,,0,5,5,5,,,,,0,7,7,7,,,,,,,,,,,,,,,,,,,,,,,,,,,,,,,9,4.103113421995658,,,,,,,,,,,,,,,,,,,,,,,,,,,,030719_p3,001,2019_Mar_07_1612,body_behavioural,3.0.4,59.81887788555824,
5,"“Henry,” Maria whispered.",2,1,,0,5,5,5,,,,,0,8,8,8,,,,,,,,,,,,,,,,,,,,,,,,,,,,,,,1,1.336530419997871,,,,,,,,,,,,,,,,,,,,,,,,,,,,030719_p3,001,2019_Mar_07_1612,body_behavioural,3.0.4,59.81887788555824,
5,"“Hmm?” he replied, distracted.",2,1,,0,5,5,5,,,,,0,9,9,9,,,,,,,,,,,,,,,,,,,,,,,,,,,,,,,1,1.5034646980057005,,,,,,,,,,,,,,,,,,,,,,,,,,,,030719_p3,001,2019_Mar_07_1612,body_behavioural,3.0.4,59.81887788555824,
5,"“Henry, I need to tell you something really important, and I don’t know when else I’ll have a chance to do it,” she said.",2,1,,0,5,5,5,,,,,0,10,10,10,,,,,,,,,,,,,,,,,,,,,,,,,,,,,,,1,5.336319447989808,,,,,,,,,,,,,,,,,,,,,,,,,,,,030719_p3,001,2019_Mar_07_1612,body_behavioural,3.0.4,59.81887788555824,
5,"“Okay, what's up?”, he said, tilting his head close to her. ",2,1,,0,5,5,5,,,,,0,11,11,11,,,,,,,,,,,,,,,,,,,,,,,,,,,,,,,1,1.1864270149962977,,,,,,,,,,,,,,,,,,,,,,,,,,,,030719_p3,001,2019_Mar_07_1612,body_behavioural,3.0.4,59.81887788555824,
5," “Henry, I don’t think I can do long distance.",2,2,,0,5,5,5,,,,,0,12,12,12,,,,,,,,,,,,,,,,,,,,,,,,,,,,,,,1,1.1506692129769363,,,,,,,,,,,,,,,,,,,,,,,,,,,,030719_p3,001,2019_Mar_07_1612,body_behavioural,3.0.4,59.81887788555824,
5,"I think what we have here is great, but I think it will be really hard when we are so far apart for such an extended period.",2,2,,0,5,5,5,,,,,0,13,13,13,,,,,,,,,,,,,,,,,,,,,,,,,,,,,,,1,4.536311010015197,,,,,,,,,,,,,,,,,,,,,,,,,,,,030719_p3,001,2019_Mar_07_1612,body_behavioural,3.0.4,59.81887788555824,
5,"I’m sorry I’m telling you now in lecture, but I'm out of time, and it’s taken me awhile to come to this decision.",2,2,,0,5,5,5,,,,,0,14,14,14,,,,,,,,,,,,,,,,,,,,,,,,,,,,,,,1,3.019874270015862,,,,,,,,,,,,,,,,,,,,,,,,,,,,030719_p3,001,2019_Mar_07_1612,body_behavioural,3.0.4,59.81887788555824,
5,"I really think this is best, and who knows what will happen when I get back from my study abroad.” ",2,2,,0,5,5,5,,,,,0,15,15,15,,,,,,,,,,,,,,,,,,,,,,,,,,,,,,,1,3.353214589995332,,,,,,,,,,,,,,,,,,,,,,,,,,,,030719_p3,001,2019_Mar_07_1612,body_behavioural,3.0.4,59.81887788555824,
5,"While Henry tried to think of what to say, he and Maria stared unlistening at the professor as he started the lecture, “First we will talk about Aristotle’s work, The Categories.",3,2,,0,5,5,5,,,,,0,16,16,16,,,,,,,,,,,,,,,,,,,,,,,,,,,,,,,9,6.436926536989631,,,,,,,,,,,,,,,,,,,,,,,,,,,,030719_p3,001,2019_Mar_07_1612,body_behavioural,3.0.4,59.81887788555824,
5,"This text, as you might have been able to guess, is about the kinds, or categories, of things that there are.",3,2,,0,5,5,5,,,,,0,17,17,17,,,,,,,,,,,,,,,,,,,,,,,,,,,,,,,1,4.384149263001746,,,,,,,,,,,,,,,,,,,,,,,,,,,,030719_p3,001,2019_Mar_07_1612,body_behavioural,3.0.4,59.81887788555824,
5,"In fact, our term category comes from this Aristotelian context.” ",3,2,,0,5,5,5,,,,,0,18,18,18,,,,,,,,,,,,,,,,,,,,,,,,,,,,,,,1,2.100722114992095,,,,,,,,,,,,,,,,,,,,,,,,,,,,030719_p3,001,2019_Mar_07_1612,body_behavioural,3.0.4,59.81887788555824,
5,"Henry felt horrible, like the wind had just been knocked out of him.",3,2,,0,5,5,5,,,,,0,19,19,19,,,,,,,,,,,,,,,,,,,,,,,,,,,,,,,9,2.570226795010967,,,,,,,,,,,,,,,,,,,,,,,,,,,,030719_p3,001,2019_Mar_07_1612,body_behavioural,3.0.4,59.81887788555824,
5,"A few tears started to fall down his cheeks as he whispered back, “Maria, I think we can make it work.",3,3,,0,5,5,5,,,,,0,20,20,20,,,,,,,,,,,,,,,,,,,,,,,,,,,,,,,1,2.519722188008018,,,,,,,,,,,,,,,,,,,,,,,,,,,,030719_p3,001,2019_Mar_07_1612,body_behavioural,3.0.4,59.81887788555824,
5,I’ll come visit you.,3,3,,0,5,5,5,,,,,0,21,21,21,,,,,,,,,,,,,,,,,,,,,,,,,,,,,,,1,0.7363644200086128,,,,,,,,,,,,,,,,,,,,,,,,,,,,030719_p3,001,2019_Mar_07_1612,body_behavioural,3.0.4,59.81887788555824,
5,It will be fine.,3,3,,0,5,5,5,,,,,0,22,22,22,,,,,,,,,,,,,,,,,,,,,,,,,,,,,,,1,0.5696981200017035,,,,,,,,,,,,,,,,,,,,,,,,,,,,030719_p3,001,2019_Mar_07_1612,body_behavioural,3.0.4,59.81887788555824,
5,I don’t want to break up.”,3,3,,0,5,5,5,,,,,0,23,23,23,,,,,,,,,,,,,,,,,,,,,,,,,,,,,,,1,1.9200538099976256,,,,,,,,,,,,,,,,,,,,,,,,,,,,030719_p3,001,2019_Mar_07_1612,body_behavioural,3.0.4,59.81887788555824,
5,"Maria felt so guilty that she nearly gave in, but forced herself to hold her ground, knowing that this would make things much easier for both of them in the future.",3,3,,0,5,5,5,,,,,0,24,24,24,,,,,,,,,,,,,,,,,,,,,,,,,,,,,,,1,4.471592557994882,,,,,,,,,,,,,,,,,,,,,,,,,,,,030719_p3,001,2019_Mar_07_1612,body_behavioural,3.0.4,59.81887788555824,
5,"She gave his hand a squeeze but shook her head sadly, before turning back to her laptop and half-heartedly taking notes on the lecture which they sat through in painful silence.",3,3,,0,5,5,5,,,,,0,25,25,25,,,,,,,,,,,,,,,,,,,,,,,,,,,,,,,1,7.232479338010307,,,,,,,,,,,,,,,,,,,,,,,,,,,,030719_p3,001,2019_Mar_07_1612,body_behavioural,3.0.4,59.81887788555824,
5,"Finally, the professor was wrapping up, “This is what Aristotle means when he says that an animal’s or plant’s form rather than its matter is its nature. ",4,3,,0,5,5,5,,,,,0,26,26,26,,,,,,,,,,,,,,,,,,,,,,,,,,,,,,,9,7.203667182999197,,,,,,,,,,,,,,,,,,,,,,,,,,,,030719_p3,001,2019_Mar_07_1612,body_behavioural,3.0.4,59.81887788555824,
5,"Alright class, that’s all for today. ",4,3,,0,5,5,5,,,,,0,27,27,27,,,,,,,,,,,,,,,,,,,,,,,,,,,,,,,1,1.619714931002818,,,,,,,,,,,,,,,,,,,,,,,,,,,,030719_p3,001,2019_Mar_07_1612,body_behavioural,3.0.4,59.81887788555824,
5,"Remember the final exam is coming up next week on Tuesday on the Pre-Socratics, Plato, and Aristotle, so feel free to come by office hours to discuss if you have the inspiration.",4,3,,0,5,5,5,,,,,0,28,28,28,,,,,,,,,,,,,,,,,,,,,,,,,,,,,,,1,7.736920594994444,,,,,,,,,,,,,,,,,,,,,,,,,,,,030719_p3,001,2019_Mar_07_1612,body_behavioural,3.0.4,59.81887788555824,
5,"And if anyone is doing the 20 page paper in lieu of the final, that’s due next Tuesday as well.",4,3,,0,5,5,5,,,,,0,29,29,29,,,,,,,,,,,,,,,,,,,,,,,,,,,,,,,1,4.6175987029855605,,,,,,,,,,,,,,,,,,,,,,,,,,,,030719_p3,001,2019_Mar_07_1612,body_behavioural,3.0.4,59.81887788555824,
5,"Have a good day, folks.” ",4,3,,0,5,5,5,,,,,0,30,30,30,,,,,,,,,,,,,,,,,,,,,,,,,,,,,,,1,1.5700885049882345,,,,,,,,,,,,,,,,,,,,,,,,,,,,030719_p3,001,2019_Mar_07_1612,body_behavioural,3.0.4,59.81887788555824,
5,"Maria and Henry packed up hurriedly, and slipped quickly out of the class before the rest of the crowd. ",4,3,,0,5,5,5,,,,,0,31,31,31,,,,,,,,,,,,,,,,,,,,,,,,,,,,,,,9,3.6194948830234352,,,,,,,,,,,,,,,,,,,,,,,,,,,,030719_p3,001,2019_Mar_07_1612,body_behavioural,3.0.4,59.81887788555824,
5,"They hugged outside, and both of them were crying. ",4,4,,0,5,5,5,,,,,0,32,32,32,,,,,,,,,,,,,,,,,,,,,,,,,,,,,,,1,2.835216028994182,,,,,,,,,,,,,,,,,,,,,,,,,,,,030719_p3,001,2019_Mar_07_1612,body_behavioural,3.0.4,59.81887788555824,
5,"“Maria, I don’t want you to leave.",4,4,,0,5,5,5,,,,,0,33,33,33,,,,,,,,,,,,,,,,,,,,,,,,,,,,,,,1,0.7362861479923595,,,,,,,,,,,,,,,,,,,,,,,,,,,,030719_p3,001,2019_Mar_07_1612,body_behavioural,3.0.4,59.81887788555824,
5,I don’t want this to end. ,4,4,,0,5,5,5,,,,,0,34,34,34,,,,,,,,,,,,,,,,,,,,,,,,,,,,,,,1,0.7025450300134253,,,,,,,,,,,,,,,,,,,,,,,,,,,,030719_p3,001,2019_Mar_07_1612,body_behavioural,3.0.4,59.81887788555824,
5,"But if this is what you think is best, I can’t make it otherwise.” ",4,4,,0,5,5,5,,,,,0,35,35,35,,,,,,,,,,,,,,,,,,,,,,,,,,,,,,,1,2.2197801700094715,,,,,,,,,,,,,,,,,,,,,,,,,,,,030719_p3,001,2019_Mar_07_1612,body_behavioural,3.0.4,59.81887788555824,
5,"They hugged one last time, and Maria ran off to get her things from her dorm.",4,4,,0,5,5,5,,,,,0,36,36,36,,,,,,,,,,,,,,,,,,,,,,,,,,,,,,,1,3.6167728180007543,,,,,,,,,,,,,,,,,,,,,,,,,,,,030719_p3,001,2019_Mar_07_1612,body_behavioural,3.0.4,59.81887788555824,
5,Henry sadly watched her go. ,4,4,,0,5,5,5,,,,,0,37,37,37,,,,,,,,,,,,,,,,,,,,,,,,,,,,,,,1,1.8362600249820389,,,,,,,,,,,,,,,,,,,,,,,,,,,,030719_p3,001,2019_Mar_07_1612,body_behavioural,3.0.4,59.81887788555824,
5,,,,,0,5,5,5,,,,,,,,,,,,,,,,,,,,,,,,,,,,,,,,,,,,,,,,,,,,,,,,,,,,,,,,,,,,,,,,,,,,030719_p3,001,2019_Mar_07_1612,body_behavioural,3.0.4,59.81887788555824,
6,,,,,0,6,6,6,0,0,0,0,,,,,,,,,,,,,,,,,,,,,,,,,,,,,space,0.6863567629770841,space,0.6191209300013725,space,1.0198470430041198,,,,,,,,,,,,,,,,,,,,,,,,,,,,,,030719_p3,001,2019_Mar_07_1612,body_behavioural,3.0.4,59.81887788555824,
6,,,,,0,6,6,6,1,0,1,0,,,,,,,,,,,,,,,,,,,,,,,,,,,,,,,,,space,0.7700332509994041,,,,,,,,,,,,,,,,,,,,,,,,,,,,,,030719_p3,001,2019_Mar_07_1612,body_behavioural,3.0.4,59.81887788555824,
6,David saw Anna for the first time when she burst into the airport with her bag skidding behind her half-zipped. ,1,1,,0,6,6,6,,,,,0,0,0,0,,,,,,,,,,,,,,,,,,,,,,,,,,,,,,,9,7.793925745005254,,,,,,,,,,,,,,,,,,,,,,,,,,,,030719_p3,001,2019_Mar_07_1612,body_behavioural,3.0.4,59.81887788555824,
6,"He had three hours until his flight, but she clearly had less than one.",1,1,,0,6,6,6,,,,,0,1,1,1,,,,,,,,,,,,,,,,,,,,,,,,,,,,,,,1,3.8030432379746344,,,,,,,,,,,,,,,,,,,,,,,,,,,,030719_p3,001,2019_Mar_07_1612,body_behavioural,3.0.4,59.81887788555824,
6,"Anna’s yoga class had ran over, and afterwards, she, forgetting the time, had lingered to talk with friends. ",1,1,,0,6,6,6,,,,,0,2,2,2,,,,,,,,,,,,,,,,,,,,,,,,,,,,,,,9,6.0701475130044855,,,,,,,,,,,,,,,,,,,,,,,,,,,,030719_p3,001,2019_Mar_07_1612,body_behavioural,3.0.4,59.81887788555824,
6,"Despite Anna's frazzled state, David was instantly intrigued by her.",1,1,,0,6,6,6,,,,,0,3,3,3,,,,,,,,,,,,,,,,,,,,,,,,,,,,,,,1,2.2840861880104057,,,,,,,,,,,,,,,,,,,,,,,,,,,,030719_p3,001,2019_Mar_07_1612,body_behavioural,3.0.4,59.81887788555824,
6,"He thought she was beautiful, and she reminded him of one of his favorite paintings.",1,1,,0,6,6,6,,,,,0,4,4,4,,,,,,,,,,,,,,,,,,,,,,,,,,,,,,,1,2.9508756599971093,,,,,,,,,,,,,,,,,,,,,,,,,,,,030719_p3,001,2019_Mar_07_1612,body_behavioural,3.0.4,59.81887788555824,
6,"Anna, a few strides into the airport, suddenly realized her shoes were untied, so she hunched over to tie them.",1,1,,0,6,6,6,,,,,0,5,5,5,,,,,,,,,,,,,,,,,,,,,,,,,,,,,,,9,4.686664214998018,,,,,,,,,,,,,,,,,,,,,,,,,,,,030719_p3,001,2019_Mar_07_1612,body_behavioural,3.0.4,59.81887788555824,
6,David observed that someone with a tall cart of luggage was heading straight for where Anna was kneeling. ,1,1,,0,6,6,6,,,,,0,6,6,6,,,,,,,,,,,,,,,,,,,,,,,,,,,,,,,1,3.9370407649839763,,,,,,,,,,,,,,,,,,,,,,,,,,,,030719_p3,001,2019_Mar_07_1612,body_behavioural,3.0.4,59.81887788555824,
6,Both Anna and the person driving the cart were oblivious to the impending collision. ,1,1,,0,6,6,6,,,,,0,7,7,7,,,,,,,,,,,,,,,,,,,,,,,,,,,,,,,1,2.386542260006536,,,,,,,,,,,,,,,,,,,,,,,,,,,,030719_p3,001,2019_Mar_07_1612,body_behavioural,3.0.4,59.81887788555824,
6,"David had to intervene, and he ran in front of the cart pushing her out of the way just in the nick of time, and they tumbled on the airport floor. ",1,2,,0,6,6,6,,,,,0,8,8,8,,,,,,,,,,,,,,,,,,,,,,,,,,,,,,,1,4.66772728000069,,,,,,,,,,,,,,,,,,,,,,,,,,,,030719_p3,001,2019_Mar_07_1612,body_behavioural,3.0.4,59.81887788555824,
6,"Anna, bewildered, looked up and saw the cart pass by and then looked over at David. ",1,2,,0,6,6,6,,,,,0,9,9,9,,,,,,,,,,,,,,,,,,,,,,,,,,,,,,,9,3.6032804969872814,,,,,,,,,,,,,,,,,,,,,,,,,,,,030719_p3,001,2019_Mar_07_1612,body_behavioural,3.0.4,59.81887788555824,
6,He gave a smile back.,1,2,,0,6,6,6,,,,,0,10,10,10,,,,,,,,,,,,,,,,,,,,,,,,,,,,,,,1,1.1854166859993711,,,,,,,,,,,,,,,,,,,,,,,,,,,,030719_p3,001,2019_Mar_07_1612,body_behavioural,3.0.4,59.81887788555824,
6,"“You alright?”, he said.",1,2,,0,6,6,6,,,,,0,11,11,11,,,,,,,,,,,,,,,,,,,,,,,,,,,,,,,1,0.8866546600183938,,,,,,,,,,,,,,,,,,,,,,,,,,,,030719_p3,001,2019_Mar_07_1612,body_behavioural,3.0.4,59.81887788555824,
6,"She whispered, “Uh yeah.",1,2,,0,6,6,6,,,,,0,12,12,12,,,,,,,,,,,,,,,,,,,,,,,,,,,,,,,1,0.8865214830148034,,,,,,,,,,,,,,,,,,,,,,,,,,,,030719_p3,001,2019_Mar_07_1612,body_behavioural,3.0.4,59.81887788555824,
6,I almost got smooshed by that cart.”,1,2,,0,6,6,6,,,,,0,13,13,13,,,,,,,,,,,,,,,,,,,,,,,,,,,,,,,1,1.3031640150002204,,,,,,,,,,,,,,,,,,,,,,,,,,,,030719_p3,001,2019_Mar_07_1612,body_behavioural,3.0.4,59.81887788555824,
6,Her head was still spinning as she stared at the handsome stranger who had saved her. ,1,2,,0,6,6,6,,,,,0,14,14,14,,,,,,,,,,,,,,,,,,,,,,,,,,,,,,,1,3.770574950001901,,,,,,,,,,,,,,,,,,,,,,,,,,,,030719_p3,001,2019_Mar_07_1612,body_behavioural,3.0.4,59.81887788555824,
6,David helped her up and had to keep holding on to her arms to steady her even once they were standing.,1,2,,0,6,6,6,,,,,0,15,15,15,,,,,,,,,,,,,,,,,,,,,,,,,,,,,,,1,3.369977834983729,,,,,,,,,,,,,,,,,,,,,,,,,,,,030719_p3,001,2019_Mar_07_1612,body_behavioural,3.0.4,59.81887788555824,
6,"“I’m really late for my flight,” she said. ",1,2,,0,6,6,6,,,,,0,16,16,16,,,,,,,,,,,,,,,,,,,,,,,,,,,,,,,9,1.602797069994267,,,,,,,,,,,,,,,,,,,,,,,,,,,,030719_p3,001,2019_Mar_07_1612,body_behavioural,3.0.4,59.81887788555824,
6,"“Don't worry,” said David, "let me help you get to your gate." ",1,2,,0,6,6,6,,,,,0,17,17,17,,,,,,,,,,,,,,,,,,,,,,,,,,,,,,,1,2.3515077250194736,,,,,,,,,,,,,,,,,,,,,,,,,,,,030719_p3,001,2019_Mar_07_1612,body_behavioural,3.0.4,59.81887788555824,
6,He waved off her half-hearted protests. ,1,2,,0,6,6,6,,,,,0,18,18,18,,,,,,,,,,,,,,,,,,,,,,,,,,,,,,,1,2.1694899080030154,,,,,,,,,,,,,,,,,,,,,,,,,,,,030719_p3,001,2019_Mar_07_1612,body_behavioural,3.0.4,59.81887788555824,
6,"“Really , I have plenty of time and nothing better to do.”",1,2,,0,6,6,6,,,,,0,19,19,19,,,,,,,,,,,,,,,,,,,,,,,,,,,,,,,1,2.102319872006774,,,,,,,,,,,,,,,,,,,,,,,,,,,,030719_p3,001,2019_Mar_07_1612,body_behavioural,3.0.4,59.81887788555824,
6,They headed to the security line. ,2,2,,0,6,6,6,,,,,0,20,20,20,,,,,,,,,,,,,,,,,,,,,,,,,,,,,,,9,1.98634556500474,,,,,,,,,,,,,,,,,,,,,,,,,,,,030719_p3,001,2019_Mar_07_1612,body_behavioural,3.0.4,59.81887788555824,
6,"The line was not long, and they spent the time chatting and getting to know each other.",2,2,,0,6,6,6,,,,,0,21,21,21,,,,,,,,,,,,,,,,,,,,,,,,,,,,,,,1,3.0860939450212754,,,,,,,,,,,,,,,,,,,,,,,,,,,,030719_p3,001,2019_Mar_07_1612,body_behavioural,3.0.4,59.81887788555824,
6,It turned out that Anna and David went to the same high school but Anna had been 3 years older.,2,2,,0,6,6,6,,,,,0,22,22,22,,,,,,,,,,,,,,,,,,,,,,,,,,,,,,,1,4.386634914990282,,,,,,,,,,,,,,,,,,,,,,,,,,,,030719_p3,001,2019_Mar_07_1612,body_behavioural,3.0.4,59.81887788555824,
6,When they got to the front of the line they took off their shoes and pulled off their coats.,2,3,,0,6,6,6,,,,,0,23,23,23,,,,,,,,,,,,,,,,,,,,,,,,,,,,,,,1,3.5861191820004024,,,,,,,,,,,,,,,,,,,,,,,,,,,,030719_p3,001,2019_Mar_07_1612,body_behavioural,3.0.4,59.81887788555824,
6,Both of them went through the metal detector without any problems. ,2,3,,0,6,6,6,,,,,0,24,24,24,,,,,,,,,,,,,,,,,,,,,,,,,,,,,,,1,1.7696894989931025,,,,,,,,,,,,,,,,,,,,,,,,,,,,030719_p3,001,2019_Mar_07_1612,body_behavioural,3.0.4,59.81887788555824,
6,"Anna’s flight was in 20 minutes, and as she was rushing to put her shoes and coat back on, David asked her, “So when are you coming back?”",2,3,,0,6,6,6,,,,,0,25,25,25,,,,,,,,,,,,,,,,,,,,,,,,,,,,,,,9,4.436599756998476,,,,,,,,,,,,,,,,,,,,,,,,,,,,030719_p3,001,2019_Mar_07_1612,body_behavioural,3.0.4,59.81887788555824,
6,"“In a week, it’s a short trip,” Anna replied. ",2,3,,0,6,6,6,,,,,0,26,26,26,,,,,,,,,,,,,,,,,,,,,,,,,,,,,,,1,1.253105459996732,,,,,,,,,,,,,,,,,,,,,,,,,,,,030719_p3,001,2019_Mar_07_1612,body_behavioural,3.0.4,59.81887788555824,
6,"“Me too,” David said.",2,3,,0,6,6,6,,,,,0,27,27,27,,,,,,,,,,,,,,,,,,,,,,,,,,,,,,,1,0.8172589229943696,,,,,,,,,,,,,,,,,,,,,,,,,,,,030719_p3,001,2019_Mar_07_1612,body_behavioural,3.0.4,59.81887788555824,
6,"He continued, “When we're back in town, is there any chance you'd want to get dinner?",2,3,,0,6,6,6,,,,,0,28,28,28,,,,,,,,,,,,,,,,,,,,,,,,,,,,,,,9,3.6198556300078053,,,,,,,,,,,,,,,,,,,,,,,,,,,,030719_p3,001,2019_Mar_07_1612,body_behavioural,3.0.4,59.81887788555824,
6,"I know we just met, but when life throws a luggage cart at you it seems like we should listen. “",2,3,,0,6,6,6,,,,,0,29,29,29,,,,,,,,,,,,,,,,,,,,,,,,,,,,,,,1,3.7366854950087145,,,,,,,,,,,,,,,,,,,,,,,,,,,,030719_p3,001,2019_Mar_07_1612,body_behavioural,3.0.4,59.81887788555824,
6,"She stopped packing, and said with a smile, “Yes I would love that.”",2,3,,0,6,6,6,,,,,0,30,30,30,,,,,,,,,,,,,,,,,,,,,,,,,,,,,,,1,1.2530929019849282,,,,,,,,,,,,,,,,,,,,,,,,,,,,030719_p3,001,2019_Mar_07_1612,body_behavioural,3.0.4,59.81887788555824,
6,Then they ran off to Anna’s gate which was at the end of the terminal. ,3,3,,0,6,6,6,,,,,0,31,31,31,,,,,,,,,,,,,,,,,,,,,,,,,,,,,,,1,1.5168067329796031,,,,,,,,,,,,,,,,,,,,,,,,,,,,030719_p3,001,2019_Mar_07_1612,body_behavioural,3.0.4,59.81887788555824,
6,"David took put on her backpack, grabbed her hand, and navigated quickly through the crowds of people.",3,3,,0,6,6,6,,,,,0,32,32,32,,,,,,,,,,,,,,,,,,,,,,,,,,,,,,,9,5.336713944998337,,,,,,,,,,,,,,,,,,,,,,,,,,,,030719_p3,001,2019_Mar_07_1612,body_behavioural,3.0.4,59.81887788555824,
6,Anna was amazed at everything that was happening; she had arrived at the airport doubtful that she would make it and was now confident that she would due to this handsome and kind man she just met.,3,3,,0,6,6,6,,,,,0,33,33,33,,,,,,,,,,,,,,,,,,,,,,,,,,,,,,,1,7.170386391982902,,,,,,,,,,,,,,,,,,,,,,,,,,,,030719_p3,001,2019_Mar_07_1612,body_behavioural,3.0.4,59.81887788555824,
6,"As they approached her gate, Anna fished out a crumbled business card from her pocket and handed it to David, who handed her the backpack, and he promised to call her next week.",3,4,,0,6,6,6,,,,,0,34,34,34,,,,,,,,,,,,,,,,,,,,,,,,,,,,,,,9,6.317665579990717,,,,,,,,,,,,,,,,,,,,,,,,,,,,030719_p3,001,2019_Mar_07_1612,body_behavioural,3.0.4,59.81887788555824,
6,She gave him one last embarrassed smile and approached the flight attendant who scanned her ticket. ,3,4,,0,6,6,6,,,,,0,35,35,35,,,,,,,,,,,,,,,,,,,,,,,,,,,,,,,1,2.984238370001549,,,,,,,,,,,,,,,,,,,,,,,,,,,,030719_p3,001,2019_Mar_07_1612,body_behavioural,3.0.4,59.81887788555824,
6,"Finally, she boarded the plane, sliding into her window seat located all the way in the back of the plane.",4,4,,0,6,6,6,,,,,0,36,36,36,,,,,,,,,,,,,,,,,,,,,,,,,,,,,,,1,2.7699995299917646,,,,,,,,,,,,,,,,,,,,,,,,,,,,030719_p3,001,2019_Mar_07_1612,body_behavioural,3.0.4,59.81887788555824,
6,"Barely containing her glee, she ignored the grumbles of complaint as she squeezed past the other passengers in her row and settled back in her seat. ",4,4,,0,6,6,6,,,,,0,37,37,37,,,,,,,,,,,,,,,,,,,,,,,,,,,,,,,1,4.620078855019528,,,,,,,,,,,,,,,,,,,,,,,,,,,,030719_p3,001,2019_Mar_07_1612,body_behavioural,3.0.4,59.81887788555824,
6,"She was thankful that she had not only made it onto the plane in time, but also that she had been clumsy enough to forget to tie her shoes.",4,4,,0,6,6,6,,,,,0,38,38,38,,,,,,,,,,,,,,,,,,,,,,,,,,,,,,,1,4.220640268002171,,,,,,,,,,,,,,,,,,,,,,,,,,,,030719_p3,001,2019_Mar_07_1612,body_behavioural,3.0.4,59.81887788555824,
6,,,,,0,6,6,6,,,,,,,,,,,,,,,,,,,,,,,,,,,,,,,,,,,,,,,,,,,,,,,,,,,,,,,,,,,,,,,,,,,,030719_p3,001,2019_Mar_07_1612,body_behavioural,3.0.4,59.81887788555824,
7,,,,,0,7,7,7,0,0,0,0,,,,,,,,,,,,,,,,,,,,,,,,,,,,,space,0.8864450599940028,space,0.6847169940010644,space,0.6535022149910219,,,,,,,,,,,,,,,,,,,,,,,,,,,,,,030719_p3,001,2019_Mar_07_1612,body_behavioural,3.0.4,59.81887788555824,
7,,,,,0,7,7,7,1,0,1,0,,,,,,,,,,,,,,,,,,,,,,,,,,,,,,,,,space,0.4531933650141582,,,,,,,,,,,,,,,,,,,,,,,,,,,,,,030719_p3,001,2019_Mar_07_1612,body_behavioural,3.0.4,59.81887788555824,
7,"Lana walked into lecture holding hands with her boyfriend, Aaron, who was trying to contain his excitement and anticipation for proposing to Lana in this class. ",1,1,,0,7,7,7,,,,,0,0,0,0,,,,,,,,,,,,,,,,,,,,,,,,,,,,,,,9,10.004017119994387,,,,,,,,,,,,,,,,,,,,,,,,,,,,030719_p3,001,2019_Mar_07_1612,body_behavioural,3.0.4,59.81887788555824,
7,"Lana was lost in thought, still puzzling over a calculus problem on her problem set due that night.",1,1,,0,7,7,7,,,,,0,1,1,1,,,,,,,,,,,,,,,,,,,,,,,,,,,,,,,1,6.0475149099947885,,,,,,,,,,,,,,,,,,,,,,,,,,,,030719_p3,001,2019_Mar_07_1612,body_behavioural,3.0.4,59.81887788555824,
7,"The lecture hall was the fanciest one at Princeton, with chandeliers, high ceilings, wood floors and double-decker chalkboards.",1,1,,0,7,7,7,,,,,0,2,2,2,,,,,,,,,,,,,,,,,,,,,,,,,,,,,,,9,4.636480177985504,,,,,,,,,,,,,,,,,,,,,,,,,,,,030719_p3,001,2019_Mar_07_1612,body_behavioural,3.0.4,59.81887788555824,
7,"This is where Aaron and Lana had met two years ago during an economics class, and now they were back together in the same lecture hall for their Chemistry class. ",1,1,,0,7,7,7,,,,,0,3,3,3,,,,,,,,,,,,,,,,,,,,,,,,,,,,,,,1,6.053764573007356,,,,,,,,,,,,,,,,,,,,,,,,,,,,030719_p3,001,2019_Mar_07_1612,body_behavioural,3.0.4,59.81887788555824,
7,The professor caught Aaron's eye as he walked up to the front of the classroom and gave him a wink before the lecture began. ,1,1,,0,7,7,7,,,,,0,4,4,4,,,,,,,,,,,,,,,,,,,,,,,,,,,,,,,9,3.669908973010024,,,,,,,,,,,,,,,,,,,,,,,,,,,,030719_p3,001,2019_Mar_07_1612,body_behavioural,3.0.4,59.81887788555824,
7,Aaron responded with a huge grin. ,1,1,,0,7,7,7,,,,,0,5,5,5,,,,,,,,,,,,,,,,,,,,,,,,,,,,,,,1,1.1363736180064734,,,,,,,,,,,,,,,,,,,,,,,,,,,,030719_p3,001,2019_Mar_07_1612,body_behavioural,3.0.4,59.81887788555824,
7,"The professor cleared his throat and said,“Alright, good afternoon, everyone!",2,1,,0,7,7,7,,,,,0,6,6,6,,,,,,,,,,,,,,,,,,,,,,,,,,,,,,,1,1.5030372820037883,,,,,,,,,,,,,,,,,,,,,,,,,,,,030719_p3,001,2019_Mar_07_1612,body_behavioural,3.0.4,59.81887788555824,
7,"Last week we talked about the structure of the periodic table, and this week the topic is ions.",2,1,,0,7,7,7,,,,,0,7,7,7,,,,,,,,,,,,,,,,,,,,,,,,,,,,,,,1,3.886719845002517,,,,,,,,,,,,,,,,,,,,,,,,,,,,030719_p3,001,2019_Mar_07_1612,body_behavioural,3.0.4,59.81887788555824,
7,These are atoms or molecules in which the number of electrons does not equal the number of protons.,2,1,,0,7,7,7,,,,,0,8,8,8,,,,,,,,,,,,,,,,,,,,,,,,,,,,,,,1,1.819395861995872,,,,,,,,,,,,,,,,,,,,,,,,,,,,030719_p3,001,2019_Mar_07_1612,body_behavioural,3.0.4,59.81887788555824,
7,"Now, let me get my computer set up, one moment, class.”",2,1,,0,7,7,7,,,,,0,9,9,9,,,,,,,,,,,,,,,,,,,,,,,,,,,,,,,1,3.6196833880094346,,,,,,,,,,,,,,,,,,,,,,,,,,,,030719_p3,001,2019_Mar_07_1612,body_behavioural,3.0.4,59.81887788555824,
7,Lana pulled out her Calculus problem set and puzzled over it.,2,1,,0,7,7,7,,,,,0,10,10,10,,,,,,,,,,,,,,,,,,,,,,,,,,,,,,,9,2.534195043001091,,,,,,,,,,,,,,,,,,,,,,,,,,,,030719_p3,001,2019_Mar_07_1612,body_behavioural,3.0.4,59.81887788555824,
7,"While she was distracted, Aaron unzipped the small pocket in his backpack and pulled out the ring box.",2,2,,0,7,7,7,,,,,0,11,11,11,,,,,,,,,,,,,,,,,,,,,,,,,,,,,,,1,2.8183175179874524,,,,,,,,,,,,,,,,,,,,,,,,,,,,030719_p3,001,2019_Mar_07_1612,body_behavioural,3.0.4,59.81887788555824,
7,He opened it up and looked at the ring.,2,2,,0,7,7,7,,,,,0,12,12,12,,,,,,,,,,,,,,,,,,,,,,,,,,,,,,,1,0.9835889159876388,,,,,,,,,,,,,,,,,,,,,,,,,,,,030719_p3,001,2019_Mar_07_1612,body_behavioural,3.0.4,59.81887788555824,
7,"Instead of one large diamond, there were 5 diamonds embedded in a thick band. ",2,2,,0,7,7,7,,,,,0,13,13,13,,,,,,,,,,,,,,,,,,,,,,,,,,,,,,,9,5.339953505987069,,,,,,,,,,,,,,,,,,,,,,,,,,,,030719_p3,001,2019_Mar_07_1612,body_behavioural,3.0.4,59.81887788555824,
7,He knew Lana would like this because her style was not flashy but more about simple elegance.,2,2,,0,7,7,7,,,,,0,14,14,14,,,,,,,,,,,,,,,,,,,,,,,,,,,,,,,1,3.1854524450027384,,,,,,,,,,,,,,,,,,,,,,,,,,,,030719_p3,001,2019_Mar_07_1612,body_behavioural,3.0.4,59.81887788555824,
7,Aaron put the ring back into the bag as the professor began the lecture. ,3,2,,0,7,7,7,,,,,0,15,15,15,,,,,,,,,,,,,,,,,,,,,,,,,,,,,,,1,2.404498852993129,,,,,,,,,,,,,,,,,,,,,,,,,,,,030719_p3,001,2019_Mar_07_1612,body_behavioural,3.0.4,59.81887788555824,
7,“Recall from previous lectures that the number of protons determines the identity of the element. ,3,2,,0,7,7,7,,,,,0,16,16,16,,,,,,,,,,,,,,,,,,,,,,,,,,,,,,,9,2.7864605599897914,,,,,,,,,,,,,,,,,,,,,,,,,,,,030719_p3,001,2019_Mar_07_1612,body_behavioural,3.0.4,59.81887788555824,
7,"So for example, all atoms of sodium have 11 protons in the nucleus. ",3,2,,0,7,7,7,,,,,0,17,17,17,,,,,,,,,,,,,,,,,,,,,,,,,,,,,,,1,1.4182718640076928,,,,,,,,,,,,,,,,,,,,,,,,,,,,030719_p3,001,2019_Mar_07_1612,body_behavioural,3.0.4,59.81887788555824,
7,"And if you look on the periodic table, the atomic number for sodium, the symbol is Na, is eleven.”",3,2,,0,7,7,7,,,,,0,18,18,18,,,,,,,,,,,,,,,,,,,,,,,,,,,,,,,1,2.5200575339840725,,,,,,,,,,,,,,,,,,,,,,,,,,,,030719_p3,001,2019_Mar_07_1612,body_behavioural,3.0.4,59.81887788555824,
7,Lana was taking notes while Aaron was texting all of his friends in the class to get ready for the proposal. ,3,2,,0,7,7,7,,,,,0,19,19,19,,,,,,,,,,,,,,,,,,,,,,,,,,,,,,,1,2.8873288520262577,,,,,,,,,,,,,,,,,,,,,,,,,,,,030719_p3,001,2019_Mar_07_1612,body_behavioural,3.0.4,59.81887788555824,
7,"Right after talking about how two ions bond into one stable molecule by covalent bonds, the professor stopped the lecture and asked Lana to come to the front of the class to do a demonstration. ",3,2,,0,7,7,7,,,,,0,20,20,20,,,,,,,,,,,,,,,,,,,,,,,,,,,,,,,9,5.585703286982607,,,,,,,,,,,,,,,,,,,,,,,,,,,,030719_p3,001,2019_Mar_07_1612,body_behavioural,3.0.4,59.81887788555824,
7,"She walked to the front of the class confused, and the professor asked her to stand in the middle of the stage.",3,2,,0,7,7,7,,,,,0,21,21,21,,,,,,,,,,,,,,,,,,,,,,,,,,,,,,,1,3.0532610430091154,,,,,,,,,,,,,,,,,,,,,,,,,,,,030719_p3,001,2019_Mar_07_1612,body_behavioural,3.0.4,59.81887788555824,
7,"Then Aaron walked up and, taking Lana’s hand, got down on one knee. ",3,3,,0,7,7,7,,,,,0,22,22,22,,,,,,,,,,,,,,,,,,,,,,,,,,,,,,,1,2.937116981978761,,,,,,,,,,,,,,,,,,,,,,,,,,,,030719_p3,001,2019_Mar_07_1612,body_behavioural,3.0.4,59.81887788555824,
7,"“It's time for us to make a bond of our own, Lana.",3,3,,0,7,7,7,,,,,0,23,23,23,,,,,,,,,,,,,,,,,,,,,,,,,,,,,,,1,1.0864627830160316,,,,,,,,,,,,,,,,,,,,,,,,,,,,030719_p3,001,2019_Mar_07_1612,body_behavioural,3.0.4,59.81887788555824,
7,Will you marry me?” ,3,3,,0,7,7,7,,,,,0,24,24,24,,,,,,,,,,,,,,,,,,,,,,,,,,,,,,,1,0.8531394469900988,,,,,,,,,,,,,,,,,,,,,,,,,,,,030719_p3,001,2019_Mar_07_1612,body_behavioural,3.0.4,59.81887788555824,
7,Lana gasped and put her other hand to her mouth and started looking around the room as if trying to convince herself that this was really happening.,3,3,,0,7,7,7,,,,,0,25,25,25,,,,,,,,,,,,,,,,,,,,,,,,,,,,,,,9,4.736650728009408,,,,,,,,,,,,,,,,,,,,,,,,,,,,030719_p3,001,2019_Mar_07_1612,body_behavioural,3.0.4,59.81887788555824,
7,For a few moments everyone was in suspense waiting for the Lana’s shock to wear off and for her to answer. ,3,3,,0,7,7,7,,,,,0,26,26,26,,,,,,,,,,,,,,,,,,,,,,,,,,,,,,,1,4.786768256977666,,,,,,,,,,,,,,,,,,,,,,,,,,,,030719_p3,001,2019_Mar_07_1612,body_behavioural,3.0.4,59.81887788555824,
7,"Finally, she said, “Yes!”",3,4,,0,7,7,7,,,,,0,27,27,27,,,,,,,,,,,,,,,,,,,,,,,,,,,,,,,1,0.6531992950185668,,,,,,,,,,,,,,,,,,,,,,,,,,,,030719_p3,001,2019_Mar_07_1612,body_behavioural,3.0.4,59.81887788555824,
7,"Aaron put the ring on her finger, and they hugged while the whole class clapped. ",3,4,,0,7,7,7,,,,,0,28,28,28,,,,,,,,,,,,,,,,,,,,,,,,,,,,,,,1,1.8840096379863098,,,,,,,,,,,,,,,,,,,,,,,,,,,,030719_p3,001,2019_Mar_07_1612,body_behavioural,3.0.4,59.81887788555824,
7,"Their friends came up and hugged both of them, and the professor gave Aaron a celebratory handshake.",3,4,,0,7,7,7,,,,,0,29,29,29,,,,,,,,,,,,,,,,,,,,,,,,,,,,,,,1,1.5846944100048859,,,,,,,,,,,,,,,,,,,,,,,,,,,,030719_p3,001,2019_Mar_07_1612,body_behavioural,3.0.4,59.81887788555824,
7,"They made their way back to their seats, Lana and Aaron hand-in-hand and beaming. ",3,4,,0,7,7,7,,,,,0,30,30,30,,,,,,,,,,,,,,,,,,,,,,,,,,,,,,,1,2.7699268849974032,,,,,,,,,,,,,,,,,,,,,,,,,,,,030719_p3,001,2019_Mar_07_1612,body_behavioural,3.0.4,59.81887788555824,
7,"The professor then dismissed the class, saying, “That was enough excitement for today!",4,4,,0,7,7,7,,,,,0,31,31,31,,,,,,,,,,,,,,,,,,,,,,,,,,,,,,,9,1.9030947199789807,,,,,,,,,,,,,,,,,,,,,,,,,,,,030719_p3,001,2019_Mar_07_1612,body_behavioural,3.0.4,59.81887788555824,
7,Don’t forget there’s an exam next week on the first two chapters of the textbook.”,4,4,,0,7,7,7,,,,,0,32,32,32,,,,,,,,,,,,,,,,,,,,,,,,,,,,,,,1,1.3532400149852037,,,,,,,,,,,,,,,,,,,,,,,,,,,,030719_p3,001,2019_Mar_07_1612,body_behavioural,3.0.4,59.81887788555824,
7,"As everyone was packing up their notebooks and leaving, Lana was already on her phone calling her family members to tell them the exciting news.",4,4,,0,7,7,7,,,,,0,33,33,33,,,,,,,,,,,,,,,,,,,,,,,,,,,,,,,9,2.0034518080065027,,,,,,,,,,,,,,,,,,,,,,,,,,,,030719_p3,001,2019_Mar_07_1612,body_behavioural,3.0.4,59.81887788555824,
7,,,,,0,7,7,7,,,,,,,,,,,,,,,,,,,,,,,,,,,,,,,,,,,,,,,,,,,,,,,,,,,,,,,,,,,,,,,,,,,,030719_p3,001,2019_Mar_07_1612,body_behavioural,3.0.4,59.81887788555824,
,,,,,,,,,,,,,,,,,,,,,,,,,,,,,,,,,,,,,,,,,,,,,,,,,1339.679924660988,space,2.3165352450159844,,,,,,,,,,,,,,,,,,,,,,,,,030719_p3,001,2019_Mar_07_1612,body_behavioural,3.0.4,59.81887788555824,
,,,,The next task in the experiment is to recall each story to the best of your ability.,,,,,,,,,,,,,0,0,0,0,,,,,,,,,,,,,,,,,,,,,,,,,,,,,,,,space,2.720775924011832,,,,,,,,,,,,,,,,,,,,,,,030719_p3,001,2019_Mar_07_1612,body_behavioural,3.0.4,59.81887788555824,
,,,,"You will be presented with the story title, names, the images, and a blank text box for each story.",,,,,,,,,,,,,0,1,1,1,,,,,,,,,,,,,,,,,,,,,,,,,,,,,,,,space,4.920264064974617,,,,,,,,,,,,,,,,,,,,,,,030719_p3,001,2019_Mar_07_1612,body_behavioural,3.0.4,59.81887788555824,
,,,,Describe the story with as many details as you can remember in the space provided. ,,,,,,,,,,,,,0,2,2,2,,,,,,,,,,,,,,,,,,,,,,,,,,,,,,,,space,2.5676328350091353,,,,,,,,,,,,,,,,,,,,,,,030719_p3,001,2019_Mar_07_1612,body_behavioural,3.0.4,59.81887788555824,
,,,,"When you are finished recalling one story, to move onto the next one hit ‘return’. ",,,,,,,,,,,,,0,3,3,3,,,,,,,,,,,,,,,,,,,,,,,,,,,,,,,,space,3.250193579995539,,,,,,,,,,,,,,,,,,,,,,,030719_p3,001,2019_Mar_07_1612,body_behavioural,3.0.4,59.81887788555824,
,,,,There is a 5 minute time limit to make your response. ,,,,,,,,,,,,,0,4,4,4,,,,,,,,,,,,,,,,,,,,,,,,,,,,,,,,space,1.9036674989911262,,,,,,,,,,,,,,,,,,,,,,,030719_p3,001,2019_Mar_07_1612,body_behavioural,3.0.4,59.81887788555824,
0,,,,,,,,,,,,,,,,,,,,,0,0,0,0,,,,,,,,,,,,,,,,,,,,,,,,,,,,,,space,1.1699151920038275,"Alex and chloe go to the grocery store. alex decided that he is going to propose to her there. his friends are waiting at the front of the grocery store. the store sin't too busy and the line is not long. they pay 30$ for their groceries. chloe says yes. after the proposal, people let them cut to the front of the line. i remember that alex was distracted while they were shopping which lead to chloe asking him if he was okay or not - she was afraid that he was acting strange out of fear of something. the proposal itself occurs in the grocery store line. bright lights parenleftquestionparenright. ",,,,,,,,,,,,,,,,,,,,030719_p3,001,2019_Mar_07_1612,body_behavioural,3.0.4,59.81887788555824,
1,,,,,,,,,,,,,,,,,,,,,0,1,1,1,,,,,,,,,,,,,,,,,,,,,,,,,,,,,,space,1.0197385129868053,"These two business men go to a restaurant to discuss a business deal. mr. shelton owns a small business that mr. gordon's company wants to buy. the two men are seated and begin by talking about non-business topics such as one of their daughters and some sort fo car. eventually mr. gordon brings up his business deal that his company is proposing for mr. shelton. mr. shelton at first is hesitant because he does not see how a small company like his could function in the big corporate worlds. eventually, mr. shelton agrees tothe deal on the condition that he still maintains the executive decisions over all matters concerning his business. the figure $600 was offered during the process of the meal. the waiter comes twice to ask for orders and ask for drinks.",,,,,,,,,,,,,,,,,,,,030719_p3,001,2019_Mar_07_1612,body_behavioural,3.0.4,59.81887788555824,
2,,,,,,,,,,,,,,,,,,,,,0,2,2,2,,,,,,,,,,,,,,,,,,,,,,,,,,,,,,space,1.750199967995286,"The two men are on their way to a flight to boston and are catching the same flight. they met the night before randomly which was to jeff's luck because now he'll have some sort fo business plan to bring back to his job. william owns a winery and jeff asks him to send samples fo the wine to his business under the hope that  through sending the samples, william will strike a deal with jeff's company which would give william's company a lot of money. jeff suggests that william sells $60 worth of wine ot his company for $30. william sees this as a large risk with not enough certainty of payoff. they arrive at jeff's gate first and by the time that he reaches the gate, william has decided to end the samples to jeff's company but will sell 60$ worth of samples for $40. jeff is happy and sends an email once he sits down. the two had to take off their belts and remove their laptops when going through security check. they had 2 or so hours to chat before their flight times. they were both excited about being there and the time that they had to talk.",,,,,,,,,,,,,,,,,,,,030719_p3,001,2019_Mar_07_1612,body_behavioural,3.0.4,59.81887788555824,
3,,,,,,,,,,,,,,,,,,,,,0,3,3,3,,,,,,,,,,,,,,,,,,,,,,,,,,,,,,space,2.0014971109922044,"Emmanuella is thinking about breaking up with liam at the beginning of the story because she is tired of the constant fighting. when they arrive at the store, it is brightly lit and not too busy. emmanuella heads over to the pasta isle in order to buy ingrediants for the dinner that they are supposed to be hosting that night or tomorrow night. liam makes a comment about her choice to cook pasta for the dinner which leads to them getting into an argument about how liam doesn't help cook and how he feels like whenever he tries to help she makes him feel like he's in the way. this fight leads up to emmanuella announcing that she wants to break up with him. liam eventually agrees and says that they'll be better fof with other people. emmanuella asks him to get another pasta box because one won't be enough. when they leave after paying, they both have calmed down and agree that they will be better off separated. they are still going to have the dinner but  will keep their decision to breakup secret and whovever tells the secret first will lose rights to the cat.",,,,,,,,,,,,,,,,,,,,030719_p3,001,2019_Mar_07_1612,body_behavioural,3.0.4,59.81887788555824,
4,,,,,,,,,,,,,,,,,,,,,0,4,4,4,,,,,,,,,,,,,,,,,,,,,,,,,,,,,,space,1.0530355000228155,"Teresa bumps into the door of the restaurant because shes on her phone. james notices her due to this and can't stop looking at her. teresa notices his starring and furrows her eyebrows at her. the restaurant has a rustic vibe with antlers and blankets in it. the menus were neon colored. the two were seated at a booth togehter and sat down a couple seatrs away from each other. teresa focuses on her phone while james tries to think of ways to start a conversation with her. eventually he asks her if her head hurts to which she asks if he's ever gotten bit by a scorpian because after she was, little painful things no longer bother her. this sparked up a conversation between the two. waitress comes back and takes teresa's order first. teresa orders an omelette and milk while james orders chocolatechip pancakes and some drink. when the food arrives, james moves closer to teresa and the two continue talking, both glad that they do not have to partake in the meal alone. the food is not good, for instance, the pancakes are salty, but the two are happy about their new friendship. they decide to go to a concert togehter that night. james has to go because he has work but promises to text her later.",,,,,,,,,,,,,,,,,,,,030719_p3,001,2019_Mar_07_1612,body_behavioural,3.0.4,59.81887788555824,
5,,,,,,,,,,,,,,,,,,,,,0,5,5,5,,,,,,,,,,,,,,,,,,,,,,,,,,,,,,space,0.7362011100049131,"Maria is going abroad and no longer wants to be with henry. she decides to tell him during their lecture because she doesn't know when else the two of them will be together. the lecture hallis large with 15 rows of seats and double layer blackboards. the topic for the day is aristotle, and the class has an exam on aristotle, socrates, and plato or an alternative 20 page paper due next tuesday. maria leans over and tells henry she wants to break up. henry disagrees and wants to stay together. he starts crying and maria feels bad, almost giving in, but decides that she has to stay strong because its for both of their better interests. they hodk hands and then walk out of the lecture hal together where they say by and go their separate ways.",,,,,,,,,,,,,,,,,,,,030719_p3,001,2019_Mar_07_1612,body_behavioural,3.0.4,59.81887788555824,
6,,,,,,,,,,,,,,,,,,,,,0,6,6,6,,,,,,,,,,,,,,,,,,,,,,,,,,,,,,space,1.1035013340006117,"The two meet at an airport. david notices anna first from a distance. once he sees that she's about to get run over by a luggage cart, he runs over and pushes her out of the way. when anna realizes what was about to happen to her, she smiles at him. anna only has an hour before her flight and therefore is much more frantic than david who has a whole 3 hours before his. david offers to walk anna to her gate and dispite her protests he insists on it. the two go through security check rather quickly. anna at first was afraid that she was not going to make her flight, but now thanks to david, she is no longer worried. both of them are taking relatively short trips and decide to meet up once they get back from their respective trips. david carried anna's backpack for her while they were walking. they exchange numbers. ",,,,,,,,,,,,,,,,,,,,030719_p3,001,2019_Mar_07_1612,body_behavioural,3.0.4,59.81887788555824,
7,,,,,,,,,,,,,,,,,,,,,0,7,7,7,,,,,,,,,,,,,,,,,,,,,,,,,,,,,,space,1.169634488003794,"Aarona nd lana walk into lecture; the professer knows what aaron is planning and winks at him as aaron walks by. the two students sit down and get ready for the lecture on atoms or molecules, something that has to do with chemistry. aaron starts texting his friends about the impending proposal. the professor carries on with his lecture. some point during the lecture, the teacher calls up lana to do a demonstration.lana is confused, but still goes up for the demonstration. the teacher tells her to stand in the middle of the stage at which point aaron starts walking towards her. aaron gets on one knee and proposes to her using a pun about how they're going to make a bond of their own. lana laughs initially then says yes. the entire class as well as the teacher are witnesses to the proposal. their friends come over and hug the two of them. ",,,,,,,,,,,,,,,,,,,,030719_p3,001,2019_Mar_07_1612,body_behavioural,3.0.4,59.81887788555824,
,,,,,,,,,,,,,,,,,,,,,,,,,,,,,,,,,,,,,,,,,,,,,,,,,,,,,,,,,2918.1608019459964,space,1.3033322929986753,,,,,,,,,,,,,,,,,030719_p3,001,2019_Mar_07_1612,body_behavioural,3.0.4,59.81887788555824,
,,,,The next part of the task is to answer 8 questions about each story.,,,,,,,,,,,,,,,,,,,,,0,0,0,0,,,,,,,,,,,,,,,,,,,,,,,,,,,,,,,,space,2.086817212984897,,,,,,,,,,,,,,,030719_p3,001,2019_Mar_07_1612,body_behavioural,3.0.4,59.81887788555824,
,,,,Some of the questions are not related to the perspective you were asked to assume.,,,,,,,,,,,,,,,,,,,,,0,1,1,1,,,,,,,,,,,,,,,,,,,,,,,,,,,,,,,,space,2.984582656994462,,,,,,,,,,,,,,,030719_p3,001,2019_Mar_07_1612,body_behavioural,3.0.4,59.81887788555824,
,,,,"We realize that we did not tell you to think of these questions during the story, but do your best to answer them.",,,,,,,,,,,,,,,,,,,,,0,2,2,2,,,,,,,,,,,,,,,,,,,,,,,,,,,,,,,,space,2.7864673029980622,,,,,,,,,,,,,,,030719_p3,001,2019_Mar_07_1612,body_behavioural,3.0.4,59.81887788555824,
,,,,"When you have finished typing your answer, hit ‘return’ to submit your answer and move onto the next question. ",,,,,,,,,,,,,,,,,,,,,0,3,3,3,,,,,,,,,,,,,,,,,,,,,,,,,,,,,,,,space,6.754062544001499,,,,,,,,,,,,,,,030719_p3,001,2019_Mar_07_1612,body_behavioural,3.0.4,59.81887788555824,
0,,,,,,,,,,,,,,,,,,,,,,,,,,,,,0,0,0,0,,,,,,,,,,,,,,,,,,,,,,,,Everyone in the grocery store at the time who were near the cash registers,,,,,,space,0.8528882300015539,The grocery store is brightly lit and slightly busy,primed first,"They pick out some sort of meat, maybe chicken","The line is short, they do not have to wait for a long time",They cost $30 and they pay via credit card ,He is nervous which chloe picks up on,The ring is one large diamond,Alex's friends are waiting at the front fo the store to take videos and pictures,Everyone in the grocery store at the time who were near the cash registers,,,,030719_p3,001,2019_Mar_07_1612,body_behavioural,3.0.4,59.81887788555824,
1,,,,,,,,,,,,,,,,,,,,,,,,,,,,,0,1,1,1,,,,,,,,,,,,,,,,,,,,,,,,A deal between mr. shelton's business and mr. gordon's business,,,,,,space,2.019529387005605,Wooden rustic feel ,non-primed first,The menus are brown,"I do not recall, maybe fish and chicken",They like the food a lot,One is a part of the smaller business industry while the other is a part fo the large business corporate world,$600 for mr. shelton to join mr. gordon's company,"There is some initial hesitation, but eventually mr. shelton agrees to the deal",A deal between mr. shelton's business and mr. gordon's business,,,,030719_p3,001,2019_Mar_07_1612,body_behavioural,3.0.4,59.81887788555824,
2,,,,,,,,,,,,,,,,,,,,,,,,,,,,,0,2,2,2,,,,,,,,,,,,,,,,,,,,,,,,One sits in the aisle and the other has a window seat.,,,,,,space,0.9838303879951127,William works in the wine industry while jeff is a part of a larger company,non-primed first,Jeff is trying to convice william to sell his company $60 worth fo wine for $30 ,William is hesitant because he doesn't liek the idea of making such a large risk with the very viable posibility that nothing comes out of it,William decides to send $60 worth of samples for the price of 40 dollars to jeff's company,They have 2 hours to go through ,They had to take off their belts and remove their laptops,They feel excited and happy to be talking to eachother,One sits in the aisle and the other has a window seat.,,,,030719_p3,001,2019_Mar_07_1612,body_behavioural,3.0.4,59.81887788555824,
3,,,,,,,,,,,,,,,,,,,,,,,,,,,,,0,3,3,3,,,,,,,,,,,,,,,,,,,,,,,,Maybe $20 payed by credit card,,,,,,space,3.28974875799031,Stressed and uncertain,primed first,Because she is tired of all of the fighting,He at first is quiet and then spitefully says that its for the best that they start seeing other people. eventually he really realizes that it most likely is for the best that the two see other people,Yes they still continue on with their planned dinner plans,The grocery store is brightly lit and slightly busy,Pasta,The line is short,Maybe $20 payed by credit card,,,,030719_p3,001,2019_Mar_07_1612,body_behavioural,3.0.4,59.81887788555824,
4,,,,,,,,,,,,,,,,,,,,,,,,,,,,,0,4,4,4,,,,,,,,,,,,,,,,,,,,,,,,"They do not like it, james' pancakes are too salty",,,,,,space,0.786220231995685,James notices teresa first because teresa bumps into the glass door of the restaurant,non-primed first,James asks her if her head hurts,James does when he invites teresa to go to a conccert he's attending later that night,James leaves first for work,The restaurant is rustic with antler decorrations and blankets ; wooden,The menus are neon colore,James orders choocolate chip pancakes while teresa orders an omlette with milk,"They do not like it, james' pancakes are too salty",,,,030719_p3,001,2019_Mar_07_1612,body_behavioural,3.0.4,59.81887788555824,
5,,,,,,,,,,,,,,,,,,,,,,,,,,,,,0,5,5,5,,,,,,,,,,,,,,,,,,,,,,,,The following tuesday,,,,,,space,0.7364447900035884,Confident in what she has to do but nervous,non-primed first,Because she doesn't want to do a long distance relationship,He does not want to break up and insists that it will work. eventually he realizes its for the best that they break up,Yes,It is very big with 15 rows of seats and double stacked chalk boars,Some sort of philosophy class. that day they are learning about aristotle,Aristotle's view on plant nature and animal nature ,The following tuesday,,,,030719_p3,001,2019_Mar_07_1612,body_behavioural,3.0.4,59.81887788555824,
