count,storyText,locationEvent,socialEvent,locationEventSize,socialEventSize,instructText,trials.thisRepN,trials.thisTrialN,trials.thisN,trials.thisIndex,trials_7.thisRepN,trials_7.thisTrialN,trials_7.thisN,trials_7.thisIndex,trials_2.thisRepN,trials_2.thisTrialN,trials_2.thisN,trials_2.thisIndex,trials_3.thisRepN,trials_3.thisTrialN,trials_3.thisN,trials_3.thisIndex,trials_4.thisRepN,trials_4.thisTrialN,trials_4.thisN,trials_4.thisIndex,trials_5.thisRepN,trials_5.thisTrialN,trials_5.thisN,trials_5.thisIndex,trials_6.thisRepN,trials_6.thisTrialN,trials_6.thisN,trials_6.thisIndex,trials_8.thisRepN,trials_8.thisTrialN,trials_8.thisN,trials_8.thisIndex,order of stories,order of perspectives,key_resp_8.keys,key_resp_8.rt,key_resp_5.keys,key_resp_5.rt,key_resp_7.keys,key_resp_7.rt,story_presses.keys,story_presses.rt,story time,key_resp_6.keys,key_resp_6.rt,key_resp_2.keys,key_resp_2.rt,key_resp_10.keys,key_resp_10.rt,recall,recall time,key_resp_12.keys,key_resp_12.rt,key_resp_3.keys,key_resp_3.rt,key_resp_11.keys,key_resp_11.rt,question1_answer,order of question,question2_answer,question3_answer,question4_answer,question5_answer,question6_answer,question7_answer,question8_answer,questions time,key_resp_13.keys,key_resp_13.rt,participant,session,date,expName,psychopyVersion,frameRate,
0,,,,,,,0,0,0,0,0,0,0,0,,,,,,,,,,,,,,,,,,,,,,,,,[21 34 12 44 43 11 33 22],"['Location' 'Location' 'Location' 'Social' 'Location' 'Social' 'Social'
 'Social']",space,4.772385093005141,space,2.3846531200106256,space,2.787027419981314,,,,,,,,,,,,,,,,,,,,,,,,,,,,,,030819_p1,001,2019_Mar_08_1213,body_behavioural,3.0.4,59.84914662825267,
0,"Alvira and Senna walked into the restaurant hand in sweaty hand with quite different expectations: Senna was going to propose tonight, and Alvira had no idea.",1,1,None,None,,0,0,0,0,,,,,0,0,0,0,,,,,,,,,,,,,,,,,,,,,,,,,,,,,9,17.294373973010806,,,,,,,,,,,,,,,,,,,,,,,,,,,,030819_p1,001,2019_Mar_08_1213,body_behavioural,3.0.4,59.84914662825267,
0,"He took a deep breath, trying to calm his nerves as worst case scenarios ran through his mind. ",1,1,None,None,,0,0,0,0,,,,,0,1,1,1,,,,,,,,,,,,,,,,,,,,,,,,,,,,,1,6.787052730011055,,,,,,,,,,,,,,,,,,,,,,,,,,,,030819_p1,001,2019_Mar_08_1213,body_behavioural,3.0.4,59.84914662825267,
0,The entrance of the restaurant was dazzling; chandeliers spread their warm light onto the delicate place settings of all the tables filled with guests dressed to the nines. ,1,1,None,None,,0,0,0,0,,,,,0,2,2,2,,,,,,,,,,,,,,,,,,,,,,,,,,,,,1,14.754674860014347,,,,,,,,,,,,,,,,,,,,,,,,,,,,030819_p1,001,2019_Mar_08_1213,body_behavioural,3.0.4,59.84914662825267,
0,"Through the floor-to-ceiling arched windows of the back wall, they saw the sun setting onto the Pacific ocean.",1,1,None,None,,0,0,0,0,,,,,0,3,3,3,,,,,,,,,,,,,,,,,,,,,,,,,,,,,1,7.303545486996882,,,,,,,,,,,,,,,,,,,,,,,,,,,,030819_p1,001,2019_Mar_08_1213,body_behavioural,3.0.4,59.84914662825267,
0,"This was surely one of the best restaurants on the west coast, situated right on the beach.",1,1,None,None,,0,0,0,0,,,,,0,4,4,4,,,,,,,,,,,,,,,,,,,,,,,,,,,,,1,4.253910828003427,,,,,,,,,,,,,,,,,,,,,,,,,,,,030819_p1,001,2019_Mar_08_1213,body_behavioural,3.0.4,59.84914662825267,
0,"Senna gave his name to the host, who quickly located their reservation with an almost comically wide customer-service smile.",1,1,7.0,None,,0,0,0,0,,,,,0,5,5,5,,,,,,,,,,,,,,,,,,,,,,,,,,,,,1,11.06757273999392,,,,,,,,,,,,,,,,,,,,,,,,,,,,030819_p1,001,2019_Mar_08_1213,body_behavioural,3.0.4,59.84914662825267,
0,He led them to a table right by the window.,2,1,None,None,,0,0,0,0,,,,,0,6,6,6,,,,,,,,,,,,,,,,,,,,,,,,,,,,,1,2.1839656450028997,,,,,,,,,,,,,,,,,,,,,,,,,,,,030819_p1,001,2019_Mar_08_1213,body_behavioural,3.0.4,59.84914662825267,
0,"He brought out some very small menus, with a short list of the celebrity chef's carefully selected daily dishes written in a loopy, cursive font unadorned by any mention of prices.",2,1,None,9.0,,0,0,0,0,,,,,0,7,7,7,,,,,,,,,,,,,,,,,,,,,,,,,,,,,1,11.121216987987282,,,,,,,,,,,,,,,,,,,,,,,,,,,,030819_p1,001,2019_Mar_08_1213,body_behavioural,3.0.4,59.84914662825267,
0,Senna slipped off to the bathroom to check to make sure the ring was in order.,2,2,None,None,,0,0,0,0,,,,,0,8,8,8,,,,,,,,,,,,,,,,,,,,,,,,,,,,,1,4.636487200012198,,,,,,,,,,,,,,,,,,,,,,,,,,,,030819_p1,001,2019_Mar_08_1213,body_behavioural,3.0.4,59.84914662825267,
0,"The ring contained a canary diamond that had been in his grandmother’s wedding ring, and it was a brilliant stone that was accentuated by the small white diamonds encircling it.",2,2,None,None,,0,0,0,0,,,,,0,9,9,9,,,,,,,,,,,,,,,,,,,,,,,,,,,,,1,8.220921575004468,,,,,,,,,,,,,,,,,,,,,,,,,,,,030819_p1,001,2019_Mar_08_1213,body_behavioural,3.0.4,59.84914662825267,
0,"He walked back to the table after handing the small, velvet box to a waiter at the front podium.",2,2,6.0,None,,0,0,0,0,,,,,0,10,10,10,,,,,,,,,,,,,,,,,,,,,,,,,,,,,1,10.603940849978244,,,,,,,,,,,,,,,,,,,,,,,,,,,,030819_p1,001,2019_Mar_08_1213,body_behavioural,3.0.4,59.84914662825267,
0,He came back just as their waiter was approaching the table to get their order.,3,2,None,None,,0,0,0,0,,,,,0,11,11,11,,,,,,,,,,,,,,,,,,,,,,,,,,,,,1,2.403312509995885,,,,,,,,,,,,,,,,,,,,,,,,,,,,030819_p1,001,2019_Mar_08_1213,body_behavioural,3.0.4,59.84914662825267,
0,"Senna ordered the oysters with garlic-parmesan sauce, and Alvira ordered the sauteed sea scallops with caramelized apples. ",3,2,None,None,,0,0,0,0,,,,,0,12,12,12,,,,,,,,,,,,,,,,,,,,,,,,,,,,,1,8.186150143010309,,,,,,,,,,,,,,,,,,,,,,,,,,,,030819_p1,001,2019_Mar_08_1213,body_behavioural,3.0.4,59.84914662825267,
0,"“Excellent choices,” the waiter said with a subsequent brisk spin away from the table.",3,2,None,None,,0,0,0,0,,,,,0,13,13,13,,,,,,,,,,,,,,,,,,,,,,,,,,,,,1,3.052095355000347,,,,,,,,,,,,,,,,,,,,,,,,,,,,030819_p1,001,2019_Mar_08_1213,body_behavioural,3.0.4,59.84914662825267,
0,"“What a beautiful place, Senna. ",3,2,None,None,,0,0,0,0,,,,,0,14,14,14,,,,,,,,,,,,,,,,,,,,,,,,,,,,,1,4.70377753698267,,,,,,,,,,,,,,,,,,,,,,,,,,,,030819_p1,001,2019_Mar_08_1213,body_behavioural,3.0.4,59.84914662825267,
0,"Really this is too much just to celebrate the first tomatoes I grew in the garden, like, this is absurd,” Alvira said.",3,2,None,None,,0,0,0,0,,,,,0,15,15,15,,,,,,,,,,,,,,,,,,,,,,,,,,,,,1,9.201075136981672,,,,,,,,,,,,,,,,,,,,,,,,,,,,030819_p1,001,2019_Mar_08_1213,body_behavioural,3.0.4,59.84914662825267,
0,"Senna laughed and said, “No, those were really the best tomatoes I’ve ever had. ",3,2,None,None,,0,0,0,0,,,,,0,16,16,16,,,,,,,,,,,,,,,,,,,,,,,,,,,,,1,3.0361557580181397,,,,,,,,,,,,,,,,,,,,,,,,,,,,030819_p1,001,2019_Mar_08_1213,body_behavioural,3.0.4,59.84914662825267,
0,We had to celebrate.” ,3,2,None,None,,0,0,0,0,,,,,0,17,17,17,,,,,,,,,,,,,,,,,,,,,,,,,,,,,1,2.6499616669898387,,,,,,,,,,,,,,,,,,,,,,,,,,,,030819_p1,001,2019_Mar_08_1213,body_behavioural,3.0.4,59.84914662825267,
0,"They talked and laughed as the sun sank below the horizon, and the glow from the ocean was replaced by the glow from the chandeliers.",3,2,8.0,None,,0,0,0,0,,,,,0,18,18,18,,,,,,,,,,,,,,,,,,,,,,,,,,,,,1,5.953901900007622,,,,,,,,,,,,,,,,,,,,,,,,,,,,030819_p1,001,2019_Mar_08_1213,body_behavioural,3.0.4,59.84914662825267,
0,"The waiter eventually returned with their meals, and everything was even more delicious than they had expected, especially the oysters, which Senna said tasted like the ocean. ",4,2,None,None,,0,0,0,0,,,,,0,19,19,19,,,,,,,,,,,,,,,,,,,,,,,,,,,,,1,6.720189979998395,,,,,,,,,,,,,,,,,,,,,,,,,,,,030819_p1,001,2019_Mar_08_1213,body_behavioural,3.0.4,59.84914662825267,
0,Then he paused and looked at Alvira meaningfully. ,4,2,None,None,,0,0,0,0,,,,,0,20,20,20,,,,,,,,,,,,,,,,,,,,,,,,,,,,,1,3.3365146319847554,,,,,,,,,,,,,,,,,,,,,,,,,,,,030819_p1,001,2019_Mar_08_1213,body_behavioural,3.0.4,59.84914662825267,
0, “It’s really been the best three years of my life with you.,4,2,None,None,,0,0,0,0,,,,,0,21,21,21,,,,,,,,,,,,,,,,,,,,,,,,,,,,,1,3.7509278020006604,,,,,,,,,,,,,,,,,,,,,,,,,,,,030819_p1,001,2019_Mar_08_1213,body_behavioural,3.0.4,59.84914662825267,
0,"I couldn’t imagine it any other way, and I don’t want to.",4,2,None,None,,0,0,0,0,,,,,0,22,22,22,,,,,,,,,,,,,,,,,,,,,,,,,,,,,1,2.4699823099945206,,,,,,,,,,,,,,,,,,,,,,,,,,,,030819_p1,001,2019_Mar_08_1213,body_behavioural,3.0.4,59.84914662825267,
0,"I really want to spend the rest of my years eating garden tomatoes, whatever it is, with you.” ",4,2,None,None,,0,0,0,0,,,,,0,23,23,23,,,,,,,,,,,,,,,,,,,,,,,,,,,,,1,4.053263405017788,,,,,,,,,,,,,,,,,,,,,,,,,,,,030819_p1,001,2019_Mar_08_1213,body_behavioural,3.0.4,59.84914662825267,
0,"Alvira smiled, “I want the same with you too, Senna.” ",4,2,None,17.0,,0,0,0,0,,,,,0,24,24,24,,,,,,,,,,,,,,,,,,,,,,,,,,,,,1,2.436792559979949,,,,,,,,,,,,,,,,,,,,,,,,,,,,030819_p1,001,2019_Mar_08_1213,body_behavioural,3.0.4,59.84914662825267,
0,"Senna nodded at the waiter who had been watching attentively, and he quickly strode over to place a small, elegant cake topped with the ring in front of Alvira. ",4,3,None,None,,0,0,0,0,,,,,0,25,25,25,,,,,,,,,,,,,,,,,,,,,,,,,,,,,1,6.953584281989606,,,,,,,,,,,,,,,,,,,,,,,,,,,,030819_p1,001,2019_Mar_08_1213,body_behavioural,3.0.4,59.84914662825267,
0,Her eyes widened in shock when she realized what she was looking at.,4,3,None,None,,0,0,0,0,,,,,0,26,26,26,,,,,,,,,,,,,,,,,,,,,,,,,,,,,1,6.186891175020719,,,,,,,,,,,,,,,,,,,,,,,,,,,,030819_p1,001,2019_Mar_08_1213,body_behavioural,3.0.4,59.84914662825267,
0,"“Alvira, will you marry me? ",4,3,None,None,,0,0,0,0,,,,,0,27,27,27,,,,,,,,,,,,,,,,,,,,,,,,,,,,,1,3.5190063299960457,,,,,,,,,,,,,,,,,,,,,,,,,,,,030819_p1,001,2019_Mar_08_1213,body_behavioural,3.0.4,59.84914662825267,
0,"I love you, and I will never stop loving you.” ",4,3,None,None,,0,0,0,0,,,,,0,28,28,28,,,,,,,,,,,,,,,,,,,,,,,,,,,,,1,6.053853465011343,,,,,,,,,,,,,,,,,,,,,,,,,,,,030819_p1,001,2019_Mar_08_1213,body_behavioural,3.0.4,59.84914662825267,
0,Alvira started to cry.,4,3,None,None,,0,0,0,0,,,,,0,29,29,29,,,,,,,,,,,,,,,,,,,,,,,,,,,,,1,2.01931904500816,,,,,,,,,,,,,,,,,,,,,,,,,,,,030819_p1,001,2019_Mar_08_1213,body_behavioural,3.0.4,59.84914662825267,
0,"The room became silent, and everyone turned to their table. ",4,3,None,5.0,,0,0,0,0,,,,,0,30,30,30,,,,,,,,,,,,,,,,,,,,,,,,,,,,,1,2.58649235998746,,,,,,,,,,,,,,,,,,,,,,,,,,,,030819_p1,001,2019_Mar_08_1213,body_behavioural,3.0.4,59.84914662825267,
0,"“Yes, of course, yes!” she shouted as she wiped away tears.",4,4,None,None,,0,0,0,0,,,,,0,31,31,31,,,,,,,,,,,,,,,,,,,,,,,,,,,,,1,2.5696411449753214,,,,,,,,,,,,,,,,,,,,,,,,,,,,030819_p1,001,2019_Mar_08_1213,body_behavioural,3.0.4,59.84914662825267,
0,The neighboring tables exploded in applause.,4,4,None,None,,0,0,0,0,,,,,0,32,32,32,,,,,,,,,,,,,,,,,,,,,,,,,,,,,1,3.751885852019768,,,,,,,,,,,,,,,,,,,,,,,,,,,,030819_p1,001,2019_Mar_08_1213,body_behavioural,3.0.4,59.84914662825267,
0,The waiter returned with a bottle of champagne and popped it. ,4,4,None,None,,0,0,0,0,,,,,0,33,33,33,,,,,,,,,,,,,,,,,,,,,,,,,,,,,1,3.7700647700112313,,,,,,,,,,,,,,,,,,,,,,,,,,,,030819_p1,001,2019_Mar_08_1213,body_behavioural,3.0.4,59.84914662825267,
0,"All of this went unnoticed by Senna and Alvira as they looked into each others’ eyes, and he slipped the ring onto her finger. ",4,4,None,None,,0,0,0,0,,,,,0,34,34,34,,,,,,,,,,,,,,,,,,,,,,,,,,,,,1,7.903614850016311,,,,,,,,,,,,,,,,,,,,,,,,,,,,030819_p1,001,2019_Mar_08_1213,body_behavioural,3.0.4,59.84914662825267,
0,"She held up her hand to admire it, and her glittering tears of joy matched the shine from her ring.   
",4,4,17.0,5.0,,0,0,0,0,,,,,0,35,35,35,,,,,,,,,,,,,,,,,,,,,,,,,,,,,1,14.7517589579802,,,,,,,,,,,,,,,,,,,,,,,,,,,,030819_p1,001,2019_Mar_08_1213,body_behavioural,3.0.4,59.84914662825267,
0,,,,,,,0,0,0,0,,,,,,,,,,,,,,,,,,,,,,,,,,,,,,,,,,,,,,,,,,,,,,,,,,,,,,,,,,,,,,,,,,030819_p1,001,2019_Mar_08_1213,body_behavioural,3.0.4,59.84914662825267,
1,,,,,,,0,1,1,1,0,0,0,0,,,,,,,,,,,,,,,,,,,,,,,,,,,space,2.836592058010865,space,3.186888860014733,space,1.8027814619999845,,,,,,,,,,,,,,,,,,,,,,,,,,,,,,030819_p1,001,2019_Mar_08_1213,body_behavioural,3.0.4,59.84914662825267,
1,,,,,,,0,1,1,1,1,0,1,0,,,,,,,,,,,,,,,,,,,,,,,,,,,,,,,space,0.6693021520040929,,,,,,,,,,,,,,,,,,,,,,,,,,,,,,030819_p1,001,2019_Mar_08_1213,body_behavioural,3.0.4,59.84914662825267,
1,Charlie saw Alma as they walked into class and he motioned for her to come sit in the back next to him: they had business to discuss.,1,1,,,,0,1,1,1,,,,,0,0,0,0,,,,,,,,,,,,,,,,,,,,,,,,,,,,,9,18.48808942499454,,,,,,,,,,,,,,,,,,,,,,,,,,,,030819_p1,001,2019_Mar_08_1213,body_behavioural,3.0.4,59.84914662825267,
1,Charlie and Alma were both economics students with entrepreneurial bents.,1,1,,,,0,1,1,1,,,,,0,1,1,1,,,,,,,,,,,,,,,,,,,,,,,,,,,,,1,8.044856558000902,,,,,,,,,,,,,,,,,,,,,,,,,,,,030819_p1,001,2019_Mar_08_1213,body_behavioural,3.0.4,59.84914662825267,
1,They were also both very busy and in the same class.,1,1,,,,0,1,1,1,,,,,0,2,2,2,,,,,,,,,,,,,,,,,,,,,,,,,,,,,1,2.071188820991665,,,,,,,,,,,,,,,,,,,,,,,,,,,,030819_p1,001,2019_Mar_08_1213,body_behavioural,3.0.4,59.84914662825267,
1,"After talking at a party, Charlie had discovered that Alma was looking for financing for her web development company.",1,1,,,,0,1,1,1,,,,,0,3,3,3,,,,,,,,,,,,,,,,,,,,,,,,,,,,,1,4.119632387999445,,,,,,,,,,,,,,,,,,,,,,,,,,,,030819_p1,001,2019_Mar_08_1213,body_behavioural,3.0.4,59.84914662825267,
1,It was serendipitous because he had been talking with other members of his venture capital group about making an investment. ,1,1,,,,0,1,1,1,,,,,0,4,4,4,,,,,,,,,,,,,,,,,,,,,,,,,,,,,1,8.203848984994693,,,,,,,,,,,,,,,,,,,,,,,,,,,,030819_p1,001,2019_Mar_08_1213,body_behavioural,3.0.4,59.84914662825267,
1,"His financial group had come to a decision that morning about Alma’s idea, and he didn't want to wait until after class to discuss the proposal with her. ",1,1,,,,0,1,1,1,,,,,0,5,5,5,,,,,,,,,,,,,,,,,,,,,,,,,,,,,1,6.370578093017684,,,,,,,,,,,,,,,,,,,,,,,,,,,,030819_p1,001,2019_Mar_08_1213,body_behavioural,3.0.4,59.84914662825267,
1,"The class was in a large auditorium with small, foldable desks on the side of each cushioned chair. ",1,1,,,,0,1,1,1,,,,,0,6,6,6,,,,,,,,,,,,,,,,,,,,,,,,,,,,,9,7.30305950998445,,,,,,,,,,,,,,,,,,,,,,,,,,,,030819_p1,001,2019_Mar_08_1213,body_behavioural,3.0.4,59.84914662825267,
1,"There were large windows on both sides of the hall, and they could see the first flurries of a winter storm starting outside. ",1,1,,,,0,1,1,1,,,,,0,7,7,7,,,,,,,,,,,,,,,,,,,,,,,,,,,,,1,5.520055679982761,,,,,,,,,,,,,,,,,,,,,,,,,,,,030819_p1,001,2019_Mar_08_1213,body_behavioural,3.0.4,59.84914662825267,
1,"“Here we are at Lecture Seven already in History of the Eternal City,” said the professor. ",2,1,,,,0,1,1,1,,,,,0,8,8,8,,,,,,,,,,,,,,,,,,,,,,,,,,,,,9,4.6867519179941155,,,,,,,,,,,,,,,,,,,,,,,,,,,,030819_p1,001,2019_Mar_08_1213,body_behavioural,3.0.4,59.84914662825267,
1,“We're going to talk today about the age of the first Roman emperor: Augustus.” ,2,1,,,,0,1,1,1,,,,,0,9,9,9,,,,,,,,,,,,,,,,,,,,,,,,,,,,,1,2.819584365002811,,,,,,,,,,,,,,,,,,,,,,,,,,,,030819_p1,001,2019_Mar_08_1213,body_behavioural,3.0.4,59.84914662825267,
1,"She went into some recap of the last lecture, and Charlie took this as an opportunity to start talking to Alma.",2,1,,,,0,1,1,1,,,,,0,10,10,10,,,,,,,,,,,,,,,,,,,,,,,,,,,,,1,6.1850010710186325,,,,,,,,,,,,,,,,,,,,,,,,,,,,030819_p1,001,2019_Mar_08_1213,body_behavioural,3.0.4,59.84914662825267,
1,"“Okay so I’ve been thinking about your startup idea, and I have talked about it with my fellow investors.",2,2,,,,0,1,1,1,,,,,0,11,11,11,,,,,,,,,,,,,,,,,,,,,,,,,,,,,9,4.502918042999227,,,,,,,,,,,,,,,,,,,,,,,,,,,,030819_p1,001,2019_Mar_08_1213,body_behavioural,3.0.4,59.84914662825267,
1,We’d like to invest half of what you originally suggested.,2,2,,,,0,1,1,1,,,,,0,12,12,12,,,,,,,,,,,,,,,,,,,,,,,,,,,,,1,8.287037115020212,,,,,,,,,,,,,,,,,,,,,,,,,,,,030819_p1,001,2019_Mar_08_1213,body_behavioural,3.0.4,59.84914662825267,
1,"Rather than $30,000, we start with $15,000.",2,2,,,,0,1,1,1,,,,,0,13,13,13,,,,,,,,,,,,,,,,,,,,,,,,,,,,,1,3.7696404570015147,,,,,,,,,,,,,,,,,,,,,,,,,,,,030819_p1,001,2019_Mar_08_1213,body_behavioural,3.0.4,59.84914662825267,
1,We would see how the company does and then invest the other half later.” ,2,2,,,,0,1,1,1,,,,,0,14,14,14,,,,,,,,,,,,,,,,,,,,,,,,,,,,,1,4.335191641992424,,,,,,,,,,,,,,,,,,,,,,,,,,,,030819_p1,001,2019_Mar_08_1213,body_behavioural,3.0.4,59.84914662825267,
1,"Alma, tapping her pen on her notebook, narrowed her eyes and pursed her lips.",2,2,,,,0,1,1,1,,,,,0,15,15,15,,,,,,,,,,,,,,,,,,,,,,,,,,,,,1,2.9874317619833164,,,,,,,,,,,,,,,,,,,,,,,,,,,,030819_p1,001,2019_Mar_08_1213,body_behavioural,3.0.4,59.84914662825267,
1,She turned back to the lecture as she considered this.,2,2,,,,0,1,1,1,,,,,0,16,16,16,,,,,,,,,,,,,,,,,,,,,,,,,,,,,1,2.836265595018631,,,,,,,,,,,,,,,,,,,,,,,,,,,,030819_p1,001,2019_Mar_08_1213,body_behavioural,3.0.4,59.84914662825267,
1,"The professor was going on: “The senate had conferred upon him the title of Augustus the sacred and revered one, the restorer of traditional values, the city’s new religious leader, the restorer of temples. ",3,2,,,,0,1,1,1,,,,,0,17,17,17,,,,,,,,,,,,,,,,,,,,,,,,,,,,,9,7.8199917699967045,,,,,,,,,,,,,,,,,,,,,,,,,,,,030819_p1,001,2019_Mar_08_1213,body_behavioural,3.0.4,59.84914662825267,
1,"Augustus also sought to beautify Rome, make it into a new Athens, and dispel the criticisms of Rome as disorganized and ugly.”",3,2,,,,0,1,1,1,,,,,0,18,18,18,,,,,,,,,,,,,,,,,,,,,,,,,,,,,1,6.186180051008705,,,,,,,,,,,,,,,,,,,,,,,,,,,,030819_p1,001,2019_Mar_08_1213,body_behavioural,3.0.4,59.84914662825267,
1,"Alma turned back to Charlie and offered her rebuttal, “I don’t know about that: it’s not going to be possible to implement our ideas effectively unless the project is fully funded. ",3,3,,,,0,1,1,1,,,,,0,19,19,19,,,,,,,,,,,,,,,,,,,,,,,,,,,,,9,9.937707081990084,,,,,,,,,,,,,,,,,,,,,,,,,,,,030819_p1,001,2019_Mar_08_1213,body_behavioural,3.0.4,59.84914662825267,
1,We would have to find other investors and that would set us back in our timeline. ,3,3,,,,0,1,1,1,,,,,0,20,20,20,,,,,,,,,,,,,,,,,,,,,,,,,,,,,1,5.736841425008606,,,,,,,,,,,,,,,,,,,,,,,,,,,,030819_p1,001,2019_Mar_08_1213,body_behavioural,3.0.4,59.84914662825267,
1,"Our profit projections assumed we'd be starting relatively soon, not months down the line.” ",3,3,,,,0,1,1,1,,,,,0,21,21,21,,,,,,,,,,,,,,,,,,,,,,,,,,,,,1,5.452267329994356,,,,,,,,,,,,,,,,,,,,,,,,,,,,030819_p1,001,2019_Mar_08_1213,body_behavioural,3.0.4,59.84914662825267,
1,They whispered back and forth during the whole class in order to work out a compromise. ,3,3,,,,0,1,1,1,,,,,0,22,22,22,,,,,,,,,,,,,,,,,,,,,,,,,,,,,1,7.720561486989027,,,,,,,,,,,,,,,,,,,,,,,,,,,,030819_p1,001,2019_Mar_08_1213,body_behavioural,3.0.4,59.84914662825267,
1,"Finally, the class ended, and the professor dismissed the students with a reminder that the midterm paper was due on Thursday and that they should email their papers to the TA.",4,3,,,,0,1,1,1,,,,,0,23,23,23,,,,,,,,,,,,,,,,,,,,,,,,,,,,,9,6.4033013849984854,,,,,,,,,,,,,,,,,,,,,,,,,,,,030819_p1,001,2019_Mar_08_1213,body_behavioural,3.0.4,59.84914662825267,
1,"Everyone, except Charlie and Alma, packed up their things and headed out of the lecture hall to get to their next class. ",4,3,,,,0,1,1,1,,,,,0,24,24,24,,,,,,,,,,,,,,,,,,,,,,,,,,,,,9,7.770366835000459,,,,,,,,,,,,,,,,,,,,,,,,,,,,030819_p1,001,2019_Mar_08_1213,body_behavioural,3.0.4,59.84914662825267,
1,"“Alright, so we’ll have the $30,000 wired to you by tomorrow,” Charlie said. ",4,4,,,,0,1,1,1,,,,,0,25,25,25,,,,,,,,,,,,,,,,,,,,,,,,,,,,,1,6.169535164983245,,,,,,,,,,,,,,,,,,,,,,,,,,,,030819_p1,001,2019_Mar_08_1213,body_behavioural,3.0.4,59.84914662825267,
1,"This wasn't ideal for Charlie, but Alma had refused to budge, and his investment group had told him they were willing to pay the full amount if necessary. ",4,4,,,,0,1,1,1,,,,,0,26,26,26,,,,,,,,,,,,,,,,,,,,,,,,,,,,,1,8.00069446201087,,,,,,,,,,,,,,,,,,,,,,,,,,,,030819_p1,001,2019_Mar_08_1213,body_behavioural,3.0.4,59.84914662825267,
1,"They shook hands, walked out of the now-empty lecture hall, and made plans to sign the official paperwork the next day.",4,4,,,,0,1,1,1,,,,,0,27,27,27,,,,,,,,,,,,,,,,,,,,,,,,,,,,,1,3.1356849169824272,,,,,,,,,,,,,,,,,,,,,,,,,,,,030819_p1,001,2019_Mar_08_1213,body_behavioural,3.0.4,59.84914662825267,
1,,,,,,,0,1,1,1,,,,,,,,,,,,,,,,,,,,,,,,,,,,,,,,,,,,,,,,,,,,,,,,,,,,,,,,,,,,,,,,,,030819_p1,001,2019_Mar_08_1213,body_behavioural,3.0.4,59.84914662825267,
2,,,,,,,0,2,2,2,0,0,0,0,,,,,,,,,,,,,,,,,,,,,,,,,,,space,2.4871638340118807,space,1.2028771819896065,space,2.502994075010065,,,,,,,,,,,,,,,,,,,,,,,,,,,,,,030819_p1,001,2019_Mar_08_1213,body_behavioural,3.0.4,59.84914662825267,
2,"It didn’t help the situation that Calvin and Jessie were running late to the airport, since Jessie had already been fuming at Calvin and preparing to end things with him.",1,1,,,,0,2,2,2,,,,,0,0,0,0,,,,,,,,,,,,,,,,,,,,,,,,,,,,,9,9.954007922002347,,,,,,,,,,,,,,,,,,,,,,,,,,,,030819_p1,001,2019_Mar_08_1213,body_behavioural,3.0.4,59.84914662825267,
2,"Upon arriving, they had only 45 minutes until their international flight would depart from Jamaica for the US.",1,1,,,,0,2,2,2,,,,,0,1,1,1,,,,,,,,,,,,,,,,,,,,,,,,,,,,,1,7.4343792849977035,,,,,,,,,,,,,,,,,,,,,,,,,,,,030819_p1,001,2019_Mar_08_1213,body_behavioural,3.0.4,59.84914662825267,
2,It had been a tough vacation for them.,1,1,,,,0,2,2,2,,,,,0,2,2,2,,,,,,,,,,,,,,,,,,,,,,,,,,,,,1,4.26955015497515,,,,,,,,,,,,,,,,,,,,,,,,,,,,030819_p1,001,2019_Mar_08_1213,body_behavioural,3.0.4,59.84914662825267,
2,"Jessie had really had it with Calvin’s constant ramblings about the same excruciatingly boring golfing and work stories, which he insisted on repeating to her regardless of how little interest she showed.",1,1,,,,0,2,2,2,,,,,0,3,3,3,,,,,,,,,,,,,,,,,,,,,,,,,,,,,1,9.954101769981207,,,,,,,,,,,,,,,,,,,,,,,,,,,,030819_p1,001,2019_Mar_08_1213,body_behavioural,3.0.4,59.84914662825267,
2,"Calvin knew that Jessie was upset, but wasn't sure what to do besides attempting to carry on as normal and tell stories that took up the silence. ",1,1,,,,0,2,2,2,,,,,0,4,4,4,,,,,,,,,,,,,,,,,,,,,,,,,,,,,1,9.434596659993986,,,,,,,,,,,,,,,,,,,,,,,,,,,,030819_p1,001,2019_Mar_08_1213,body_behavioural,3.0.4,59.84914662825267,
2,"The security line was luckily very short, and once the online boarding passes were scanned they were ushered quickly through the metal detector, not having to take off their shoes or remove the liquids from their bags.",2,1,,,,0,2,2,2,,,,,0,5,5,5,,,,,,,,,,,,,,,,,,,,,,,,,,,,,9,8.287115229992196,,,,,,,,,,,,,,,,,,,,,,,,,,,,030819_p1,001,2019_Mar_08_1213,body_behavioural,3.0.4,59.84914662825267,
2,"“The infrastructure of this airport is really quite poor," said Calvin as they waited for their bags to emerge from the x-ray machine.",2,1,,,,0,2,2,2,,,,,0,6,6,6,,,,,,,,,,,,,,,,,,,,,,,,,,,,,1,3.7001353270024993,,,,,,,,,,,,,,,,,,,,,,,,,,,,030819_p1,001,2019_Mar_08_1213,body_behavioural,3.0.4,59.84914662825267,
2,“I really could've hidden something in my shoes quite easily.” ,2,1,,,,0,2,2,2,,,,,0,7,7,7,,,,,,,,,,,,,,,,,,,,,,,,,,,,,1,1.1534503659931943,,,,,,,,,,,,,,,,,,,,,,,,,,,,030819_p1,001,2019_Mar_08_1213,body_behavioural,3.0.4,59.84914662825267,
2,"Jessie, exasperated at his need to broadcast his every inner thought, scowled at the conveyor belt.",2,1,,,,0,2,2,2,,,,,0,8,8,8,,,,,,,,,,,,,,,,,,,,,,,,,,,,,1,7.55388086498715,,,,,,,,,,,,,,,,,,,,,,,,,,,,030819_p1,001,2019_Mar_08_1213,body_behavioural,3.0.4,59.84914662825267,
2,"“What?”, he asked.",2,1,,,,0,2,2,2,,,,,0,9,9,9,,,,,,,,,,,,,,,,,,,,,,,,,,,,,1,2.386605037987465,,,,,,,,,,,,,,,,,,,,,,,,,,,,030819_p1,001,2019_Mar_08_1213,body_behavioural,3.0.4,59.84914662825267,
2,She balled up her fists and turned to face him.,2,1,,,,0,2,2,2,,,,,0,10,10,10,,,,,,,,,,,,,,,,,,,,,,,,,,,,,1,3.886936989991227,,,,,,,,,,,,,,,,,,,,,,,,,,,,030819_p1,001,2019_Mar_08_1213,body_behavioural,3.0.4,59.84914662825267,
2,"“Calvin, I really don’t think I can do this anymore.",2,2,,,,0,2,2,2,,,,,0,11,11,11,,,,,,,,,,,,,,,,,,,,,,,,,,,,,1,2.3364852349914145,,,,,,,,,,,,,,,,,,,,,,,,,,,,030819_p1,001,2019_Mar_08_1213,body_behavioural,3.0.4,59.84914662825267,
2,I think it’s best that once we get to the States we part ways for good.” ,2,2,,,,0,2,2,2,,,,,0,12,12,12,,,,,,,,,,,,,,,,,,,,,,,,,,,,,1,3.5863573850074317,,,,,,,,,,,,,,,,,,,,,,,,,,,,030819_p1,001,2019_Mar_08_1213,body_behavioural,3.0.4,59.84914662825267,
2,Calvin said nothing as he grabbed his bag and quickly walked away.,2,2,,,,0,2,2,2,,,,,0,13,13,13,,,,,,,,,,,,,,,,,,,,,,,,,,,,,1,3.403182909998577,,,,,,,,,,,,,,,,,,,,,,,,,,,,030819_p1,001,2019_Mar_08_1213,body_behavioural,3.0.4,59.84914662825267,
2,"Jessie trailed behind him as they made their way quickly toward their gate, shouting at his back in hopes of getting a response.",3,2,,,,0,2,2,2,,,,,0,14,14,14,,,,,,,,,,,,,,,,,,,,,,,,,,,,,1,4.086474517011084,,,,,,,,,,,,,,,,,,,,,,,,,,,,030819_p1,001,2019_Mar_08_1213,body_behavioural,3.0.4,59.84914662825267,
2,“So now you have nothing to say?,3,2,,,,0,2,2,2,,,,,0,15,15,15,,,,,,,,,,,,,,,,,,,,,,,,,,,,,1,3.1033340579888318,,,,,,,,,,,,,,,,,,,,,,,,,,,,030819_p1,001,2019_Mar_08_1213,body_behavioural,3.0.4,59.84914662825267,
2,"Every time we talk, you are just looking for a way to steer the conversation back into your stories.”",3,2,,,,0,2,2,2,,,,,0,16,16,16,,,,,,,,,,,,,,,,,,,,,,,,,,,,,1,3.5864803250005934,,,,,,,,,,,,,,,,,,,,,,,,,,,,030819_p1,001,2019_Mar_08_1213,body_behavioural,3.0.4,59.84914662825267,
2,"Calvin didn't slow his pace, gritting his teeth and staring straight ahead. ",3,2,,,,0,2,2,2,,,,,0,17,17,17,,,,,,,,,,,,,,,,,,,,,,,,,,,,,1,3.603627435019007,,,,,,,,,,,,,,,,,,,,,,,,,,,,030819_p1,001,2019_Mar_08_1213,body_behavioural,3.0.4,59.84914662825267,
2,He was very frustrated that he had been trying to appease Jessie this whole time and this was how she responded. ,3,2,,,,0,2,2,2,,,,,0,18,18,18,,,,,,,,,,,,,,,,,,,,,,,,,,,,,1,4.0530518800078426,,,,,,,,,,,,,,,,,,,,,,,,,,,,030819_p1,001,2019_Mar_08_1213,body_behavioural,3.0.4,59.84914662825267,
2,The silence was punctuated only by the rapid rhythmic clacking of their suitcase wheels over the tile floor as they continued power-walking through the terminal. ,3,2,,,,0,2,2,2,,,,,0,19,19,19,,,,,,,,,,,,,,,,,,,,,,,,,,,,,9,4.60332699000719,,,,,,,,,,,,,,,,,,,,,,,,,,,,030819_p1,001,2019_Mar_08_1213,body_behavioural,3.0.4,59.84914662825267,
2,"“Well?” Jessie said, and Calvin finally turned to her.",3,2,,,,0,2,2,2,,,,,0,20,20,20,,,,,,,,,,,,,,,,,,,,,,,,,,,,,1,2.569720175000839,,,,,,,,,,,,,,,,,,,,,,,,,,,,030819_p1,001,2019_Mar_08_1213,body_behavioural,3.0.4,59.84914662825267,
2,"“Well, Jessie, this makes perfect sense. ",3,3,,,,0,2,2,2,,,,,0,21,21,21,,,,,,,,,,,,,,,,,,,,,,,,,,,,,1,4.070076127012726,,,,,,,,,,,,,,,,,,,,,,,,,,,,030819_p1,001,2019_Mar_08_1213,body_behavioural,3.0.4,59.84914662825267,
2,"If you feel this way, then I don’t want to keep boring you, and I agree, let’s part ways once we make it back.",3,3,,,,0,2,2,2,,,,,0,22,22,22,,,,,,,,,,,,,,,,,,,,,,,,,,,,,1,7.053655488009099,,,,,,,,,,,,,,,,,,,,,,,,,,,,030819_p1,001,2019_Mar_08_1213,body_behavioural,3.0.4,59.84914662825267,
2,You should’ve spoken up about my apparent intolerability before you decided to plan this vacation.”,3,3,,,,0,2,2,2,,,,,0,23,23,23,,,,,,,,,,,,,,,,,,,,,,,,,,,,,1,4.870374399994034,,,,,,,,,,,,,,,,,,,,,,,,,,,,030819_p1,001,2019_Mar_08_1213,body_behavioural,3.0.4,59.84914662825267,
2,"He was clearly hurt, but thought it was pointless to argue. ",3,3,,,,0,2,2,2,,,,,0,24,24,24,,,,,,,,,,,,,,,,,,,,,,,,,,,,,1,2.38648921798449,,,,,,,,,,,,,,,,,,,,,,,,,,,,030819_p1,001,2019_Mar_08_1213,body_behavioural,3.0.4,59.84914662825267,
2,"They finally made it to the gate, just as they heard the final call for passengers boarding their flight.",3,3,,,,0,2,2,2,,,,,0,25,25,25,,,,,,,,,,,,,,,,,,,,,,,,,,,,,9,4.486093346000416,,,,,,,,,,,,,,,,,,,,,,,,,,,,030819_p1,001,2019_Mar_08_1213,body_behavioural,3.0.4,59.84914662825267,
2,"They scanned their tickets, and the annoyed flight attendant shooed them onto the jet bridge and then closed the door behind them.",4,3,,,,0,2,2,2,,,,,0,26,26,26,,,,,,,,,,,,,,,,,,,,,,,,,,,,,1,5.769739334995393,,,,,,,,,,,,,,,,,,,,,,,,,,,,030819_p1,001,2019_Mar_08_1213,body_behavioural,3.0.4,59.84914662825267,
2,"Luckily, they had forgotten to arrange seats next to each other on the flight back.",4,3,,,,0,2,2,2,,,,,0,27,27,27,,,,,,,,,,,,,,,,,,,,,,,,,,,,,1,3.153380500007188,,,,,,,,,,,,,,,,,,,,,,,,,,,,030819_p1,001,2019_Mar_08_1213,body_behavioural,3.0.4,59.84914662825267,
2,"They both had first-class tickets, but Jessie was headed for seat 1B while Calvin's seat was 4F. ",4,3,,,,0,2,2,2,,,,,0,28,28,28,,,,,,,,,,,,,,,,,,,,,,,,,,,,,1,4.567692949989578,,,,,,,,,,,,,,,,,,,,,,,,,,,,030819_p1,001,2019_Mar_08_1213,body_behavioural,3.0.4,59.84914662825267,
2,"Before Jessie sat down, she took a deep breath and then awkwardly shook Calvin’s hand, mumbling, “Well, have a nice flight.” ",4,4,,,,0,2,2,2,,,,,0,29,29,29,,,,,,,,,,,,,,,,,,,,,,,,,,,,,1,3.8527918879990466,,,,,,,,,,,,,,,,,,,,,,,,,,,,030819_p1,001,2019_Mar_08_1213,body_behavioural,3.0.4,59.84914662825267,
2,He laughed in disbelief and walked to his window seat three rows back to get ready for takeoff.,4,4,,,,0,2,2,2,,,,,0,30,30,30,,,,,,,,,,,,,,,,,,,,,,,,,,,,,1,3.4534654619928915,,,,,,,,,,,,,,,,,,,,,,,,,,,,030819_p1,001,2019_Mar_08_1213,body_behavioural,3.0.4,59.84914662825267,
2,Both were upset but glad that they would have this flight to mull things over and recenter. ,4,4,,,,0,2,2,2,,,,,0,31,31,31,,,,,,,,,,,,,,,,,,,,,,,,,,,,,1,4.752541374997236,,,,,,,,,,,,,,,,,,,,,,,,,,,,030819_p1,001,2019_Mar_08_1213,body_behavioural,3.0.4,59.84914662825267,
2,,,,,,,0,2,2,2,,,,,,,,,,,,,,,,,,,,,,,,,,,,,,,,,,,,,,,,,,,,,,,,,,,,,,,,,,,,,,,,,,030819_p1,001,2019_Mar_08_1213,body_behavioural,3.0.4,59.84914662825267,
3,,,,,,,0,3,3,3,0,0,0,0,,,,,,,,,,,,,,,,,,,,,,,,,,,space,1.6197848900046665,space,1.134981217008317,space,5.120494678005343,,,,,,,,,,,,,,,,,,,,,,,,,,,,,,030819_p1,001,2019_Mar_08_1213,body_behavioural,3.0.4,59.84914662825267,
3,"Leon and  Ariana hurried into the classroom at the same time, and Leon did a double-take when he saw her. ",1,1,,,,0,3,3,3,,,,,0,0,0,0,,,,,,,,,,,,,,,,,,,,,,,,,,,,,9,4.554170640010852,,,,,,,,,,,,,,,,,,,,,,,,,,,,030819_p1,001,2019_Mar_08_1213,body_behavioural,3.0.4,59.84914662825267,
3,"This was his first day after transferring to this university, and he had assumed that he wouldn’t know anyone on campus, but he couldn't shake the nagging feeling  that he had seen her somewhere before. ",1,1,,,,0,3,3,3,,,,,0,1,1,1,,,,,,,,,,,,,,,,,,,,,,,,,,,,,1,10.253794552991167,,,,,,,,,,,,,,,,,,,,,,,,,,,,030819_p1,001,2019_Mar_08_1213,body_behavioural,3.0.4,59.84914662825267,
3,"They were both a bit late, so they quickly slid into seats next to each other in the back of the small classroom.",1,1,,,,0,3,3,3,,,,,0,2,2,2,,,,,,,,,,,,,,,,,,,,,,,,,,,,,1,7.268146479997085,,,,,,,,,,,,,,,,,,,,,,,,,,,,030819_p1,001,2019_Mar_08_1213,body_behavioural,3.0.4,59.84914662825267,
3,"This room was usually used for small meetings, but had been rearranged with the table pushed to the side and chairs set up in rows to face the projector screen. ",1,1,,,,0,3,3,3,,,,,0,3,3,3,,,,,,,,,,,,,,,,,,,,,,,,,,,,,1,6.884531836985843,,,,,,,,,,,,,,,,,,,,,,,,,,,,030819_p1,001,2019_Mar_08_1213,body_behavioural,3.0.4,59.84914662825267,
3,"There were no windows in the room, since they were down in the sub-basement of the history department.",1,1,,,,0,3,3,3,,,,,0,4,4,4,,,,,,,,,,,,,,,,,,,,,,,,,,,,,1,4.569972350000171,,,,,,,,,,,,,,,,,,,,,,,,,,,,030819_p1,001,2019_Mar_08_1213,body_behavioural,3.0.4,59.84914662825267,
3,"Leon, trying to figure out where he had seen her before, could not stop looking over at Ariana.",1,1,,,,0,3,3,3,,,,,0,5,5,5,,,,,,,,,,,,,,,,,,,,,,,,,,,,,1,3.8694789999863133,,,,,,,,,,,,,,,,,,,,,,,,,,,,030819_p1,001,2019_Mar_08_1213,body_behavioural,3.0.4,59.84914662825267,
3,Ariana was oblivious to Leon’s gaze and was only focused on getting ready for class. ,1,1,,,,0,3,3,3,,,,,0,6,6,6,,,,,,,,,,,,,,,,,,,,,,,,,,,,,1,3.8868041099922266,,,,,,,,,,,,,,,,,,,,,,,,,,,,030819_p1,001,2019_Mar_08_1213,body_behavioural,3.0.4,59.84914662825267,
3,"“Good afternoon class,” the professor began.",2,1,,,,0,3,3,3,,,,,0,7,7,7,,,,,,,,,,,,,,,,,,,,,,,,,,,,,1,4.936647397000343,,,,,,,,,,,,,,,,,,,,,,,,,,,,030819_p1,001,2019_Mar_08_1213,body_behavioural,3.0.4,59.84914662825267,
3,“Welcome to Egyptian Cultural Studies. ,2,1,,,,0,3,3,3,,,,,0,8,8,8,,,,,,,,,,,,,,,,,,,,,,,,,,,,,1,2.686651476979023,,,,,,,,,,,,,,,,,,,,,,,,,,,,030819_p1,001,2019_Mar_08_1213,body_behavioural,3.0.4,59.84914662825267,
3,"Today we will be talking about mummification, one of the most famous and often misunderstood customs in ancient Egyptian society.”",2,1,,,,0,3,3,3,,,,,0,9,9,9,,,,,,,,,,,,,,,,,,,,,,,,,,,,,1,3.7699096420255955,,,,,,,,,,,,,,,,,,,,,,,,,,,,030819_p1,001,2019_Mar_08_1213,body_behavioural,3.0.4,59.84914662825267,
3,Leon pulled out his notebook and tried to concentrate on the class.,2,1,,,,0,3,3,3,,,,,0,10,10,10,,,,,,,,,,,,,,,,,,,,,,,,,,,,,1,2.9532231720222626,,,,,,,,,,,,,,,,,,,,,,,,,,,,030819_p1,001,2019_Mar_08_1213,body_behavioural,3.0.4,59.84914662825267,
3,Within a few minutes though he found his attention wandering back to Ariana.,2,1,,,,0,3,3,3,,,,,0,11,11,11,,,,,,,,,,,,,,,,,,,,,,,,,,,,,1,3.6001040090050083,,,,,,,,,,,,,,,,,,,,,,,,,,,,030819_p1,001,2019_Mar_08_1213,body_behavioural,3.0.4,59.84914662825267,
3,"He decided to do something about his hunch so he ripped off a corner of a page in his notebook, wrote a note, and set it on her desk.",2,1,,,,0,3,3,3,,,,,0,12,12,12,,,,,,,,,,,,,,,,,,,,,,,,,,,,,9,6.303429644991411,,,,,,,,,,,,,,,,,,,,,,,,,,,,030819_p1,001,2019_Mar_08_1213,body_behavioural,3.0.4,59.84914662825267,
3,"“Hi, sorry to distract you from mummies, but you look really familiar," it read.",2,2,,,,0,3,3,3,,,,,0,13,13,13,,,,,,,,,,,,,,,,,,,,,,,,,,,,,1,4.918686457007425,,,,,,,,,,,,,,,,,,,,,,,,,,,,030819_p1,001,2019_Mar_08_1213,body_behavioural,3.0.4,59.84914662825267,
3,It continued: “Do I know you from somewhere?”,2,2,,,,0,3,3,3,,,,,0,14,14,14,,,,,,,,,,,,,,,,,,,,,,,,,,,,,1,2.73709350801073,,,,,,,,,,,,,,,,,,,,,,,,,,,,030819_p1,001,2019_Mar_08_1213,body_behavioural,3.0.4,59.84914662825267,
3,"She looked at the note with surprise, and then turned to notice Leon for the first time. ",2,2,,,,0,3,3,3,,,,,0,15,15,15,,,,,,,,,,,,,,,,,,,,,,,,,,,,,1,7.168696887005353,,,,,,,,,,,,,,,,,,,,,,,,,,,,030819_p1,001,2019_Mar_08_1213,body_behavioural,3.0.4,59.84914662825267,
3,"She instantly liked him when she saw him; he had very soft eyes and sharp features, a combination that made him seem  trustworthy and genuine.",2,2,,,,0,3,3,3,,,,,0,16,16,16,,,,,,,,,,,,,,,,,,,,,,,,,,,,,1,6.120487573003629,,,,,,,,,,,,,,,,,,,,,,,,,,,,030819_p1,001,2019_Mar_08_1213,body_behavioural,3.0.4,59.84914662825267,
3,He smiled at her and she flashed him a smile back.,2,2,,,,0,3,3,3,,,,,0,17,17,17,,,,,,,,,,,,,,,,,,,,,,,,,,,,,1,3.4364328249939717,,,,,,,,,,,,,,,,,,,,,,,,,,,,030819_p1,001,2019_Mar_08_1213,body_behavioural,3.0.4,59.84914662825267,
3,Then she turned the note over to the back and started to write a reply.,2,2,,,,0,3,3,3,,,,,0,18,18,18,,,,,,,,,,,,,,,,,,,,,,,,,,,,,1,4.518132383003831,,,,,,,,,,,,,,,,,,,,,,,,,,,,030819_p1,001,2019_Mar_08_1213,body_behavioural,3.0.4,59.84914662825267,
3,"Meanwhile the professor continued, “One may well question why the ancient Egyptians spent so much time and effort on their funerary practices.",3,2,,,,0,3,3,3,,,,,0,19,19,19,,,,,,,,,,,,,,,,,,,,,,,,,,,,,1,6.834939638007199,,,,,,,,,,,,,,,,,,,,,,,,,,,,030819_p1,001,2019_Mar_08_1213,body_behavioural,3.0.4,59.84914662825267,
3,"Not only was the mummification process itself a complicated affair, but there were also elaborate rituals before, during, and after death.",3,2,,,,0,3,3,3,,,,,0,20,20,20,,,,,,,,,,,,,,,,,,,,,,,,,,,,,1,4.520390602992848,,,,,,,,,,,,,,,,,,,,,,,,,,,,030819_p1,001,2019_Mar_08_1213,body_behavioural,3.0.4,59.84914662825267,
3,The practice required teams of experts with years of training and took a total of 70 days to complete.” ,3,2,,,,0,3,3,3,,,,,0,21,21,21,,,,,,,,,,,,,,,,,,,,,,,,,,,,,1,10.720441479992587,,,,,,,,,,,,,,,,,,,,,,,,,,,,030819_p1,001,2019_Mar_08_1213,body_behavioural,3.0.4,59.84914662825267,
3,"Ariana passed the note back to Leon, and she had replied, “No, but maybe my twin and I were separated at birth.”",3,2,,,,0,3,3,3,,,,,0,22,22,22,,,,,,,,,,,,,,,,,,,,,,,,,,,,,1,5.1196032850129995,,,,,,,,,,,,,,,,,,,,,,,,,,,,030819_p1,001,2019_Mar_08_1213,body_behavioural,3.0.4,59.84914662825267,
3,They passed notes back and forth the whole class like they were back in high school.,3,2,,,,0,3,3,3,,,,,0,23,23,23,,,,,,,,,,,,,,,,,,,,,,,,,,,,,1,3.7198097899963614,,,,,,,,,,,,,,,,,,,,,,,,,,,,030819_p1,001,2019_Mar_08_1213,body_behavioural,3.0.4,59.84914662825267,
3,"Near the end of the lecture, Leon wrote, “Would you like to go to dinner tonight?” ",3,3,,,,0,3,3,3,,,,,0,24,24,24,,,,,,,,,,,,,,,,,,,,,,,,,,,,,9,4.720275160012534,,,,,,,,,,,,,,,,,,,,,,,,,,,,030819_p1,001,2019_Mar_08_1213,body_behavioural,3.0.4,59.84914662825267,
3,"Ariana read the note, and looked at him and nodded her head",3,3,,,,0,3,3,3,,,,,0,25,25,25,,,,,,,,,,,,,,,,,,,,,,,,,,,,,1,2.5031702070264146,,,,,,,,,,,,,,,,,,,,,,,,,,,,030819_p1,001,2019_Mar_08_1213,body_behavioural,3.0.4,59.84914662825267,
3,"She wrote back on the slip of paper, “Pick me up at 6 in front of Patton Hall.”",3,3,,,,0,3,3,3,,,,,0,26,26,26,,,,,,,,,,,,,,,,,,,,,,,,,,,,,1,3.636594862007769,,,,,,,,,,,,,,,,,,,,,,,,,,,,030819_p1,001,2019_Mar_08_1213,body_behavioural,3.0.4,59.84914662825267,
3,Then the professor ended the lecture and announced to the class that they would have their first quiz next class on Friday on mummification. ,4,3,,,,0,3,3,3,,,,,0,27,27,27,,,,,,,,,,,,,,,,,,,,,,,,,,,,,1,4.95269285098766,,,,,,,,,,,,,,,,,,,,,,,,,,,,030819_p1,001,2019_Mar_08_1213,body_behavioural,3.0.4,59.84914662825267,
3,"Everyone packed up and started heading out, as well as Sophie and Leon.",4,3,,,,0,3,3,3,,,,,0,28,28,28,,,,,,,,,,,,,,,,,,,,,,,,,,,,,1,3.203718138014665,,,,,,,,,,,,,,,,,,,,,,,,,,,,030819_p1,001,2019_Mar_08_1213,body_behavioural,3.0.4,59.84914662825267,
3,"They approached each other smiling, and Leon said, “Well it was great to meet you, again, or maybe not again, but regardless it was great to meet you.” ",4,3,,,,0,3,3,3,,,,,0,29,29,29,,,,,,,,,,,,,,,,,,,,,,,,,,,,,9,7.137054199993145,,,,,,,,,,,,,,,,,,,,,,,,,,,,030819_p1,001,2019_Mar_08_1213,body_behavioural,3.0.4,59.84914662825267,
3,"She replied, “Yes, it was.",4,4,,,,0,3,3,3,,,,,0,30,30,30,,,,,,,,,,,,,,,,,,,,,,,,,,,,,1,1.9532104549871292,,,,,,,,,,,,,,,,,,,,,,,,,,,,030819_p1,001,2019_Mar_08_1213,body_behavioural,3.0.4,59.84914662825267,
3,"I have to run to my next class, but I’ll see you later tonight.” ",4,4,,,,0,3,3,3,,,,,0,31,31,31,,,,,,,,,,,,,,,,,,,,,,,,,,,,,1,2.636188714997843,,,,,,,,,,,,,,,,,,,,,,,,,,,,030819_p1,001,2019_Mar_08_1213,body_behavioural,3.0.4,59.84914662825267,
3,"She waved as they parted ways outside of the door of the classroom, and Leon was still trying to figure out where he had seen her before as he watched her go. ",4,4,,,,0,3,3,3,,,,,0,32,32,32,,,,,,,,,,,,,,,,,,,,,,,,,,,,,1,4.968891428987263,,,,,,,,,,,,,,,,,,,,,,,,,,,,030819_p1,001,2019_Mar_08_1213,body_behavioural,3.0.4,59.84914662825267,
3,,,,,,,0,3,3,3,,,,,,,,,,,,,,,,,,,,,,,,,,,,,,,,,,,,,,,,,,,,,,,,,,,,,,,,,,,,,,,,,,030819_p1,001,2019_Mar_08_1213,body_behavioural,3.0.4,59.84914662825267,
4,,,,,,,0,4,4,4,0,0,0,0,,,,,,,,,,,,,,,,,,,,,,,,,,,space,1.503500199993141,space,1.45265596700483,space,1.2194689650204964,,,,,,,,,,,,,,,,,,,,,,,,,,,,,,030819_p1,001,2019_Mar_08_1213,body_behavioural,3.0.4,59.84914662825267,
4,"Simon and Carina noticed each other as they walked into the grocery store at the same time, their carts nearly colliding as they squeezed into the entrance.",1,1,,,,0,4,4,4,,,,,0,0,0,0,,,,,,,,,,,,,,,,,,,,,,,,,,,,,9,6.270395034982357,,,,,,,,,,,,,,,,,,,,,,,,,,,,030819_p1,001,2019_Mar_08_1213,body_behavioural,3.0.4,59.84914662825267,
4,"They were both new to the Boston area, and this was their first time in this store. ",1,1,,,,0,4,4,4,,,,,0,1,1,1,,,,,,,,,,,,,,,,,,,,,,,,,,,,,1,3.2199203119962476,,,,,,,,,,,,,,,,,,,,,,,,,,,,030819_p1,001,2019_Mar_08_1213,body_behavioural,3.0.4,59.84914662825267,
4,"It kind of looked like a large warehouse, with high unfurnished ceilings, industrial lights, and large packages of food. ",1,1,,,,0,4,4,4,,,,,0,2,2,2,,,,,,,,,,,,,,,,,,,,,,,,,,,,,1,6.086901586997556,,,,,,,,,,,,,,,,,,,,,,,,,,,,030819_p1,001,2019_Mar_08_1213,body_behavioural,3.0.4,59.84914662825267,
4,"They went off along separate routes, but soon ended up back together in the meat section. ",2,1,,,,0,4,4,4,,,,,0,3,3,3,,,,,,,,,,,,,,,,,,,,,,,,,,,,,9,5.936195735994261,,,,,,,,,,,,,,,,,,,,,,,,,,,,030819_p1,001,2019_Mar_08_1213,body_behavioural,3.0.4,59.84914662825267,
4,"They were both preparing for barbecues, so they were looking over the same cuts of meat. ",2,1,,,,0,4,4,4,,,,,0,4,4,4,,,,,,,,,,,,,,,,,,,,,,,,,,,,,1,2.3707172450085636,,,,,,,,,,,,,,,,,,,,,,,,,,,,030819_p1,001,2019_Mar_08_1213,body_behavioural,3.0.4,59.84914662825267,
4,"Simon really wanted to talk to Carina, and Carina really wanted to say something to Simon, but they felt embarrassed striking up a conversation with a stranger.",2,1,,,,0,4,4,4,,,,,0,5,5,5,,,,,,,,,,,,,,,,,,,,,,,,,,,,,1,10.853840834985022,,,,,,,,,,,,,,,,,,,,,,,,,,,,030819_p1,001,2019_Mar_08_1213,body_behavioural,3.0.4,59.84914662825267,
4,"Carina suddenly turned to Simon and, pointing at a Cornish hen, asked, “Isn’t this meat cute?”",2,2,,,,0,4,4,4,,,,,0,6,6,6,,,,,,,,,,,,,,,,,,,,,,,,,,,,,1,6.669790791987907,,,,,,,,,,,,,,,,,,,,,,,,,,,,030819_p1,001,2019_Mar_08_1213,body_behavioural,3.0.4,59.84914662825267,
4,"He laughed, and said, “It is very cute.",2,2,,,,0,4,4,4,,,,,0,7,7,7,,,,,,,,,,,,,,,,,,,,,,,,,,,,,1,4.653539602004457,,,,,,,,,,,,,,,,,,,,,,,,,,,,030819_p1,001,2019_Mar_08_1213,body_behavioural,3.0.4,59.84914662825267,
4,"Probably the younger brother of this guy,” and he picked up a regular-sized chicken.",2,2,,,,0,4,4,4,,,,,0,8,8,8,,,,,,,,,,,,,,,,,,,,,,,,,,,,,1,3.5198193669784814,,,,,,,,,,,,,,,,,,,,,,,,,,,,030819_p1,001,2019_Mar_08_1213,body_behavioural,3.0.4,59.84914662825267,
4,"“Unlucky family,” she responded. ",2,2,,,,0,4,4,4,,,,,0,9,9,9,,,,,,,,,,,,,,,,,,,,,,,,,,,,,1,2.0697000719956122,,,,,,,,,,,,,,,,,,,,,,,,,,,,030819_p1,001,2019_Mar_08_1213,body_behavioural,3.0.4,59.84914662825267,
4,They continued to chat as they picked out their groceries.,2,2,,,,0,4,4,4,,,,,0,10,10,10,,,,,,,,,,,,,,,,,,,,,,,,,,,,,1,2.7704080650000833,,,,,,,,,,,,,,,,,,,,,,,,,,,,030819_p1,001,2019_Mar_08_1213,body_behavioural,3.0.4,59.84914662825267,
4,"Simon helped Carina pick out the best ribs and his personal favorite barbeque sauce, and she helped him gather the  peppers, onions, and spices for a vegetable kabob she recommended.",2,2,,,,0,4,4,4,,,,,0,11,11,11,,,,,,,,,,,,,,,,,,,,,,,,,,,,,1,3.3526018539851066,,,,,,,,,,,,,,,,,,,,,,,,,,,,030819_p1,001,2019_Mar_08_1213,body_behavioural,3.0.4,59.84914662825267,
4,"When they were both finished shopping, they went to the checkout area.",3,2,,,,0,4,4,4,,,,,0,12,12,12,,,,,,,,,,,,,,,,,,,,,,,,,,,,,9,2.170587278000312,,,,,,,,,,,,,,,,,,,,,,,,,,,,030819_p1,001,2019_Mar_08_1213,body_behavioural,3.0.4,59.84914662825267,
4,"Simon was disappointed to see that the lines were short, since he had been hoping for an excuse to spend more time with Carina.",3,2,,,,0,4,4,4,,,,,0,13,13,13,,,,,,,,,,,,,,,,,,,,,,,,,,,,,1,4.81769555300707,,,,,,,,,,,,,,,,,,,,,,,,,,,,030819_p1,001,2019_Mar_08_1213,body_behavioural,3.0.4,59.84914662825267,
4,"They had real chemistry, and both of them could definitely see a future together despite having just met.",3,2,,,,0,4,4,4,,,,,0,14,14,14,,,,,,,,,,,,,,,,,,,,,,,,,,,,,1,5.386755332001485,,,,,,,,,,,,,,,,,,,,,,,,,,,,030819_p1,001,2019_Mar_08_1213,body_behavioural,3.0.4,59.84914662825267,
4,"“So you haven’t been around the city much?”, Simon asked. ",3,2,,,,0,4,4,4,,,,,0,15,15,15,,,,,,,,,,,,,,,,,,,,,,,,,,,,,1,2.936788594990503,,,,,,,,,,,,,,,,,,,,,,,,,,,,030819_p1,001,2019_Mar_08_1213,body_behavioural,3.0.4,59.84914662825267,
4,"“No, not really.",3,2,,,,0,4,4,4,,,,,0,16,16,16,,,,,,,,,,,,,,,,,,,,,,,,,,,,,1,1.4176533999852836,,,,,,,,,,,,,,,,,,,,,,,,,,,,030819_p1,001,2019_Mar_08_1213,body_behavioural,3.0.4,59.84914662825267,
4,I’ve mainly been working and setting up my apartment.”,3,2,,,,0,4,4,4,,,,,0,17,17,17,,,,,,,,,,,,,,,,,,,,,,,,,,,,,1,2.602908828004729,,,,,,,,,,,,,,,,,,,,,,,,,,,,030819_p1,001,2019_Mar_08_1213,body_behavioural,3.0.4,59.84914662825267,
4,"Simon asked her, “Ok well, if you’d like I could pick you up next weekend, and we could go around Harvard Square and get dinner.",3,3,,,,0,4,4,4,,,,,0,18,18,18,,,,,,,,,,,,,,,,,,,,,,,,,,,,,1,3.4017231430043466,,,,,,,,,,,,,,,,,,,,,,,,,,,,030819_p1,001,2019_Mar_08_1213,body_behavioural,3.0.4,59.84914662825267,
4,"There are a lot of great places around there, and it’s really nice during the summer.",3,3,,,,0,4,4,4,,,,,0,19,19,19,,,,,,,,,,,,,,,,,,,,,,,,,,,,,1,2.0029506550054066,,,,,,,,,,,,,,,,,,,,,,,,,,,,030819_p1,001,2019_Mar_08_1213,body_behavioural,3.0.4,59.84914662825267,
4,The Harvard campus is also beautiful.” ,3,3,,,,0,4,4,4,,,,,0,20,20,20,,,,,,,,,,,,,,,,,,,,,,,,,,,,,1,1.936564442992676,,,,,,,,,,,,,,,,,,,,,,,,,,,,030819_p1,001,2019_Mar_08_1213,body_behavioural,3.0.4,59.84914662825267,
4,"Carina smiled, “I’d love to: that sounds great!”",3,3,,,,0,4,4,4,,,,,0,21,21,21,,,,,,,,,,,,,,,,,,,,,,,,,,,,,1,1.851426631998038,,,,,,,,,,,,,,,,,,,,,,,,,,,,030819_p1,001,2019_Mar_08_1213,body_behavioural,3.0.4,59.84914662825267,
4,"She quickly entered her number in his phone, since they only had to wait a couple minutes in line.",3,3,,,,0,4,4,4,,,,,0,22,22,22,,,,,,,,,,,,,,,,,,,,,,,,,,,,,1,3.0698956569831353,,,,,,,,,,,,,,,,,,,,,,,,,,,,030819_p1,001,2019_Mar_08_1213,body_behavioural,3.0.4,59.84914662825267,
4,Then it was her turn to check out with the cashier. ,4,3,,,,0,4,4,4,,,,,0,23,23,23,,,,,,,,,,,,,,,,,,,,,,,,,,,,,9,1.786037017009221,,,,,,,,,,,,,,,,,,,,,,,,,,,,030819_p1,001,2019_Mar_08_1213,body_behavioural,3.0.4,59.84914662825267,
4,"Simon, wanting to make a gesture of his affection, lifted up the divider on the conveyor belt and said to the cashier, “Actually these are together.",4,3,,,,0,4,4,4,,,,,0,24,24,24,,,,,,,,,,,,,,,,,,,,,,,,,,,,,1,3.6361790819792077,,,,,,,,,,,,,,,,,,,,,,,,,,,,030819_p1,001,2019_Mar_08_1213,body_behavioural,3.0.4,59.84914662825267,
4,"Carina, I’ve got it.",4,3,,,,0,4,4,4,,,,,0,25,25,25,,,,,,,,,,,,,,,,,,,,,,,,,,,,,1,1.7007951400009915,,,,,,,,,,,,,,,,,,,,,,,,,,,,030819_p1,001,2019_Mar_08_1213,body_behavioural,3.0.4,59.84914662825267,
4,This was kind-of a date today.”,4,3,,,,0,4,4,4,,,,,0,26,26,26,,,,,,,,,,,,,,,,,,,,,,,,,,,,,1,3.2831682650139555,,,,,,,,,,,,,,,,,,,,,,,,,,,,030819_p1,001,2019_Mar_08_1213,body_behavioural,3.0.4,59.84914662825267,
4,Carina blushed and laughed; she thought this was ridiculous but also very sweet. ,4,3,,,,0,4,4,4,,,,,0,27,27,27,,,,,,,,,,,,,,,,,,,,,,,,,,,,,1,2.319427893991815,,,,,,,,,,,,,,,,,,,,,,,,,,,,030819_p1,001,2019_Mar_08_1213,body_behavioural,3.0.4,59.84914662825267,
4,"The cashier rolled her eyes when they weren’t looking, and she scanned the rest of his items. ",4,3,,,,0,4,4,4,,,,,0,28,28,28,,,,,,,,,,,,,,,,,,,,,,,,,,,,,1,3.6367073690053076,,,,,,,,,,,,,,,,,,,,,,,,,,,,030819_p1,001,2019_Mar_08_1213,body_behavioural,3.0.4,59.84914662825267,
4,"The total came to $120, and he paid with his credit card.",4,3,,,,0,4,4,4,,,,,0,29,29,29,,,,,,,,,,,,,,,,,,,,,,,,,,,,,1,2.2535566079895943,,,,,,,,,,,,,,,,,,,,,,,,,,,,030819_p1,001,2019_Mar_08_1213,body_behavioural,3.0.4,59.84914662825267,
4,"Carina thanked him, and they took the groceries and walked out.",4,3,,,,0,4,4,4,,,,,0,30,30,30,,,,,,,,,,,,,,,,,,,,,,,,,,,,,1,1.9037555390095804,,,,,,,,,,,,,,,,,,,,,,,,,,,,030819_p1,001,2019_Mar_08_1213,body_behavioural,3.0.4,59.84914662825267,
4,"As they were walking towards the exit, Carina reluctantly said goodbye since she was running late for the barbeque she was hosting that afternoon.",4,4,,,,0,4,4,4,,,,,0,31,31,31,,,,,,,,,,,,,,,,,,,,,,,,,,,,,1,2.903215074999025,,,,,,,,,,,,,,,,,,,,,,,,,,,,030819_p1,001,2019_Mar_08_1213,body_behavioural,3.0.4,59.84914662825267,
4,"They hugged and parted ways, stealing glances at each other as they both walked back to their cars.",4,4,,,,0,4,4,4,,,,,0,32,32,32,,,,,,,,,,,,,,,,,,,,,,,,,,,,,1,1.8033347229938954,,,,,,,,,,,,,,,,,,,,,,,,,,,,030819_p1,001,2019_Mar_08_1213,body_behavioural,3.0.4,59.84914662825267,
4,,,,,,,0,4,4,4,,,,,,,,,,,,,,,,,,,,,,,,,,,,,,,,,,,,,,,,,,,,,,,,,,,,,,,,,,,,,,,,,,030819_p1,001,2019_Mar_08_1213,body_behavioural,3.0.4,59.84914662825267,
5,,,,,,,0,5,5,5,0,0,0,0,,,,,,,,,,,,,,,,,,,,,,,,,,,space,1.2175251199805643,space,0.9030695380060934,space,0.953117241995642,,,,,,,,,,,,,,,,,,,,,,,,,,,,,,030819_p1,001,2019_Mar_08_1213,body_behavioural,3.0.4,59.84914662825267,
5,,,,,,,0,5,5,5,1,0,1,0,,,,,,,,,,,,,,,,,,,,,,,,,,,,,,,space,0.7525450350076426,,,,,,,,,,,,,,,,,,,,,,,,,,,,,,030819_p1,001,2019_Mar_08_1213,body_behavioural,3.0.4,59.84914662825267,
5,,,,,,,0,5,5,5,2,0,2,0,,,,,,,,,,,,,,,,,,,,,,,,,,,,,,,space,0.06723154700011946,,,,,,,,,,,,,,,,,,,,,,,,,,,,,,030819_p1,001,2019_Mar_08_1213,body_behavioural,3.0.4,59.84914662825267,
5,,,,,,,0,5,5,5,3,0,3,0,,,,,,,,,,,,,,,,,,,,,,,,,,,,,,,space,0.7028753999911714,,,,,,,,,,,,,,,,,,,,,,,,,,,,,,030819_p1,001,2019_Mar_08_1213,body_behavioural,3.0.4,59.84914662825267,
5,,,,,,,0,5,5,5,4,0,4,0,,,,,,,,,,,,,,,,,,,,,,,,,,,,,,,space,0.8363071549974848,,,,,,,,,,,,,,,,,,,,,,,,,,,,,,030819_p1,001,2019_Mar_08_1213,body_behavioural,3.0.4,59.84914662825267,
5,"Thomas, dreading the conversation he was about to have, got to Annika’s Finer Diner early.",1,1,None,None,,0,5,5,5,,,,,0,0,0,0,,,,,,,,,,,,,,,,,,,,,,,,,,,,,9,7.284614172007423,,,,,,,,,,,,,,,,,,,,,,,,,,,,030819_p1,001,2019_Mar_08_1213,body_behavioural,3.0.4,59.84914662825267,
5,The restaurant had a kitschy charm and was reminiscent of a diner from the 70’s. ,1,1,None,None,,0,5,5,5,,,,,0,1,1,1,,,,,,,,,,,,,,,,,,,,,,,,,,,,,1,2.1863505379878916,,,,,,,,,,,,,,,,,,,,,,,,,,,,030819_p1,001,2019_Mar_08_1213,body_behavioural,3.0.4,59.84914662825267,
5,A bell chimed as the door swung open and Sadie entered to find Thomas deep in thought on a bench by the door.,1,1,None,None,,0,5,5,5,,,,,0,2,2,2,,,,,,,,,,,,,,,,,,,,,,,,,,,,,1,5.136041549005313,,,,,,,,,,,,,,,,,,,,,,,,,,,,030819_p1,001,2019_Mar_08_1213,body_behavioural,3.0.4,59.84914662825267,
5,He jumped up and gave her a side hug. ,1,1,None,None,,0,5,5,5,,,,,0,3,3,3,,,,,,,,,,,,,,,,,,,,,,,,,,,,,1,1.9180570299795363,,,,,,,,,,,,,,,,,,,,,,,,,,,,030819_p1,001,2019_Mar_08_1213,body_behavioural,3.0.4,59.84914662825267,
5,"“How was your day?”, he asked.",1,1,None,None,,0,5,5,5,,,,,0,4,4,4,,,,,,,,,,,,,,,,,,,,,,,,,,,,,1,1.4517494479950983,,,,,,,,,,,,,,,,,,,,,,,,,,,,030819_p1,001,2019_Mar_08_1213,body_behavioural,3.0.4,59.84914662825267,
5,"She clung onto him, “It was okay.",1,1,None,None,,0,5,5,5,,,,,0,5,5,5,,,,,,,,,,,,,,,,,,,,,,,,,,,,,1,1.3535690550052095,,,,,,,,,,,,,,,,,,,,,,,,,,,,030819_p1,001,2019_Mar_08_1213,body_behavioural,3.0.4,59.84914662825267,
5,I missed you today.”,1,1,None,None,,0,5,5,5,,,,,0,6,6,6,,,,,,,,,,,,,,,,,,,,,,,,,,,,,1,1.9035481330065522,,,,,,,,,,,,,,,,,,,,,,,,,,,,030819_p1,001,2019_Mar_08_1213,body_behavioural,3.0.4,59.84914662825267,
5,He looked at the hostess coming towards them.,1,1,None,None,,0,5,5,5,,,,,0,7,7,7,,,,,,,,,,,,,,,,,,,,,,,,,,,,,1,2.786766492004972,,,,,,,,,,,,,,,,,,,,,,,,,,,,030819_p1,001,2019_Mar_08_1213,body_behavioural,3.0.4,59.84914662825267,
5,"“Can we have a table in the back?”, Thomas asked.",1,1,None,None,,0,5,5,5,,,,,0,8,8,8,,,,,,,,,,,,,,,,,,,,,,,,,,,,,1,10.603671660006512,,,,,,,,,,,,,,,,,,,,,,,,,,,,030819_p1,001,2019_Mar_08_1213,body_behavioural,3.0.4,59.84914662825267,
5,"She shrugged and, as she loudly popped her bubblegum, replied, “Sure, honey, this way.”",1,1,9.0,None,,0,5,5,5,,,,,0,9,9,9,,,,,,,,,,,,,,,,,,,,,,,,,,,,,1,2.986197207006626,,,,,,,,,,,,,,,,,,,,,,,,,,,,030819_p1,001,2019_Mar_08_1213,body_behavioural,3.0.4,59.84914662825267,
5,She led them to the back of the restaurant where there were dimly lit tables. ,2,1,None,None,,0,5,5,5,,,,,0,10,10,10,,,,,,,,,,,,,,,,,,,,,,,,,,,,,1,9.584626691997983,,,,,,,,,,,,,,,,,,,,,,,,,,,,030819_p1,001,2019_Mar_08_1213,body_behavioural,3.0.4,59.84914662825267,
5,"“Is this alright?”, the hostess asked.",2,1,None,None,,0,5,5,5,,,,,0,11,11,11,,,,,,,,,,,,,,,,,,,,,,,,,,,,,1,1.2026084800017998,,,,,,,,,,,,,,,,,,,,,,,,,,,,030819_p1,001,2019_Mar_08_1213,body_behavioural,3.0.4,59.84914662825267,
5,Thomas cleared his throat and tried not to grimace at the stained fabric that lined the booth.,2,1,None,None,,0,5,5,5,,,,,0,12,12,12,,,,,,,,,,,,,,,,,,,,,,,,,,,,,1,3.452439451997634,,,,,,,,,,,,,,,,,,,,,,,,,,,,030819_p1,001,2019_Mar_08_1213,body_behavioural,3.0.4,59.84914662825267,
5,“This is great.,2,1,None,None,,0,5,5,5,,,,,0,13,13,13,,,,,,,,,,,,,,,,,,,,,,,,,,,,,1,1.003959219000535,,,,,,,,,,,,,,,,,,,,,,,,,,,,030819_p1,001,2019_Mar_08_1213,body_behavioural,3.0.4,59.84914662825267,
5,"Thank you,” Thomas said.",2,1,None,None,,0,5,5,5,,,,,0,14,14,14,,,,,,,,,,,,,,,,,,,,,,,,,,,,,1,1.069773756986251,,,,,,,,,,,,,,,,,,,,,,,,,,,,030819_p1,001,2019_Mar_08_1213,body_behavioural,3.0.4,59.84914662825267,
5,Sadie slipped into the cushioned seat and grabbed Thomas’ hand.,2,1,None,None,,0,5,5,5,,,,,0,15,15,15,,,,,,,,,,,,,,,,,,,,,,,,,,,,,1,3.0198624470212962,,,,,,,,,,,,,,,,,,,,,,,,,,,,030819_p1,001,2019_Mar_08_1213,body_behavioural,3.0.4,59.84914662825267,
5,"“Tell me about your day!”, Sadie sang as Thomas sat down.",2,1,None,None,,0,5,5,5,,,,,0,16,16,16,,,,,,,,,,,,,,,,,,,,,,,,,,,,,1,2.3199203419790138,,,,,,,,,,,,,,,,,,,,,,,,,,,,030819_p1,001,2019_Mar_08_1213,body_behavioural,3.0.4,59.84914662825267,
5,He looked at her silently and pulled his hand slowly from hers.,2,1,None,None,,0,5,5,5,,,,,0,17,17,17,,,,,,,,,,,,,,,,,,,,,,,,,,,,,1,2.853684367000824,,,,,,,,,,,,,,,,,,,,,,,,,,,,030819_p1,001,2019_Mar_08_1213,body_behavioural,3.0.4,59.84914662825267,
5,Sadie gave him a puzzled look.,2,1,None,None,,0,5,5,5,,,,,0,18,18,18,,,,,,,,,,,,,,,,,,,,,,,,,,,,,1,2.5361748170107603,,,,,,,,,,,,,,,,,,,,,,,,,,,,030819_p1,001,2019_Mar_08_1213,body_behavioural,3.0.4,59.84914662825267,
5,Thomas looked away and took a deep breath. ,2,1,None,None,,0,5,5,5,,,,,0,19,19,19,,,,,,,,,,,,,,,,,,,,,,,,,,,,,1,2.919752759975381,,,,,,,,,,,,,,,,,,,,,,,,,,,,030819_p1,001,2019_Mar_08_1213,body_behavioural,3.0.4,59.84914662825267,
5,"Sadie asked, “What’s wrong?” ",2,1,None,None,,0,5,5,5,,,,,0,20,20,20,,,,,,,,,,,,,,,,,,,,,,,,,,,,,1,1.3697850570024457,,,,,,,,,,,,,,,,,,,,,,,,,,,,030819_p1,001,2019_Mar_08_1213,body_behavioural,3.0.4,59.84914662825267,
5,Thomas picked at his fingernails.,2,1,None,22.0,,0,5,5,5,,,,,0,21,21,21,,,,,,,,,,,,,,,,,,,,,,,,,,,,,1,2.1696775119926315,,,,,,,,,,,,,,,,,,,,,,,,,,,,030819_p1,001,2019_Mar_08_1213,body_behavioural,3.0.4,59.84914662825267,
5,"“Sadie, I’ve been thinking, and I need to figure out some stuff… on my own.”",2,2,None,None,,0,5,5,5,,,,,0,22,22,22,,,,,,,,,,,,,,,,,,,,,,,,,,,,,9,2.5031279700051527,,,,,,,,,,,,,,,,,,,,,,,,,,,,030819_p1,001,2019_Mar_08_1213,body_behavioural,3.0.4,59.84914662825267,
5,Sadie’s mouth popped open for a moment.,2,2,None,None,,0,5,5,5,,,,,0,23,23,23,,,,,,,,,,,,,,,,,,,,,,,,,,,,,1,2.503372447012225,,,,,,,,,,,,,,,,,,,,,,,,,,,,030819_p1,001,2019_Mar_08_1213,body_behavioural,3.0.4,59.84914662825267,
5,Then she swallowed and shifted back in her seat.,2,2,None,None,,0,5,5,5,,,,,0,24,24,24,,,,,,,,,,,,,,,,,,,,,,,,,,,,,9,8.336812049994478,,,,,,,,,,,,,,,,,,,,,,,,,,,,030819_p1,001,2019_Mar_08_1213,body_behavioural,3.0.4,59.84914662825267,
5,“Things have been really picking up at work.,2,2,None,None,,0,5,5,5,,,,,0,25,25,25,,,,,,,,,,,,,,,,,,,,,,,,,,,,,1,2.0841737349983305,,,,,,,,,,,,,,,,,,,,,,,,,,,,030819_p1,001,2019_Mar_08_1213,body_behavioural,3.0.4,59.84914662825267,
5,And I’m not sure that this is the job I want to do anymore.,2,2,None,None,,0,5,5,5,,,,,0,26,26,26,,,,,,,,,,,,,,,,,,,,,,,,,,,,,1,2.7197679649980273,,,,,,,,,,,,,,,,,,,,,,,,,,,,030819_p1,001,2019_Mar_08_1213,body_behavioural,3.0.4,59.84914662825267,
5,It’s been really overwhelming between working and figuring out if I should change careers.” ,2,2,17.0,None,,0,5,5,5,,,,,0,27,27,27,,,,,,,,,,,,,,,,,,,,,,,,,,,,,1,3.586748000001535,,,,,,,,,,,,,,,,,,,,,,,,,,,,030819_p1,001,2019_Mar_08_1213,body_behavioural,3.0.4,59.84914662825267,
5,The waiter appeared and interrupted the speech Thomas had been practicing.,3,2,None,None,,0,5,5,5,,,,,0,28,28,28,,,,,,,,,,,,,,,,,,,,,,,,,,,,,1,1.9865176519961096,,,,,,,,,,,,,,,,,,,,,,,,,,,,030819_p1,001,2019_Mar_08_1213,body_behavioural,3.0.4,59.84914662825267,
5,"“Hello you two!”, the waiter said.",3,2,None,None,,0,5,5,5,,,,,0,29,29,29,,,,,,,,,,,,,,,,,,,,,,,,,,,,,1,1.4360449670057278,,,,,,,,,,,,,,,,,,,,,,,,,,,,030819_p1,001,2019_Mar_08_1213,body_behavioural,3.0.4,59.84914662825267,
5,“Have you decided what you would like?”,3,2,None,None,,0,5,5,5,,,,,0,30,30,30,,,,,,,,,,,,,,,,,,,,,,,,,,,,,1,1.6864278519933578,,,,,,,,,,,,,,,,,,,,,,,,,,,,030819_p1,001,2019_Mar_08_1213,body_behavioural,3.0.4,59.84914662825267,
5,"Thomas and Sadie realized there were menus on the table, and they glanced at the lengthy list quickly.",3,2,None,None,,0,5,5,5,,,,,0,31,31,31,,,,,,,,,,,,,,,,,,,,,,,,,,,,,1,3.9847155430179555,,,,,,,,,,,,,,,,,,,,,,,,,,,,030819_p1,001,2019_Mar_08_1213,body_behavioural,3.0.4,59.84914662825267,
5,"There were so many strange dishes they had never heard of before, so they settled on familiar orders.",3,2,None,None,,0,5,5,5,,,,,0,32,32,32,,,,,,,,,,,,,,,,,,,,,,,,,,,,,1,2.5032344100181945,,,,,,,,,,,,,,,,,,,,,,,,,,,,030819_p1,001,2019_Mar_08_1213,body_behavioural,3.0.4,59.84914662825267,
5,"“I’ll have a burger, no tomatoes,” Thomas said.",3,2,None,None,,0,5,5,5,,,,,0,33,33,33,,,,,,,,,,,,,,,,,,,,,,,,,,,,,1,1.6865473299985752,,,,,,,,,,,,,,,,,,,,,,,,,,,,030819_p1,001,2019_Mar_08_1213,body_behavioural,3.0.4,59.84914662825267,
5,"Sadie asked about the reuben, and the waiter told her it was excellent.",3,2,None,None,,0,5,5,5,,,,,0,34,34,34,,,,,,,,,,,,,,,,,,,,,,,,,,,,,1,3.2867625470098574,,,,,,,,,,,,,,,,,,,,,,,,,,,,030819_p1,001,2019_Mar_08_1213,body_behavioural,3.0.4,59.84914662825267,
5,"Once she agreed to get that, he walked away. ",3,2,None,None,,0,5,5,5,,,,,0,35,35,35,,,,,,,,,,,,,,,,,,,,,,,,,,,,,1,3.8032193949911743,,,,,,,,,,,,,,,,,,,,,,,,,,,,030819_p1,001,2019_Mar_08_1213,body_behavioural,3.0.4,59.84914662825267,
5,Sadie and Thomas looked at each other. ,3,2,None,None,,0,5,5,5,,,,,0,36,36,36,,,,,,,,,,,,,,,,,,,,,,,,,,,,,1,3.003259019984398,,,,,,,,,,,,,,,,,,,,,,,,,,,,030819_p1,001,2019_Mar_08_1213,body_behavioural,3.0.4,59.84914662825267,
5,"“So what are you saying?”, Sadie asked. ",3,2,None,None,,0,5,5,5,,,,,0,37,37,37,,,,,,,,,,,,,,,,,,,,,,,,,,,,,1,3.03661420501885,,,,,,,,,,,,,,,,,,,,,,,,,,,,030819_p1,001,2019_Mar_08_1213,body_behavioural,3.0.4,59.84914662825267,
5,"Thomas replied, “I want to take a break for awhile.",3,2,None,None,,0,5,5,5,,,,,0,38,38,38,,,,,,,,,,,,,,,,,,,,,,,,,,,,,1,2.0030005300068296,,,,,,,,,,,,,,,,,,,,,,,,,,,,030819_p1,001,2019_Mar_08_1213,body_behavioural,3.0.4,59.84914662825267,
5,"You know, have space to figure out what I’m supposed to be doing.”",3,2,None,17.0,,0,5,5,5,,,,,0,39,39,39,,,,,,,,,,,,,,,,,,,,,,,,,,,,,1,2.2032303970190696,,,,,,,,,,,,,,,,,,,,,,,,,,,,030819_p1,001,2019_Mar_08_1213,body_behavioural,3.0.4,59.84914662825267,
5,Sadie quietly burst into tears. ,3,3,None,None,,0,5,5,5,,,,,0,40,40,40,,,,,,,,,,,,,,,,,,,,,,,,,,,,,9,4.71983101699152,,,,,,,,,,,,,,,,,,,,,,,,,,,,030819_p1,001,2019_Mar_08_1213,body_behavioural,3.0.4,59.84914662825267,
5,"Nevertheless, people sitting at the adjacent table looked over and quickly averted their gaze as they realized what was happening. ",3,3,None,None,,0,5,5,5,,,,,0,41,41,41,,,,,,,,,,,,,,,,,,,,,,,,,,,,,1,3.8696802250051405,,,,,,,,,,,,,,,,,,,,,,,,,,,,030819_p1,001,2019_Mar_08_1213,body_behavioural,3.0.4,59.84914662825267,
5,“Is this really what you want?,3,3,None,None,,0,5,5,5,,,,,0,42,42,42,,,,,,,,,,,,,,,,,,,,,,,,,,,,,1,1.6696856300113723,,,,,,,,,,,,,,,,,,,,,,,,,,,,030819_p1,001,2019_Mar_08_1213,body_behavioural,3.0.4,59.84914662825267,
5,I don’t understand.,3,3,None,None,,0,5,5,5,,,,,0,43,43,43,,,,,,,,,,,,,,,,,,,,,,,,,,,,,1,1.8695134120061994,,,,,,,,,,,,,,,,,,,,,,,,,,,,030819_p1,001,2019_Mar_08_1213,body_behavioural,3.0.4,59.84914662825267,
5,I don’t understand.,3,3,None,None,,0,5,5,5,,,,,0,44,44,44,,,,,,,,,,,,,,,,,,,,,,,,,,,,,1,0.5864569649857003,,,,,,,,,,,,,,,,,,,,,,,,,,,,030819_p1,001,2019_Mar_08_1213,body_behavioural,3.0.4,59.84914662825267,
5,Things were fine. ,3,3,None,None,,0,5,5,5,,,,,0,45,45,45,,,,,,,,,,,,,,,,,,,,,,,,,,,,,1,1.553046094981255,,,,,,,,,,,,,,,,,,,,,,,,,,,,030819_p1,001,2019_Mar_08_1213,body_behavioural,3.0.4,59.84914662825267,
5,"We don’t have to hang out all the time, or as much as we do now.”",3,3,None,None,,0,5,5,5,,,,,0,46,46,46,,,,,,,,,,,,,,,,,,,,,,,,,,,,,1,3.103036030981457,,,,,,,,,,,,,,,,,,,,,,,,,,,,030819_p1,001,2019_Mar_08_1213,body_behavioural,3.0.4,59.84914662825267,
5,Thomas chewed on his bottom lip and picked at his now bleeding hangnail. ,3,3,20.0,None,,0,5,5,5,,,,,0,47,47,47,,,,,,,,,,,,,,,,,,,,,,,,,,,,,1,4.053391665016534,,,,,,,,,,,,,,,,,,,,,,,,,,,,030819_p1,001,2019_Mar_08_1213,body_behavioural,3.0.4,59.84914662825267,
5,"At that moment, the waiter arrived with the burger and reuben and set them on the table.",4,3,None,None,,0,5,5,5,,,,,0,48,48,48,,,,,,,,,,,,,,,,,,,,,,,,,,,,,1,2.2360052400035784,,,,,,,,,,,,,,,,,,,,,,,,,,,,030819_p1,001,2019_Mar_08_1213,body_behavioural,3.0.4,59.84914662825267,
5,“Is there anything else I can get for you two?,4,3,None,None,,0,5,5,5,,,,,0,49,49,49,,,,,,,,,,,,,,,,,,,,,,,,,,,,,1,1.9366235070046969,,,,,,,,,,,,,,,,,,,,,,,,,,,,030819_p1,001,2019_Mar_08_1213,body_behavioural,3.0.4,59.84914662825267,
5,"Will you be getting dessert tonight?”, he asked.",4,3,None,None,,0,5,5,5,,,,,0,50,50,50,,,,,,,,,,,,,,,,,,,,,,,,,,,,,1,1.6697211549908388,,,,,,,,,,,,,,,,,,,,,,,,,,,,030819_p1,001,2019_Mar_08_1213,body_behavioural,3.0.4,59.84914662825267,
5,"“Oh no, we’re good, thanks,” Thomas said.",4,3,None,None,,0,5,5,5,,,,,0,51,51,51,,,,,,,,,,,,,,,,,,,,,,,,,,,,,1,1.3865455769991968,,,,,,,,,,,,,,,,,,,,,,,,,,,,030819_p1,001,2019_Mar_08_1213,body_behavioural,3.0.4,59.84914662825267,
5,"Once the waiter had walked away still oblivious to the situation, Thomas sighed and said, “Sadie, I’m sorry.",4,3,None,None,,0,5,5,5,,,,,0,52,52,52,,,,,,,,,,,,,,,,,,,,,,,,,,,,,1,4.0534028530237265,,,,,,,,,,,,,,,,,,,,,,,,,,,,030819_p1,001,2019_Mar_08_1213,body_behavioural,3.0.4,59.84914662825267,
5,"You are so great, and I love hanging out with you.",4,3,None,None,,0,5,5,5,,,,,0,53,53,53,,,,,,,,,,,,,,,,,,,,,,,,,,,,,1,1.4501064009964466,,,,,,,,,,,,,,,,,,,,,,,,,,,,030819_p1,001,2019_Mar_08_1213,body_behavioural,3.0.4,59.84914662825267,
5,But I need some time.,4,3,None,None,,0,5,5,5,,,,,0,54,54,54,,,,,,,,,,,,,,,,,,,,,,,,,,,,,1,2.336897282017162,,,,,,,,,,,,,,,,,,,,,,,,,,,,030819_p1,001,2019_Mar_08_1213,body_behavioural,3.0.4,59.84914662825267,
5,I’m so sorry.”,4,3,None,None,,0,5,5,5,,,,,0,55,55,55,,,,,,,,,,,,,,,,,,,,,,,,,,,,,1,1.469769474992063,,,,,,,,,,,,,,,,,,,,,,,,,,,,030819_p1,001,2019_Mar_08_1213,body_behavioural,3.0.4,59.84914662825267,
5,"He grabbed her hand, and she pulled it out of his.",4,3,None,None,,0,5,5,5,,,,,0,56,56,56,,,,,,,,,,,,,,,,,,,,,,,,,,,,,1,1.7530009000038262,,,,,,,,,,,,,,,,,,,,,,,,,,,,030819_p1,001,2019_Mar_08_1213,body_behavioural,3.0.4,59.84914662825267,
5,"“Sadie,” he said.",4,3,None,17.0,,0,5,5,5,,,,,0,57,57,57,,,,,,,,,,,,,,,,,,,,,,,,,,,,,1,1.1529959900071844,,,,,,,,,,,,,,,,,,,,,,,,,,,,030819_p1,001,2019_Mar_08_1213,body_behavioural,3.0.4,59.84914662825267,
5," She stood up, grabbed half of the reuben and shook it at him as she growled, “Don’t follow me, and don’t talk to me anymore!”",4,4,None,None,,0,5,5,5,,,,,0,58,58,58,,,,,,,,,,,,,,,,,,,,,,,,,,,,,9,4.319870775012532,,,,,,,,,,,,,,,,,,,,,,,,,,,,030819_p1,001,2019_Mar_08_1213,body_behavioural,3.0.4,59.84914662825267,
5,"Sadie's heels clacked loudly against the black and white linoleum, and the bell above the door jingled cheerfully as the door closed behind her.",4,4,None,None,,0,5,5,5,,,,,0,59,59,59,,,,,,,,,,,,,,,,,,,,,,,,,,,,,1,4.534059234982124,,,,,,,,,,,,,,,,,,,,,,,,,,,,030819_p1,001,2019_Mar_08_1213,body_behavioural,3.0.4,59.84914662825267,
5,Thomas sat there for awhile in shock at how quickly everything transpired. ,4,4,None,None,,0,5,5,5,,,,,0,60,60,60,,,,,,,,,,,,,,,,,,,,,,,,,,,,,1,2.369588191009825,,,,,,,,,,,,,,,,,,,,,,,,,,,,030819_p1,001,2019_Mar_08_1213,body_behavioural,3.0.4,59.84914662825267,
5,"He grabbed his burger and took a bite of it, creating a dry and fishy taste in his mouth.",4,4,None,None,,0,5,5,5,,,,,0,61,61,61,,,,,,,,,,,,,,,,,,,,,,,,,,,,,1,3.8700582979945466,,,,,,,,,,,,,,,,,,,,,,,,,,,,030819_p1,001,2019_Mar_08_1213,body_behavioural,3.0.4,59.84914662825267,
5,He dropped it back on his plate and wondered if the restaurant was responsible for the foul taste. ,4,4,13.0,5.0,,0,5,5,5,,,,,0,62,62,62,,,,,,,,,,,,,,,,,,,,,,,,,,,,,1,4.734289942018222,,,,,,,,,,,,,,,,,,,,,,,,,,,,030819_p1,001,2019_Mar_08_1213,body_behavioural,3.0.4,59.84914662825267,
5,,,,,,,0,5,5,5,,,,,,,,,,,,,,,,,,,,,,,,,,,,,,,,,,,,,,,,,,,,,,,,,,,,,,,,,,,,,,,,,,030819_p1,001,2019_Mar_08_1213,body_behavioural,3.0.4,59.84914662825267,
6,,,,,,,0,6,6,6,0,0,0,0,,,,,,,,,,,,,,,,,,,,,,,,,,,space,1.5863556799886283,space,1.0507487029826734,space,0.819754659984028,,,,,,,,,,,,,,,,,,,,,,,,,,,,,,030819_p1,001,2019_Mar_08_1213,body_behavioural,3.0.4,59.84914662825267,
6,"Ms. Bianchi and Ms. Morrison walked into the grocery store at the same time, and, after a moment of mutual recognition, greeted each other and shook hands.",1,1,,,,0,6,6,6,,,,,0,0,0,0,,,,,,,,,,,,,,,,,,,,,,,,,,,,,9,5.436952877003932,,,,,,,,,,,,,,,,,,,,,,,,,,,,030819_p1,001,2019_Mar_08_1213,body_behavioural,3.0.4,59.84914662825267,
6,"“Thank you again for inviting me here to discuss my business proposal,” said Ms. Bianchi, “And it’s a pleasure to be out of the office.” ",1,1,,,,0,6,6,6,,,,,0,1,1,1,,,,,,,,,,,,,,,,,,,,,,,,,,,,,1,4.600547375011956,,,,,,,,,,,,,,,,,,,,,,,,,,,,030819_p1,001,2019_Mar_08_1213,body_behavioural,3.0.4,59.84914662825267,
6,"As a salesperson for an Italian cheese company that was trying to expand its outreach to more mainstream grocery stores, this meeting could be a big break for her.",1,1,,,,0,6,6,6,,,,,0,2,2,2,,,,,,,,,,,,,,,,,,,,,,,,,,,,,1,4.320480897993548,,,,,,,,,,,,,,,,,,,,,,,,,,,,030819_p1,001,2019_Mar_08_1213,body_behavioural,3.0.4,59.84914662825267,
6,"Her sales target, Ms. Morrison,  who had a reputation for being a bit quirky, was a corporate buyer for a large chain grocery store. ",1,1,,,,0,6,6,6,,,,,0,3,3,3,,,,,,,,,,,,,,,,,,,,,,,,,,,,,1,8.720191561995307,,,,,,,,,,,,,,,,,,,,,,,,,,,,030819_p1,001,2019_Mar_08_1213,body_behavioural,3.0.4,59.84914662825267,
6,"She was known for doing things unconventionally: for example, she said that she liked to make deals with suppliers in the place where the products were sold- “to keep their minds focused on what’s important.” ",1,1,,,,0,6,6,6,,,,,0,4,4,4,,,,,,,,,,,,,,,,,,,,,,,,,,,,,1,6.65228837999166,,,,,,,,,,,,,,,,,,,,,,,,,,,,030819_p1,001,2019_Mar_08_1213,body_behavioural,3.0.4,59.84914662825267,
6,"They chatted a little in the front of the grocery store, which was surrounded by pumpkins and halloween decorations set up in special displays for the holiday season.",1,1,,,,0,6,6,6,,,,,0,5,5,5,,,,,,,,,,,,,,,,,,,,,,,,,,,,,1,3.836408699018648,,,,,,,,,,,,,,,,,,,,,,,,,,,,030819_p1,001,2019_Mar_08_1213,body_behavioural,3.0.4,59.84914662825267,
6,"Ms. Bianchi and Ms. Morrison walked to the cheese section, and Ms. Morrison picked up a block of parmesan.",2,1,,,,0,6,6,6,,,,,0,6,6,6,,,,,,,,,,,,,,,,,,,,,,,,,,,,,1,2.4533891399914864,,,,,,,,,,,,,,,,,,,,,,,,,,,,030819_p1,001,2019_Mar_08_1213,body_behavioural,3.0.4,59.84914662825267,
6,“We have quite a selection here.,2,1,,,,0,6,6,6,,,,,0,7,7,7,,,,,,,,,,,,,,,,,,,,,,,,,,,,,1,2.103804226993816,,,,,,,,,,,,,,,,,,,,,,,,,,,,030819_p1,001,2019_Mar_08_1213,body_behavioural,3.0.4,59.84914662825267,
6,I don’t know that it needs an additional section for more gourmet cheeses.” ,2,1,,,,0,6,6,6,,,,,0,8,8,8,,,,,,,,,,,,,,,,,,,,,,,,,,,,,1,5.703436604992021,,,,,,,,,,,,,,,,,,,,,,,,,,,,030819_p1,001,2019_Mar_08_1213,body_behavioural,3.0.4,59.84914662825267,
6,"Ms. Bianchi's confidence faltered for a minute at this remark, but then she launched into her prepared pitch.",2,1,,,,0,6,6,6,,,,,0,9,9,9,,,,,,,,,,,,,,,,,,,,,,,,,,,,,9,3.536827406991506,,,,,,,,,,,,,,,,,,,,,,,,,,,,030819_p1,001,2019_Mar_08_1213,body_behavioural,3.0.4,59.84914662825267,
6," “Ms. Morrison, I think you would agree that selling food is more than just providing variety, but also about providing the highest quality.",2,2,,,,0,6,6,6,,,,,0,10,10,10,,,,,,,,,,,,,,,,,,,,,,,,,,,,,1,4.634345719998237,,,,,,,,,,,,,,,,,,,,,,,,,,,,030819_p1,001,2019_Mar_08_1213,body_behavioural,3.0.4,59.84914662825267,
6,"You don’t have cheeses made in America that are like ours, it is true.",2,2,,,,0,6,6,6,,,,,0,11,11,11,,,,,,,,,,,,,,,,,,,,,,,,,,,,,1,4.00335854999139,,,,,,,,,,,,,,,,,,,,,,,,,,,,030819_p1,001,2019_Mar_08_1213,body_behavioural,3.0.4,59.84914662825267,
6,Your store could be providing American consumers with a dimension in taste that they've never known before with our product.,2,2,,,,0,6,6,6,,,,,0,12,12,12,,,,,,,,,,,,,,,,,,,,,,,,,,,,,1,8.5200264499872,,,,,,,,,,,,,,,,,,,,,,,,,,,,030819_p1,001,2019_Mar_08_1213,body_behavioural,3.0.4,59.84914662825267,
6,"I propose that you give it a shot, buy $1000 worth of cheese products for a few stores, and see how the sales increase not only in our cheeses but also in products related to cheeses: crackers, jams, olives. ",2,2,,,,0,6,6,6,,,,,0,13,13,13,,,,,,,,,,,,,,,,,,,,,,,,,,,,,1,12.651657454989618,,,,,,,,,,,,,,,,,,,,,,,,,,,,030819_p1,001,2019_Mar_08_1213,body_behavioural,3.0.4,59.84914662825267,
6,"The availability of a finer product leads to the appreciation of the product, and your consumers will start to consume in a new, more profitable way.”",2,2,,,,0,6,6,6,,,,,0,14,14,14,,,,,,,,,,,,,,,,,,,,,,,,,,,,,1,4.670274798001628,,,,,,,,,,,,,,,,,,,,,,,,,,,,030819_p1,001,2019_Mar_08_1213,body_behavioural,3.0.4,59.84914662825267,
6,"Ms. Bianchi picked up a box of crackers by the cheese section, and said, “Here, I will buy these, and we can try some of our cheeses that I've brought with me.”",2,2,,,,0,6,6,6,,,,,0,15,15,15,,,,,,,,,,,,,,,,,,,,,,,,,,,,,1,6.137139351980295,,,,,,,,,,,,,,,,,,,,,,,,,,,,030819_p1,001,2019_Mar_08_1213,body_behavioural,3.0.4,59.84914662825267,
6,"Ms. Morrison, who was thinking, nodded in agreement and said, “That sounds like a great idea.",2,2,,,,0,6,6,6,,,,,0,16,16,16,,,,,,,,,,,,,,,,,,,,,,,,,,,,,1,3.1841377170057967,,,,,,,,,,,,,,,,,,,,,,,,,,,,030819_p1,001,2019_Mar_08_1213,body_behavioural,3.0.4,59.84914662825267,
6,"Let’s head to check out, and those crackers are on me.” ",2,2,,,,0,6,6,6,,,,,0,17,17,17,,,,,,,,,,,,,,,,,,,,,,,,,,,,,1,1.550972785014892,,,,,,,,,,,,,,,,,,,,,,,,,,,,030819_p1,001,2019_Mar_08_1213,body_behavioural,3.0.4,59.84914662825267,
6,They walked over to the checkout area.,3,2,,,,0,6,6,6,,,,,0,18,18,18,,,,,,,,,,,,,,,,,,,,,,,,,,,,,1,1.3531231670058332,,,,,,,,,,,,,,,,,,,,,,,,,,,,030819_p1,001,2019_Mar_08_1213,body_behavioural,3.0.4,59.84914662825267,
6,"There was a very long line, and it was very busy in the checkout area as people were stocking up for Halloween parties and trick-or-treating. ",3,2,,,,0,6,6,6,,,,,0,19,19,19,,,,,,,,,,,,,,,,,,,,,,,,,,,,,1,3.6863796270044986,,,,,,,,,,,,,,,,,,,,,,,,,,,,030819_p1,001,2019_Mar_08_1213,body_behavioural,3.0.4,59.84914662825267,
6,"Since they had almost a 10 minute wait in line, Ms. Bianchi handed a sheet with printed graphs to Ms. Morrison the increase in profits that several other stores had seen after starting to carry their products.",3,2,,,,0,6,6,6,,,,,0,20,20,20,,,,,,,,,,,,,,,,,,,,,,,,,,,,,1,7.053145540005062,,,,,,,,,,,,,,,,,,,,,,,,,,,,030819_p1,001,2019_Mar_08_1213,body_behavioural,3.0.4,59.84914662825267,
6,"Eventually, Ms. Morrison replied, “You know what, I think you've convinced me that this could work. ",3,3,,,,0,6,6,6,,,,,0,21,21,21,,,,,,,,,,,,,,,,,,,,,,,,,,,,,9,2.9204300720011815,,,,,,,,,,,,,,,,,,,,,,,,,,,,030819_p1,001,2019_Mar_08_1213,body_behavioural,3.0.4,59.84914662825267,
6,We've been trying to find a way to add a little European cachet to our stores.,3,3,,,,0,6,6,6,,,,,0,22,22,22,,,,,,,,,,,,,,,,,,,,,,,,,,,,,1,3.937254752992885,,,,,,,,,,,,,,,,,,,,,,,,,,,,030819_p1,001,2019_Mar_08_1213,body_behavioural,3.0.4,59.84914662825267,
6,There's still a problem though - I'm worried we'll be paying out the nose for the import taxes.,3,3,,,,0,6,6,6,,,,,0,23,23,23,,,,,,,,,,,,,,,,,,,,,,,,,,,,,1,4.370009812992066,,,,,,,,,,,,,,,,,,,,,,,,,,,,030819_p1,001,2019_Mar_08_1213,body_behavioural,3.0.4,59.84914662825267,
6,Is that the case?",3,3,,,,0,6,6,6,,,,,0,24,24,24,,,,,,,,,,,,,,,,,,,,,,,,,,,,,1,1.2869076979986858,,,,,,,,,,,,,,,,,,,,,,,,,,,,030819_p1,001,2019_Mar_08_1213,body_behavioural,3.0.4,59.84914662825267,
6,"It was Ms. Morrison’s turn to checkout, and the two businesswomen continued to talk back and forth as she did so. ",4,3,,,,0,6,6,6,,,,,0,25,25,25,,,,,,,,,,,,,,,,,,,,,,,,,,,,,1,4.453268406999996,,,,,,,,,,,,,,,,,,,,,,,,,,,,030819_p1,001,2019_Mar_08_1213,body_behavioural,3.0.4,59.84914662825267,
6,"The cashier scanned the crackers, and Ms. Bianchi watched in amusement as Ms. Morrison paid the $6 price entirely in quarters from a wallet bulging with change.",4,3,,,,0,6,6,6,,,,,0,26,26,26,,,,,,,,,,,,,,,,,,,,,,,,,,,,,1,6.386878077028086,,,,,,,,,,,,,,,,,,,,,,,,,,,,030819_p1,001,2019_Mar_08_1213,body_behavioural,3.0.4,59.84914662825267,
6,"They shortly came to an agreement and would have enough cheese shipments, $5000 worth, to different stores to qualify for a subsidized import tax. ",4,4,,,,0,6,6,6,,,,,0,27,27,27,,,,,,,,,,,,,,,,,,,,,,,,,,,,,9,8.302911069011316,,,,,,,,,,,,,,,,,,,,,,,,,,,,030819_p1,001,2019_Mar_08_1213,body_behavioural,3.0.4,59.84914662825267,
6,"Ms. Bianchi retrieved some of her samples from her car, and they toasted their new deal with crackers topped with fresh mozzarella. ",4,4,,,,0,6,6,6,,,,,0,28,28,28,,,,,,,,,,,,,,,,,,,,,,,,,,,,,1,4.820733273023507,,,,,,,,,,,,,,,,,,,,,,,,,,,,030819_p1,001,2019_Mar_08_1213,body_behavioural,3.0.4,59.84914662825267,
6,,,,,,,0,6,6,6,,,,,,,,,,,,,,,,,,,,,,,,,,,,,,,,,,,,,,,,,,,,,,,,,,,,,,,,,,,,,,,,,,030819_p1,001,2019_Mar_08_1213,body_behavioural,3.0.4,59.84914662825267,
7,,,,,,,0,7,7,7,0,0,0,0,,,,,,,,,,,,,,,,,,,,,,,,,,,space,2.0202676479821093,space,1.9197829350014217,space,2.2008006499963813,,,,,,,,,,,,,,,,,,,,,,,,,,,,,,030819_p1,001,2019_Mar_08_1213,body_behavioural,3.0.4,59.84914662825267,
7,"Sven and Isabel walked hurriedly from the cab into the Barcelona Airport after an incredible weekend with Isabel’s family, which had wiped away any doubts Sven had had about his decision to propose. ",1,1,,,,0,7,7,7,,,,,0,0,0,0,,,,,,,,,,,,,,,,,,,,,,,,,,,,,9,6.570192999992287,,,,,,,,,,,,,,,,,,,,,,,,,,,,030819_p1,001,2019_Mar_08_1213,body_behavioural,3.0.4,59.84914662825267,
7,"They were a little pressed for time, with only a little over an hour until their flight would take off to go back to the US, but they already had their online boarding passes and no checked luggage. ",1,1,,,,0,7,7,7,,,,,0,1,1,1,,,,,,,,,,,,,,,,,,,,,,,,,,,,,1,11.637437020021025,,,,,,,,,,,,,,,,,,,,,,,,,,,,030819_p1,001,2019_Mar_08_1213,body_behavioural,3.0.4,59.84914662825267,
7,"When Isabel stopped to rummage through her purse looking for her phone, Sven turned his back to her and took the velvet box out of his backpack, opening it to look at the ring he bought her.",1,2,,,,0,7,7,7,,,,,0,2,2,2,,,,,,,,,,,,,,,,,,,,,,,,,,,,,1,5.053412834997289,,,,,,,,,,,,,,,,,,,,,,,,,,,,030819_p1,001,2019_Mar_08_1213,body_behavioural,3.0.4,59.84914662825267,
7,"He had received her parents’ blessing during the trip, and he was almost giddy with excitement. ",1,2,,,,0,7,7,7,,,,,0,3,3,3,,,,,,,,,,,,,,,,,,,,,,,,,,,,,1,2.870102315006079,,,,,,,,,,,,,,,,,,,,,,,,,,,,030819_p1,001,2019_Mar_08_1213,body_behavioural,3.0.4,59.84914662825267,
7,"He tilted the ring backward and forward, despite having already studied it daily since he had purchased it a few weeks ago. ",1,2,,,,0,7,7,7,,,,,0,4,4,4,,,,,,,,,,,,,,,,,,,,,,,,,,,,,9,5.003309799998533,,,,,,,,,,,,,,,,,,,,,,,,,,,,030819_p1,001,2019_Mar_08_1213,body_behavioural,3.0.4,59.84914662825267,
7,"It was a simple design, with a clear, white diamond on a thin silver band.",1,2,,,,0,7,7,7,,,,,0,5,5,5,,,,,,,,,,,,,,,,,,,,,,,,,,,,,1,3.935722233989509,,,,,,,,,,,,,,,,,,,,,,,,,,,,030819_p1,001,2019_Mar_08_1213,body_behavioural,3.0.4,59.84914662825267,
7,"“Sven, let’s go! ” Isabel said. ",1,2,,,,0,7,7,7,,,,,0,6,6,6,,,,,,,,,,,,,,,,,,,,,,,,,,,,,1,2.4864425949926954,,,,,,,,,,,,,,,,,,,,,,,,,,,,030819_p1,001,2019_Mar_08_1213,body_behavioural,3.0.4,59.84914662825267,
7,Sven discretely closed the box and put it in his pocket.,1,2,,,,0,7,7,7,,,,,0,7,7,7,,,,,,,,,,,,,,,,,,,,,,,,,,,,,1,2.003310132015031,,,,,,,,,,,,,,,,,,,,,,,,,,,,030819_p1,001,2019_Mar_08_1213,body_behavioural,3.0.4,59.84914662825267,
7," They entered the security line, weaving through the roped walkways to the front. ",2,2,,,,0,7,7,7,,,,,0,8,8,8,,,,,,,,,,,,,,,,,,,,,,,,,,,,,1,2.46991462999722,,,,,,,,,,,,,,,,,,,,,,,,,,,,030819_p1,001,2019_Mar_08_1213,body_behavioural,3.0.4,59.84914662825267,
7,"When they were up, Isabel realized her laptop was buried somewhere in her duffle bag. ",2,2,,,,0,7,7,7,,,,,0,9,9,9,,,,,,,,,,,,,,,,,,,,,,,,,,,,,1,4.136334337003063,,,,,,,,,,,,,,,,,,,,,,,,,,,,030819_p1,001,2019_Mar_08_1213,body_behavioural,3.0.4,59.84914662825267,
7,Sven had to hold the growing mound of objects she pulled from her bag until she unearthed the laptop.,2,2,,,,0,7,7,7,,,,,0,10,10,10,,,,,,,,,,,,,,,,,,,,,,,,,,,,,1,7.68552395797451,,,,,,,,,,,,,,,,,,,,,,,,,,,,030819_p1,001,2019_Mar_08_1213,body_behavioural,3.0.4,59.84914662825267,
7,She set it into a bin and then had to unstrap her leather boots and put everything else into the bins.,2,2,,,,0,7,7,7,,,,,0,11,11,11,,,,,,,,,,,,,,,,,,,,,,,,,,,,,1,4.569867234007688,,,,,,,,,,,,,,,,,,,,,,,,,,,,030819_p1,001,2019_Mar_08_1213,body_behavioural,3.0.4,59.84914662825267,
7,"Finally, she relieved Sven of his holding duties, and he hurriedly deposited his own backpack on the belt as the people behind them glared without shame. ",2,2,,,,0,7,7,7,,,,,0,12,12,12,,,,,,,,,,,,,,,,,,,,,,,,,,,,,1,10.503852780006127,,,,,,,,,,,,,,,,,,,,,,,,,,,,030819_p1,001,2019_Mar_08_1213,body_behavioural,3.0.4,59.84914662825267,
7,"Sven went into the millimeter wave scanner after Isabel, put his hands up, and the metal bars whirled around him.",2,2,,,,0,7,7,7,,,,,0,13,13,13,,,,,,,,,,,,,,,,,,,,,,,,,,,,,1,3.3697482900170144,,,,,,,,,,,,,,,,,,,,,,,,,,,,030819_p1,001,2019_Mar_08_1213,body_behavioural,3.0.4,59.84914662825267,
7,"“Sir, please step to the side.",2,2,,,,0,7,7,7,,,,,0,14,14,14,,,,,,,,,,,,,,,,,,,,,,,,,,,,,1,1.3841212970146444,,,,,,,,,,,,,,,,,,,,,,,,,,,,030819_p1,001,2019_Mar_08_1213,body_behavioural,3.0.4,59.84914662825267,
7,"You need to empty your pockets,” the security guard said.",2,2,,,,0,7,7,7,,,,,0,15,15,15,,,,,,,,,,,,,,,,,,,,,,,,,,,,,1,1.803270086995326,,,,,,,,,,,,,,,,,,,,,,,,,,,,030819_p1,001,2019_Mar_08_1213,body_behavioural,3.0.4,59.84914662825267,
7,"With a sinking feeling Sven realized the mistake he had made forgetting to put the ring back in his bag, as Isabel and the guard both looked at him expectantly.",2,2,,,,0,7,7,7,,,,,0,16,16,16,,,,,,,,,,,,,,,,,,,,,,,,,,,,,1,5.853144765016623,,,,,,,,,,,,,,,,,,,,,,,,,,,,030819_p1,001,2019_Mar_08_1213,body_behavioural,3.0.4,59.84914662825267,
7,"Sven,  deciding he would make the best of the situation, grabbed Isabel's hand as he reached into his pocket.",2,2,,,,0,7,7,7,,,,,0,17,17,17,,,,,,,,,,,,,,,,,,,,,,,,,,,,,1,8.853864289994817,,,,,,,,,,,,,,,,,,,,,,,,,,,,030819_p1,001,2019_Mar_08_1213,body_behavioural,3.0.4,59.84914662825267,
7,"He got down on one knee and, giggling slightly at her confused look, said, “Isabel, this isn't quite how I'd planned this, but - will you marry me?”",2,3,,,,0,7,7,7,,,,,0,18,18,18,,,,,,,,,,,,,,,,,,,,,,,,,,,,,1,3.520889734994853,,,,,,,,,,,,,,,,,,,,,,,,,,,,030819_p1,001,2019_Mar_08_1213,body_behavioural,3.0.4,59.84914662825267,
7,The security guard gasped.,2,3,,,,0,7,7,7,,,,,0,19,19,19,,,,,,,,,,,,,,,,,,,,,,,,,,,,,9,1.420217660983326,,,,,,,,,,,,,,,,,,,,,,,,,,,,030819_p1,001,2019_Mar_08_1213,body_behavioural,3.0.4,59.84914662825267,
7,All the people who were putting their shoes back on and gathering their belongings stopped what they were doing and walked closer to the couple.,2,3,,,,0,7,7,7,,,,,0,20,20,20,,,,,,,,,,,,,,,,,,,,,,,,,,,,,1,6.787377212982392,,,,,,,,,,,,,,,,,,,,,,,,,,,,030819_p1,001,2019_Mar_08_1213,body_behavioural,3.0.4,59.84914662825267,
7,"Isabel was astonished, and far too shy to respond in front of the backup of passengers waiting behind them.",2,3,,,,0,7,7,7,,,,,0,21,21,21,,,,,,,,,,,,,,,,,,,,,,,,,,,,,1,5.0012470000074245,,,,,,,,,,,,,,,,,,,,,,,,,,,,030819_p1,001,2019_Mar_08_1213,body_behavioural,3.0.4,59.84914662825267,
7,"She attempted to stammer a response as she frantically grabbed her and Sven’s shoes, leaving Sven to retrieve their bags.",2,3,,,,0,7,7,7,,,,,0,22,22,22,,,,,,,,,,,,,,,,,,,,,,,,,,,,,1,6.953333065001061,,,,,,,,,,,,,,,,,,,,,,,,,,,,030819_p1,001,2019_Mar_08_1213,body_behavioural,3.0.4,59.84914662825267,
7,"Both of them slipping in their socked feet, she fled onto the concourse with Sven trying to catch up behind her.",3,3,,,,0,7,7,7,,,,,0,23,23,23,,,,,,,,,,,,,,,,,,,,,,,,,,,,,1,4.0867132029961795,,,,,,,,,,,,,,,,,,,,,,,,,,,,030819_p1,001,2019_Mar_08_1213,body_behavioural,3.0.4,59.84914662825267,
7,"Everyone in the terminal was looking at them with confusion as Sven, holding the bags in one hand and the open ring box in the other, finally caught up to her.",3,3,,,,0,7,7,7,,,,,0,24,24,24,,,,,,,,,,,,,,,,,,,,,,,,,,,,,1,3.9528708000143524,,,,,,,,,,,,,,,,,,,,,,,,,,,,030819_p1,001,2019_Mar_08_1213,body_behavioural,3.0.4,59.84914662825267,
7,“Isabel?”,3,3,,,,0,7,7,7,,,,,0,25,25,25,,,,,,,,,,,,,,,,,,,,,,,,,,,,,1,1.853394120989833,,,,,,,,,,,,,,,,,,,,,,,,,,,,030819_p1,001,2019_Mar_08_1213,body_behavioural,3.0.4,59.84914662825267,
7,"He watched her face as she turned, trying to read her expression.",3,3,,,,0,7,7,7,,,,,0,26,26,26,,,,,,,,,,,,,,,,,,,,,,,,,,,,,1,1.753304862009827,,,,,,,,,,,,,,,,,,,,,,,,,,,,030819_p1,001,2019_Mar_08_1213,body_behavioural,3.0.4,59.84914662825267,
7,"Her eyes were wide, but she was smiling as she hyperventilated, “Of course yes, Sven, yes!” ",3,4,,,,0,7,7,7,,,,,0,27,27,27,,,,,,,,,,,,,,,,,,,,,,,,,,,,,1,1.9536658550205175,,,,,,,,,,,,,,,,,,,,,,,,,,,,030819_p1,001,2019_Mar_08_1213,body_behavioural,3.0.4,59.84914662825267,
7,"They dropped their belongings and hugged, and Sven slipped the ring onto Isabel’s finger. ",3,4,,,,0,7,7,7,,,,,0,28,28,28,,,,,,,,,,,,,,,,,,,,,,,,,,,,,1,2.7692587320052553,,,,,,,,,,,,,,,,,,,,,,,,,,,,030819_p1,001,2019_Mar_08_1213,body_behavioural,3.0.4,59.84914662825267,
7,"After getting their shoes back on, they practically skipped to the gate, filled with joy.",3,4,,,,0,7,7,7,,,,,0,29,29,29,,,,,,,,,,,,,,,,,,,,,,,,,,,,,1,5.019516184984241,,,,,,,,,,,,,,,,,,,,,,,,,,,,030819_p1,001,2019_Mar_08_1213,body_behavioural,3.0.4,59.84914662825267,
7,Sven high-fived a confused shoe-shine attendant as they passed.,3,4,,,,0,7,7,7,,,,,0,30,30,30,,,,,,,,,,,,,,,,,,,,,,,,,,,,,1,2.202969399979338,,,,,,,,,,,,,,,,,,,,,,,,,,,,030819_p1,001,2019_Mar_08_1213,body_behavioural,3.0.4,59.84914662825267,
7,"They sat down outside their gate, having actually made good time, until the attendant called for passengers.",3,4,,,,0,7,7,7,,,,,0,31,31,31,,,,,,,,,,,,,,,,,,,,,,,,,,,,,1,3.169894482009113,,,,,,,,,,,,,,,,,,,,,,,,,,,,030819_p1,001,2019_Mar_08_1213,body_behavioural,3.0.4,59.84914662825267,
7,"They boarded, sitting together in first class, and had a glass of champagne to celebrate the departure into their new life together.",4,4,,,,0,7,7,7,,,,,0,32,32,32,,,,,,,,,,,,,,,,,,,,,,,,,,,,,1,3.202739489992382,,,,,,,,,,,,,,,,,,,,,,,,,,,,030819_p1,001,2019_Mar_08_1213,body_behavioural,3.0.4,59.84914662825267,
7,"Some of their neighboring passengers who had witnessed the proposal congratulated them, and a woman next to them showed them that she had been live-tweeting the whole event and that it was already going viral online.",4,4,,,,0,7,7,7,,,,,0,33,33,33,,,,,,,,,,,,,,,,,,,,,,,,,,,,,1,4.870219336997252,,,,,,,,,,,,,,,,,,,,,,,,,,,,030819_p1,001,2019_Mar_08_1213,body_behavioural,3.0.4,59.84914662825267,
7,"Isabel slid down in her seat with her hands over her face, both embarrassed and overjoyed at the same time.
",4,4,,,,0,7,7,7,,,,,0,34,34,34,,,,,,,,,,,,,,,,,,,,,,,,,,,,,1,3.636649997002678,,,,,,,,,,,,,,,,,,,,,,,,,,,,030819_p1,001,2019_Mar_08_1213,body_behavioural,3.0.4,59.84914662825267,
7,,,,,,,0,7,7,7,,,,,,,,,,,,,,,,,,,,,,,,,,,,,,,,,,,,,,,,,,,,,,,,,,,,,,,,,,,,,,,,,,030819_p1,001,2019_Mar_08_1213,body_behavioural,3.0.4,59.84914662825267,
,,,,,,,,,,,,,,,,,,,,,,,,,,,,,,,,,,,,,,,,,,,,,,,,,1617.5917032989964,space,2.6690050209872425,,,,,,,,,,,,,,,,,,,,,,,,,030819_p1,001,2019_Mar_08_1213,body_behavioural,3.0.4,59.84914662825267,
,,,,,,The next task in the experiment is to recall each story to the best of your ability.,,,,,,,,,,,,,0,0,0,0,,,,,,,,,,,,,,,,,,,,,,,,,,,,,,space,3.786610056995414,,,,,,,,,,,,,,,,,,,,,,,030819_p1,001,2019_Mar_08_1213,body_behavioural,3.0.4,59.84914662825267,
,,,,,,"You will be presented with the story title, names, the images, and a blank text box for each story.",,,,,,,,,,,,,0,1,1,1,,,,,,,,,,,,,,,,,,,,,,,,,,,,,,space,5.701743194978917,,,,,,,,,,,,,,,,,,,,,,,030819_p1,001,2019_Mar_08_1213,body_behavioural,3.0.4,59.84914662825267,
,,,,,,Describe the story with as many details as you can remember in the space provided. ,,,,,,,,,,,,,0,2,2,2,,,,,,,,,,,,,,,,,,,,,,,,,,,,,,space,6.236560314981034,,,,,,,,,,,,,,,,,,,,,,,030819_p1,001,2019_Mar_08_1213,body_behavioural,3.0.4,59.84914662825267,
,,,,,,"When you are finished recalling one story, to move onto the next one hit ‘return’. ",,,,,,,,,,,,,0,3,3,3,,,,,,,,,,,,,,,,,,,,,,,,,,,,,,space,3.7863194949750323,,,,,,,,,,,,,,,,,,,,,,,030819_p1,001,2019_Mar_08_1213,body_behavioural,3.0.4,59.84914662825267,
,,,,,,There is a 5 minute time limit to make your response. ,,,,,,,,,,,,,0,4,4,4,,,,,,,,,,,,,,,,,,,,,,,,,,,,,,space,2.9870362149958964,,,,,,,,,,,,,,,,,,,,,,,030819_p1,001,2019_Mar_08_1213,body_behavioural,3.0.4,59.84914662825267,
0,,,,,,,,,,,,,,,,,,,,,,,0,0,0,0,,,,,,,,,,,,,,,,,,,,,,,,,,,,space,1.720158378011547,"Senna is planning on proposing to alvira. they are at a restaurant and senna goes to use the bathroom at one point. they are joking about the tomatoes that alvira is growing at her home, and senna uses this in his proposal as he says that he wants to share those tomatoes with her for the rest of their lives. this event takes place at night and the restaurant had a nice view of the ocean from its windows.",,,,,,,,,,,,,,,,,,,,030819_p1,001,2019_Mar_08_1213,body_behavioural,3.0.4,59.84914662825267,
1,,,,,,,,,,,,,,,,,,,,,,,0,1,1,1,,,,,,,,,,,,,,,,,,,,,,,,,,,,space,2.020626208977774,"Charlie and alma meet each other in a class for the first time. charlie thinks that he recognizes alma from somewhere, and he gets her attention by passing her a note. they are in a class and the professor informs them that they have an exam on friday.",,,,,,,,,,,,,,,,,,,,030819_p1,001,2019_Mar_08_1213,body_behavioural,3.0.4,59.84914662825267,
2,,,,,,,,,,,,,,,,,,,,,,,0,2,2,2,,,,,,,,,,,,,,,,,,,,,,,,,,,,space,1.0705249160237145,"Calvin and jessie are boarding a plane back home to the u.s. jessie is not happy with calvin and is planning on breaking up with him. as they go through security, calvin is trying to distract from jessie's upsetness, but jessie displays her frustrations with calvin. jessie eventually states that she thinks that they should split up when they return to the states. they are late arriving to the airport, but are fortunate that they do not have to remove all of their items from their bags when going through security. they also are both sitting in first class, but they do not have seats next to each other so they have time to self-reflect by themselves. jessie tells calvin that she hopes he has a nice flight.",,,,,,,,,,,,,,,,,,,,030819_p1,001,2019_Mar_08_1213,body_behavioural,3.0.4,59.84914662825267,
3,,,,,,,,,,,,,,,,,,,,,,,0,3,3,3,,,,,,,,,,,,,,,,,,,,,,,,,,,,space,1.7030513230129145,"Leon and ariana are both in class. leon is new to the school and does not think he will know anyone there. when he sees ariana, however, he feels like he recognizes her. leon sends her a note and ariana looks over at leon and is attracted to him. meanwhile, the professor is lecturing and announces at the end of class that there is an exam coming up on friday. they agree to go on a date in the future.",,,,,,,,,,,,,,,,,,,,030819_p1,001,2019_Mar_08_1213,body_behavioural,3.0.4,59.84914662825267,
4,,,,,,,,,,,,,,,,,,,,,,,0,4,4,4,,,,,,,,,,,,,,,,,,,,,,,,,,,,space,1.3529414069780614,"Simon and carina meet each other at a grocery store in boston. carina is new to the area and this is her first time at the store. they are both shopping for barbecue food and simon makes a joke using the chicken in the barbecue section. when they get to the front of the store, simon is disappointed that the lines are short because he wants to spend more time with carina. he removes the separator for their items at the checkout line and tells carina that this was essentially a date and that he would treat her. he asks if she would like to meet up with him at some point, and he suggests going to the harvard lawn as he says it is beautiful. she agrees to this proposal.",,,,,,,,,,,,,,,,,,,,030819_p1,001,2019_Mar_08_1213,body_behavioural,3.0.4,59.84914662825267,
5,,,,,,,,,,,,,,,,,,,,,,,0,5,5,5,,,,,,,,,,,,,,,,,,,,,,,,,,,,space,1.0185748499934562,"Thomas and sadie meet up at a diner and thomas is preparing to break up with sadie. sadie, however, is very excited to see thomas and states that she missed him during the day. they are seated at a booth, and when sadie asks thomas how his day was and holds his hand, thomas moves his hand away and starts telling her how he is feeling. he says that he thinks he needs some time alone and some time to think. while he is talking and sadie expresses her shock, their waiter comes over and takes their order. they both have to rush to pick something, and the menu is filled with many unfamiliar items. thomas decides on a burger with tomatoes. sadie asks if they can just spend less time together instead of splitting up. eventually, they are brought their food by the oblivious waiter and thomas asks sadie if they can be friends. sadie, however, does not want to talk to him again and leaves. thomas takes a bite of his burger and is not fond of the taste. he questions if this was done intentionally by the restaurant as it is noted that many of the customers picked up on what was happening as a result of sadie's reaction.",,,,,,,,,,,,,,,,,,,,030819_p1,001,2019_Mar_08_1213,body_behavioural,3.0.4,59.84914662825267,
6,,,,,,,,,,,,,,,,,,,,,,,0,6,6,6,,,,,,,,,,,,,,,,,,,,,,,,,,,,space,1.719219343009172,"Ms. morrison is attempting to convince ms. bianchi to add morrison's cheese products to bianchi's store. they discuss this deal in the store because that is where morrison likes to conduct her business so that they can keep their focus on the sale. when they go to the cheese section, bianchi states that they already have a large assortment of cheese and they do not need to add more. morrison, however, says that one can always improve upon the quality of the food. they discuss this more as they wait in line to check out. the line is rather long, and they end up waiting for ten minutes. in this time, morrison is able to convince bianchi to buy her products. after they check out, morrison grabs some samples from her car and they feast on mozzarella and crackers.",,,,,,,,,,,,,,,,,,,,030819_p1,001,2019_Mar_08_1213,body_behavioural,3.0.4,59.84914662825267,
7,,,,,,,,,,,,,,,,,,,,,,,0,7,7,7,,,,,,,,,,,,,,,,,,,,,,,,,,,,space,1.2841341799939983,"Sven is planning on proposing to isabel and has his ring in his pocket. they are at an airport and preparing to go through security. isabel has sven hold some items as she goes through her bag and searches for her laptop. when they go through security, sven is asked by a security guard to remove everything from his pockets. he realizes that he left the ring in his pocket and decides to take advantage of the situation and proposes to isabel in the security line. she is shocked and does not seem to want to answer while being rushed by everyone trying to get through security. she grabs her items and rushes to the concourse and sven follows closely behind. when he asks her again, she says yes. they find out many people were recording the proposal and some even posted it on social media. isabel did not seem too fond of the added attention.",,,,,,,,,,,,,,,,,,,,030819_p1,001,2019_Mar_08_1213,body_behavioural,3.0.4,59.84914662825267,
,,,,,,,,,,,,,,,,,,,,,,,,,,,,,,,,,,,,,,,,,,,,,,,,,,,,,,,,,2779.1026512990065,space,1.9360620879742783,,,,,,,,,,,,,,,,,030819_p1,001,2019_Mar_08_1213,body_behavioural,3.0.4,59.84914662825267,
,,,,,,The next part of the task is to answer 8 questions about each story.,,,,,,,,,,,,,,,,,,,,,0,0,0,0,,,,,,,,,,,,,,,,,,,,,,,,,,,,,,space,3.9365911119966768,,,,,,,,,,,,,,,030819_p1,001,2019_Mar_08_1213,body_behavioural,3.0.4,59.84914662825267,
,,,,,,Some of the questions are not related to the perspective you were asked to assume.,,,,,,,,,,,,,,,,,,,,,0,1,1,1,,,,,,,,,,,,,,,,,,,,,,,,,,,,,,space,2.4697464099735953,,,,,,,,,,,,,,,030819_p1,001,2019_Mar_08_1213,body_behavioural,3.0.4,59.84914662825267,
,,,,,,"We realize that we did not tell you to think of these questions during the story, but do your best to answer them.",,,,,,,,,,,,,,,,,,,,,0,2,2,2,,,,,,,,,,,,,,,,,,,,,,,,,,,,,,space,4.552932241989765,,,,,,,,,,,,,,,030819_p1,001,2019_Mar_08_1213,body_behavioural,3.0.4,59.84914662825267,
,,,,,,"When you have finished typing your answer, hit ‘return’ to submit your answer and move onto the next question. ",,,,,,,,,,,,,,,,,,,,,0,3,3,3,,,,,,,,,,,,,,,,,,,,,,,,,,,,,,space,5.086303653020877,,,,,,,,,,,,,,,030819_p1,001,2019_Mar_08_1213,body_behavioural,3.0.4,59.84914662825267,
0,,,,,,,,,,,,,,,,,,,,,,,,,,,,,,,0,0,0,0,,,,,,,,,,,,,,,,,,,,,,They seem to enjoy it,,,,,,space,2.4366062819899525,He feels nervous and anxious,non-primed first,The ring is his grandmother's,A waiter helps with the proposal,The waiter and those present in the restaurant,With vines throughout it,The menus are large,Something with tomatoes,They seem to enjoy it,,,,030819_p1,001,2019_Mar_08_1213,body_behavioural,3.0.4,59.84914662825267,
1,,,,,,,,,,,,,,,,,,,,,,,,,,,,,,,0,1,1,1,,,,,,,,,,,,,,,,,,,,,,Friday,,,,,,space,2.653861964994576,Economics/finance,non-primed first,Something online and $30000,It is accepted,An agreement between the two parties,Large,,History,Friday,,,,030819_p1,001,2019_Mar_08_1213,body_behavioural,3.0.4,59.84914662825267,
2,,,,,,,,,,,,,,,,,,,,,,,,,,,,,,,0,2,2,2,,,,,,,,,,,,,,,,,,,,,,They do not as calvin ignores jessie's comments on the plane,,,,,,space,3.2533396350045223,They are very crunched for time - maybe 45 minutes,primed first,They do not have to do much as they are allowed to take liquids and they do not have to remove their shoes,They are upset as jessie broke up with calvin,They both sit in first class - calvin in row 4 and jessie in row 1,Jessie feels angry at calvin,She has been angry at calvin and does not feel he is a good match,Calvin is shocked by the break up,They do not as calvin ignores jessie's comments on the plane,,,,030819_p1,001,2019_Mar_08_1213,body_behavioural,3.0.4,59.84914662825267,
3,,,,,,,,,,,,,,,,,,,,,,,,,,,,,,,0,3,3,3,,,,,,,,,,,,,,,,,,,,,,Leon leaves first to go to class,,,,,,space,1.9196768780238926,The lecture hall is small and not actually meant for lectures,non-primed first,It is about archaeology,History,Next friday,Leon notices ariana first because he thinks she looks familiar,"Leon writes a note and hands it to ariana, which initiates a conversation after class",Leon proposes going on a date on campus,Leon leaves first to go to class,,,,030819_p1,001,2019_Mar_08_1213,body_behavioural,3.0.4,59.84914662825267,
4,,,,,,,,,,,,,,,,,,,,,,,,,,,,,,,0,4,4,4,,,,,,,,,,,,,,,,,,,,,,The groceries are over $100 and simon pays with a credit card,,,,,,space,1.3864470350090414,Simon notices carina first because they bump into each other as they enter,non-primed first,They meet outside the store as they enter at the same time,Simon proposes going on a date and they propose going to the harvard lawn,Carina leaves first as she has to go prepare for her barbecue,The grocery store is not very filled,They pick out items for a barbecue like chicken,The checkout line is short and they do not seem to have to wait,The groceries are over $100 and simon pays with a credit card,,,,030819_p1,001,2019_Mar_08_1213,body_behavioural,3.0.4,59.84914662825267,
5,,,,,,,,,,,,,,,,,,,,,,,,,,,,,,,0,5,5,5,,,,,,,,,,,,,,,,,,,,,,They do not as sadie says she never wants to talk to thomas again and leaves while they were eating,,,,,,space,1.1204868599888869,There are not many decorations in the diner,non-primed first,The menus are filled with unfamiliar foods,Thomas orders a burger with tomatoes,Thomas does not seem to like the food,Thomas feels upset before initiating the breakup,Thomas wants time to be by himself and find himself,Sadie is upset and starts to cry after being told,They do not as sadie says she never wants to talk to thomas again and leaves while they were eating,,,,030819_p1,001,2019_Mar_08_1213,body_behavioural,3.0.4,59.84914662825267,
6,,,,,,,,,,,,,,,,,,,,,,,,,,,,,,,0,6,6,6,,,,,,,,,,,,,,,,,,,,,,The groceries are $6 and morrison uses quarters to pay for them,,,,,,space,1.152833747008117,They are in the grocery store/cheese business,primed first,A sale of cheese is being negotiated for $10000,Bianchi agrees to the deal proposed by morrison,A new partnership between bianchi and morrison as morrison's cheeses will be added to the store,It is relatively filled,They pick out cheeses,The checkout line is long and they have to wait for 10 minutes,The groceries are $6 and morrison uses quarters to pay for them,,,,030819_p1,001,2019_Mar_08_1213,body_behavioural,3.0.4,59.84914662825267,
7,,,,,,,,,,,,,,,,,,,,,,,,,,,,,,,0,7,7,7,,,,,,,,,,,,,,,,,,,,,,Everyone in the concourse area that isabel ran to after being initially asked by sven,,,,,,space,1.18616819701856,They do not seem to be rushed for time when entering,non-primed first,They have to remove an items from their pockets,Isabel is shocked following the proposal and sven is shocked that isabel hasn't given an answer yet,Behind first class,He is nervous and unsure of exactly how he will do it,The ring consists of diamonds and looks very nice,"The security guard helps by forcing sven to remove the ring from his pocket, which is what sparked this idea",Everyone in the concourse area that isabel ran to after being initially asked by sven,,,,030819_p1,001,2019_Mar_08_1213,body_behavioural,3.0.4,59.84914662825267,
,,,,,,,,,,,,,,,,,,,,,,,,,,,,,,,,,,,,,,,,,,,,,,,,,,,,,,,,,,,,,,,,,,,,,,,,,3576.024266316992,space,1.836411666998174,030819_p1,001,2019_Mar_08_1213,body_behavioural,3.0.4,59.84914662825267,
,,,,,,,,,,,,,,,,,,,,,,,,,,,,,,,,,,,0,0,0,0,,,,,,,,,,,,,,,,,,,,,,,,,,,,,,,,,,,,,,030819_p1,001,2019_Mar_08_1213,body_behavioural,3.0.4,59.84914662825267,
,,,,,,,,,,,,,,,,,,,,,,,,,,,,,,,,,,,1,0,1,0,,,,,,,,,,,,,,,,,,,,,,,,,,,,,,,,,,,,,,030819_p1,001,2019_Mar_08_1213,body_behavioural,3.0.4,59.84914662825267,
,,,,,,,,,,,,,,,,,,,,,,,,,,,,,,,,,,,2,0,2,0,,,,,,,,,,,,,,,,,,,,,,,,,,,,,,,,,,,,,,030819_p1,001,2019_Mar_08_1213,body_behavioural,3.0.4,59.84914662825267,
