count,storyText,locationEvent,socialEvent,locationEventSize,socialEventSize,instructText,trials.thisRepN,trials.thisTrialN,trials.thisN,trials.thisIndex,trials_7.thisRepN,trials_7.thisTrialN,trials_7.thisN,trials_7.thisIndex,trials_2.thisRepN,trials_2.thisTrialN,trials_2.thisN,trials_2.thisIndex,trials_3.thisRepN,trials_3.thisTrialN,trials_3.thisN,trials_3.thisIndex,trials_4.thisRepN,trials_4.thisTrialN,trials_4.thisN,trials_4.thisIndex,trials_5.thisRepN,trials_5.thisTrialN,trials_5.thisN,trials_5.thisIndex,trials_6.thisRepN,trials_6.thisTrialN,trials_6.thisN,trials_6.thisIndex,trials_8.thisRepN,trials_8.thisTrialN,trials_8.thisN,trials_8.thisIndex,order of stories,order of perspectives,participant 2 order - stories,participant 2 order  - schemas types,key_resp_8.keys,key_resp_8.rt,key_resp_5.keys,key_resp_5.rt,key_resp_7.keys,key_resp_7.rt,story_presses.keys,story_presses.rt,story time,key_resp_6.keys,key_resp_6.rt,key_resp_2.keys,key_resp_2.rt,key_resp_10.keys,key_resp_10.rt,recall,recall time,key_resp_12.keys,key_resp_12.rt,key_resp_3.keys,key_resp_3.rt,key_resp_11.keys,key_resp_11.rt,question1_answer,order of question,question2_answer,question3_answer,question4_answer,question5_answer,question6_answer,question7_answer,question8_answer,questions time,key_resp_13.keys,key_resp_13.rt,participant,session,date,expName,psychopyVersion,frameRate,
0,,,,,,,0,0,0,0,0,0,0,0,,,,,,,,,,,,,,,,,,,,,,,,,[13 22 41 43 24 34 11 32 12 44 23 14 21 42 31 33],"['Location' 'Social' 'Location' 'Social' 'Location' 'Social' 'Social'
 'Location' 'Social' 'Social' 'Location' 'Location' 'Social' 'Location'
 'Location' 'Social']",[12 44 23 14 21 42 31 33],"['Social' 'Social' 'Location' 'Location' 'Social' 'Location' 'Location'
 'Social']",space,31.55804717997671,space,6.553365635016235,space,2.569995697995182,,,,,,,,,,,,,,,,,,,,,,,,,,,,,,030819_p2,001,2019_Mar_08_1346,body_behavioural,3.0.4,60.00847440330045,
0,The grocery store was not the place Emmanuella and Liam wanted to be at the moment considering they had been fighting beforehand to the point where Emmanuella was thinking of breaking up with Liam.,1,1,,,,0,0,0,0,,,,,0,0,0,0,,,,,,,,,,,,,,,,,,,,,,,,,,,,,,,9,33.88848412499647,,,,,,,,,,,,,,,,,,,,,,,,,,,,030819_p2,001,2019_Mar_08_1346,body_behavioural,3.0.4,60.00847440330045,
0,"However, they had to go grocery shopping because they were hosting a dinner party for friends that evening and had no groceries. ",1,1,,,,0,0,0,0,,,,,0,1,1,1,,,,,,,,,,,,,,,,,,,,,,,,,,,,,,,1,16.1879187199811,,,,,,,,,,,,,,,,,,,,,,,,,,,,030819_p2,001,2019_Mar_08_1346,body_behavioural,3.0.4,60.00847440330045,
0,The grocery store was dimly lit and had dark wood paneling for all the shelves.,1,1,,,,0,0,0,0,,,,,0,2,2,2,,,,,,,,,,,,,,,,,,,,,,,,,,,,,,,1,6.486555657000281,,,,,,,,,,,,,,,,,,,,,,,,,,,,030819_p2,001,2019_Mar_08_1346,body_behavioural,3.0.4,60.00847440330045,
0,"The store specialized in organic produce and products catering to desires for high-end products, such as imported cheeses and sauces. ",1,1,,,,0,0,0,0,,,,,0,3,3,3,,,,,,,,,,,,,,,,,,,,,,,,,,,,,,,1,9.284614151983988,,,,,,,,,,,,,,,,,,,,,,,,,,,,030819_p2,001,2019_Mar_08_1346,body_behavioural,3.0.4,60.00847440330045,
0,"Emmanuella felt angry as she headed immediately for the pasta section, and Liam trailed behind her. ",2,1,,,,0,0,0,0,,,,,0,4,4,4,,,,,,,,,,,,,,,,,,,,,,,,,,,,,,,9,5.603648235002765,,,,,,,,,,,,,,,,,,,,,,,,,,,,030819_p2,001,2019_Mar_08_1346,body_behavioural,3.0.4,60.00847440330045,
0,Emmanuella selected a few boxes of linguine.,2,1,,,,0,0,0,0,,,,,0,5,5,5,,,,,,,,,,,,,,,,,,,,,,,,,,,,,,,1,2.869399365008576,,,,,,,,,,,,,,,,,,,,,,,,,,,,030819_p2,001,2019_Mar_08_1346,body_behavioural,3.0.4,60.00847440330045,
0,"“I guess we are having pasta tonight,” Liam said.",2,1,,,,0,0,0,0,,,,,0,6,6,6,,,,,,,,,,,,,,,,,,,,,,,,,,,,,,,1,4.454255860997364,,,,,,,,,,,,,,,,,,,,,,,,,,,,030819_p2,001,2019_Mar_08_1346,body_behavioural,3.0.4,60.00847440330045,
0,"Emmanuella looked back at him and said, “Well if you were going to actually help cook, I would be fine with something else.”",2,1,,,,0,0,0,0,,,,,0,7,7,7,,,,,,,,,,,,,,,,,,,,,,,,,,,,,,,1,9.286993075016653,,,,,,,,,,,,,,,,,,,,,,,,,,,,030819_p2,001,2019_Mar_08_1346,body_behavioural,3.0.4,60.00847440330045,
0,"Liam sighed, and finally said, “You don’t want me to help.",2,1,,,,0,0,0,0,,,,,0,8,8,8,,,,,,,,,,,,,,,,,,,,,,,,,,,,,,,1,3.3198847050080076,,,,,,,,,,,,,,,,,,,,,,,,,,,,030819_p2,001,2019_Mar_08_1346,body_behavioural,3.0.4,60.00847440330045,
0,"I try to, but it seems like I always get in the way!” ",2,1,,,,0,0,0,0,,,,,0,9,9,9,,,,,,,,,,,,,,,,,,,,,,,,,,,,,,,1,4.103336422005668,,,,,,,,,,,,,,,,,,,,,,,,,,,,030819_p2,001,2019_Mar_08_1346,body_behavioural,3.0.4,60.00847440330045,
0,"Emmanuella angrily threw the pasta into the cart, losing her temper.",2,1,,,,0,0,0,0,,,,,0,10,10,10,,,,,,,,,,,,,,,,,,,,,,,,,,,,,,,9,3.1863695770152844,,,,,,,,,,,,,,,,,,,,,,,,,,,,030819_p2,001,2019_Mar_08_1346,body_behavioural,3.0.4,60.00847440330045,
0," “Liam, you don’t even try!",2,1,,,,0,0,0,0,,,,,0,11,11,11,,,,,,,,,,,,,,,,,,,,,,,,,,,,,,,1,8.286922134982888,,,,,,,,,,,,,,,,,,,,,,,,,,,,030819_p2,001,2019_Mar_08_1346,body_behavioural,3.0.4,60.00847440330045,
0,You know what?,2,1,,,,0,0,0,0,,,,,0,12,12,12,,,,,,,,,,,,,,,,,,,,,,,,,,,,,,,1,1.6528564770123921,,,,,,,,,,,,,,,,,,,,,,,,,,,,030819_p2,001,2019_Mar_08_1346,body_behavioural,3.0.4,60.00847440330045,
0,I don’t think I can do this anymore. ,2,2,,,,0,0,0,0,,,,,0,13,13,13,,,,,,,,,,,,,,,,,,,,,,,,,,,,,,,1,2.3697544850001577,,,,,,,,,,,,,,,,,,,,,,,,,,,,030819_p2,001,2019_Mar_08_1346,body_behavioural,3.0.4,60.00847440330045,
0,"I was going to wait until after this unfortunately-timed dinner party tonight to talk about this, but I might as well say it now: I don’t want to be in a relationship with you anymore.",2,2,,,,0,0,0,0,,,,,0,14,14,14,,,,,,,,,,,,,,,,,,,,,,,,,,,,,,,9,7.501000512012979,,,,,,,,,,,,,,,,,,,,,,,,,,,,030819_p2,001,2019_Mar_08_1346,body_behavioural,3.0.4,60.00847440330045,
0," I’m tired of the constant fighting, and I feel like when we try to do anything fun anymore it ends up unpleasant for the stupidest reasons, and I am just past  trying to work things out.”",2,2,,,,0,0,0,0,,,,,0,15,15,15,,,,,,,,,,,,,,,,,,,,,,,,,,,,,,,1,13.418337965005776,,,,,,,,,,,,,,,,,,,,,,,,,,,,030819_p2,001,2019_Mar_08_1346,body_behavioural,3.0.4,60.00847440330045,
0,"Liam refused to look at her as she picked out sauces for the pasta, and then she threw up her hands, saying, “You know what, if this party is still happening we are going to just eat pasta.”",2,2,,,,0,0,0,0,,,,,0,16,16,16,,,,,,,,,,,,,,,,,,,,,,,,,,,,,,,1,9.986831100017298,,,,,,,,,,,,,,,,,,,,,,,,,,,,030819_p2,001,2019_Mar_08_1346,body_behavioural,3.0.4,60.00847440330045,
0,They headed to the checkout area where there was only one station open but it was not crowded at all.,3,2,,,,0,0,0,0,,,,,0,17,17,17,,,,,,,,,,,,,,,,,,,,,,,,,,,,,,,9,4.186690702015767,,,,,,,,,,,,,,,,,,,,,,,,,,,,030819_p2,001,2019_Mar_08_1346,body_behavioural,3.0.4,60.00847440330045,
0,Emmanuella sighed and got in line while Liam pretended to be interested in the magazine racks as he thought. ,3,2,,,,0,0,0,0,,,,,0,18,18,18,,,,,,,,,,,,,,,,,,,,,,,,,,,,,,,1,10.320371039997553,,,,,,,,,,,,,,,,,,,,,,,,,,,,030819_p2,001,2019_Mar_08_1346,body_behavioural,3.0.4,60.00847440330045,
0,"Finally he turned to her and sighed, “Yes, I was thinking the same thing - I think we could definitely be happier with other people.” ",3,3,,,,0,0,0,0,,,,,0,19,19,19,,,,,,,,,,,,,,,,,,,,,,,,,,,,,,,9,6.036815497995121,,,,,,,,,,,,,,,,,,,,,,,,,,,,030819_p2,001,2019_Mar_08_1346,body_behavioural,3.0.4,60.00847440330045,
0,"As if she hadn't heard him, Emmanuella looked at their cart and said, “I'm not sure this will be enough, could you grab another box of pasta?”",3,3,,,,0,0,0,0,,,,,0,20,20,20,,,,,,,,,,,,,,,,,,,,,,,,,,,,,,,1,6.986917273985455,,,,,,,,,,,,,,,,,,,,,,,,,,,,030819_p2,001,2019_Mar_08_1346,body_behavioural,3.0.4,60.00847440330045,
0, Liam scoffed and walked off to quickly get it.,3,3,,,,0,0,0,0,,,,,0,21,21,21,,,,,,,,,,,,,,,,,,,,,,,,,,,,,,,1,2.2537542700010817,,,,,,,,,,,,,,,,,,,,,,,,,,,,030819_p2,001,2019_Mar_08_1346,body_behavioural,3.0.4,60.00847440330045,
0,"As Emmanuella waited in line, she took a moment to compose herself, deciding that there was no reason to continue making a scene in the store. ",3,3,,,,0,0,0,0,,,,,0,22,22,22,,,,,,,,,,,,,,,,,,,,,,,,,,,,,,,1,5.70389694700134,,,,,,,,,,,,,,,,,,,,,,,,,,,,030819_p2,001,2019_Mar_08_1346,body_behavioural,3.0.4,60.00847440330045,
0," Right when Liam came back with the pasta, the cashier started scanning their groceries.",4,3,,,,0,0,0,0,,,,,0,23,23,23,,,,,,,,,,,,,,,,,,,,,,,,,,,,,,,9,10.420206750015495,,,,,,,,,,,,,,,,,,,,,,,,,,,,030819_p2,001,2019_Mar_08_1346,body_behavioural,3.0.4,60.00847440330045,
0,"The cost came to $30, and Emmanuella paid with her credit card.",4,3,,,,0,0,0,0,,,,,0,24,24,24,,,,,,,,,,,,,,,,,,,,,,,,,,,,,,,1,4.020501435006736,,,,,,,,,,,,,,,,,,,,,,,,,,,,030819_p2,001,2019_Mar_08_1346,body_behavioural,3.0.4,60.00847440330045,
0,"She asked Liam politely to take the bags, and he obliged, following her to toward the exit. ",4,3,,,,0,0,0,0,,,,,0,25,25,25,,,,,,,,,,,,,,,,,,,,,,,,,,,,,,,1,9.452971283986699,,,,,,,,,,,,,,,,,,,,,,,,,,,,030819_p2,001,2019_Mar_08_1346,body_behavioural,3.0.4,60.00847440330045,
0,"“Liam, I think we are making the right decision.",4,4,,,,0,0,0,0,,,,,0,26,26,26,,,,,,,,,,,,,,,,,,,,,,,,,,,,,,,1,2.570295229990734,,,,,,,,,,,,,,,,,,,,,,,,,,,,030819_p2,001,2019_Mar_08_1346,body_behavioural,3.0.4,60.00847440330045,
0,This is good.” ,4,4,,,,0,0,0,0,,,,,0,27,27,27,,,,,,,,,,,,,,,,,,,,,,,,,,,,,,,1,1.2188862240000162,,,,,,,,,,,,,,,,,,,,,,,,,,,,030819_p2,001,2019_Mar_08_1346,body_behavioural,3.0.4,60.00847440330045,
0,"“I agree,” he said, visibly relieved at the thought that they had gotten through the last fight they would ever need to have.",4,4,,,,0,0,0,0,,,,,0,28,28,28,,,,,,,,,,,,,,,,,,,,,,,,,,,,,,,1,5.220602854999015,,,,,,,,,,,,,,,,,,,,,,,,,,,,030819_p2,001,2019_Mar_08_1346,body_behavioural,3.0.4,60.00847440330045,
0,"“I think we can still host this dinner tonight, as long as you're still on board,” Emmanuella said.",4,4,,,,0,0,0,0,,,,,0,29,29,29,,,,,,,,,,,,,,,,,,,,,,,,,,,,,,,1,3.9863689829944633,,,,,,,,,,,,,,,,,,,,,,,,,,,,030819_p2,001,2019_Mar_08_1346,body_behavioural,3.0.4,60.00847440330045,
0,"Liam nodded, “Yes, let’s just not tell anyone yet.” ",4,4,,,,0,0,0,0,,,,,0,30,30,30,,,,,,,,,,,,,,,,,,,,,,,,,,,,,,,1,3.286655628005974,,,,,,,,,,,,,,,,,,,,,,,,,,,,030819_p2,001,2019_Mar_08_1346,body_behavioural,3.0.4,60.00847440330045,
0,"Emmanuella laughed, “Whoever leaks it loses their rights to the cat.”",4,4,,,,0,0,0,0,,,,,0,31,31,31,,,,,,,,,,,,,,,,,,,,,,,,,,,,,,,1,3.453013145015575,,,,,,,,,,,,,,,,,,,,,,,,,,,,030819_p2,001,2019_Mar_08_1346,body_behavioural,3.0.4,60.00847440330045,
0,"Liam rolled his eyes and managed a weak chuckle, knowing the cat would be a whole other issue to sort out later.
",4,4,,,,0,0,0,0,,,,,0,32,32,32,,,,,,,,,,,,,,,,,,,,,,,,,,,,,,,1,4.536534524988383,,,,,,,,,,,,,,,,,,,,,,,,,,,,030819_p2,001,2019_Mar_08_1346,body_behavioural,3.0.4,60.00847440330045,
0,,,,,,,0,0,0,0,,,,,,,,,,,,,,,,,,,,,,,,,,,,,,,,,,,,,,,,,,,,,,,,,,,,,,,,,,,,,,,,,,,,030819_p2,001,2019_Mar_08_1346,body_behavioural,3.0.4,60.00847440330045,
1,,,,,,,0,1,1,1,0,0,0,0,,,,,,,,,,,,,,,,,,,,,,,,,,,,,space,3.5181574420130346,space,2.353209240012802,space,1.4363933199783787,,,,,,,,,,,,,,,,,,,,,,,,,,,,,,030819_p2,001,2019_Mar_08_1346,body_behavioural,3.0.4,60.00847440330045,
1,"Sven and Isabel walked hurriedly from the cab into the Barcelona Airport after an incredible weekend with Isabel’s family, which had wiped away any doubts Sven had had about his decision to propose. ",1,1,,,,0,1,1,1,,,,,0,0,0,0,,,,,,,,,,,,,,,,,,,,,,,,,,,,,,,9,56.790569570002845,,,,,,,,,,,,,,,,,,,,,,,,,,,,030819_p2,001,2019_Mar_08_1346,body_behavioural,3.0.4,60.00847440330045,
1,"They were a little pressed for time, with only a little over an hour until their flight would take off to go back to the US, but they already had their online boarding passes and no checked luggage. ",1,1,,,,0,1,1,1,,,,,0,1,1,1,,,,,,,,,,,,,,,,,,,,,,,,,,,,,,,1,14.254384177009342,,,,,,,,,,,,,,,,,,,,,,,,,,,,030819_p2,001,2019_Mar_08_1346,body_behavioural,3.0.4,60.00847440330045,
1,"When Isabel stopped to rummage through her purse looking for her phone, Sven turned his back to her and took the velvet box out of his backpack, opening it to look at the ring he bought her.",1,2,,,,0,1,1,1,,,,,0,2,2,2,,,,,,,,,,,,,,,,,,,,,,,,,,,,,,,9,18.36861865199171,,,,,,,,,,,,,,,,,,,,,,,,,,,,030819_p2,001,2019_Mar_08_1346,body_behavioural,3.0.4,60.00847440330045,
1,"He had received her parents’ blessing during the trip, and he was almost giddy with excitement. ",1,2,,,,0,1,1,1,,,,,0,3,3,3,,,,,,,,,,,,,,,,,,,,,,,,,,,,,,,1,5.703448096988723,,,,,,,,,,,,,,,,,,,,,,,,,,,,030819_p2,001,2019_Mar_08_1346,body_behavioural,3.0.4,60.00847440330045,
1,"He tilted the ring backward and forward, despite having already studied it daily since he had purchased it a few weeks ago. ",1,2,,,,0,1,1,1,,,,,0,4,4,4,,,,,,,,,,,,,,,,,,,,,,,,,,,,,,,1,5.586828669998795,,,,,,,,,,,,,,,,,,,,,,,,,,,,030819_p2,001,2019_Mar_08_1346,body_behavioural,3.0.4,60.00847440330045,
1,"It was a simple design, with a clear, white diamond on a thin silver band.",1,2,,,,0,1,1,1,,,,,0,5,5,5,,,,,,,,,,,,,,,,,,,,,,,,,,,,,,,1,7.020644924981752,,,,,,,,,,,,,,,,,,,,,,,,,,,,030819_p2,001,2019_Mar_08_1346,body_behavioural,3.0.4,60.00847440330045,
1,"“Sven, let’s go! ” Isabel said. ",1,2,,,,0,1,1,1,,,,,0,6,6,6,,,,,,,,,,,,,,,,,,,,,,,,,,,,,,,9,2.9370243459998164,,,,,,,,,,,,,,,,,,,,,,,,,,,,030819_p2,001,2019_Mar_08_1346,body_behavioural,3.0.4,60.00847440330045,
1,Sven discretely closed the box and put it in his pocket.,1,2,,,,0,1,1,1,,,,,0,7,7,7,,,,,,,,,,,,,,,,,,,,,,,,,,,,,,,1,1.9867430070007686,,,,,,,,,,,,,,,,,,,,,,,,,,,,030819_p2,001,2019_Mar_08_1346,body_behavioural,3.0.4,60.00847440330045,
1," They entered the security line, weaving through the roped walkways to the front. ",2,2,,,,0,1,1,1,,,,,0,8,8,8,,,,,,,,,,,,,,,,,,,,,,,,,,,,,,,1,3.520145857008174,,,,,,,,,,,,,,,,,,,,,,,,,,,,030819_p2,001,2019_Mar_08_1346,body_behavioural,3.0.4,60.00847440330045,
1,"When they were up, Isabel realized her laptop was buried somewhere in her duffle bag. ",2,2,,,,0,1,1,1,,,,,0,9,9,9,,,,,,,,,,,,,,,,,,,,,,,,,,,,,,,9,6.270281431992771,,,,,,,,,,,,,,,,,,,,,,,,,,,,030819_p2,001,2019_Mar_08_1346,body_behavioural,3.0.4,60.00847440330045,
1,Sven had to hold the growing mound of objects she pulled from her bag until she unearthed the laptop.,2,2,,,,0,1,1,1,,,,,0,10,10,10,,,,,,,,,,,,,,,,,,,,,,,,,,,,,,,1,4.867120796989184,,,,,,,,,,,,,,,,,,,,,,,,,,,,030819_p2,001,2019_Mar_08_1346,body_behavioural,3.0.4,60.00847440330045,
1,She set it into a bin and then had to unstrap her leather boots and put everything else into the bins.,2,2,,,,0,1,1,1,,,,,0,11,11,11,,,,,,,,,,,,,,,,,,,,,,,,,,,,,,,1,3.8343918330210727,,,,,,,,,,,,,,,,,,,,,,,,,,,,030819_p2,001,2019_Mar_08_1346,body_behavioural,3.0.4,60.00847440330045,
1,"Finally, she relieved Sven of his holding duties, and he hurriedly deposited his own backpack on the belt as the people behind them glared without shame. ",2,2,,,,0,1,1,1,,,,,0,12,12,12,,,,,,,,,,,,,,,,,,,,,,,,,,,,,,,1,10.97058814499178,,,,,,,,,,,,,,,,,,,,,,,,,,,,030819_p2,001,2019_Mar_08_1346,body_behavioural,3.0.4,60.00847440330045,
1,"Sven went into the millimeter wave scanner after Isabel, put his hands up, and the metal bars whirled around him.",2,2,,,,0,1,1,1,,,,,0,13,13,13,,,,,,,,,,,,,,,,,,,,,,,,,,,,,,,9,6.602846877998672,,,,,,,,,,,,,,,,,,,,,,,,,,,,030819_p2,001,2019_Mar_08_1346,body_behavioural,3.0.4,60.00847440330045,
1,"“Sir, please step to the side.",2,2,,,,0,1,1,1,,,,,0,14,14,14,,,,,,,,,,,,,,,,,,,,,,,,,,,,,,,1,4.768360604008194,,,,,,,,,,,,,,,,,,,,,,,,,,,,030819_p2,001,2019_Mar_08_1346,body_behavioural,3.0.4,60.00847440330045,
1,"You need to empty your pockets,” the security guard said.",2,2,,,,0,1,1,1,,,,,0,15,15,15,,,,,,,,,,,,,,,,,,,,,,,,,,,,,,,1,2.3197715299902484,,,,,,,,,,,,,,,,,,,,,,,,,,,,030819_p2,001,2019_Mar_08_1346,body_behavioural,3.0.4,60.00847440330045,
1,"With a sinking feeling Sven realized the mistake he had made forgetting to put the ring back in his bag, as Isabel and the guard both looked at him expectantly.",2,2,,,,0,1,1,1,,,,,0,16,16,16,,,,,,,,,,,,,,,,,,,,,,,,,,,,,,,1,10.386866257002112,,,,,,,,,,,,,,,,,,,,,,,,,,,,030819_p2,001,2019_Mar_08_1346,body_behavioural,3.0.4,60.00847440330045,
1,"Sven,  deciding he would make the best of the situation, grabbed Isabel's hand as he reached into his pocket.",2,2,,,,0,1,1,1,,,,,0,17,17,17,,,,,,,,,,,,,,,,,,,,,,,,,,,,,,,1,0.11973902300815098,,,,,,,,,,,,,,,,,,,,,,,,,,,,030819_p2,001,2019_Mar_08_1346,body_behavioural,3.0.4,60.00847440330045,
1,"He got down on one knee and, giggling slightly at her confused look, said, “Isabel, this isn't quite how I'd planned this, but - will you marry me?”",2,3,,,,0,1,1,1,,,,,0,18,18,18,,,,,,,,,,,,,,,,,,,,,,,,,,,,,,,9,12.403810201998567,,,,,,,,,,,,,,,,,,,,,,,,,,,,030819_p2,001,2019_Mar_08_1346,body_behavioural,3.0.4,60.00847440330045,
1,The security guard gasped.,2,3,,,,0,1,1,1,,,,,0,19,19,19,,,,,,,,,,,,,,,,,,,,,,,,,,,,,,,1,1.7531062470225152,,,,,,,,,,,,,,,,,,,,,,,,,,,,030819_p2,001,2019_Mar_08_1346,body_behavioural,3.0.4,60.00847440330045,
1,All the people who were putting their shoes back on and gathering their belongings stopped what they were doing and walked closer to the couple.,2,3,,,,0,1,1,1,,,,,0,20,20,20,,,,,,,,,,,,,,,,,,,,,,,,,,,,,,,1,6.136635989998467,,,,,,,,,,,,,,,,,,,,,,,,,,,,030819_p2,001,2019_Mar_08_1346,body_behavioural,3.0.4,60.00847440330045,
1,"Isabel was astonished, and far too shy to respond in front of the backup of passengers waiting behind them.",2,3,,,,0,1,1,1,,,,,0,21,21,21,,,,,,,,,,,,,,,,,,,,,,,,,,,,,,,1,4.452545111009385,,,,,,,,,,,,,,,,,,,,,,,,,,,,030819_p2,001,2019_Mar_08_1346,body_behavioural,3.0.4,60.00847440330045,
1,"She attempted to stammer a response as she frantically grabbed her and Sven’s shoes, leaving Sven to retrieve their bags.",2,3,,,,0,1,1,1,,,,,0,22,22,22,,,,,,,,,,,,,,,,,,,,,,,,,,,,,,,1,8.5035481750092,,,,,,,,,,,,,,,,,,,,,,,,,,,,030819_p2,001,2019_Mar_08_1346,body_behavioural,3.0.4,60.00847440330045,
1,"Both of them slipping in their socked feet, she fled onto the concourse with Sven trying to catch up behind her.",3,3,,,,0,1,1,1,,,,,0,23,23,23,,,,,,,,,,,,,,,,,,,,,,,,,,,,,,,9,13.387448759982362,,,,,,,,,,,,,,,,,,,,,,,,,,,,030819_p2,001,2019_Mar_08_1346,body_behavioural,3.0.4,60.00847440330045,
1,"Everyone in the terminal was looking at them with confusion as Sven, holding the bags in one hand and the open ring box in the other, finally caught up to her.",3,3,,,,0,1,1,1,,,,,0,24,24,24,,,,,,,,,,,,,,,,,,,,,,,,,,,,,,,1,5.5699942219944205,,,,,,,,,,,,,,,,,,,,,,,,,,,,030819_p2,001,2019_Mar_08_1346,body_behavioural,3.0.4,60.00847440330045,
1,“Isabel?”,3,3,,,,0,1,1,1,,,,,0,25,25,25,,,,,,,,,,,,,,,,,,,,,,,,,,,,,,,1,1.2364944129949436,,,,,,,,,,,,,,,,,,,,,,,,,,,,030819_p2,001,2019_Mar_08_1346,body_behavioural,3.0.4,60.00847440330045,
1,"He watched her face as she turned, trying to read her expression.",3,3,,,,0,1,1,1,,,,,0,26,26,26,,,,,,,,,,,,,,,,,,,,,,,,,,,,,,,1,2.1852939419914037,,,,,,,,,,,,,,,,,,,,,,,,,,,,030819_p2,001,2019_Mar_08_1346,body_behavioural,3.0.4,60.00847440330045,
1,"Her eyes were wide, but she was smiling as she hyperventilated, “Of course yes, Sven, yes!” ",3,4,,,,0,1,1,1,,,,,0,27,27,27,,,,,,,,,,,,,,,,,,,,,,,,,,,,,,,9,4.287413862999529,,,,,,,,,,,,,,,,,,,,,,,,,,,,030819_p2,001,2019_Mar_08_1346,body_behavioural,3.0.4,60.00847440330045,
1,"They dropped their belongings and hugged, and Sven slipped the ring onto Isabel’s finger. ",3,4,,,,0,1,1,1,,,,,0,28,28,28,,,,,,,,,,,,,,,,,,,,,,,,,,,,,,,1,2.853131031995872,,,,,,,,,,,,,,,,,,,,,,,,,,,,030819_p2,001,2019_Mar_08_1346,body_behavioural,3.0.4,60.00847440330045,
1,"After getting their shoes back on, they practically skipped to the gate, filled with joy.",3,4,,,,0,1,1,1,,,,,0,29,29,29,,,,,,,,,,,,,,,,,,,,,,,,,,,,,,,1,5.236721449997276,,,,,,,,,,,,,,,,,,,,,,,,,,,,030819_p2,001,2019_Mar_08_1346,body_behavioural,3.0.4,60.00847440330045,
1,Sven high-fived a confused shoe-shine attendant as they passed.,3,4,,,,0,1,1,1,,,,,0,30,30,30,,,,,,,,,,,,,,,,,,,,,,,,,,,,,,,1,4.853811497014249,,,,,,,,,,,,,,,,,,,,,,,,,,,,030819_p2,001,2019_Mar_08_1346,body_behavioural,3.0.4,60.00847440330045,
1,"They sat down outside their gate, having actually made good time, until the attendant called for passengers.",3,4,,,,0,1,1,1,,,,,0,31,31,31,,,,,,,,,,,,,,,,,,,,,,,,,,,,,,,9,5.0343337150115985,,,,,,,,,,,,,,,,,,,,,,,,,,,,030819_p2,001,2019_Mar_08_1346,body_behavioural,3.0.4,60.00847440330045,
1,"They boarded, sitting together in first class, and had a glass of champagne to celebrate the departure into their new life together.",4,4,,,,0,1,1,1,,,,,0,32,32,32,,,,,,,,,,,,,,,,,,,,,,,,,,,,,,,1,3.8688637610175647,,,,,,,,,,,,,,,,,,,,,,,,,,,,030819_p2,001,2019_Mar_08_1346,body_behavioural,3.0.4,60.00847440330045,
1,"Some of their neighboring passengers who had witnessed the proposal congratulated them, and a woman next to them showed them that she had been live-tweeting the whole event and that it was already going viral online.",4,4,,,,0,1,1,1,,,,,0,33,33,33,,,,,,,,,,,,,,,,,,,,,,,,,,,,,,,9,11.535384707996855,,,,,,,,,,,,,,,,,,,,,,,,,,,,030819_p2,001,2019_Mar_08_1346,body_behavioural,3.0.4,60.00847440330045,
1,"Isabel slid down in her seat with her hands over her face, both embarrassed and overjoyed at the same time.
",4,4,,,,0,1,1,1,,,,,0,34,34,34,,,,,,,,,,,,,,,,,,,,,,,,,,,,,,,1,8.17033726500813,,,,,,,,,,,,,,,,,,,,,,,,,,,,030819_p2,001,2019_Mar_08_1346,body_behavioural,3.0.4,60.00847440330045,
1,,,,,,,0,1,1,1,,,,,,,,,,,,,,,,,,,,,,,,,,,,,,,,,,,,,,,,,,,,,,,,,,,,,,,,,,,,,,,,,,,,030819_p2,001,2019_Mar_08_1346,body_behavioural,3.0.4,60.00847440330045,
2,,,,,,,0,2,2,2,0,0,0,0,,,,,,,,,,,,,,,,,,,,,,,,,,,,,space,1.3358262819820084,space,1.5008008669828996,space,1.4865240569924936,,,,,,,,,,,,,,,,,,,,,,,,,,,,,,030819_p2,001,2019_Mar_08_1346,body_behavioural,3.0.4,60.00847440330045,
2,,,,,,,0,2,2,2,1,0,1,0,,,,,,,,,,,,,,,,,,,,,,,,,,,,,,,,,space,1.0876143909990788,,,,,,,,,,,,,,,,,,,,,,,,,,,,,,030819_p2,001,2019_Mar_08_1346,body_behavioural,3.0.4,60.00847440330045,
2,"James noticed Teresa immediately as she walked into the restaurant - or, more accurately as she attempted to walk into the restaurant. ",1,1,,,,0,2,2,2,,,,,0,0,0,0,,,,,,,,,,,,,,,,,,,,,,,,,,,,,,,9,18.319809501001146,,,,,,,,,,,,,,,,,,,,,,,,,,,,030819_p2,001,2019_Mar_08_1346,body_behavioural,3.0.4,60.00847440330045,
2,"She was typing intently on her phone and ran straight into the diner's clear, glass door with an echoing thud. ",1,1,,,,0,2,2,2,,,,,0,1,1,1,,,,,,,,,,,,,,,,,,,,,,,,,,,,,,,1,6.521445526013849,,,,,,,,,,,,,,,,,,,,,,,,,,,,030819_p2,001,2019_Mar_08_1346,body_behavioural,3.0.4,60.00847440330045,
2,Everyone waiting around the cash register turned to see if she was okay.,1,1,,,,0,2,2,2,,,,,0,2,2,2,,,,,,,,,,,,,,,,,,,,,,,,,,,,,,,1,33.13870793001843,,,,,,,,,,,,,,,,,,,,,,,,,,,,030819_p2,001,2019_Mar_08_1346,body_behavioural,3.0.4,60.00847440330045,
2,Teresa rubbed her head.,1,1,,,,0,2,2,2,,,,,0,3,3,3,,,,,,,,,,,,,,,,,,,,,,,,,,,,,,,1,1.1535694350022823,,,,,,,,,,,,,,,,,,,,,,,,,,,,030819_p2,001,2019_Mar_08_1346,body_behavioural,3.0.4,60.00847440330045,
2,"While being both confused and unembarrassed, she looked mostly indignant that the door had been in her way. ",1,1,,,,0,2,2,2,,,,,0,4,4,4,,,,,,,,,,,,,,,,,,,,,,,,,,,,,,,1,6.803255962004187,,,,,,,,,,,,,,,,,,,,,,,,,,,,030819_p2,001,2019_Mar_08_1346,body_behavioural,3.0.4,60.00847440330045,
2,James found this quite charming and stole a couple glances at her until she noticed and wrinkled her eyebrows at him in suspicion. ,1,1,,,,0,2,2,2,,,,,0,5,5,5,,,,,,,,,,,,,,,,,,,,,,,,,,,,,,,9,7.717116250016261,,,,,,,,,,,,,,,,,,,,,,,,,,,,030819_p2,001,2019_Mar_08_1346,body_behavioural,3.0.4,60.00847440330045,
2,"The restaurant they were in was a cabin-themed diner with wooden booths and bar, walls covered in plaid blankets, and antler decorations. ",1,1,,,,0,2,2,2,,,,,0,6,6,6,,,,,,,,,,,,,,,,,,,,,,,,,,,,,,,1,11.81822041698615,,,,,,,,,,,,,,,,,,,,,,,,,,,,030819_p2,001,2019_Mar_08_1346,body_behavioural,3.0.4,60.00847440330045,
2,The waiter saw that James and Teresa were both alone and motioned to both of them. ,1,1,,,,0,2,2,2,,,,,0,7,7,7,,,,,,,,,,,,,,,,,,,,,,,,,,,,,,,1,5.636138407018734,,,,,,,,,,,,,,,,,,,,,,,,,,,,030819_p2,001,2019_Mar_08_1346,body_behavioural,3.0.4,60.00847440330045,
2,“Right this way.,2,1,,,,0,2,2,2,,,,,0,8,8,8,,,,,,,,,,,,,,,,,,,,,,,,,,,,,,,1,4.753191669995431,,,,,,,,,,,,,,,,,,,,,,,,,,,,030819_p2,001,2019_Mar_08_1346,body_behavioural,3.0.4,60.00847440330045,
2,You two don't mind sitting at the counter?” ,2,1,,,,0,2,2,2,,,,,0,9,9,9,,,,,,,,,,,,,,,,,,,,,,,,,,,,,,,9,4.850691266998183,,,,,,,,,,,,,,,,,,,,,,,,,,,,030819_p2,001,2019_Mar_08_1346,body_behavioural,3.0.4,60.00847440330045,
2,They sat a seat apart from each other on the split tree trunk that served as a bench.,2,1,,,,0,2,2,2,,,,,0,10,10,10,,,,,,,,,,,,,,,,,,,,,,,,,,,,,,,1,5.586835855006939,,,,,,,,,,,,,,,,,,,,,,,,,,,,030819_p2,001,2019_Mar_08_1346,body_behavioural,3.0.4,60.00847440330045,
2, The waitress behind the counter gave them bright neon menus that were filled with breakfast items.,2,1,,,,0,2,2,2,,,,,0,11,11,11,,,,,,,,,,,,,,,,,,,,,,,,,,,,,,,1,4.852804725000169,,,,,,,,,,,,,,,,,,,,,,,,,,,,030819_p2,001,2019_Mar_08_1346,body_behavioural,3.0.4,60.00847440330045,
2,"Teresa quickly glanced through it, then pulled out a book and started reading it while James played with the salt and pepper shakers as he tried to think of an excuse to talk to Teresa.",2,1,,,,0,2,2,2,,,,,0,12,12,12,,,,,,,,,,,,,,,,,,,,,,,,,,,,,,,1,6.953635940008098,,,,,,,,,,,,,,,,,,,,,,,,,,,,030819_p2,001,2019_Mar_08_1346,body_behavioural,3.0.4,60.00847440330045,
2,"James eventually turned to her and asked, “Your forehead alright?”",2,2,,,,0,2,2,2,,,,,0,13,13,13,,,,,,,,,,,,,,,,,,,,,,,,,,,,,,,9,3.169759302982129,,,,,,,,,,,,,,,,,,,,,,,,,,,,030819_p2,001,2019_Mar_08_1346,body_behavioural,3.0.4,60.00847440330045,
2,She put down her book and gave him a smirk.,2,2,,,,0,2,2,2,,,,,0,14,14,14,,,,,,,,,,,,,,,,,,,,,,,,,,,,,,,1,2.702379366994137,,,,,,,,,,,,,,,,,,,,,,,,,,,,030819_p2,001,2019_Mar_08_1346,body_behavioural,3.0.4,60.00847440330045,
2,"“Have you ever been stung by a scorpion?”, she asked him, tilting her head.",2,2,,,,0,2,2,2,,,,,0,15,15,15,,,,,,,,,,,,,,,,,,,,,,,,,,,,,,,1,5.703560886991909,,,,,,,,,,,,,,,,,,,,,,,,,,,,030819_p2,001,2019_Mar_08_1346,body_behavioural,3.0.4,60.00847440330045,
2,"“What?”, he asked confusedly.",2,2,,,,0,2,2,2,,,,,0,16,16,16,,,,,,,,,,,,,,,,,,,,,,,,,,,,,,,1,1.086316706991056,,,,,,,,,,,,,,,,,,,,,,,,,,,,030819_p2,001,2019_Mar_08_1346,body_behavioural,3.0.4,60.00847440330045,
2, “A scorpion.”,2,2,,,,0,2,2,2,,,,,0,17,17,17,,,,,,,,,,,,,,,,,,,,,,,,,,,,,,,1,0.7692001580144279,,,,,,,,,,,,,,,,,,,,,,,,,,,,030819_p2,001,2019_Mar_08_1346,body_behavioural,3.0.4,60.00847440330045,
2,James began to worry that Teresa had possibly suffered a concussion in the door crash.,2,2,,,,0,2,2,2,,,,,0,18,18,18,,,,,,,,,,,,,,,,,,,,,,,,,,,,,,,1,2.9869171280006412,,,,,,,,,,,,,,,,,,,,,,,,,,,,030819_p2,001,2019_Mar_08_1346,body_behavioural,3.0.4,60.00847440330045,
2,"“Uh no, why?” ",2,2,,,,0,2,2,2,,,,,0,19,19,19,,,,,,,,,,,,,,,,,,,,,,,,,,,,,,,1,1.0007139250228647,,,,,,,,,,,,,,,,,,,,,,,,,,,,030819_p2,001,2019_Mar_08_1346,body_behavioural,3.0.4,60.00847440330045,
2,"“Because I’ve been stung by one, and since then, things like bumping into doors seem like pretty small potatoes.” ",2,2,,,,0,2,2,2,,,,,0,20,20,20,,,,,,,,,,,,,,,,,,,,,,,,,,,,,,,1,6.220238474983489,,,,,,,,,,,,,,,,,,,,,,,,,,,,030819_p2,001,2019_Mar_08_1346,body_behavioural,3.0.4,60.00847440330045,
2,"They carried on talking, and Teresa told him all about her encounter with a Deathstalker scorpion while she was studying abroad in Egypt.",2,2,,,,0,2,2,2,,,,,0,21,21,21,,,,,,,,,,,,,,,,,,,,,,,,,,,,,,,9,6.036799786990741,,,,,,,,,,,,,,,,,,,,,,,,,,,,030819_p2,001,2019_Mar_08_1346,body_behavioural,3.0.4,60.00847440330045,
2,"After a few minutes, the waitress behind the counter came up to them, “Alrighty, can I take you order?” ",3,3,,,,0,2,2,2,,,,,0,22,22,22,,,,,,,,,,,,,,,,,,,,,,,,,,,,,,,1,3.703292256977875,,,,,,,,,,,,,,,,,,,,,,,,,,,,030819_p2,001,2019_Mar_08_1346,body_behavioural,3.0.4,60.00847440330045,
2,"She first looked at Teresa who answered, “I’ll have a Western Omelette and a glass of milk.”",3,3,,,,0,2,2,2,,,,,0,23,23,23,,,,,,,,,,,,,,,,,,,,,,,,,,,,,,,1,34.50545003800653,,,,,,,,,,,,,,,,,,,,,,,,,,,,030819_p2,001,2019_Mar_08_1346,body_behavioural,3.0.4,60.00847440330045,
2,Then the waitress turned to James.,3,3,,,,0,2,2,2,,,,,0,24,24,24,,,,,,,,,,,,,,,,,,,,,,,,,,,,,,,1,1.203070840012515,,,,,,,,,,,,,,,,,,,,,,,,,,,,030819_p2,001,2019_Mar_08_1346,body_behavioural,3.0.4,60.00847440330045,
2,"James said, “I’ll have the chocolate chip pancakes and a coffee.” ",3,3,,,,0,2,2,2,,,,,0,25,25,25,,,,,,,,,,,,,,,,,,,,,,,,,,,,,,,1,3.0532085800077766,,,,,,,,,,,,,,,,,,,,,,,,,,,,030819_p2,001,2019_Mar_08_1346,body_behavioural,3.0.4,60.00847440330045,
2,"“Alrighty, comin’ right up!”",3,3,,,,0,2,2,2,,,,,0,26,26,26,,,,,,,,,,,,,,,,,,,,,,,,,,,,,,,1,1.2697050299902912,,,,,,,,,,,,,,,,,,,,,,,,,,,,030819_p2,001,2019_Mar_08_1346,body_behavioural,3.0.4,60.00847440330045,
2,"They picked up their conversation, and James ended up telling Teresa about a concert he was going to later. ",3,3,,,,0,2,2,2,,,,,0,27,27,27,,,,,,,,,,,,,,,,,,,,,,,,,,,,,,,1,4.20312496702536,,,,,,,,,,,,,,,,,,,,,,,,,,,,030819_p2,001,2019_Mar_08_1346,body_behavioural,3.0.4,60.00847440330045,
2,"He invited her to come along, promising her that the concert would be indoors and absolutely free of venomous insects.",3,3,,,,0,2,2,2,,,,,0,28,28,28,,,,,,,,,,,,,,,,,,,,,,,,,,,,,,,9,3.986712482001167,,,,,,,,,,,,,,,,,,,,,,,,,,,,030819_p2,001,2019_Mar_08_1346,body_behavioural,3.0.4,60.00847440330045,
2,"Teresa agreed, gave him her number, and they worked out that James would pick her up before the concert and drive them there.",3,3,,,,0,2,2,2,,,,,0,29,29,29,,,,,,,,,,,,,,,,,,,,,,,,,,,,,,,1,5.271309787000064,,,,,,,,,,,,,,,,,,,,,,,,,,,,030819_p2,001,2019_Mar_08_1346,body_behavioural,3.0.4,60.00847440330045,
2,"This was not what they had expected from their solitary lunch plans and were both excited, even though Teresa was doing a much better job of hiding it than James. ",3,3,,,,0,2,2,2,,,,,0,30,30,30,,,,,,,,,,,,,,,,,,,,,,,,,,,,,,,1,9.319658188003814,,,,,,,,,,,,,,,,,,,,,,,,,,,,030819_p2,001,2019_Mar_08_1346,body_behavioural,3.0.4,60.00847440330045,
2," After awhile,  the waitress brought out their food, and James took this opportunity to scoot closer to her on the log bench. ",4,4,,,,0,2,2,2,,,,,0,31,31,31,,,,,,,,,,,,,,,,,,,,,,,,,,,,,,,9,9.32053445398924,,,,,,,,,,,,,,,,,,,,,,,,,,,,030819_p2,001,2019_Mar_08_1346,body_behavioural,3.0.4,60.00847440330045,
2,"Teresa was happy to share the meal with James, despite their food tasting pretty bad. ",4,4,,,,0,2,2,2,,,,,0,32,32,32,,,,,,,,,,,,,,,,,,,,,,,,,,,,,,,1,4.920606522995513,,,,,,,,,,,,,,,,,,,,,,,,,,,,030819_p2,001,2019_Mar_08_1346,body_behavioural,3.0.4,60.00847440330045,
2,"Judging by how salty the pancakes tasted, they suspected that the chef had confused the salt and sugar.",4,4,,,,0,2,2,2,,,,,0,33,33,33,,,,,,,,,,,,,,,,,,,,,,,,,,,,,,,1,3.7866266220225953,,,,,,,,,,,,,,,,,,,,,,,,,,,,030819_p2,001,2019_Mar_08_1346,body_behavioural,3.0.4,60.00847440330045,
2,"When the meal was over, they got up, hugged, and parted ways. ",4,4,,,,0,2,2,2,,,,,0,34,34,34,,,,,,,,,,,,,,,,,,,,,,,,,,,,,,,9,5.053406907012686,,,,,,,,,,,,,,,,,,,,,,,,,,,,030819_p2,001,2019_Mar_08_1346,body_behavioural,3.0.4,60.00847440330045,
2,"James said,“I have to run, got to get to work.",4,4,,,,0,2,2,2,,,,,0,35,35,35,,,,,,,,,,,,,,,,,,,,,,,,,,,,,,,1,1.7531783349986654,,,,,,,,,,,,,,,,,,,,,,,,,,,,030819_p2,001,2019_Mar_08_1346,body_behavioural,3.0.4,60.00847440330045,
2,See you tonight!”,4,4,,,,0,2,2,2,,,,,0,36,36,36,,,,,,,,,,,,,,,,,,,,,,,,,,,,,,,1,1.2532474620093126,,,,,,,,,,,,,,,,,,,,,,,,,,,,030819_p2,001,2019_Mar_08_1346,body_behavioural,3.0.4,60.00847440330045,
2,"Teresa smiled and walked towards the door without looking, and almost ran into the door again. ",4,4,,,,0,2,2,2,,,,,0,37,37,37,,,,,,,,,,,,,,,,,,,,,,,,,,,,,,,1,4.184996719995979,,,,,,,,,,,,,,,,,,,,,,,,,,,,030819_p2,001,2019_Mar_08_1346,body_behavioural,3.0.4,60.00847440330045,
2,They both laughed and smiled once more goodbye. ,4,4,,,,0,2,2,2,,,,,0,38,38,38,,,,,,,,,,,,,,,,,,,,,,,,,,,,,,,1,2.201503225020133,,,,,,,,,,,,,,,,,,,,,,,,,,,,030819_p2,001,2019_Mar_08_1346,body_behavioural,3.0.4,60.00847440330045,
2,,,,,,,0,2,2,2,,,,,,,,,,,,,,,,,,,,,,,,,,,,,,,,,,,,,,,,,,,,,,,,,,,,,,,,,,,,,,,,,,,,030819_p2,001,2019_Mar_08_1346,body_behavioural,3.0.4,60.00847440330045,
3,,,,,,,0,3,3,3,0,0,0,0,,,,,,,,,,,,,,,,,,,,,,,,,,,,,space,1.303085480001755,space,1.1530996049987152,space,0.8195183350180741,,,,,,,,,,,,,,,,,,,,,,,,,,,,,,030819_p2,001,2019_Mar_08_1346,body_behavioural,3.0.4,60.00847440330045,
3,"Simon and Carina noticed each other as they walked into the grocery store at the same time, their carts nearly colliding as they squeezed into the entrance.",1,1,,,,0,3,3,3,,,,,0,0,0,0,,,,,,,,,,,,,,,,,,,,,,,,,,,,,,,9,10.537414194986923,,,,,,,,,,,,,,,,,,,,,,,,,,,,030819_p2,001,2019_Mar_08_1346,body_behavioural,3.0.4,60.00847440330045,
3,"They were both new to the Boston area, and this was their first time in this store. ",1,1,,,,0,3,3,3,,,,,0,1,1,1,,,,,,,,,,,,,,,,,,,,,,,,,,,,,,,1,2.5197300449945033,,,,,,,,,,,,,,,,,,,,,,,,,,,,030819_p2,001,2019_Mar_08_1346,body_behavioural,3.0.4,60.00847440330045,
3,"It kind of looked like a large warehouse, with high unfurnished ceilings, industrial lights, and large packages of food. ",1,1,,,,0,3,3,3,,,,,0,2,2,2,,,,,,,,,,,,,,,,,,,,,,,,,,,,,,,1,5.186657126992941,,,,,,,,,,,,,,,,,,,,,,,,,,,,030819_p2,001,2019_Mar_08_1346,body_behavioural,3.0.4,60.00847440330045,
3,"They went off along separate routes, but soon ended up back together in the meat section. ",2,1,,,,0,3,3,3,,,,,0,3,3,3,,,,,,,,,,,,,,,,,,,,,,,,,,,,,,,1,4.236851119989296,,,,,,,,,,,,,,,,,,,,,,,,,,,,030819_p2,001,2019_Mar_08_1346,body_behavioural,3.0.4,60.00847440330045,
3,"They were both preparing for barbecues, so they were looking over the same cuts of meat. ",2,1,,,,0,3,3,3,,,,,0,4,4,4,,,,,,,,,,,,,,,,,,,,,,,,,,,,,,,1,3.8841933220101055,,,,,,,,,,,,,,,,,,,,,,,,,,,,030819_p2,001,2019_Mar_08_1346,body_behavioural,3.0.4,60.00847440330045,
3,"Simon really wanted to talk to Carina, and Carina really wanted to say something to Simon, but they felt embarrassed striking up a conversation with a stranger.",2,1,,,,0,3,3,3,,,,,0,5,5,5,,,,,,,,,,,,,,,,,,,,,,,,,,,,,,,1,6.420193202007795,,,,,,,,,,,,,,,,,,,,,,,,,,,,030819_p2,001,2019_Mar_08_1346,body_behavioural,3.0.4,60.00847440330045,
3,"Carina suddenly turned to Simon and, pointing at a Cornish hen, asked, “Isn’t this meat cute?”",2,2,,,,0,3,3,3,,,,,0,6,6,6,,,,,,,,,,,,,,,,,,,,,,,,,,,,,,,9,5.169557376997545,,,,,,,,,,,,,,,,,,,,,,,,,,,,030819_p2,001,2019_Mar_08_1346,body_behavioural,3.0.4,60.00847440330045,
3,"He laughed, and said, “It is very cute.",2,2,,,,0,3,3,3,,,,,0,7,7,7,,,,,,,,,,,,,,,,,,,,,,,,,,,,,,,1,1.5841963650018442,,,,,,,,,,,,,,,,,,,,,,,,,,,,030819_p2,001,2019_Mar_08_1346,body_behavioural,3.0.4,60.00847440330045,
3,"Probably the younger brother of this guy,” and he picked up a regular-sized chicken.",2,2,,,,0,3,3,3,,,,,0,8,8,8,,,,,,,,,,,,,,,,,,,,,,,,,,,,,,,1,4.419567325006938,,,,,,,,,,,,,,,,,,,,,,,,,,,,030819_p2,001,2019_Mar_08_1346,body_behavioural,3.0.4,60.00847440330045,
3,"“Unlucky family,” she responded. ",2,2,,,,0,3,3,3,,,,,0,9,9,9,,,,,,,,,,,,,,,,,,,,,,,,,,,,,,,1,1.5508023850270547,,,,,,,,,,,,,,,,,,,,,,,,,,,,030819_p2,001,2019_Mar_08_1346,body_behavioural,3.0.4,60.00847440330045,
3,They continued to chat as they picked out their groceries.,2,2,,,,0,3,3,3,,,,,0,10,10,10,,,,,,,,,,,,,,,,,,,,,,,,,,,,,,,1,1.6700388719909824,,,,,,,,,,,,,,,,,,,,,,,,,,,,030819_p2,001,2019_Mar_08_1346,body_behavioural,3.0.4,60.00847440330045,
3,"Simon helped Carina pick out the best ribs and his personal favorite barbeque sauce, and she helped him gather the  peppers, onions, and spices for a vegetable kabob she recommended.",2,2,,,,0,3,3,3,,,,,0,11,11,11,,,,,,,,,,,,,,,,,,,,,,,,,,,,,,,1,7.303440504998434,,,,,,,,,,,,,,,,,,,,,,,,,,,,030819_p2,001,2019_Mar_08_1346,body_behavioural,3.0.4,60.00847440330045,
3,"When they were both finished shopping, they went to the checkout area.",3,2,,,,0,3,3,3,,,,,0,12,12,12,,,,,,,,,,,,,,,,,,,,,,,,,,,,,,,9,3.3366538400005084,,,,,,,,,,,,,,,,,,,,,,,,,,,,030819_p2,001,2019_Mar_08_1346,body_behavioural,3.0.4,60.00847440330045,
3,"Simon was disappointed to see that the lines were short, since he had been hoping for an excuse to spend more time with Carina.",3,2,,,,0,3,3,3,,,,,0,13,13,13,,,,,,,,,,,,,,,,,,,,,,,,,,,,,,,1,5.170364389981842,,,,,,,,,,,,,,,,,,,,,,,,,,,,030819_p2,001,2019_Mar_08_1346,body_behavioural,3.0.4,60.00847440330045,
3,"They had real chemistry, and both of them could definitely see a future together despite having just met.",3,2,,,,0,3,3,3,,,,,0,14,14,14,,,,,,,,,,,,,,,,,,,,,,,,,,,,,,,1,10.03669806997641,,,,,,,,,,,,,,,,,,,,,,,,,,,,030819_p2,001,2019_Mar_08_1346,body_behavioural,3.0.4,60.00847440330045,
3,"“So you haven’t been around the city much?”, Simon asked. ",3,2,,,,0,3,3,3,,,,,0,15,15,15,,,,,,,,,,,,,,,,,,,,,,,,,,,,,,,1,2.8529205770173576,,,,,,,,,,,,,,,,,,,,,,,,,,,,030819_p2,001,2019_Mar_08_1346,body_behavioural,3.0.4,60.00847440330045,
3,"“No, not really.",3,2,,,,0,3,3,3,,,,,0,16,16,16,,,,,,,,,,,,,,,,,,,,,,,,,,,,,,,1,1.0529690599942114,,,,,,,,,,,,,,,,,,,,,,,,,,,,030819_p2,001,2019_Mar_08_1346,body_behavioural,3.0.4,60.00847440330045,
3,I’ve mainly been working and setting up my apartment.”,3,2,,,,0,3,3,3,,,,,0,17,17,17,,,,,,,,,,,,,,,,,,,,,,,,,,,,,,,1,2.0370176369906403,,,,,,,,,,,,,,,,,,,,,,,,,,,,030819_p2,001,2019_Mar_08_1346,body_behavioural,3.0.4,60.00847440330045,
3,"Simon asked her, “Ok well, if you’d like I could pick you up next weekend, and we could go around Harvard Square and get dinner.",3,3,,,,0,3,3,3,,,,,0,18,18,18,,,,,,,,,,,,,,,,,,,,,,,,,,,,,,,9,8.271639921993483,,,,,,,,,,,,,,,,,,,,,,,,,,,,030819_p2,001,2019_Mar_08_1346,body_behavioural,3.0.4,60.00847440330045,
3,"There are a lot of great places around there, and it’s really nice during the summer.",3,3,,,,0,3,3,3,,,,,0,19,19,19,,,,,,,,,,,,,,,,,,,,,,,,,,,,,,,1,2.5701650549890473,,,,,,,,,,,,,,,,,,,,,,,,,,,,030819_p2,001,2019_Mar_08_1346,body_behavioural,3.0.4,60.00847440330045,
3,The Harvard campus is also beautiful.” ,3,3,,,,0,3,3,3,,,,,0,20,20,20,,,,,,,,,,,,,,,,,,,,,,,,,,,,,,,1,1.4021661919832695,,,,,,,,,,,,,,,,,,,,,,,,,,,,030819_p2,001,2019_Mar_08_1346,body_behavioural,3.0.4,60.00847440330045,
3,"Carina smiled, “I’d love to: that sounds great!”",3,3,,,,0,3,3,3,,,,,0,21,21,21,,,,,,,,,,,,,,,,,,,,,,,,,,,,,,,1,1.6369496470142622,,,,,,,,,,,,,,,,,,,,,,,,,,,,030819_p2,001,2019_Mar_08_1346,body_behavioural,3.0.4,60.00847440330045,
3,"She quickly entered her number in his phone, since they only had to wait a couple minutes in line.",3,3,,,,0,3,3,3,,,,,0,22,22,22,,,,,,,,,,,,,,,,,,,,,,,,,,,,,,,1,7.819151017989498,,,,,,,,,,,,,,,,,,,,,,,,,,,,030819_p2,001,2019_Mar_08_1346,body_behavioural,3.0.4,60.00847440330045,
3,Then it was her turn to check out with the cashier. ,4,3,,,,0,3,3,3,,,,,0,23,23,23,,,,,,,,,,,,,,,,,,,,,,,,,,,,,,,9,3.318589374976,,,,,,,,,,,,,,,,,,,,,,,,,,,,030819_p2,001,2019_Mar_08_1346,body_behavioural,3.0.4,60.00847440330045,
3,"Simon, wanting to make a gesture of his affection, lifted up the divider on the conveyor belt and said to the cashier, “Actually these are together.",4,3,,,,0,3,3,3,,,,,0,24,24,24,,,,,,,,,,,,,,,,,,,,,,,,,,,,,,,1,6.554000749980332,,,,,,,,,,,,,,,,,,,,,,,,,,,,030819_p2,001,2019_Mar_08_1346,body_behavioural,3.0.4,60.00847440330045,
3,"Carina, I’ve got it.",4,3,,,,0,3,3,3,,,,,0,25,25,25,,,,,,,,,,,,,,,,,,,,,,,,,,,,,,,1,4.653293084993493,,,,,,,,,,,,,,,,,,,,,,,,,,,,030819_p2,001,2019_Mar_08_1346,body_behavioural,3.0.4,60.00847440330045,
3,This was kind-of a date today.”,4,3,,,,0,3,3,3,,,,,0,26,26,26,,,,,,,,,,,,,,,,,,,,,,,,,,,,,,,1,2.704110032005701,,,,,,,,,,,,,,,,,,,,,,,,,,,,030819_p2,001,2019_Mar_08_1346,body_behavioural,3.0.4,60.00847440330045,
3,Carina blushed and laughed; she thought this was ridiculous but also very sweet. ,4,3,,,,0,3,3,3,,,,,0,27,27,27,,,,,,,,,,,,,,,,,,,,,,,,,,,,,,,1,2.7532342600170523,,,,,,,,,,,,,,,,,,,,,,,,,,,,030819_p2,001,2019_Mar_08_1346,body_behavioural,3.0.4,60.00847440330045,
3,"The cashier rolled her eyes when they weren’t looking, and she scanned the rest of his items. ",4,3,,,,0,3,3,3,,,,,0,28,28,28,,,,,,,,,,,,,,,,,,,,,,,,,,,,,,,9,3.152018844994018,,,,,,,,,,,,,,,,,,,,,,,,,,,,030819_p2,001,2019_Mar_08_1346,body_behavioural,3.0.4,60.00847440330045,
3,"The total came to $120, and he paid with his credit card.",4,3,,,,0,3,3,3,,,,,0,29,29,29,,,,,,,,,,,,,,,,,,,,,,,,,,,,,,,1,2.953637880011229,,,,,,,,,,,,,,,,,,,,,,,,,,,,030819_p2,001,2019_Mar_08_1346,body_behavioural,3.0.4,60.00847440330045,
3,"Carina thanked him, and they took the groceries and walked out.",4,3,,,,0,3,3,3,,,,,0,30,30,30,,,,,,,,,,,,,,,,,,,,,,,,,,,,,,,1,2.2862538149929605,,,,,,,,,,,,,,,,,,,,,,,,,,,,030819_p2,001,2019_Mar_08_1346,body_behavioural,3.0.4,60.00847440330045,
3,"As they were walking towards the exit, Carina reluctantly said goodbye since she was running late for the barbeque she was hosting that afternoon.",4,4,,,,0,3,3,3,,,,,0,31,31,31,,,,,,,,,,,,,,,,,,,,,,,,,,,,,,,9,5.403309520013863,,,,,,,,,,,,,,,,,,,,,,,,,,,,030819_p2,001,2019_Mar_08_1346,body_behavioural,3.0.4,60.00847440330045,
3,"They hugged and parted ways, stealing glances at each other as they both walked back to their cars.",4,4,,,,0,3,3,3,,,,,0,32,32,32,,,,,,,,,,,,,,,,,,,,,,,,,,,,,,,1,2.6696287619997747,,,,,,,,,,,,,,,,,,,,,,,,,,,,030819_p2,001,2019_Mar_08_1346,body_behavioural,3.0.4,60.00847440330045,
3,,,,,,,0,3,3,3,,,,,,,,,,,,,,,,,,,,,,,,,,,,,,,,,,,,,,,,,,,,,,,,,,,,,,,,,,,,,,,,,,,,030819_p2,001,2019_Mar_08_1346,body_behavioural,3.0.4,60.00847440330045,
4,,,,,,,0,4,4,4,0,0,0,0,,,,,,,,,,,,,,,,,,,,,,,,,,,,,space,0.7530729199934285,space,0.8196260799886659,space,1.5030684420198668,,,,,,,,,,,,,,,,,,,,,,,,,,,,,,030819_p2,001,2019_Mar_08_1346,body_behavioural,3.0.4,60.00847440330045,
4,"Lana walked into lecture holding hands with her boyfriend, Aaron, who was trying to contain his excitement and anticipation for proposing to Lana in this class. ",1,1,,,,0,4,4,4,,,,,0,0,0,0,,,,,,,,,,,,,,,,,,,,,,,,,,,,,,,9,19.671014460007427,,,,,,,,,,,,,,,,,,,,,,,,,,,,030819_p2,001,2019_Mar_08_1346,body_behavioural,3.0.4,60.00847440330045,
4,"Lana was lost in thought, still puzzling over a calculus problem on her problem set due that night.",1,1,,,,0,4,4,4,,,,,0,1,1,1,,,,,,,,,,,,,,,,,,,,,,,,,,,,,,,1,4.120059364999179,,,,,,,,,,,,,,,,,,,,,,,,,,,,030819_p2,001,2019_Mar_08_1346,body_behavioural,3.0.4,60.00847440330045,
4,"The lecture hall was the fanciest one at Princeton, with chandeliers, high ceilings, wood floors and double-decker chalkboards.",1,1,,,,0,4,4,4,,,,,0,2,2,2,,,,,,,,,,,,,,,,,,,,,,,,,,,,,,,1,6.453342405002331,,,,,,,,,,,,,,,,,,,,,,,,,,,,030819_p2,001,2019_Mar_08_1346,body_behavioural,3.0.4,60.00847440330045,
4,"This is where Aaron and Lana had met two years ago during an economics class, and now they were back together in the same lecture hall for their Chemistry class. ",1,1,,,,0,4,4,4,,,,,0,3,3,3,,,,,,,,,,,,,,,,,,,,,,,,,,,,,,,1,5.85071746999165,,,,,,,,,,,,,,,,,,,,,,,,,,,,030819_p2,001,2019_Mar_08_1346,body_behavioural,3.0.4,60.00847440330045,
4,The professor caught Aaron's eye as he walked up to the front of the classroom and gave him a wink before the lecture began. ,1,1,,,,0,4,4,4,,,,,0,4,4,4,,,,,,,,,,,,,,,,,,,,,,,,,,,,,,,9,7.751191795017803,,,,,,,,,,,,,,,,,,,,,,,,,,,,030819_p2,001,2019_Mar_08_1346,body_behavioural,3.0.4,60.00847440330045,
4,Aaron responded with a huge grin. ,1,1,,,,0,4,4,4,,,,,0,5,5,5,,,,,,,,,,,,,,,,,,,,,,,,,,,,,,,1,1.6700753119948786,,,,,,,,,,,,,,,,,,,,,,,,,,,,030819_p2,001,2019_Mar_08_1346,body_behavioural,3.0.4,60.00847440330045,
4,"The professor cleared his throat and said,“Alright, good afternoon, everyone!",2,1,,,,0,4,4,4,,,,,0,6,6,6,,,,,,,,,,,,,,,,,,,,,,,,,,,,,,,9,10.803637540026102,,,,,,,,,,,,,,,,,,,,,,,,,,,,030819_p2,001,2019_Mar_08_1346,body_behavioural,3.0.4,60.00847440330045,
4,"Last week we talked about the structure of the periodic table, and this week the topic is ions.",2,1,,,,0,4,4,4,,,,,0,7,7,7,,,,,,,,,,,,,,,,,,,,,,,,,,,,,,,1,3.303372741997009,,,,,,,,,,,,,,,,,,,,,,,,,,,,030819_p2,001,2019_Mar_08_1346,body_behavioural,3.0.4,60.00847440330045,
4,These are atoms or molecules in which the number of electrons does not equal the number of protons.,2,1,,,,0,4,4,4,,,,,0,8,8,8,,,,,,,,,,,,,,,,,,,,,,,,,,,,,,,1,4.220010292978259,,,,,,,,,,,,,,,,,,,,,,,,,,,,030819_p2,001,2019_Mar_08_1346,body_behavioural,3.0.4,60.00847440330045,
4,"Now, let me get my computer set up, one moment, class.”",2,1,,,,0,4,4,4,,,,,0,9,9,9,,,,,,,,,,,,,,,,,,,,,,,,,,,,,,,1,3.653375881985994,,,,,,,,,,,,,,,,,,,,,,,,,,,,030819_p2,001,2019_Mar_08_1346,body_behavioural,3.0.4,60.00847440330045,
4,Lana pulled out her Calculus problem set and puzzled over it.,2,1,,,,0,4,4,4,,,,,0,10,10,10,,,,,,,,,,,,,,,,,,,,,,,,,,,,,,,1,2.569752809999045,,,,,,,,,,,,,,,,,,,,,,,,,,,,030819_p2,001,2019_Mar_08_1346,body_behavioural,3.0.4,60.00847440330045,
4,"While she was distracted, Aaron unzipped the small pocket in his backpack and pulled out the ring box.",2,2,,,,0,4,4,4,,,,,0,11,11,11,,,,,,,,,,,,,,,,,,,,,,,,,,,,,,,1,3.9853735390061047,,,,,,,,,,,,,,,,,,,,,,,,,,,,030819_p2,001,2019_Mar_08_1346,body_behavioural,3.0.4,60.00847440330045,
4,He opened it up and looked at the ring.,2,2,,,,0,4,4,4,,,,,0,12,12,12,,,,,,,,,,,,,,,,,,,,,,,,,,,,,,,9,2.787840327975573,,,,,,,,,,,,,,,,,,,,,,,,,,,,030819_p2,001,2019_Mar_08_1346,body_behavioural,3.0.4,60.00847440330045,
4,"Instead of one large diamond, there were 5 diamonds embedded in a thick band. ",2,2,,,,0,4,4,4,,,,,0,13,13,13,,,,,,,,,,,,,,,,,,,,,,,,,,,,,,,1,3.1859319470240735,,,,,,,,,,,,,,,,,,,,,,,,,,,,030819_p2,001,2019_Mar_08_1346,body_behavioural,3.0.4,60.00847440330045,
4,He knew Lana would like this because her style was not flashy but more about simple elegance.,2,2,,,,0,4,4,4,,,,,0,14,14,14,,,,,,,,,,,,,,,,,,,,,,,,,,,,,,,1,5.503715110011399,,,,,,,,,,,,,,,,,,,,,,,,,,,,030819_p2,001,2019_Mar_08_1346,body_behavioural,3.0.4,60.00847440330045,
4,Aaron put the ring back into the bag as the professor began the lecture. ,3,2,,,,0,4,4,4,,,,,0,15,15,15,,,,,,,,,,,,,,,,,,,,,,,,,,,,,,,1,2.0532028249872383,,,,,,,,,,,,,,,,,,,,,,,,,,,,030819_p2,001,2019_Mar_08_1346,body_behavioural,3.0.4,60.00847440330045,
4,“Recall from previous lectures that the number of protons determines the identity of the element. ,3,2,,,,0,4,4,4,,,,,0,16,16,16,,,,,,,,,,,,,,,,,,,,,,,,,,,,,,,9,2.9366596899926662,,,,,,,,,,,,,,,,,,,,,,,,,,,,030819_p2,001,2019_Mar_08_1346,body_behavioural,3.0.4,60.00847440330045,
4,"So for example, all atoms of sodium have 11 protons in the nucleus. ",3,2,,,,0,4,4,4,,,,,0,17,17,17,,,,,,,,,,,,,,,,,,,,,,,,,,,,,,,1,2.253205995017197,,,,,,,,,,,,,,,,,,,,,,,,,,,,030819_p2,001,2019_Mar_08_1346,body_behavioural,3.0.4,60.00847440330045,
4,"And if you look on the periodic table, the atomic number for sodium, the symbol is Na, is eleven.”",3,2,,,,0,4,4,4,,,,,0,18,18,18,,,,,,,,,,,,,,,,,,,,,,,,,,,,,,,1,3.4175832670007367,,,,,,,,,,,,,,,,,,,,,,,,,,,,030819_p2,001,2019_Mar_08_1346,body_behavioural,3.0.4,60.00847440330045,
4,Lana was taking notes while Aaron was texting all of his friends in the class to get ready for the proposal. ,3,2,,,,0,4,4,4,,,,,0,19,19,19,,,,,,,,,,,,,,,,,,,,,,,,,,,,,,,9,6.453406615008134,,,,,,,,,,,,,,,,,,,,,,,,,,,,030819_p2,001,2019_Mar_08_1346,body_behavioural,3.0.4,60.00847440330045,
4,"Right after talking about how two ions bond into one stable molecule by covalent bonds, the professor stopped the lecture and asked Lana to come to the front of the class to do a demonstration. ",3,2,,,,0,4,4,4,,,,,0,20,20,20,,,,,,,,,,,,,,,,,,,,,,,,,,,,,,,1,8.370094058016548,,,,,,,,,,,,,,,,,,,,,,,,,,,,030819_p2,001,2019_Mar_08_1346,body_behavioural,3.0.4,60.00847440330045,
4,"She walked to the front of the class confused, and the professor asked her to stand in the middle of the stage.",3,2,,,,0,4,4,4,,,,,0,21,21,21,,,,,,,,,,,,,,,,,,,,,,,,,,,,,,,1,2.95329635500093,,,,,,,,,,,,,,,,,,,,,,,,,,,,030819_p2,001,2019_Mar_08_1346,body_behavioural,3.0.4,60.00847440330045,
4,"Then Aaron walked up and, taking Lana’s hand, got down on one knee. ",3,3,,,,0,4,4,4,,,,,0,22,22,22,,,,,,,,,,,,,,,,,,,,,,,,,,,,,,,1,3.8696838169998955,,,,,,,,,,,,,,,,,,,,,,,,,,,,030819_p2,001,2019_Mar_08_1346,body_behavioural,3.0.4,60.00847440330045,
4,"“It's time for us to make a bond of our own, Lana.",3,3,,,,0,4,4,4,,,,,0,23,23,23,,,,,,,,,,,,,,,,,,,,,,,,,,,,,,,9,1.9675197250035126,,,,,,,,,,,,,,,,,,,,,,,,,,,,030819_p2,001,2019_Mar_08_1346,body_behavioural,3.0.4,60.00847440330045,
4,Will you marry me?” ,3,3,,,,0,4,4,4,,,,,0,24,24,24,,,,,,,,,,,,,,,,,,,,,,,,,,,,,,,1,1.6198029249790125,,,,,,,,,,,,,,,,,,,,,,,,,,,,030819_p2,001,2019_Mar_08_1346,body_behavioural,3.0.4,60.00847440330045,
4,Lana gasped and put her other hand to her mouth and started looking around the room as if trying to convince herself that this was really happening.,3,3,,,,0,4,4,4,,,,,0,25,25,25,,,,,,,,,,,,,,,,,,,,,,,,,,,,,,,1,5.270094161998713,,,,,,,,,,,,,,,,,,,,,,,,,,,,030819_p2,001,2019_Mar_08_1346,body_behavioural,3.0.4,60.00847440330045,
4,For a few moments everyone was in suspense waiting for the Lana’s shock to wear off and for her to answer. ,3,3,,,,0,4,4,4,,,,,0,26,26,26,,,,,,,,,,,,,,,,,,,,,,,,,,,,,,,1,3.8370654019818176,,,,,,,,,,,,,,,,,,,,,,,,,,,,030819_p2,001,2019_Mar_08_1346,body_behavioural,3.0.4,60.00847440330045,
4,"Finally, she said, “Yes!”",3,4,,,,0,4,4,4,,,,,0,27,27,27,,,,,,,,,,,,,,,,,,,,,,,,,,,,,,,9,1.486883339995984,,,,,,,,,,,,,,,,,,,,,,,,,,,,030819_p2,001,2019_Mar_08_1346,body_behavioural,3.0.4,60.00847440330045,
4,"Aaron put the ring on her finger, and they hugged while the whole class clapped. ",3,4,,,,0,4,4,4,,,,,0,28,28,28,,,,,,,,,,,,,,,,,,,,,,,,,,,,,,,1,2.2865225999848917,,,,,,,,,,,,,,,,,,,,,,,,,,,,030819_p2,001,2019_Mar_08_1346,body_behavioural,3.0.4,60.00847440330045,
4,"Their friends came up and hugged both of them, and the professor gave Aaron a celebratory handshake.",3,4,,,,0,4,4,4,,,,,0,29,29,29,,,,,,,,,,,,,,,,,,,,,,,,,,,,,,,1,4.783670759992674,,,,,,,,,,,,,,,,,,,,,,,,,,,,030819_p2,001,2019_Mar_08_1346,body_behavioural,3.0.4,60.00847440330045,
4,"They made their way back to their seats, Lana and Aaron hand-in-hand and beaming. ",3,4,,,,0,4,4,4,,,,,0,30,30,30,,,,,,,,,,,,,,,,,,,,,,,,,,,,,,,1,5.151553547999356,,,,,,,,,,,,,,,,,,,,,,,,,,,,030819_p2,001,2019_Mar_08_1346,body_behavioural,3.0.4,60.00847440330045,
4,"The professor then dismissed the class, saying, “That was enough excitement for today!",4,4,,,,0,4,4,4,,,,,0,31,31,31,,,,,,,,,,,,,,,,,,,,,,,,,,,,,,,9,3.967771249997895,,,,,,,,,,,,,,,,,,,,,,,,,,,,030819_p2,001,2019_Mar_08_1346,body_behavioural,3.0.4,60.00847440330045,
4,Don’t forget there’s an exam next week on the first two chapters of the textbook.”,4,4,,,,0,4,4,4,,,,,0,32,32,32,,,,,,,,,,,,,,,,,,,,,,,,,,,,,,,1,4.0200740300060716,,,,,,,,,,,,,,,,,,,,,,,,,,,,030819_p2,001,2019_Mar_08_1346,body_behavioural,3.0.4,60.00847440330045,
4,"As everyone was packing up their notebooks and leaving, Lana was already on her phone calling her family members to tell them the exciting news.",4,4,,,,0,4,4,4,,,,,0,33,33,33,,,,,,,,,,,,,,,,,,,,,,,,,,,,,,,1,4.936715943011222,,,,,,,,,,,,,,,,,,,,,,,,,,,,030819_p2,001,2019_Mar_08_1346,body_behavioural,3.0.4,60.00847440330045,
4,,,,,,,0,4,4,4,,,,,,,,,,,,,,,,,,,,,,,,,,,,,,,,,,,,,,,,,,,,,,,,,,,,,,,,,,,,,,,,,,,,030819_p2,001,2019_Mar_08_1346,body_behavioural,3.0.4,60.00847440330045,
5,,,,,,,0,5,5,5,0,0,0,0,,,,,,,,,,,,,,,,,,,,,,,,,,,,,space,0.7698611670057289,space,0.769383638020372,space,1.8025646650057752,,,,,,,,,,,,,,,,,,,,,,,,,,,,,,030819_p2,001,2019_Mar_08_1346,body_behavioural,3.0.4,60.00847440330045,
5,,,,,,,0,5,5,5,1,0,1,0,,,,,,,,,,,,,,,,,,,,,,,,,,,,,,,,,space,0.9196533850044943,,,,,,,,,,,,,,,,,,,,,,,,,,,,,,030819_p2,001,2019_Mar_08_1346,body_behavioural,3.0.4,60.00847440330045,
5,Charlie saw Alma as they walked into class and he motioned for her to come sit in the back next to him: they had business to discuss.,1,1,,,,0,5,5,5,,,,,0,0,0,0,,,,,,,,,,,,,,,,,,,,,,,,,,,,,,,9,13.821783669991419,,,,,,,,,,,,,,,,,,,,,,,,,,,,030819_p2,001,2019_Mar_08_1346,body_behavioural,3.0.4,60.00847440330045,
5,Charlie and Alma were both economics students with entrepreneurial bents.,1,1,,,,0,5,5,5,,,,,0,1,1,1,,,,,,,,,,,,,,,,,,,,,,,,,,,,,,,1,3.17014708701754,,,,,,,,,,,,,,,,,,,,,,,,,,,,030819_p2,001,2019_Mar_08_1346,body_behavioural,3.0.4,60.00847440330045,
5,They were also both very busy and in the same class.,1,1,,,,0,5,5,5,,,,,0,2,2,2,,,,,,,,,,,,,,,,,,,,,,,,,,,,,,,1,1.9030849949922413,,,,,,,,,,,,,,,,,,,,,,,,,,,,030819_p2,001,2019_Mar_08_1346,body_behavioural,3.0.4,60.00847440330045,
5,"After talking at a party, Charlie had discovered that Alma was looking for financing for her web development company.",1,1,,,,0,5,5,5,,,,,0,3,3,3,,,,,,,,,,,,,,,,,,,,,,,,,,,,,,,9,5.119747538003139,,,,,,,,,,,,,,,,,,,,,,,,,,,,030819_p2,001,2019_Mar_08_1346,body_behavioural,3.0.4,60.00847440330045,
5,It was serendipitous because he had been talking with other members of his venture capital group about making an investment. ,1,1,,,,0,5,5,5,,,,,0,4,4,4,,,,,,,,,,,,,,,,,,,,,,,,,,,,,,,1,7.470229655009462,,,,,,,,,,,,,,,,,,,,,,,,,,,,030819_p2,001,2019_Mar_08_1346,body_behavioural,3.0.4,60.00847440330045,
5,"His financial group had come to a decision that morning about Alma’s idea, and he didn't want to wait until after class to discuss the proposal with her. ",1,1,,,,0,5,5,5,,,,,0,5,5,5,,,,,,,,,,,,,,,,,,,,,,,,,,,,,,,1,7.153455585008487,,,,,,,,,,,,,,,,,,,,,,,,,,,,030819_p2,001,2019_Mar_08_1346,body_behavioural,3.0.4,60.00847440330045,
5,"The class was in a large auditorium with small, foldable desks on the side of each cushioned chair. ",1,1,,,,0,5,5,5,,,,,0,6,6,6,,,,,,,,,,,,,,,,,,,,,,,,,,,,,,,1,4.919965841982048,,,,,,,,,,,,,,,,,,,,,,,,,,,,030819_p2,001,2019_Mar_08_1346,body_behavioural,3.0.4,60.00847440330045,
5,"There were large windows on both sides of the hall, and they could see the first flurries of a winter storm starting outside. ",1,1,,,,0,5,5,5,,,,,0,7,7,7,,,,,,,,,,,,,,,,,,,,,,,,,,,,,,,1,4.768926138989627,,,,,,,,,,,,,,,,,,,,,,,,,,,,030819_p2,001,2019_Mar_08_1346,body_behavioural,3.0.4,60.00847440330045,
5,"“Here we are at Lecture Seven already in History of the Eternal City,” said the professor. ",2,1,,,,0,5,5,5,,,,,0,8,8,8,,,,,,,,,,,,,,,,,,,,,,,,,,,,,,,9,4.769959927012678,,,,,,,,,,,,,,,,,,,,,,,,,,,,030819_p2,001,2019_Mar_08_1346,body_behavioural,3.0.4,60.00847440330045,
5,“We're going to talk today about the age of the first Roman emperor: Augustus.” ,2,1,,,,0,5,5,5,,,,,0,9,9,9,,,,,,,,,,,,,,,,,,,,,,,,,,,,,,,1,4.45094479699037,,,,,,,,,,,,,,,,,,,,,,,,,,,,030819_p2,001,2019_Mar_08_1346,body_behavioural,3.0.4,60.00847440330045,
5,"She went into some recap of the last lecture, and Charlie took this as an opportunity to start talking to Alma.",2,1,,,,0,5,5,5,,,,,0,10,10,10,,,,,,,,,,,,,,,,,,,,,,,,,,,,,,,1,5.320034300006228,,,,,,,,,,,,,,,,,,,,,,,,,,,,030819_p2,001,2019_Mar_08_1346,body_behavioural,3.0.4,60.00847440330045,
5,"“Okay so I’ve been thinking about your startup idea, and I have talked about it with my fellow investors.",2,2,,,,0,5,5,5,,,,,0,11,11,11,,,,,,,,,,,,,,,,,,,,,,,,,,,,,,,9,3.7535184800217394,,,,,,,,,,,,,,,,,,,,,,,,,,,,030819_p2,001,2019_Mar_08_1346,body_behavioural,3.0.4,60.00847440330045,
5,We’d like to invest half of what you originally suggested.,2,2,,,,0,5,5,5,,,,,0,12,12,12,,,,,,,,,,,,,,,,,,,,,,,,,,,,,,,1,2.936756944982335,,,,,,,,,,,,,,,,,,,,,,,,,,,,030819_p2,001,2019_Mar_08_1346,body_behavioural,3.0.4,60.00847440330045,
5,"Rather than $30,000, we start with $15,000.",2,2,,,,0,5,5,5,,,,,0,13,13,13,,,,,,,,,,,,,,,,,,,,,,,,,,,,,,,1,2.386082421988249,,,,,,,,,,,,,,,,,,,,,,,,,,,,030819_p2,001,2019_Mar_08_1346,body_behavioural,3.0.4,60.00847440330045,
5,We would see how the company does and then invest the other half later.” ,2,2,,,,0,5,5,5,,,,,0,14,14,14,,,,,,,,,,,,,,,,,,,,,,,,,,,,,,,1,4.770380497007864,,,,,,,,,,,,,,,,,,,,,,,,,,,,030819_p2,001,2019_Mar_08_1346,body_behavioural,3.0.4,60.00847440330045,
5,"Alma, tapping her pen on her notebook, narrowed her eyes and pursed her lips.",2,2,,,,0,5,5,5,,,,,0,15,15,15,,,,,,,,,,,,,,,,,,,,,,,,,,,,,,,1,2.8863204450171907,,,,,,,,,,,,,,,,,,,,,,,,,,,,030819_p2,001,2019_Mar_08_1346,body_behavioural,3.0.4,60.00847440330045,
5,She turned back to the lecture as she considered this.,2,2,,,,0,5,5,5,,,,,0,16,16,16,,,,,,,,,,,,,,,,,,,,,,,,,,,,,,,1,1.8356909239955712,,,,,,,,,,,,,,,,,,,,,,,,,,,,030819_p2,001,2019_Mar_08_1346,body_behavioural,3.0.4,60.00847440330045,
5,"The professor was going on: “The senate had conferred upon him the title of Augustus the sacred and revered one, the restorer of traditional values, the city’s new religious leader, the restorer of temples. ",3,2,,,,0,5,5,5,,,,,0,17,17,17,,,,,,,,,,,,,,,,,,,,,,,,,,,,,,,1,5.9046669979870785,,,,,,,,,,,,,,,,,,,,,,,,,,,,030819_p2,001,2019_Mar_08_1346,body_behavioural,3.0.4,60.00847440330045,
5,"Augustus also sought to beautify Rome, make it into a new Athens, and dispel the criticisms of Rome as disorganized and ugly.”",3,2,,,,0,5,5,5,,,,,0,18,18,18,,,,,,,,,,,,,,,,,,,,,,,,,,,,,,,1,4.584096078004222,,,,,,,,,,,,,,,,,,,,,,,,,,,,030819_p2,001,2019_Mar_08_1346,body_behavioural,3.0.4,60.00847440330045,
5,"Alma turned back to Charlie and offered her rebuttal, “I don’t know about that: it’s not going to be possible to implement our ideas effectively unless the project is fully funded. ",3,3,,,,0,5,5,5,,,,,0,19,19,19,,,,,,,,,,,,,,,,,,,,,,,,,,,,,,,1,6.854344233986922,,,,,,,,,,,,,,,,,,,,,,,,,,,,030819_p2,001,2019_Mar_08_1346,body_behavioural,3.0.4,60.00847440330045,
5,We would have to find other investors and that would set us back in our timeline. ,3,3,,,,0,5,5,5,,,,,0,20,20,20,,,,,,,,,,,,,,,,,,,,,,,,,,,,,,,1,3.8866415199881885,,,,,,,,,,,,,,,,,,,,,,,,,,,,030819_p2,001,2019_Mar_08_1346,body_behavioural,3.0.4,60.00847440330045,
5,"Our profit projections assumed we'd be starting relatively soon, not months down the line.” ",3,3,,,,0,5,5,5,,,,,0,21,21,21,,,,,,,,,,,,,,,,,,,,,,,,,,,,,,,1,3.7017556479841005,,,,,,,,,,,,,,,,,,,,,,,,,,,,030819_p2,001,2019_Mar_08_1346,body_behavioural,3.0.4,60.00847440330045,
5,They whispered back and forth during the whole class in order to work out a compromise. ,3,3,,,,0,5,5,5,,,,,0,22,22,22,,,,,,,,,,,,,,,,,,,,,,,,,,,,,,,1,3.65309406502638,,,,,,,,,,,,,,,,,,,,,,,,,,,,030819_p2,001,2019_Mar_08_1346,body_behavioural,3.0.4,60.00847440330045,
5,"Finally, the class ended, and the professor dismissed the students with a reminder that the midterm paper was due on Thursday and that they should email their papers to the TA.",4,3,,,,0,5,5,5,,,,,0,23,23,23,,,,,,,,,,,,,,,,,,,,,,,,,,,,,,,1,6.286860924999928,,,,,,,,,,,,,,,,,,,,,,,,,,,,030819_p2,001,2019_Mar_08_1346,body_behavioural,3.0.4,60.00847440330045,
5,"Everyone, except Charlie and Alma, packed up their things and headed out of the lecture hall to get to their next class. ",4,3,,,,0,5,5,5,,,,,0,24,24,24,,,,,,,,,,,,,,,,,,,,,,,,,,,,,,,1,3.169857190019684,,,,,,,,,,,,,,,,,,,,,,,,,,,,030819_p2,001,2019_Mar_08_1346,body_behavioural,3.0.4,60.00847440330045,
5,"“Alright, so we’ll have the $30,000 wired to you by tomorrow,” Charlie said. ",4,4,,,,0,5,5,5,,,,,0,25,25,25,,,,,,,,,,,,,,,,,,,,,,,,,,,,,,,9,4.419988117006142,,,,,,,,,,,,,,,,,,,,,,,,,,,,030819_p2,001,2019_Mar_08_1346,body_behavioural,3.0.4,60.00847440330045,
5,"This wasn't ideal for Charlie, but Alma had refused to budge, and his investment group had told him they were willing to pay the full amount if necessary. ",4,4,,,,0,5,5,5,,,,,0,26,26,26,,,,,,,,,,,,,,,,,,,,,,,,,,,,,,,1,8.003816010023002,,,,,,,,,,,,,,,,,,,,,,,,,,,,030819_p2,001,2019_Mar_08_1346,body_behavioural,3.0.4,60.00847440330045,
5,"They shook hands, walked out of the now-empty lecture hall, and made plans to sign the official paperwork the next day.",4,4,,,,0,5,5,5,,,,,0,27,27,27,,,,,,,,,,,,,,,,,,,,,,,,,,,,,,,9,4.037042209994979,,,,,,,,,,,,,,,,,,,,,,,,,,,,030819_p2,001,2019_Mar_08_1346,body_behavioural,3.0.4,60.00847440330045,
5,,,,,,,0,5,5,5,,,,,,,,,,,,,,,,,,,,,,,,,,,,,,,,,,,,,,,,,,,,,,,,,,,,,,,,,,,,,,,,,,,,030819_p2,001,2019_Mar_08_1346,body_behavioural,3.0.4,60.00847440330045,
6,,,,,,,0,6,6,6,0,0,0,0,,,,,,,,,,,,,,,,,,,,,,,,,,,,,space,0.6195786420139484,space,1.603041044989368,space,1.053163484990364,,,,,,,,,,,,,,,,,,,,,,,,,,,,,,030819_p2,001,2019_Mar_08_1346,body_behavioural,3.0.4,60.00847440330045,
6,"Thomas, dreading the conversation he was about to have, got to Annika’s Finer Diner early.",1,1,None,None,,0,6,6,6,,,,,0,0,0,0,,,,,,,,,,,,,,,,,,,,,,,,,,,,,,,9,11.587513531994773,,,,,,,,,,,,,,,,,,,,,,,,,,,,030819_p2,001,2019_Mar_08_1346,body_behavioural,3.0.4,60.00847440330045,
6,The restaurant had a kitschy charm and was reminiscent of a diner from the 70’s. ,1,1,None,None,,0,6,6,6,,,,,0,1,1,1,,,,,,,,,,,,,,,,,,,,,,,,,,,,,,,1,3.9030648570042104,,,,,,,,,,,,,,,,,,,,,,,,,,,,030819_p2,001,2019_Mar_08_1346,body_behavioural,3.0.4,60.00847440330045,
6,A bell chimed as the door swung open and Sadie entered to find Thomas deep in thought on a bench by the door.,1,1,None,None,,0,6,6,6,,,,,0,2,2,2,,,,,,,,,,,,,,,,,,,,,,,,,,,,,,,9,5.7709402029868215,,,,,,,,,,,,,,,,,,,,,,,,,,,,030819_p2,001,2019_Mar_08_1346,body_behavioural,3.0.4,60.00847440330045,
6,He jumped up and gave her a side hug. ,1,1,None,None,,0,6,6,6,,,,,0,3,3,3,,,,,,,,,,,,,,,,,,,,,,,,,,,,,,,1,1.4368482769932598,,,,,,,,,,,,,,,,,,,,,,,,,,,,030819_p2,001,2019_Mar_08_1346,body_behavioural,3.0.4,60.00847440330045,
6,"“How was your day?”, he asked.",1,1,None,None,,0,6,6,6,,,,,0,4,4,4,,,,,,,,,,,,,,,,,,,,,,,,,,,,,,,1,1.486385035008425,,,,,,,,,,,,,,,,,,,,,,,,,,,,030819_p2,001,2019_Mar_08_1346,body_behavioural,3.0.4,60.00847440330045,
6,"She clung onto him, “It was okay.",1,1,None,None,,0,6,6,6,,,,,0,5,5,5,,,,,,,,,,,,,,,,,,,,,,,,,,,,,,,1,1.0671113260032143,,,,,,,,,,,,,,,,,,,,,,,,,,,,030819_p2,001,2019_Mar_08_1346,body_behavioural,3.0.4,60.00847440330045,
6,I missed you today.”,1,1,None,None,,0,6,6,6,,,,,0,6,6,6,,,,,,,,,,,,,,,,,,,,,,,,,,,,,,,1,1.051202859991463,,,,,,,,,,,,,,,,,,,,,,,,,,,,030819_p2,001,2019_Mar_08_1346,body_behavioural,3.0.4,60.00847440330045,
6,He looked at the hostess coming towards them.,1,1,None,None,,0,6,6,6,,,,,0,7,7,7,,,,,,,,,,,,,,,,,,,,,,,,,,,,,,,1,1.7514834649919067,,,,,,,,,,,,,,,,,,,,,,,,,,,,030819_p2,001,2019_Mar_08_1346,body_behavioural,3.0.4,60.00847440330045,
6,"“Can we have a table in the back?”, Thomas asked.",1,1,None,None,,0,6,6,6,,,,,0,8,8,8,,,,,,,,,,,,,,,,,,,,,,,,,,,,,,,1,2.369684231991414,,,,,,,,,,,,,,,,,,,,,,,,,,,,030819_p2,001,2019_Mar_08_1346,body_behavioural,3.0.4,60.00847440330045,
6,"She shrugged and, as she loudly popped her bubblegum, replied, “Sure, honey, this way.”",1,1,9.0,None,,0,6,6,6,,,,,0,9,9,9,,,,,,,,,,,,,,,,,,,,,,,,,,,,,,,9,5.720026266993955,,,,,,,,,,,,,,,,,,,,,,,,,,,,030819_p2,001,2019_Mar_08_1346,body_behavioural,3.0.4,60.00847440330045,
6,She led them to the back of the restaurant where there were dimly lit tables. ,2,1,None,None,,0,6,6,6,,,,,0,10,10,10,,,,,,,,,,,,,,,,,,,,,,,,,,,,,,,1,2.152754039998399,,,,,,,,,,,,,,,,,,,,,,,,,,,,030819_p2,001,2019_Mar_08_1346,body_behavioural,3.0.4,60.00847440330045,
6,"“Is this alright?”, the hostess asked.",2,1,None,None,,0,6,6,6,,,,,0,11,11,11,,,,,,,,,,,,,,,,,,,,,,,,,,,,,,,1,1.619945774989901,,,,,,,,,,,,,,,,,,,,,,,,,,,,030819_p2,001,2019_Mar_08_1346,body_behavioural,3.0.4,60.00847440330045,
6,Thomas cleared his throat and tried not to grimace at the stained fabric that lined the booth.,2,1,None,None,,0,6,6,6,,,,,0,12,12,12,,,,,,,,,,,,,,,,,,,,,,,,,,,,,,,1,4.985250302997883,,,,,,,,,,,,,,,,,,,,,,,,,,,,030819_p2,001,2019_Mar_08_1346,body_behavioural,3.0.4,60.00847440330045,
6,“This is great.,2,1,None,None,,0,6,6,6,,,,,0,13,13,13,,,,,,,,,,,,,,,,,,,,,,,,,,,,,,,1,0.8862191830121446,,,,,,,,,,,,,,,,,,,,,,,,,,,,030819_p2,001,2019_Mar_08_1346,body_behavioural,3.0.4,60.00847440330045,
6,"Thank you,” Thomas said.",2,1,None,None,,0,6,6,6,,,,,0,14,14,14,,,,,,,,,,,,,,,,,,,,,,,,,,,,,,,1,0.9540572399855591,,,,,,,,,,,,,,,,,,,,,,,,,,,,030819_p2,001,2019_Mar_08_1346,body_behavioural,3.0.4,60.00847440330045,
6,Sadie slipped into the cushioned seat and grabbed Thomas’ hand.,2,1,None,None,,0,6,6,6,,,,,0,15,15,15,,,,,,,,,,,,,,,,,,,,,,,,,,,,,,,1,4.670069732994307,,,,,,,,,,,,,,,,,,,,,,,,,,,,030819_p2,001,2019_Mar_08_1346,body_behavioural,3.0.4,60.00847440330045,
6,"“Tell me about your day!”, Sadie sang as Thomas sat down.",2,1,None,None,,0,6,6,6,,,,,0,16,16,16,,,,,,,,,,,,,,,,,,,,,,,,,,,,,,,9,2.4040935930097476,,,,,,,,,,,,,,,,,,,,,,,,,,,,030819_p2,001,2019_Mar_08_1346,body_behavioural,3.0.4,60.00847440330045,
6,He looked at her silently and pulled his hand slowly from hers.,2,1,None,None,,0,6,6,6,,,,,0,17,17,17,,,,,,,,,,,,,,,,,,,,,,,,,,,,,,,1,2.1347987889894284,,,,,,,,,,,,,,,,,,,,,,,,,,,,030819_p2,001,2019_Mar_08_1346,body_behavioural,3.0.4,60.00847440330045,
6,Sadie gave him a puzzled look.,2,1,None,None,,0,6,6,6,,,,,0,18,18,18,,,,,,,,,,,,,,,,,,,,,,,,,,,,,,,1,1.2009833850024734,,,,,,,,,,,,,,,,,,,,,,,,,,,,030819_p2,001,2019_Mar_08_1346,body_behavioural,3.0.4,60.00847440330045,
6,Thomas looked away and took a deep breath. ,2,1,None,None,,0,6,6,6,,,,,0,19,19,19,,,,,,,,,,,,,,,,,,,,,,,,,,,,,,,1,2.486722572008148,,,,,,,,,,,,,,,,,,,,,,,,,,,,030819_p2,001,2019_Mar_08_1346,body_behavioural,3.0.4,60.00847440330045,
6,"Sadie asked, “What’s wrong?” ",2,1,None,None,,0,6,6,6,,,,,0,20,20,20,,,,,,,,,,,,,,,,,,,,,,,,,,,,,,,9,2.152590477024205,,,,,,,,,,,,,,,,,,,,,,,,,,,,030819_p2,001,2019_Mar_08_1346,body_behavioural,3.0.4,60.00847440330045,
6,Thomas picked at his fingernails.,2,1,None,22.0,,0,6,6,6,,,,,0,21,21,21,,,,,,,,,,,,,,,,,,,,,,,,,,,,,,,1,1.169355282007018,,,,,,,,,,,,,,,,,,,,,,,,,,,,030819_p2,001,2019_Mar_08_1346,body_behavioural,3.0.4,60.00847440330045,
6,"“Sadie, I’ve been thinking, and I need to figure out some stuff… on my own.”",2,2,None,None,,0,6,6,6,,,,,0,22,22,22,,,,,,,,,,,,,,,,,,,,,,,,,,,,,,,1,4.137070675002178,,,,,,,,,,,,,,,,,,,,,,,,,,,,030819_p2,001,2019_Mar_08_1346,body_behavioural,3.0.4,60.00847440330045,
6,Sadie’s mouth popped open for a moment.,2,2,None,None,,0,6,6,6,,,,,0,23,23,23,,,,,,,,,,,,,,,,,,,,,,,,,,,,,,,1,1.7026777600112837,,,,,,,,,,,,,,,,,,,,,,,,,,,,030819_p2,001,2019_Mar_08_1346,body_behavioural,3.0.4,60.00847440330045,
6,Then she swallowed and shifted back in her seat.,2,2,None,None,,0,6,6,6,,,,,0,24,24,24,,,,,,,,,,,,,,,,,,,,,,,,,,,,,,,1,1.7027119399863295,,,,,,,,,,,,,,,,,,,,,,,,,,,,030819_p2,001,2019_Mar_08_1346,body_behavioural,3.0.4,60.00847440330045,
6,“Things have been really picking up at work.,2,2,None,None,,0,6,6,6,,,,,0,25,25,25,,,,,,,,,,,,,,,,,,,,,,,,,,,,,,,1,3.3698122150090057,,,,,,,,,,,,,,,,,,,,,,,,,,,,030819_p2,001,2019_Mar_08_1346,body_behavioural,3.0.4,60.00847440330045,
6,And I’m not sure that this is the job I want to do anymore.,2,2,None,None,,0,6,6,6,,,,,0,26,26,26,,,,,,,,,,,,,,,,,,,,,,,,,,,,,,,1,2.117512316995999,,,,,,,,,,,,,,,,,,,,,,,,,,,,030819_p2,001,2019_Mar_08_1346,body_behavioural,3.0.4,60.00847440330045,
6,It’s been really overwhelming between working and figuring out if I should change careers.” ,2,2,17.0,None,,0,6,6,6,,,,,0,27,27,27,,,,,,,,,,,,,,,,,,,,,,,,,,,,,,,1,3.2532605520100333,,,,,,,,,,,,,,,,,,,,,,,,,,,,030819_p2,001,2019_Mar_08_1346,body_behavioural,3.0.4,60.00847440330045,
6,The waiter appeared and interrupted the speech Thomas had been practicing.,3,2,None,None,,0,6,6,6,,,,,0,28,28,28,,,,,,,,,,,,,,,,,,,,,,,,,,,,,,,9,4.103268870007014,,,,,,,,,,,,,,,,,,,,,,,,,,,,030819_p2,001,2019_Mar_08_1346,body_behavioural,3.0.4,60.00847440330045,
6,"“Hello you two!”, the waiter said.",3,2,None,None,,0,6,6,6,,,,,0,29,29,29,,,,,,,,,,,,,,,,,,,,,,,,,,,,,,,1,1.2860099349927623,,,,,,,,,,,,,,,,,,,,,,,,,,,,030819_p2,001,2019_Mar_08_1346,body_behavioural,3.0.4,60.00847440330045,
6,“Have you decided what you would like?”,3,2,None,None,,0,6,6,6,,,,,0,30,30,30,,,,,,,,,,,,,,,,,,,,,,,,,,,,,,,1,1.3365818750171456,,,,,,,,,,,,,,,,,,,,,,,,,,,,030819_p2,001,2019_Mar_08_1346,body_behavioural,3.0.4,60.00847440330045,
6,"Thomas and Sadie realized there were menus on the table, and they glanced at the lengthy list quickly.",3,2,None,None,,0,6,6,6,,,,,0,31,31,31,,,,,,,,,,,,,,,,,,,,,,,,,,,,,,,1,6.986839555000188,,,,,,,,,,,,,,,,,,,,,,,,,,,,030819_p2,001,2019_Mar_08_1346,body_behavioural,3.0.4,60.00847440330045,
6,"There were so many strange dishes they had never heard of before, so they settled on familiar orders.",3,2,None,None,,0,6,6,6,,,,,0,32,32,32,,,,,,,,,,,,,,,,,,,,,,,,,,,,,,,1,3.5699245279829483,,,,,,,,,,,,,,,,,,,,,,,,,,,,030819_p2,001,2019_Mar_08_1346,body_behavioural,3.0.4,60.00847440330045,
6,"“I’ll have a burger, no tomatoes,” Thomas said.",3,2,None,None,,0,6,6,6,,,,,0,33,33,33,,,,,,,,,,,,,,,,,,,,,,,,,,,,,,,1,1.6362377920013387,,,,,,,,,,,,,,,,,,,,,,,,,,,,030819_p2,001,2019_Mar_08_1346,body_behavioural,3.0.4,60.00847440330045,
6,"Sadie asked about the reuben, and the waiter told her it was excellent.",3,2,None,None,,0,6,6,6,,,,,0,34,34,34,,,,,,,,,,,,,,,,,,,,,,,,,,,,,,,1,2.9863534120086115,,,,,,,,,,,,,,,,,,,,,,,,,,,,030819_p2,001,2019_Mar_08_1346,body_behavioural,3.0.4,60.00847440330045,
6,"Once she agreed to get that, he walked away. ",3,2,None,None,,0,6,6,6,,,,,0,35,35,35,,,,,,,,,,,,,,,,,,,,,,,,,,,,,,,1,1.33612462299061,,,,,,,,,,,,,,,,,,,,,,,,,,,,030819_p2,001,2019_Mar_08_1346,body_behavioural,3.0.4,60.00847440330045,
6,Sadie and Thomas looked at each other. ,3,2,None,None,,0,6,6,6,,,,,0,36,36,36,,,,,,,,,,,,,,,,,,,,,,,,,,,,,,,1,1.16986850000103,,,,,,,,,,,,,,,,,,,,,,,,,,,,030819_p2,001,2019_Mar_08_1346,body_behavioural,3.0.4,60.00847440330045,
6,"“So what are you saying?”, Sadie asked. ",3,2,None,None,,0,6,6,6,,,,,0,37,37,37,,,,,,,,,,,,,,,,,,,,,,,,,,,,,,,9,1.5517863749992102,,,,,,,,,,,,,,,,,,,,,,,,,,,,030819_p2,001,2019_Mar_08_1346,body_behavioural,3.0.4,60.00847440330045,
6,"Thomas replied, “I want to take a break for awhile.",3,2,None,None,,0,6,6,6,,,,,0,38,38,38,,,,,,,,,,,,,,,,,,,,,,,,,,,,,,,1,1.1372646000236273,,,,,,,,,,,,,,,,,,,,,,,,,,,,030819_p2,001,2019_Mar_08_1346,body_behavioural,3.0.4,60.00847440330045,
6,"You know, have space to figure out what I’m supposed to be doing.”",3,2,None,17.0,,0,6,6,6,,,,,0,39,39,39,,,,,,,,,,,,,,,,,,,,,,,,,,,,,,,1,4.536571302014636,,,,,,,,,,,,,,,,,,,,,,,,,,,,030819_p2,001,2019_Mar_08_1346,body_behavioural,3.0.4,60.00847440330045,
6,Sadie quietly burst into tears. ,3,3,None,None,,0,6,6,6,,,,,0,40,40,40,,,,,,,,,,,,,,,,,,,,,,,,,,,,,,,9,2.0363739950116724,,,,,,,,,,,,,,,,,,,,,,,,,,,,030819_p2,001,2019_Mar_08_1346,body_behavioural,3.0.4,60.00847440330045,
6,"Nevertheless, people sitting at the adjacent table looked over and quickly averted their gaze as they realized what was happening. ",3,3,None,None,,0,6,6,6,,,,,0,41,41,41,,,,,,,,,,,,,,,,,,,,,,,,,,,,,,,1,3.4198492349823937,,,,,,,,,,,,,,,,,,,,,,,,,,,,030819_p2,001,2019_Mar_08_1346,body_behavioural,3.0.4,60.00847440330045,
6,“Is this really what you want?,3,3,None,None,,0,6,6,6,,,,,0,42,42,42,,,,,,,,,,,,,,,,,,,,,,,,,,,,,,,1,0.936350633011898,,,,,,,,,,,,,,,,,,,,,,,,,,,,030819_p2,001,2019_Mar_08_1346,body_behavioural,3.0.4,60.00847440330045,
6,I don’t understand.,3,3,None,None,,0,6,6,6,,,,,0,43,43,43,,,,,,,,,,,,,,,,,,,,,,,,,,,,,,,1,0.7696395149978343,,,,,,,,,,,,,,,,,,,,,,,,,,,,030819_p2,001,2019_Mar_08_1346,body_behavioural,3.0.4,60.00847440330045,
6,I don’t understand.,3,3,None,None,,0,6,6,6,,,,,0,44,44,44,,,,,,,,,,,,,,,,,,,,,,,,,,,,,,,1,1.1008944450004492,,,,,,,,,,,,,,,,,,,,,,,,,,,,030819_p2,001,2019_Mar_08_1346,body_behavioural,3.0.4,60.00847440330045,
6,Things were fine. ,3,3,None,None,,0,6,6,6,,,,,0,45,45,45,,,,,,,,,,,,,,,,,,,,,,,,,,,,,,,1,0.7696587000100408,,,,,,,,,,,,,,,,,,,,,,,,,,,,030819_p2,001,2019_Mar_08_1346,body_behavioural,3.0.4,60.00847440330045,
6,"We don’t have to hang out all the time, or as much as we do now.”",3,3,None,None,,0,6,6,6,,,,,0,46,46,46,,,,,,,,,,,,,,,,,,,,,,,,,,,,,,,1,3.1867623169964645,,,,,,,,,,,,,,,,,,,,,,,,,,,,030819_p2,001,2019_Mar_08_1346,body_behavioural,3.0.4,60.00847440330045,
6,Thomas chewed on his bottom lip and picked at his now bleeding hangnail. ,3,3,20.0,None,,0,6,6,6,,,,,0,47,47,47,,,,,,,,,,,,,,,,,,,,,,,,,,,,,,,1,2.6343369600072037,,,,,,,,,,,,,,,,,,,,,,,,,,,,030819_p2,001,2019_Mar_08_1346,body_behavioural,3.0.4,60.00847440330045,
6,"At that moment, the waiter arrived with the burger and reuben and set them on the table.",4,3,None,None,,0,6,6,6,,,,,0,48,48,48,,,,,,,,,,,,,,,,,,,,,,,,,,,,,,,9,2.7195542769914027,,,,,,,,,,,,,,,,,,,,,,,,,,,,030819_p2,001,2019_Mar_08_1346,body_behavioural,3.0.4,60.00847440330045,
6,“Is there anything else I can get for you two?,4,3,None,None,,0,6,6,6,,,,,0,49,49,49,,,,,,,,,,,,,,,,,,,,,,,,,,,,,,,1,1.3504802230163477,,,,,,,,,,,,,,,,,,,,,,,,,,,,030819_p2,001,2019_Mar_08_1346,body_behavioural,3.0.4,60.00847440330045,
6,"Will you be getting dessert tonight?”, he asked.",4,3,None,None,,0,6,6,6,,,,,0,50,50,50,,,,,,,,,,,,,,,,,,,,,,,,,,,,,,,1,2.018559557007393,,,,,,,,,,,,,,,,,,,,,,,,,,,,030819_p2,001,2019_Mar_08_1346,body_behavioural,3.0.4,60.00847440330045,
6,"“Oh no, we’re good, thanks,” Thomas said.",4,3,None,None,,0,6,6,6,,,,,0,51,51,51,,,,,,,,,,,,,,,,,,,,,,,,,,,,,,,1,1.4541723420261405,,,,,,,,,,,,,,,,,,,,,,,,,,,,030819_p2,001,2019_Mar_08_1346,body_behavioural,3.0.4,60.00847440330045,
6,"Once the waiter had walked away still oblivious to the situation, Thomas sighed and said, “Sadie, I’m sorry.",4,3,None,None,,0,6,6,6,,,,,0,52,52,52,,,,,,,,,,,,,,,,,,,,,,,,,,,,,,,9,4.103547395992791,,,,,,,,,,,,,,,,,,,,,,,,,,,,030819_p2,001,2019_Mar_08_1346,body_behavioural,3.0.4,60.00847440330045,
6,"You are so great, and I love hanging out with you.",4,3,None,None,,0,6,6,6,,,,,0,53,53,53,,,,,,,,,,,,,,,,,,,,,,,,,,,,,,,1,1.5865521600062493,,,,,,,,,,,,,,,,,,,,,,,,,,,,030819_p2,001,2019_Mar_08_1346,body_behavioural,3.0.4,60.00847440330045,
6,But I need some time.,4,3,None,None,,0,6,6,6,,,,,0,54,54,54,,,,,,,,,,,,,,,,,,,,,,,,,,,,,,,1,0.7029824600031134,,,,,,,,,,,,,,,,,,,,,,,,,,,,030819_p2,001,2019_Mar_08_1346,body_behavioural,3.0.4,60.00847440330045,
6,I’m so sorry.”,4,3,None,None,,0,6,6,6,,,,,0,55,55,55,,,,,,,,,,,,,,,,,,,,,,,,,,,,,,,1,0.6839195519860368,,,,,,,,,,,,,,,,,,,,,,,,,,,,030819_p2,001,2019_Mar_08_1346,body_behavioural,3.0.4,60.00847440330045,
6,"He grabbed her hand, and she pulled it out of his.",4,3,None,None,,0,6,6,6,,,,,0,56,56,56,,,,,,,,,,,,,,,,,,,,,,,,,,,,,,,1,2.0031698750099167,,,,,,,,,,,,,,,,,,,,,,,,,,,,030819_p2,001,2019_Mar_08_1346,body_behavioural,3.0.4,60.00847440330045,
6,"“Sadie,” he said.",4,3,None,17.0,,0,6,6,6,,,,,0,57,57,57,,,,,,,,,,,,,,,,,,,,,,,,,,,,,,,1,1.0697830519929994,,,,,,,,,,,,,,,,,,,,,,,,,,,,030819_p2,001,2019_Mar_08_1346,body_behavioural,3.0.4,60.00847440330045,
6," She stood up, grabbed half of the reuben and shook it at him as she growled, “Don’t follow me, and don’t talk to me anymore!”",4,4,None,None,,0,6,6,6,,,,,0,58,58,58,,,,,,,,,,,,,,,,,,,,,,,,,,,,,,,9,12.067836481990525,,,,,,,,,,,,,,,,,,,,,,,,,,,,030819_p2,001,2019_Mar_08_1346,body_behavioural,3.0.4,60.00847440330045,
6,"Sadie's heels clacked loudly against the black and white linoleum, and the bell above the door jingled cheerfully as the door closed behind her.",4,4,None,None,,0,6,6,6,,,,,0,59,59,59,,,,,,,,,,,,,,,,,,,,,,,,,,,,,,,1,4.267612030002056,,,,,,,,,,,,,,,,,,,,,,,,,,,,030819_p2,001,2019_Mar_08_1346,body_behavioural,3.0.4,60.00847440330045,
6,Thomas sat there for awhile in shock at how quickly everything transpired. ,4,4,None,None,,0,6,6,6,,,,,0,60,60,60,,,,,,,,,,,,,,,,,,,,,,,,,,,,,,,1,3.8044537070090882,,,,,,,,,,,,,,,,,,,,,,,,,,,,030819_p2,001,2019_Mar_08_1346,body_behavioural,3.0.4,60.00847440330045,
6,"He grabbed his burger and took a bite of it, creating a dry and fishy taste in his mouth.",4,4,None,None,,0,6,6,6,,,,,0,61,61,61,,,,,,,,,,,,,,,,,,,,,,,,,,,,,,,1,2.8700791030132677,,,,,,,,,,,,,,,,,,,,,,,,,,,,030819_p2,001,2019_Mar_08_1346,body_behavioural,3.0.4,60.00847440330045,
6,He dropped it back on his plate and wondered if the restaurant was responsible for the foul taste. ,4,4,13.0,5.0,,0,6,6,6,,,,,0,62,62,62,,,,,,,,,,,,,,,,,,,,,,,,,,,,,,,1,6.270592419983586,,,,,,,,,,,,,,,,,,,,,,,,,,,,030819_p2,001,2019_Mar_08_1346,body_behavioural,3.0.4,60.00847440330045,
6,,,,,,,0,6,6,6,,,,,,,,,,,,,,,,,,,,,,,,,,,,,,,,,,,,,,,,,,,,,,,,,,,,,,,,,,,,,,,,,,,,030819_p2,001,2019_Mar_08_1346,body_behavioural,3.0.4,60.00847440330045,
7,,,,,,,0,7,7,7,0,0,0,0,,,,,,,,,,,,,,,,,,,,,,,,,,,,,space,0.750778365007136,space,1.152030185010517,space,0.5364803629927337,,,,,,,,,,,,,,,,,,,,,,,,,,,,,,030819_p2,001,2019_Mar_08_1346,body_behavioural,3.0.4,60.00847440330045,
7,"Jeff, hoping that today would be a pivotal day for his new business, had only been waiting inside the doors of the airport for a few minutes when he saw William and eagerly waved him over. ",1,1,,,,0,7,7,7,,,,,0,0,0,0,,,,,,,,,,,,,,,,,,,,,,,,,,,,,,,9,45.75635292500374,,,,,,,,,,,,,,,,,,,,,,,,,,,,030819_p2,001,2019_Mar_08_1346,body_behavioural,3.0.4,60.00847440330045,
7,"Jeff, checking his watch, was pleased to see that the two of them had two hours to discuss business before their flights left Boston.",1,1,,,,0,7,7,7,,,,,0,1,1,1,,,,,,,,,,,,,,,,,,,,,,,,,,,,,,,1,4.419914116995642,,,,,,,,,,,,,,,,,,,,,,,,,,,,030819_p2,001,2019_Mar_08_1346,body_behavioural,3.0.4,60.00847440330045,
7,The two had met the night before in line for the bathroom at a local bar. ,1,1,,,,0,7,7,7,,,,,0,2,2,2,,,,,,,,,,,,,,,,,,,,,,,,,,,,,,,1,2.6032588300004136,,,,,,,,,,,,,,,,,,,,,,,,,,,,030819_p2,001,2019_Mar_08_1346,body_behavioural,3.0.4,60.00847440330045,
7,Jeff had delivered some surprisingly-detailed complaints to William about the wine selection.,1,1,,,,0,7,7,7,,,,,0,3,3,3,,,,,,,,,,,,,,,,,,,,,,,,,,,,,,,1,3.4032578649930656,,,,,,,,,,,,,,,,,,,,,,,,,,,,030819_p2,001,2019_Mar_08_1346,body_behavioural,3.0.4,60.00847440330045,
7,They quickly learned about each other that Jeff was a representative for wine vineyards in the Northeast and William was a wine buyer for corporate events.,1,1,,,,0,7,7,7,,,,,0,4,4,4,,,,,,,,,,,,,,,,,,,,,,,,,,,,,,,1,6.236750493000727,,,,,,,,,,,,,,,,,,,,,,,,,,,,030819_p2,001,2019_Mar_08_1346,body_behavioural,3.0.4,60.00847440330045,
7,"Since they both had flights out of Boston at the same time, they had agreed to meet at the airport and talk about potentially doing business. ",1,1,,,,0,7,7,7,,,,,0,5,5,5,,,,,,,,,,,,,,,,,,,,,,,,,,,,,,,9,5.101209624990588,,,,,,,,,,,,,,,,,,,,,,,,,,,,030819_p2,001,2019_Mar_08_1346,body_behavioural,3.0.4,60.00847440330045,
7,"They headed to security together, pleased to find that the line was not so long, and they chatted a little as they were waiting. ",2,1,,,,0,7,7,7,,,,,0,6,6,6,,,,,,,,,,,,,,,,,,,,,,,,,,,,,,,1,5.1035706069960725,,,,,,,,,,,,,,,,,,,,,,,,,,,,030819_p2,001,2019_Mar_08_1346,body_behavioural,3.0.4,60.00847440330045,
7,"“It’s crazy that we met last night,” William said, “I am flying out right now to meet my boss, and was worried that I was going to show up empty handed without any local retailer prepared.” ",2,1,,,,0,7,7,7,,,,,0,7,7,7,,,,,,,,,,,,,,,,,,,,,,,,,,,,,,,1,5.950693004997447,,,,,,,,,,,,,,,,,,,,,,,,,,,,030819_p2,001,2019_Mar_08_1346,body_behavioural,3.0.4,60.00847440330045,
7,"“I know, what are the chances, right?” Jeff said.",2,1,,,,0,7,7,7,,,,,0,8,8,8,,,,,,,,,,,,,,,,,,,,,,,,,,,,,,,1,2.0531545900157653,,,,,,,,,,,,,,,,,,,,,,,,,,,,030819_p2,001,2019_Mar_08_1346,body_behavioural,3.0.4,60.00847440330045,
7,"William laughed and said, “I’m glad our shared complaining can come in handy.",2,1,,,,0,7,7,7,,,,,0,9,9,9,,,,,,,,,,,,,,,,,,,,,,,,,,,,,,,1,3.5509211900061928,,,,,,,,,,,,,,,,,,,,,,,,,,,,030819_p2,001,2019_Mar_08_1346,body_behavioural,3.0.4,60.00847440330045,
7,"I know this is fast, but I'd like to get right down to specifics.",2,2,,,,0,7,7,7,,,,,0,10,10,10,,,,,,,,,,,,,,,,,,,,,,,,,,,,,,,1,2.867577730008634,,,,,,,,,,,,,,,,,,,,,,,,,,,,030819_p2,001,2019_Mar_08_1346,body_behavioural,3.0.4,60.00847440330045,
7,I'd like to order a couple of sample shipments from you and present them to our corporate buyers.,2,2,,,,0,7,7,7,,,,,0,11,11,11,,,,,,,,,,,,,,,,,,,,,,,,,,,,,,,9,3.236875028000213,,,,,,,,,,,,,,,,,,,,,,,,,,,,030819_p2,001,2019_Mar_08_1346,body_behavioural,3.0.4,60.00847440330045,
7,"Typically we expect to get these kinds of samples at a deep discount, at least half-off the label price.",2,2,,,,0,7,7,7,,,,,0,12,12,12,,,,,,,,,,,,,,,,,,,,,,,,,,,,,,,1,3.836470604990609,,,,,,,,,,,,,,,,,,,,,,,,,,,,030819_p2,001,2019_Mar_08_1346,body_behavioural,3.0.4,60.00847440330045,
7,"This is nothing, okay, compared to what you will be making if one of these buyers makes a contract.",2,2,,,,0,7,7,7,,,,,0,13,13,13,,,,,,,,,,,,,,,,,,,,,,,,,,,,,,,1,4.10090775199933,,,,,,,,,,,,,,,,,,,,,,,,,,,,030819_p2,001,2019_Mar_08_1346,body_behavioural,3.0.4,60.00847440330045,
7,So I propose that you send us $600 worth of wine shipments for a price of $300.”,2,2,,,,0,7,7,7,,,,,0,14,14,14,,,,,,,,,,,,,,,,,,,,,,,,,,,,,,,9,5.501039317023242,,,,,,,,,,,,,,,,,,,,,,,,,,,,030819_p2,001,2019_Mar_08_1346,body_behavioural,3.0.4,60.00847440330045,
7,"When it was their turn to go through the metal detector, they took off their shoes and pulled out their laptops.",2,2,,,,0,7,7,7,,,,,0,15,15,15,,,,,,,,,,,,,,,,,,,,,,,,,,,,,,,1,3.636551254981896,,,,,,,,,,,,,,,,,,,,,,,,,,,,030819_p2,001,2019_Mar_08_1346,body_behavioural,3.0.4,60.00847440330045,
7,"Jeff mulled over the offer, nodding noncommittally to William's pitch as they proceeded through the metal detector and retrieved their belongings.",2,2,,,,0,7,7,7,,,,,0,16,16,16,,,,,,,,,,,,,,,,,,,,,,,,,,,,,,,1,6.5864128949760925,,,,,,,,,,,,,,,,,,,,,,,,,,,,030819_p2,001,2019_Mar_08_1346,body_behavioural,3.0.4,60.00847440330045,
7,"They began to walk through the concourse, and William handed some printed spreadsheets to Jeff as they navigated toward their gates at the end of the terminal.",3,2,,,,0,7,7,7,,,,,0,17,17,17,,,,,,,,,,,,,,,,,,,,,,,,,,,,,,,1,6.453691229980905,,,,,,,,,,,,,,,,,,,,,,,,,,,,030819_p2,001,2019_Mar_08_1346,body_behavioural,3.0.4,60.00847440330045,
7,"Jeff, weaving through the crowds of travelers, squinted at William's rosy projections of the number of bottles he could be able to purchase in the future.",3,2,,,,0,7,7,7,,,,,0,18,18,18,,,,,,,,,,,,,,,,,,,,,,,,,,,,,,,9,6.121337600023253,,,,,,,,,,,,,,,,,,,,,,,,,,,,030819_p2,001,2019_Mar_08_1346,body_behavioural,3.0.4,60.00847440330045,
7,"Finally Jeff said, “I don’t know, we’re not coming from corporate vineyards, so gambling with sample shipments is the kind of risk we can’t necessarily make. ",3,3,,,,0,7,7,7,,,,,0,19,19,19,,,,,,,,,,,,,,,,,,,,,,,,,,,,,,,1,5.569768910005223,,,,,,,,,,,,,,,,,,,,,,,,,,,,030819_p2,001,2019_Mar_08_1346,body_behavioural,3.0.4,60.00847440330045,
7,"These corporate purchases would have to be huge and practically guaranteed, to offset the loss from selling sample shipments at this price.”",3,3,,,,0,7,7,7,,,,,0,20,20,20,,,,,,,,,,,,,,,,,,,,,,,,,,,,,,,1,5.420131346996641,,,,,,,,,,,,,,,,,,,,,,,,,,,,030819_p2,001,2019_Mar_08_1346,body_behavioural,3.0.4,60.00847440330045,
7,"They walked to the gates very slowly, barely registering the hubbub of the airport since they were so caught up in figuring out this deal before their flights left.",3,3,,,,0,7,7,7,,,,,0,21,21,21,,,,,,,,,,,,,,,,,,,,,,,,,,,,,,,1,8.503230884991353,,,,,,,,,,,,,,,,,,,,,,,,,,,,030819_p2,001,2019_Mar_08_1346,body_behavioural,3.0.4,60.00847440330045,
7,"At the end of their long walk, they got to Jeff’s gate first, which had begun boarding passengers.",3,3,,,,0,7,7,7,,,,,0,22,22,22,,,,,,,,,,,,,,,,,,,,,,,,,,,,,,,1,3.569624690018827,,,,,,,,,,,,,,,,,,,,,,,,,,,,030819_p2,001,2019_Mar_08_1346,body_behavioural,3.0.4,60.00847440330045,
7,"In these last minutes, William and Jeff agreed on a compromise rate on the sample shipment, paying $400 for a $600 shipment, and they finalized the deal with a handshake. ",3,4,,,,0,7,7,7,,,,,0,23,23,23,,,,,,,,,,,,,,,,,,,,,,,,,,,,,,,9,6.286351538990857,,,,,,,,,,,,,,,,,,,,,,,,,,,,030819_p2,001,2019_Mar_08_1346,body_behavioural,3.0.4,60.00847440330045,
7,"“Well, what a tremendous pleasure to do business with you and to have all this work out,” William said.",3,4,,,,0,7,7,7,,,,,0,24,24,24,,,,,,,,,,,,,,,,,,,,,,,,,,,,,,,1,2.4031149650109,,,,,,,,,,,,,,,,,,,,,,,,,,,,030819_p2,001,2019_Mar_08_1346,body_behavioural,3.0.4,60.00847440330045,
7,"Jeff nodded enthusiastically, and responded, “Likewise, this has been great.  ",3,4,,,,0,7,7,7,,,,,0,25,25,25,,,,,,,,,,,,,,,,,,,,,,,,,,,,,,,1,2.2529147599998396,,,,,,,,,,,,,,,,,,,,,,,,,,,,030819_p2,001,2019_Mar_08_1346,body_behavioural,3.0.4,60.00847440330045,
7,I'll let you get to your gate.,3,4,,,,0,7,7,7,,,,,0,26,26,26,,,,,,,,,,,,,,,,,,,,,,,,,,,,,,,1,1.5862365450011566,,,,,,,,,,,,,,,,,,,,,,,,,,,,030819_p2,001,2019_Mar_08_1346,body_behavioural,3.0.4,60.00847440330045,
7,"Once we’re both back on the ground, we can get all the shipments in the books.”",3,4,,,,0,7,7,7,,,,,0,27,27,27,,,,,,,,,,,,,,,,,,,,,,,,,,,,,,,1,2.7532486919953953,,,,,,,,,,,,,,,,,,,,,,,,,,,,030819_p2,001,2019_Mar_08_1346,body_behavioural,3.0.4,60.00847440330045,
7,They parted with a wave as Jeff scanned his boarding pass at the gate. ,3,4,,,,0,7,7,7,,,,,0,28,28,28,,,,,,,,,,,,,,,,,,,,,,,,,,,,,,,1,5.704291621979792,,,,,,,,,,,,,,,,,,,,,,,,,,,,030819_p2,001,2019_Mar_08_1346,body_behavioural,3.0.4,60.00847440330045,
7,He walked onto the plane and sat down in his aisle seat in the business class section.,4,4,,,,0,7,7,7,,,,,0,29,29,29,,,,,,,,,,,,,,,,,,,,,,,,,,,,,,,9,13.387466394982766,,,,,,,,,,,,,,,,,,,,,,,,,,,,030819_p2,001,2019_Mar_08_1346,body_behavioural,3.0.4,60.00847440330045,
7,He typed out a quick email on his phone letting the rest of his team know the good news. ,4,4,,,,0,7,7,7,,,,,0,30,30,30,,,,,,,,,,,,,,,,,,,,,,,,,,,,,,,1,2.8501632240077015,,,,,,,,,,,,,,,,,,,,,,,,,,,,030819_p2,001,2019_Mar_08_1346,body_behavioural,3.0.4,60.00847440330045,
7,"When the flight attendant came by, he ordered a glass of champagne to celebrate.",4,4,,,,0,7,7,7,,,,,0,31,31,31,,,,,,,,,,,,,,,,,,,,,,,,,,,,,,,1,2.0537203869898804,,,,,,,,,,,,,,,,,,,,,,,,,,,,030819_p2,001,2019_Mar_08_1346,body_behavioural,3.0.4,60.00847440330045,
7,,,,,,,0,7,7,7,,,,,,,,,,,,,,,,,,,,,,,,,,,,,,,,,,,,,,,,,,,,,,,,,,,,,,,,,,,,,,,,,,,,030819_p2,001,2019_Mar_08_1346,body_behavioural,3.0.4,60.00847440330045,
,,,,,,,,,,,,,,,,,,,,,,,,,,,,,,,,,,,,,,,,,,,,,,,,,,,1902.8117512440076,space,1.486506154993549,,,,,,,,,,,,,,,,,,,,,,,,,030819_p2,001,2019_Mar_08_1346,body_behavioural,3.0.4,60.00847440330045,
,,,,,,The next task in the experiment is to recall each story to the best of your ability.,,,,,,,,,,,,,0,0,0,0,,,,,,,,,,,,,,,,,,,,,,,,,,,,,,,,space,4.684269549994497,,,,,,,,,,,,,,,,,,,,,,,030819_p2,001,2019_Mar_08_1346,body_behavioural,3.0.4,60.00847440330045,
,,,,,,"You will be presented with the story title, names, the images, and a blank text box for each story.",,,,,,,,,,,,,0,1,1,1,,,,,,,,,,,,,,,,,,,,,,,,,,,,,,,,space,10.736999414977618,,,,,,,,,,,,,,,,,,,,,,,030819_p2,001,2019_Mar_08_1346,body_behavioural,3.0.4,60.00847440330045,
,,,,,,Describe the story with as many details as you can remember in the space provided. ,,,,,,,,,,,,,0,2,2,2,,,,,,,,,,,,,,,,,,,,,,,,,,,,,,,,space,2.834063549991697,,,,,,,,,,,,,,,,,,,,,,,030819_p2,001,2019_Mar_08_1346,body_behavioural,3.0.4,60.00847440330045,
,,,,,,"When you are finished recalling one story, to move onto the next one hit ‘return’. ",,,,,,,,,,,,,0,3,3,3,,,,,,,,,,,,,,,,,,,,,,,,,,,,,,,,space,10.184727790008765,,,,,,,,,,,,,,,,,,,,,,,030819_p2,001,2019_Mar_08_1346,body_behavioural,3.0.4,60.00847440330045,
,,,,,,There is a 5 minute time limit to make your response. ,,,,,,,,,,,,,0,4,4,4,,,,,,,,,,,,,,,,,,,,,,,,,,,,,,,,space,2.483926157001406,,,,,,,,,,,,,,,,,,,,,,,030819_p2,001,2019_Mar_08_1346,body_behavioural,3.0.4,60.00847440330045,
0,,,,,,,,,,,,,,,,,,,,,,,0,0,0,0,,,,,,,,,,,,,,,,,,,,,,,,,,,,,,space,1.267052027018508,This story is about a woman and a man who go into a grocery store to talk about the difficulties they have in their relationship. they are about to have a party for some friends but you can already tell that there is some tension in the air. emmanuella believes that liam isn't being the best man that he can be and so they realize that they need to get out of the realtionship. they pick up some pasta and go to the check-out line that is relatively short. they actually end up in a pretty good compromise and they pay their things with a credit card. ,,,,,,,,,,,,,,,,,,,,030819_p2,001,2019_Mar_08_1346,body_behavioural,3.0.4,60.00847440330045,
1,,,,,,,,,,,,,,,,,,,,,,,0,1,1,1,,,,,,,,,,,,,,,,,,,,,,,,,,,,,,space,0.8849473989976104,"This story is about a 2 year couple who is going back home from barcelona. sven realizes that she is the one he is meant to be with after spending some time with her family parenleftwho already gave their blessingparenright. as they go through security, sven forgets to take out his ring from his jacket and it sets off the alarm. sven has no choice but to propose right then and there to isabel who is too shy and in so much shock that she cannot say anything to him right then and there. eventually, they walk a little bit further and she finally says yes. once on the plane, they have a glass of alcohol to celebrate their engagement. isabel is still very shy as people come up to them to celebrate the engagement. ",,,,,,,,,,,,,,,,,,,,030819_p2,001,2019_Mar_08_1346,body_behavioural,3.0.4,60.00847440330045,
2,,,,,,,,,,,,,,,,,,,,,,,0,2,2,2,,,,,,,,,,,,,,,,,,,,,,,,,,,,,,space,0.734983331989497,"This story talks about two strangers who meet in a very rustic looking diner with neon menus. the food actually tastes pretty bad becasue the chef probably mixed the salt and sugar. as teresa was coming into the restaurant, she actually slammed into the glass door and people all noticed her. becasue both of them were eating by themselves for lunch, the host decied to sit them together at the counter. james is the one who wants to start the conversation and finally does, even though teresa was reading a book by herself. they actually strike up a really good conversation. james orders pancakes, and teresa orders orange jucie. because their experience was so good, james tells teresa that he has some concert tickets and would love to take her with him. they both agreed and decide to go later. james will pick her up. as they are heading out, teresa almost slams in to the door again. ",,,,,,,,,,,,,,,,,,,,030819_p2,001,2019_Mar_08_1346,body_behavioural,3.0.4,60.00847440330045,
3,,,,,,,,,,,,,,,,,,,,,,,0,3,3,3,,,,,,,,,,,,,,,,,,,,,,,,,,,,,,space,0.9673204999999143,"Simon and carina see each other instantly at a grocery store and they both steal looks form one another but are too shy to say anything. both of them are actually there to purchase some food for a barbeque that they are hosting later that day. as they select their ingredients, carina is finally brave enough to talk to simon. they joke about the meats that they are going to be getting and they get along really well. they head to the counter but simon is disappointed when he gets there becasue the line is not long; therefore, he won't have as much time to continue talking to carina. they exchange phone numbers and simon offers to pay for everthing which was $120 dollars and he pays with a credit card. they walk away still looking at each other. ",,,,,,,,,,,,,,,,,,,,030819_p2,001,2019_Mar_08_1346,body_behavioural,3.0.4,60.00847440330045,
4,,,,,,,,,,,,,,,,,,,,,,,0,4,4,4,,,,,,,,,,,,,,,,,,,,,,,,,,,,,,space,0.7364312699937727,Aaron and lana are walking into class together in this beautiful lecutre hall at princeton. this is the originally classroom where they met. aaron has a plan to propose to her during class and the students and the professor know about the plan. the chemistry professor asks lana to come up for a demonstration and aaron gets on one knee and proposes. she says yes after a couple of seconds of shock. ,,,,,,,,,,,,,,,,,,,,030819_p2,001,2019_Mar_08_1346,body_behavioural,3.0.4,60.00847440330045,
5,,,,,,,,,,,,,,,,,,,,,,,0,5,5,5,,,,,,,,,,,,,,,,,,,,,,,,,,,,,,space,0.8031706899928395,"Charlie and alma are business students and the night before alma was talking to charline about getting him and his business investors to invest in her project. at first, charlie says that they can only invest half of what she was asking but that is not good enough for alma. during the class, they are finally able to agree on fully investing in the projec.t ",,,,,,,,,,,,,,,,,,,,030819_p2,001,2019_Mar_08_1346,body_behavioural,3.0.4,60.00847440330045,
6,,,,,,,,,,,,,,,,,,,,,,,0,6,6,6,,,,,,,,,,,,,,,,,,,,,,,,,,,,,,space,1.0194190199836157,Thomas gets to a diner where he is planning on breaking up with sadie. sadie arrives and he askes the waitress if they can be seated near the back of the diner. we can already tell that this is not going to end well. they order their food and thomas begins to explain what he feels. sadies does not recieve the news well and leaves the dinner telling him she never wants to see him agina. ,,,,,,,,,,,,,,,,,,,,030819_p2,001,2019_Mar_08_1346,body_behavioural,3.0.4,60.00847440330045,
7,,,,,,,,,,,,,,,,,,,,,,,0,7,7,7,,,,,,,,,,,,,,,,,,,,,,,,,,,,,,space,1.13551041498431,"Jeff and william had met the night before waiting in line to use the restroom. both of them were in the wine business and decided that they need each other. as a coincidence, both of them were going to head to the airport the next moringing and so they agree to talk business the next day. when they get there, they go throught securty quickly and begin to talk while they are walking to their gates. although they initially disagreed, they finally decide on sending a sample of $600 dollars but only paying for $400. they get on the plain and one of them sits in his business class aisle seat and orders alcohol to celebrate. ",,,,,,,,,,,,,,,,,,,,030819_p2,001,2019_Mar_08_1346,body_behavioural,3.0.4,60.00847440330045,
,,,,,,,,,,,,,,,,,,,,,,,,,,,,,,,,,,,,,,,,,,,,,,,,,,,,,,,,,,,3269.336906788987,space,1.1859949600184336,,,,,,,,,,,,,,,,,030819_p2,001,2019_Mar_08_1346,body_behavioural,3.0.4,60.00847440330045,
,,,,,,The next part of the task is to answer 8 questions about each story.,,,,,,,,,,,,,,,,,,,,,0,0,0,0,,,,,,,,,,,,,,,,,,,,,,,,,,,,,,,,space,3.368692368007032,,,,,,,,,,,,,,,030819_p2,001,2019_Mar_08_1346,body_behavioural,3.0.4,60.00847440330045,
,,,,,,Some of the questions are not related to the perspective you were asked to assume.,,,,,,,,,,,,,,,,,,,,,0,1,1,1,,,,,,,,,,,,,,,,,,,,,,,,,,,,,,,,space,2.370469267014414,,,,,,,,,,,,,,,030819_p2,001,2019_Mar_08_1346,body_behavioural,3.0.4,60.00847440330045,
,,,,,,"We realize that we did not tell you to think of these questions during the story, but do your best to answer them.",,,,,,,,,,,,,,,,,,,,,0,2,2,2,,,,,,,,,,,,,,,,,,,,,,,,,,,,,,,,space,3.569779607001692,,,,,,,,,,,,,,,030819_p2,001,2019_Mar_08_1346,body_behavioural,3.0.4,60.00847440330045,
,,,,,,"When you have finished typing your answer, hit ‘return’ to submit your answer and move onto the next question. ",,,,,,,,,,,,,,,,,,,,,0,3,3,3,,,,,,,,,,,,,,,,,,,,,,,,,,,,,,,,space,4.171197367017157,,,,,,,,,,,,,,,030819_p2,001,2019_Mar_08_1346,body_behavioural,3.0.4,60.00847440330045,
0,,,,,,,,,,,,,,,,,,,,,,,,,,,,,,,0,0,0,0,,,,,,,,,,,,,,,,,,,,,,,,$50 and credit card,,,,,,space,0.8862692450056784,They feel frustrated,non-primed first,One of them isn't working hard enough for the relationship,They spend a lot of time thinking through it but agrees that it is the right choice,Yes they do,Dimly lit with lots of wood,Pasta,Only one is open and long enough for him to go get more pasta,$50 and credit card,,,,030819_p2,001,2019_Mar_08_1346,body_behavioural,3.0.4,60.00847440330045,
1,,,,,,,,,,,,,,,,,,,,,,,,,,,,,,,0,1,1,1,,,,,,,,,,,,,,,,,,,,,,,,In first class,,,,,,space,2.503330614999868,They are very sure about the decission,primed first,One diamond on an elegant band,No,The secrutiy guards and some other passagners,1 hour,Take out their computer and empty the pockets,They don't talk. she is probably in shock,In first class,,,,030819_p2,001,2019_Mar_08_1346,body_behavioural,3.0.4,60.00847440330045,
2,,,,,,,,,,,,,,,,,,,,,,,,,,,,,,,0,2,2,2,,,,,,,,,,,,,,,,,,,,,,,,They do not like it at all,,,,,,space,0.7698767380206846,James notices teresa,non-primed first,He asks her if she hurt from the door,James proposes going to a concert,James has to go back to work,Very rustic,Neon colored,Pancakes and oragne jucie,They do not like it at all,,,,030819_p2,001,2019_Mar_08_1346,body_behavioural,3.0.4,60.00847440330045,
3,,,,,,,,,,,,,,,,,,,,,,,,,,,,,,,0,3,3,3,,,,,,,,,,,,,,,,,,,,,,,,Carina is late for her barbique ,,,,,,space,0.6862710049899761,Very big and light brightly,non-primed first,Meats and vegitables ,Very short and for a couple of seconds,$120 with card,They notice each  other at the same time ,She askes him about the meats telling him it is cute,Simon proposes ,Carina is late for her barbique ,,,,030819_p2,001,2019_Mar_08_1346,body_behavioural,3.0.4,60.00847440330045,
4,,,,,,,,,,,,,,,,,,,,,,,,,,,,,,,0,4,4,4,,,,,,,,,,,,,,,,,,,,,,,,Next week a test ,,,,,,space,0.820019181992393,Very excited ,non-primed first,Simle with several diamonds on an elegant band,The professor and the students,The entire class ,Very nice. a giant lecture hall that is elegant and timeless ,Chemistry and they are talking about ions,The number of protons determines the type of atom,Next week a test ,,,,030819_p2,001,2019_Mar_08_1346,body_behavioural,3.0.4,60.00847440330045,
5,,,,,,,,,,,,,,,,,,,,,,,,,,,,,,,0,5,5,5,,,,,,,,,,,,,,,,,,,,,,,,Alma gets all the money she wanted,,,,,,space,1.7188807269849349,Large but simple,non-primed first,Economics and the lecture is about supply and demand,Supply and deamnd,A midterm due next week ,Venture capitals ,$30000 for an entreprenuerial venture,Alma wants more money because she doesn't believe it is enough to start,Alma gets all the money she wanted,,,,030819_p2,001,2019_Mar_08_1346,body_behavioural,3.0.4,60.00847440330045,
6,,,,,,,,,,,,,,,,,,,,,,,,,,,,,,,0,6,6,6,,,,,,,,,,,,,,,,,,,,,,,, they hardly taste the food but thomas thinks it was bad,,,,,,space,0.5189947350008879,Very nervous ,primed first,He is trying to figure out what his path is going to be,Very angry and unexpected, no,Veyr worn d,Very long,A burger and fries, they hardly taste the food but thomas thinks it was bad,,,,030819_p2,001,2019_Mar_08_1346,body_behavioural,3.0.4,60.00847440330045,
7,,,,,,,,,,,,,,,,,,,,,,,,,,,,,,,0,7,7,7,,,,,,,,,,,,,,,,,,,,,,,,They compromise and have found new partners,,,,,,space,0.8364203549863305,2 hours,primed first,Take out the computers,Deeply in conversation trying to figure out the deal,In business class,Wine,Selling a new wine product and about $600 worth of merchandies,Nervous that it is giving up too much,They compromise and have found new partners,,,,030819_p2,001,2019_Mar_08_1346,body_behavioural,3.0.4,60.00847440330045,
,,,,,,,,,,,,,,,,,,,,,,,,,,,,,,,,,,,,,,,,,,,,,,,,,,,,,,,,,,,,,,,,,,,,,,,,,,,4009.920396698988,space,0.7870530860091094,030819_p2,001,2019_Mar_08_1346,body_behavioural,3.0.4,60.00847440330045,
,,,,,,,,,,,,,,,,,,,,,,,,,,,,,,,,,,,0,0,0,0,,,,,,,,,,,,,,,,,,,,,,,,,,,,,,,,,,,,,,,,030819_p2,001,2019_Mar_08_1346,body_behavioural,3.0.4,60.00847440330045,
,,,,,,,,,,,,,,,,,,,,,,,,,,,,,,,,,,,1,0,1,0,,,,,,,,,,,,,,,,,,,,,,,,,,,,,,,,,,,,,,,,030819_p2,001,2019_Mar_08_1346,body_behavioural,3.0.4,60.00847440330045,
,,,,,,,,,,,,,,,,,,,,,,,,,,,,,,,,,,,2,0,2,0,,,,,,,,,,,,,,,,,,,,,,,,,,,,,,,,,,,,,,,,030819_p2,001,2019_Mar_08_1346,body_behavioural,3.0.4,60.00847440330045,
,,,,,,,,,,,,,,,,,,,,,,,,,,,,,,,,,,,3,0,3,0,,,,,,,,,,,,,,,,,,,,,,,,,,,,,,,,,,,,,,,,030819_p2,001,2019_Mar_08_1346,body_behavioural,3.0.4,60.00847440330045,
