count,behav_recall_instructions.thisRepN,behav_recall_instructions.thisTrialN,behav_recall_instructions.thisN,behav_recall_instructions.thisIndex,trials.thisRepN,trials.thisTrialN,trials.thisN,trials.thisIndex,trials_4.thisRepN,trials_4.thisTrialN,trials_4.thisN,trials_4.thisIndex,trials_13.thisRepN,trials_13.thisTrialN,trials_13.thisN,trials_13.thisIndex,trials_17.thisRepN,trials_17.thisTrialN,trials_17.thisN,trials_17.thisIndex,story_list_block1,action_list_block1,text_76.started,text_76.stopped,key_resp_30.keys,key_resp_30.rt,key_resp_30.started,key_resp_30.stopped,textTrigger.started,textTrigger.stopped,getTrigger.keys,getTrigger.rt,getTrigger.started,getTrigger.stopped,triggerTime,text_77.started,text_77.stopped,text_78.started,text_78.stopped,waitStart,image_23.started,image_23.stopped,waitEnd,text_41.started,text_41.stopped,key_resp_26.keys,key_resp_26.rt,key_resp_26.started,key_resp_26.stopped,text_42.started,text_42.stopped,text_51.started,text_51.stopped,recall_StartTime,recall_EndTime,image_18.started,image_18.stopped,text_69.started,text_69.stopped,recall_audio.filename,recall_audio.started,recall_audio.stopped,key_resp_25.keys,key_resp_25.rt,key_resp_25.started,key_resp_25.stopped,text_80.started,text_80.stopped,participant,sA,sB,lA,lB,block_struct,block,behavioral,random_seed,date,expName,psychopyVersion,frameRate,
,,,,,,,,,,,,,,,,,,,,,[32 43 23 12 14 34 41 21],[4 2 3 1 1 4 2 3],33.81216194600006,None,space,38.67568641599996,33.81216194600006,None,,,,,,,,,,,,,,,,,,,,,,,,,,,,,,,,,,,,,,,,,022420,0,1,0,2,0,1,0,4,2020_Feb_24_1607,recall_fmri,3.2.4,59.86005915370582,
0,,,,,0,0,0,0,0,0,0,0,,,,,0,0,0,0,,,,,,,,,72.51618429700011,None,equal,18.432847964000075,72.51618429700011,None,57.16714415399997,72.51618429700011,None,72.51618429700011,None,0.0003124160000425036,90.97922297800005,None,5.9996613880000496,96.9827209990001,None,6,1.45636016200001,96.9827209990001,None,96.9827209990001,None,96.9827209990001,None,7.484820594000212,83.64955723599996,98.56234153200012,None,98.56234153200012,None,/Users/columbiadpml/Documents/GitHub/ebs/fMRI experiment/psychopy code/data/022420_bk1_recall_fmri_wav/recall_audio-1582578538.538.wav,0.008807453200233795,None,6,76.04075043599983,98.56234153200012,None,98.56234153200012,None,022420,0,1,0,2,0,1,0,4,2020_Feb_24_1607,recall_fmri,3.2.4,59.86005915370582,
﻿count,behav_recall_instructions.thisRepN,behav_recall_instructions.thisTrialN,behav_recall_instructions.thisN,behav_recall_instructions.thisIndex,trials.thisRepN,trials.thisTrialN,trials.thisN,trials.thisIndex,trials_4.thisRepN,trials_4.thisTrialN,trials_4.thisN,trials_4.thisIndex,trials_13.thisRepN,trials_13.thisTrialN,trials_13.thisN,trials_13.thisIndex,trials_17.thisRepN,trials_17.thisTrialN,trials_17.thisN,trials_17.thisIndex,story_list_block1,action_list_block1,text_76.started,text_76.stopped,key_resp_30.keys,key_resp_30.rt,key_resp_30.started,key_resp_30.stopped,textTrigger.started,textTrigger.stopped,getTrigger.keys,getTrigger.rt,getTrigger.started,getTrigger.stopped,triggerTime,text_77.started,text_77.stopped,text_78.started,text_78.stopped,waitStart,image_23.started,image_23.stopped,waitEnd,text_41.started,text_41.stopped,key_resp_26.keys,key_resp_26.rt,key_resp_26.started,key_resp_26.stopped,text_42.started,text_42.stopped,text_51.started,text_51.stopped,recall_StartTime,recall_EndTime,image_18.started,image_18.stopped,text_69.started,text_69.stopped,recall_audio.filename,recall_audio.started,recall_audio.stopped,key_resp_25.keys,key_resp_25.rt,key_resp_25.started,key_resp_25.stopped,text_80.started,text_80.stopped,participant,sA,sB,lA,lB,block_struct,block,behavioral,random_seed,date,expName,psychopyVersion,frameRate,
,,,,,,,,,,,,,,,,,,,,,[32 43 23 12 14 34 41 21],[4 2 3 1 1 4 2 3],33.81216194600006,None,space,38.67568641599996,33.81216194600006,None,,,,,,,,,,,,,,,,,,,,,,,,,,,,,,,,,,,,,,,,,022420,0,1,0,2,0,1,0,4,2020_Feb_24_1607,recall_fmri,3.2.4,59.86005915370582,
0,,,,,0,0,0,0,0,0,0,0,,,,,0,0,0,0,,,,,,,,,72.51618429700011,None,equal,18.432847964000075,72.51618429700011,None,57.16714415399997,72.51618429700011,None,72.51618429700011,None,0.0003124160000425036,90.97922297800005,None,5.9996613880000496,96.9827209990001,None,6,1.45636016200001,96.9827209990001,None,96.9827209990001,None,96.9827209990001,None,7.484820594000212,83.64955723599996,98.56234153200012,None,98.56234153200012,None,/Users/columbiadpml/Documents/GitHub/ebs/fMRI experiment/psychopy code/data/022420_bk1_recall_fmri_wav/recall_audio-1582578538.538.wav,0.008807453200233795,None,6,76.04075043599983,98.56234153200012,None,98.56234153200012,None,022420,0,1,0,2,0,1,0,4,2020_Feb_24_1607,recall_fmri,3.2.4,59.86005915370582,
0,,,,,0,0,0,0,0,0,0,0,,,,,,,,,,,,,,,,,,,,,,,,,,,,83.65273191799997,174.62958727600017,None,89.65023878700003,,,,,,,,,,,,,,,,,,,,,,,,,,022420,0,1,0,2,0,1,0,4,2020_Feb_24_1607,recall_fmri,3.2.4,59.86005915370582,
1,,,,,0,0,0,0,0,1,1,1,,,,,0,0,0,0,,,,,,,,,,,,,,,,,,,,,,,,180.62967314000025,None,6,1.6342603329999292,180.62967314000025,None,180.62967314000025,None,180.62967314000025,None,91.31821235799998,245.20031475800033,182.31352579099985,None,182.31352579099985,None,/Users/columbiadpml/Documents/GitHub/ebs/fMRI experiment/psychopy code/data/022420_bk1_recall_fmri_wav/recall_audio-1582578622.299.wav,0.01444643239983634,None,6,153.83756746599965,182.31352579099985,None,182.31352579099985,None,022420,0,1,0,2,0,1,0,4,2020_Feb_24_1607,recall_fmri,3.2.4,59.86005915370582,
﻿count,behav_recall_instructions.thisRepN,behav_recall_instructions.thisTrialN,behav_recall_instructions.thisN,behav_recall_instructions.thisIndex,trials.thisRepN,trials.thisTrialN,trials.thisN,trials.thisIndex,trials_4.thisRepN,trials_4.thisTrialN,trials_4.thisN,trials_4.thisIndex,trials_13.thisRepN,trials_13.thisTrialN,trials_13.thisN,trials_13.thisIndex,trials_17.thisRepN,trials_17.thisTrialN,trials_17.thisN,trials_17.thisIndex,story_list_block1,action_list_block1,text_76.started,text_76.stopped,key_resp_30.keys,key_resp_30.rt,key_resp_30.started,key_resp_30.stopped,textTrigger.started,textTrigger.stopped,getTrigger.keys,getTrigger.rt,getTrigger.started,getTrigger.stopped,triggerTime,text_77.started,text_77.stopped,text_78.started,text_78.stopped,waitStart,image_23.started,image_23.stopped,waitEnd,text_41.started,text_41.stopped,key_resp_26.keys,key_resp_26.rt,key_resp_26.started,key_resp_26.stopped,text_42.started,text_42.stopped,text_51.started,text_51.stopped,recall_StartTime,recall_EndTime,image_18.started,image_18.stopped,text_69.started,text_69.stopped,recall_audio.filename,recall_audio.started,recall_audio.stopped,key_resp_25.keys,key_resp_25.rt,key_resp_25.started,key_resp_25.stopped,text_80.started,text_80.stopped,participant,sA,sB,lA,lB,block_struct,block,behavioral,random_seed,date,expName,psychopyVersion,frameRate,
,,,,,,,,,,,,,,,,,,,,,[32 43 23 12 14 34 41 21],[4 2 3 1 1 4 2 3],33.81216194600006,None,space,38.67568641599996,33.81216194600006,None,,,,,,,,,,,,,,,,,,,,,,,,,,,,,,,,,,,,,,,,,022420,0,1,0,2,0,1,0,4,2020_Feb_24_1607,recall_fmri,3.2.4,59.86005915370582,
0,,,,,0,0,0,0,0,0,0,0,,,,,0,0,0,0,,,,,,,,,72.51618429700011,None,equal,18.432847964000075,72.51618429700011,None,57.16714415399997,72.51618429700011,None,72.51618429700011,None,0.0003124160000425036,90.97922297800005,None,5.9996613880000496,96.9827209990001,None,6,1.45636016200001,96.9827209990001,None,96.9827209990001,None,96.9827209990001,None,7.484820594000212,83.64955723599996,98.56234153200012,None,98.56234153200012,None,/Users/columbiadpml/Documents/GitHub/ebs/fMRI experiment/psychopy code/data/022420_bk1_recall_fmri_wav/recall_audio-1582578538.538.wav,0.008807453200233795,None,6,76.04075043599983,98.56234153200012,None,98.56234153200012,None,022420,0,1,0,2,0,1,0,4,2020_Feb_24_1607,recall_fmri,3.2.4,59.86005915370582,
0,,,,,0,0,0,0,0,0,0,0,,,,,,,,,,,,,,,,,,,,,,,,,,,,83.65273191799997,174.62958727600017,None,89.65023878700003,,,,,,,,,,,,,,,,,,,,,,,,,,022420,0,1,0,2,0,1,0,4,2020_Feb_24_1607,recall_fmri,3.2.4,59.86005915370582,
1,,,,,0,0,0,0,0,1,1,1,,,,,0,0,0,0,,,,,,,,,,,,,,,,,,,,,,,,180.62967314000025,None,6,1.6342603329999292,180.62967314000025,None,180.62967314000025,None,180.62967314000025,None,91.31821235799998,245.20031475800033,182.31352579099985,None,182.31352579099985,None,/Users/columbiadpml/Documents/GitHub/ebs/fMRI experiment/psychopy code/data/022420_bk1_recall_fmri_wav/recall_audio-1582578622.299.wav,0.01444643239983634,None,6,153.83756746599965,182.31352579099985,None,182.31352579099985,None,022420,0,1,0,2,0,1,0,4,2020_Feb_24_1607,recall_fmri,3.2.4,59.86005915370582,
1,,,,,0,0,0,0,0,1,1,1,,,,,,,,,,,,,,,,,,,,,,,,,,,,245.20318601400004,336.17955157100005,None,251.20040090200018,,,,,,,,,,,,,,,,,,,,,,,,,,022420,0,1,0,2,0,1,0,4,2020_Feb_24_1607,recall_fmri,3.2.4,59.86005915370582,
﻿count,behav_recall_instructions.thisRepN,behav_recall_instructions.thisTrialN,behav_recall_instructions.thisN,behav_recall_instructions.thisIndex,trials.thisRepN,trials.thisTrialN,trials.thisN,trials.thisIndex,trials_4.thisRepN,trials_4.thisTrialN,trials_4.thisN,trials_4.thisIndex,trials_13.thisRepN,trials_13.thisTrialN,trials_13.thisN,trials_13.thisIndex,trials_17.thisRepN,trials_17.thisTrialN,trials_17.thisN,trials_17.thisIndex,story_list_block1,action_list_block1,text_76.started,text_76.stopped,key_resp_30.keys,key_resp_30.rt,key_resp_30.started,key_resp_30.stopped,textTrigger.started,textTrigger.stopped,getTrigger.keys,getTrigger.rt,getTrigger.started,getTrigger.stopped,triggerTime,text_77.started,text_77.stopped,text_78.started,text_78.stopped,waitStart,image_23.started,image_23.stopped,waitEnd,text_41.started,text_41.stopped,key_resp_26.keys,key_resp_26.rt,key_resp_26.started,key_resp_26.stopped,text_42.started,text_42.stopped,text_51.started,text_51.stopped,recall_StartTime,recall_EndTime,image_18.started,image_18.stopped,text_69.started,text_69.stopped,recall_audio.filename,recall_audio.started,recall_audio.stopped,key_resp_25.keys,key_resp_25.rt,key_resp_25.started,key_resp_25.stopped,text_80.started,text_80.stopped,participant,sA,sB,lA,lB,block_struct,block,behavioral,random_seed,date,expName,psychopyVersion,frameRate,
,,,,,,,,,,,,,,,,,,,,,[32 43 23 12 14 34 41 21],[4 2 3 1 1 4 2 3],33.81216194600006,None,space,38.67568641599996,33.81216194600006,None,,,,,,,,,,,,,,,,,,,,,,,,,,,,,,,,,,,,,,,,,022420,0,1,0,2,0,1,0,4,2020_Feb_24_1607,recall_fmri,3.2.4,59.86005915370582,
0,,,,,0,0,0,0,0,0,0,0,,,,,0,0,0,0,,,,,,,,,72.51618429700011,None,equal,18.432847964000075,72.51618429700011,None,57.16714415399997,72.51618429700011,None,72.51618429700011,None,0.0003124160000425036,90.97922297800005,None,5.9996613880000496,96.9827209990001,None,6,1.45636016200001,96.9827209990001,None,96.9827209990001,None,96.9827209990001,None,7.484820594000212,83.64955723599996,98.56234153200012,None,98.56234153200012,None,/Users/columbiadpml/Documents/GitHub/ebs/fMRI experiment/psychopy code/data/022420_bk1_recall_fmri_wav/recall_audio-1582578538.538.wav,0.008807453200233795,None,6,76.04075043599983,98.56234153200012,None,98.56234153200012,None,022420,0,1,0,2,0,1,0,4,2020_Feb_24_1607,recall_fmri,3.2.4,59.86005915370582,
0,,,,,0,0,0,0,0,0,0,0,,,,,,,,,,,,,,,,,,,,,,,,,,,,83.65273191799997,174.62958727600017,None,89.65023878700003,,,,,,,,,,,,,,,,,,,,,,,,,,022420,0,1,0,2,0,1,0,4,2020_Feb_24_1607,recall_fmri,3.2.4,59.86005915370582,
1,,,,,0,0,0,0,0,1,1,1,,,,,0,0,0,0,,,,,,,,,,,,,,,,,,,,,,,,180.62967314000025,None,6,1.6342603329999292,180.62967314000025,None,180.62967314000025,None,180.62967314000025,None,91.31821235799998,245.20031475800033,182.31352579099985,None,182.31352579099985,None,/Users/columbiadpml/Documents/GitHub/ebs/fMRI experiment/psychopy code/data/022420_bk1_recall_fmri_wav/recall_audio-1582578622.299.wav,0.01444643239983634,None,6,153.83756746599965,182.31352579099985,None,182.31352579099985,None,022420,0,1,0,2,0,1,0,4,2020_Feb_24_1607,recall_fmri,3.2.4,59.86005915370582,
1,,,,,0,0,0,0,0,1,1,1,,,,,,,,,,,,,,,,,,,,,,,,,,,,245.20318601400004,336.17955157100005,None,251.20040090200018,,,,,,,,,,,,,,,,,,,,,,,,,,022420,0,1,0,2,0,1,0,4,2020_Feb_24_1607,recall_fmri,3.2.4,59.86005915370582,
2,,,,,0,0,0,0,0,2,2,2,,,,,,,,,,,,,,,,,,,,,,,,,,,,251.20268532399996,342.1792515729999,342.1792515729999,257.1997640710001,,,,,,,,,,,,,,,,,,,,,,,,,,022420,0,1,0,2,0,1,0,4,2020_Feb_24_1607,recall_fmri,3.2.4,59.86005915370582,
3,,,,,0,0,0,0,0,3,3,3,,,,,0,0,0,0,,,,,,,,,,,,,,,,,,,,,,,,348.17960230200015,None,6,1.1744549979998737,348.17960230200015,None,348.17960230200015,None,348.17960230200015,None,258.40063986099995,369.33404167200024,349.39555510399987,None,349.39555510399987,None,/Users/columbiadpml/Documents/GitHub/ebs/fMRI experiment/psychopy code/data/022420_bk1_recall_fmri_wav/recall_audio-1582578789.383.wav,0.01317075240012855,None,6,110.89953315999992,349.39555510399987,None,349.39555510399987,None,022420,0,1,0,2,0,1,0,4,2020_Feb_24_1607,recall_fmri,3.2.4,59.86005915370582,
﻿count,behav_recall_instructions.thisRepN,behav_recall_instructions.thisTrialN,behav_recall_instructions.thisN,behav_recall_instructions.thisIndex,trials.thisRepN,trials.thisTrialN,trials.thisN,trials.thisIndex,trials_4.thisRepN,trials_4.thisTrialN,trials_4.thisN,trials_4.thisIndex,trials_13.thisRepN,trials_13.thisTrialN,trials_13.thisN,trials_13.thisIndex,trials_17.thisRepN,trials_17.thisTrialN,trials_17.thisN,trials_17.thisIndex,story_list_block1,action_list_block1,text_76.started,text_76.stopped,key_resp_30.keys,key_resp_30.rt,key_resp_30.started,key_resp_30.stopped,textTrigger.started,textTrigger.stopped,getTrigger.keys,getTrigger.rt,getTrigger.started,getTrigger.stopped,triggerTime,text_77.started,text_77.stopped,text_78.started,text_78.stopped,waitStart,image_23.started,image_23.stopped,waitEnd,text_41.started,text_41.stopped,key_resp_26.keys,key_resp_26.rt,key_resp_26.started,key_resp_26.stopped,text_42.started,text_42.stopped,text_51.started,text_51.stopped,recall_StartTime,recall_EndTime,image_18.started,image_18.stopped,text_69.started,text_69.stopped,recall_audio.filename,recall_audio.started,recall_audio.stopped,key_resp_25.keys,key_resp_25.rt,key_resp_25.started,key_resp_25.stopped,text_80.started,text_80.stopped,participant,sA,sB,lA,lB,block_struct,block,behavioral,random_seed,date,expName,psychopyVersion,frameRate,
,,,,,,,,,,,,,,,,,,,,,[32 43 23 12 14 34 41 21],[4 2 3 1 1 4 2 3],33.81216194600006,None,space,38.67568641599996,33.81216194600006,None,,,,,,,,,,,,,,,,,,,,,,,,,,,,,,,,,,,,,,,,,022420,0,1,0,2,0,1,0,4,2020_Feb_24_1607,recall_fmri,3.2.4,59.86005915370582,
0,,,,,0,0,0,0,0,0,0,0,,,,,0,0,0,0,,,,,,,,,72.51618429700011,None,equal,18.432847964000075,72.51618429700011,None,57.16714415399997,72.51618429700011,None,72.51618429700011,None,0.0003124160000425036,90.97922297800005,None,5.9996613880000496,96.9827209990001,None,6,1.45636016200001,96.9827209990001,None,96.9827209990001,None,96.9827209990001,None,7.484820594000212,83.64955723599996,98.56234153200012,None,98.56234153200012,None,/Users/columbiadpml/Documents/GitHub/ebs/fMRI experiment/psychopy code/data/022420_bk1_recall_fmri_wav/recall_audio-1582578538.538.wav,0.008807453200233795,None,6,76.04075043599983,98.56234153200012,None,98.56234153200012,None,022420,0,1,0,2,0,1,0,4,2020_Feb_24_1607,recall_fmri,3.2.4,59.86005915370582,
0,,,,,0,0,0,0,0,0,0,0,,,,,,,,,,,,,,,,,,,,,,,,,,,,83.65273191799997,174.62958727600017,None,89.65023878700003,,,,,,,,,,,,,,,,,,,,,,,,,,022420,0,1,0,2,0,1,0,4,2020_Feb_24_1607,recall_fmri,3.2.4,59.86005915370582,
1,,,,,0,0,0,0,0,1,1,1,,,,,0,0,0,0,,,,,,,,,,,,,,,,,,,,,,,,180.62967314000025,None,6,1.6342603329999292,180.62967314000025,None,180.62967314000025,None,180.62967314000025,None,91.31821235799998,245.20031475800033,182.31352579099985,None,182.31352579099985,None,/Users/columbiadpml/Documents/GitHub/ebs/fMRI experiment/psychopy code/data/022420_bk1_recall_fmri_wav/recall_audio-1582578622.299.wav,0.01444643239983634,None,6,153.83756746599965,182.31352579099985,None,182.31352579099985,None,022420,0,1,0,2,0,1,0,4,2020_Feb_24_1607,recall_fmri,3.2.4,59.86005915370582,
1,,,,,0,0,0,0,0,1,1,1,,,,,,,,,,,,,,,,,,,,,,,,,,,,245.20318601400004,336.17955157100005,None,251.20040090200018,,,,,,,,,,,,,,,,,,,,,,,,,,022420,0,1,0,2,0,1,0,4,2020_Feb_24_1607,recall_fmri,3.2.4,59.86005915370582,
2,,,,,0,0,0,0,0,2,2,2,,,,,,,,,,,,,,,,,,,,,,,,,,,,251.20268532399996,342.1792515729999,342.1792515729999,257.1997640710001,,,,,,,,,,,,,,,,,,,,,,,,,,022420,0,1,0,2,0,1,0,4,2020_Feb_24_1607,recall_fmri,3.2.4,59.86005915370582,
3,,,,,0,0,0,0,0,3,3,3,,,,,0,0,0,0,,,,,,,,,,,,,,,,,,,,,,,,348.17960230200015,None,6,1.1744549979998737,348.17960230200015,None,348.17960230200015,None,348.17960230200015,None,258.40063986099995,369.33404167200024,349.39555510399987,None,349.39555510399987,None,/Users/columbiadpml/Documents/GitHub/ebs/fMRI experiment/psychopy code/data/022420_bk1_recall_fmri_wav/recall_audio-1582578789.383.wav,0.01317075240012855,None,6,110.89953315999992,349.39555510399987,None,349.39555510399987,None,022420,0,1,0,2,0,1,0,4,2020_Feb_24_1607,recall_fmri,3.2.4,59.86005915370582,
3,,,,,0,0,0,0,0,3,3,3,,,,,,,,,,,,,,,,,,,,,,,,,,,,369.33963991400014,460.3127327540001,None,375.33414575899997,,,,,,,,,,,,,,,,,,,,,,,,,,022420,0,1,0,2,0,1,0,4,2020_Feb_24_1607,recall_fmri,3.2.4,59.86005915370582,
4,,,,,0,0,0,0,0,4,4,4,,,,,0,0,0,0,,,,,,,,,,,,,,,,,,,,,,,,466.3129267039999,None,6,0.9941613149999284,466.3129267039999,None,466.3129267039999,None,466.3129267039999,None,376.3520671280003,500.05036761400015,467.34478786599993,None,467.34478786599993,None,/Users/columbiadpml/Documents/GitHub/ebs/fMRI experiment/psychopy code/data/022420_bk1_recall_fmri_wav/recall_audio-1582578907.336.wav,0.011364641399723041,None,6,123.66527786400002,467.34478786599993,None,467.34478786599993,None,022420,0,1,0,2,0,1,0,4,2020_Feb_24_1607,recall_fmri,3.2.4,59.86005915370582,
﻿count,behav_recall_instructions.thisRepN,behav_recall_instructions.thisTrialN,behav_recall_instructions.thisN,behav_recall_instructions.thisIndex,trials.thisRepN,trials.thisTrialN,trials.thisN,trials.thisIndex,trials_4.thisRepN,trials_4.thisTrialN,trials_4.thisN,trials_4.thisIndex,trials_13.thisRepN,trials_13.thisTrialN,trials_13.thisN,trials_13.thisIndex,trials_17.thisRepN,trials_17.thisTrialN,trials_17.thisN,trials_17.thisIndex,story_list_block1,action_list_block1,text_76.started,text_76.stopped,key_resp_30.keys,key_resp_30.rt,key_resp_30.started,key_resp_30.stopped,textTrigger.started,textTrigger.stopped,getTrigger.keys,getTrigger.rt,getTrigger.started,getTrigger.stopped,triggerTime,text_77.started,text_77.stopped,text_78.started,text_78.stopped,waitStart,image_23.started,image_23.stopped,waitEnd,text_41.started,text_41.stopped,key_resp_26.keys,key_resp_26.rt,key_resp_26.started,key_resp_26.stopped,text_42.started,text_42.stopped,text_51.started,text_51.stopped,recall_StartTime,recall_EndTime,image_18.started,image_18.stopped,text_69.started,text_69.stopped,recall_audio.filename,recall_audio.started,recall_audio.stopped,key_resp_25.keys,key_resp_25.rt,key_resp_25.started,key_resp_25.stopped,text_80.started,text_80.stopped,participant,sA,sB,lA,lB,block_struct,block,behavioral,random_seed,date,expName,psychopyVersion,frameRate,
,,,,,,,,,,,,,,,,,,,,,[32 43 23 12 14 34 41 21],[4 2 3 1 1 4 2 3],33.81216194600006,None,space,38.67568641599996,33.81216194600006,None,,,,,,,,,,,,,,,,,,,,,,,,,,,,,,,,,,,,,,,,,022420,0,1,0,2,0,1,0,4,2020_Feb_24_1607,recall_fmri,3.2.4,59.86005915370582,
0,,,,,0,0,0,0,0,0,0,0,,,,,0,0,0,0,,,,,,,,,72.51618429700011,None,equal,18.432847964000075,72.51618429700011,None,57.16714415399997,72.51618429700011,None,72.51618429700011,None,0.0003124160000425036,90.97922297800005,None,5.9996613880000496,96.9827209990001,None,6,1.45636016200001,96.9827209990001,None,96.9827209990001,None,96.9827209990001,None,7.484820594000212,83.64955723599996,98.56234153200012,None,98.56234153200012,None,/Users/columbiadpml/Documents/GitHub/ebs/fMRI experiment/psychopy code/data/022420_bk1_recall_fmri_wav/recall_audio-1582578538.538.wav,0.008807453200233795,None,6,76.04075043599983,98.56234153200012,None,98.56234153200012,None,022420,0,1,0,2,0,1,0,4,2020_Feb_24_1607,recall_fmri,3.2.4,59.86005915370582,
0,,,,,0,0,0,0,0,0,0,0,,,,,,,,,,,,,,,,,,,,,,,,,,,,83.65273191799997,174.62958727600017,None,89.65023878700003,,,,,,,,,,,,,,,,,,,,,,,,,,022420,0,1,0,2,0,1,0,4,2020_Feb_24_1607,recall_fmri,3.2.4,59.86005915370582,
1,,,,,0,0,0,0,0,1,1,1,,,,,0,0,0,0,,,,,,,,,,,,,,,,,,,,,,,,180.62967314000025,None,6,1.6342603329999292,180.62967314000025,None,180.62967314000025,None,180.62967314000025,None,91.31821235799998,245.20031475800033,182.31352579099985,None,182.31352579099985,None,/Users/columbiadpml/Documents/GitHub/ebs/fMRI experiment/psychopy code/data/022420_bk1_recall_fmri_wav/recall_audio-1582578622.299.wav,0.01444643239983634,None,6,153.83756746599965,182.31352579099985,None,182.31352579099985,None,022420,0,1,0,2,0,1,0,4,2020_Feb_24_1607,recall_fmri,3.2.4,59.86005915370582,
1,,,,,0,0,0,0,0,1,1,1,,,,,,,,,,,,,,,,,,,,,,,,,,,,245.20318601400004,336.17955157100005,None,251.20040090200018,,,,,,,,,,,,,,,,,,,,,,,,,,022420,0,1,0,2,0,1,0,4,2020_Feb_24_1607,recall_fmri,3.2.4,59.86005915370582,
2,,,,,0,0,0,0,0,2,2,2,,,,,,,,,,,,,,,,,,,,,,,,,,,,251.20268532399996,342.1792515729999,342.1792515729999,257.1997640710001,,,,,,,,,,,,,,,,,,,,,,,,,,022420,0,1,0,2,0,1,0,4,2020_Feb_24_1607,recall_fmri,3.2.4,59.86005915370582,
3,,,,,0,0,0,0,0,3,3,3,,,,,0,0,0,0,,,,,,,,,,,,,,,,,,,,,,,,348.17960230200015,None,6,1.1744549979998737,348.17960230200015,None,348.17960230200015,None,348.17960230200015,None,258.40063986099995,369.33404167200024,349.39555510399987,None,349.39555510399987,None,/Users/columbiadpml/Documents/GitHub/ebs/fMRI experiment/psychopy code/data/022420_bk1_recall_fmri_wav/recall_audio-1582578789.383.wav,0.01317075240012855,None,6,110.89953315999992,349.39555510399987,None,349.39555510399987,None,022420,0,1,0,2,0,1,0,4,2020_Feb_24_1607,recall_fmri,3.2.4,59.86005915370582,
3,,,,,0,0,0,0,0,3,3,3,,,,,,,,,,,,,,,,,,,,,,,,,,,,369.33963991400014,460.3127327540001,None,375.33414575899997,,,,,,,,,,,,,,,,,,,,,,,,,,022420,0,1,0,2,0,1,0,4,2020_Feb_24_1607,recall_fmri,3.2.4,59.86005915370582,
4,,,,,0,0,0,0,0,4,4,4,,,,,0,0,0,0,,,,,,,,,,,,,,,,,,,,,,,,466.3129267039999,None,6,0.9941613149999284,466.3129267039999,None,466.3129267039999,None,466.3129267039999,None,376.3520671280003,500.05036761400015,467.34478786599993,None,467.34478786599993,None,/Users/columbiadpml/Documents/GitHub/ebs/fMRI experiment/psychopy code/data/022420_bk1_recall_fmri_wav/recall_audio-1582578907.336.wav,0.011364641399723041,None,6,123.66527786400002,467.34478786599993,None,467.34478786599993,None,022420,0,1,0,2,0,1,0,4,2020_Feb_24_1607,recall_fmri,3.2.4,59.86005915370582,
4,,,,,0,0,0,0,0,4,4,4,,,,,,,,,,,,,,,,,,,,,,,,,,,,500.0544936880001,591.029417668,None,506.0507400659999,,,,,,,,,,,,,,,,,,,,,,,,,,022420,0,1,0,2,0,1,0,4,2020_Feb_24_1607,recall_fmri,3.2.4,59.86005915370582,
5,,,,,0,0,0,0,0,5,5,5,,,,,0,0,0,0,,,,,,,,,,,,,,,,,,,,,,,,597.030517446,None,6,1.406548511999972,597.030517446,None,597.030517446,None,597.030517446,None,507.48043703700023,577.4618106380003,598.4927121850001,None,598.4927121850001,None,/Users/columbiadpml/Documents/GitHub/ebs/fMRI experiment/psychopy code/data/022420_bk1_recall_fmri_wav/recall_audio-1582579038.465.wav,0.011089192400504544,None,6,69.9302703090002,598.4927121850001,None,598.4927121850001,None,022420,0,1,0,2,0,1,0,4,2020_Feb_24_1607,recall_fmri,3.2.4,59.86005915370582,
﻿count,behav_recall_instructions.thisRepN,behav_recall_instructions.thisTrialN,behav_recall_instructions.thisN,behav_recall_instructions.thisIndex,trials.thisRepN,trials.thisTrialN,trials.thisN,trials.thisIndex,trials_4.thisRepN,trials_4.thisTrialN,trials_4.thisN,trials_4.thisIndex,trials_13.thisRepN,trials_13.thisTrialN,trials_13.thisN,trials_13.thisIndex,trials_17.thisRepN,trials_17.thisTrialN,trials_17.thisN,trials_17.thisIndex,story_list_block1,action_list_block1,text_76.started,text_76.stopped,key_resp_30.keys,key_resp_30.rt,key_resp_30.started,key_resp_30.stopped,textTrigger.started,textTrigger.stopped,getTrigger.keys,getTrigger.rt,getTrigger.started,getTrigger.stopped,triggerTime,text_77.started,text_77.stopped,text_78.started,text_78.stopped,waitStart,image_23.started,image_23.stopped,waitEnd,text_41.started,text_41.stopped,key_resp_26.keys,key_resp_26.rt,key_resp_26.started,key_resp_26.stopped,text_42.started,text_42.stopped,text_51.started,text_51.stopped,recall_StartTime,recall_EndTime,image_18.started,image_18.stopped,text_69.started,text_69.stopped,recall_audio.filename,recall_audio.started,recall_audio.stopped,key_resp_25.keys,key_resp_25.rt,key_resp_25.started,key_resp_25.stopped,text_80.started,text_80.stopped,participant,sA,sB,lA,lB,block_struct,block,behavioral,random_seed,date,expName,psychopyVersion,frameRate,
,,,,,,,,,,,,,,,,,,,,,[32 43 23 12 14 34 41 21],[4 2 3 1 1 4 2 3],33.81216194600006,None,space,38.67568641599996,33.81216194600006,None,,,,,,,,,,,,,,,,,,,,,,,,,,,,,,,,,,,,,,,,,022420,0,1,0,2,0,1,0,4,2020_Feb_24_1607,recall_fmri,3.2.4,59.86005915370582,
0,,,,,0,0,0,0,0,0,0,0,,,,,0,0,0,0,,,,,,,,,72.51618429700011,None,equal,18.432847964000075,72.51618429700011,None,57.16714415399997,72.51618429700011,None,72.51618429700011,None,0.0003124160000425036,90.97922297800005,None,5.9996613880000496,96.9827209990001,None,6,1.45636016200001,96.9827209990001,None,96.9827209990001,None,96.9827209990001,None,7.484820594000212,83.64955723599996,98.56234153200012,None,98.56234153200012,None,/Users/columbiadpml/Documents/GitHub/ebs/fMRI experiment/psychopy code/data/022420_bk1_recall_fmri_wav/recall_audio-1582578538.538.wav,0.008807453200233795,None,6,76.04075043599983,98.56234153200012,None,98.56234153200012,None,022420,0,1,0,2,0,1,0,4,2020_Feb_24_1607,recall_fmri,3.2.4,59.86005915370582,
0,,,,,0,0,0,0,0,0,0,0,,,,,,,,,,,,,,,,,,,,,,,,,,,,83.65273191799997,174.62958727600017,None,89.65023878700003,,,,,,,,,,,,,,,,,,,,,,,,,,022420,0,1,0,2,0,1,0,4,2020_Feb_24_1607,recall_fmri,3.2.4,59.86005915370582,
1,,,,,0,0,0,0,0,1,1,1,,,,,0,0,0,0,,,,,,,,,,,,,,,,,,,,,,,,180.62967314000025,None,6,1.6342603329999292,180.62967314000025,None,180.62967314000025,None,180.62967314000025,None,91.31821235799998,245.20031475800033,182.31352579099985,None,182.31352579099985,None,/Users/columbiadpml/Documents/GitHub/ebs/fMRI experiment/psychopy code/data/022420_bk1_recall_fmri_wav/recall_audio-1582578622.299.wav,0.01444643239983634,None,6,153.83756746599965,182.31352579099985,None,182.31352579099985,None,022420,0,1,0,2,0,1,0,4,2020_Feb_24_1607,recall_fmri,3.2.4,59.86005915370582,
1,,,,,0,0,0,0,0,1,1,1,,,,,,,,,,,,,,,,,,,,,,,,,,,,245.20318601400004,336.17955157100005,None,251.20040090200018,,,,,,,,,,,,,,,,,,,,,,,,,,022420,0,1,0,2,0,1,0,4,2020_Feb_24_1607,recall_fmri,3.2.4,59.86005915370582,
2,,,,,0,0,0,0,0,2,2,2,,,,,,,,,,,,,,,,,,,,,,,,,,,,251.20268532399996,342.1792515729999,342.1792515729999,257.1997640710001,,,,,,,,,,,,,,,,,,,,,,,,,,022420,0,1,0,2,0,1,0,4,2020_Feb_24_1607,recall_fmri,3.2.4,59.86005915370582,
3,,,,,0,0,0,0,0,3,3,3,,,,,0,0,0,0,,,,,,,,,,,,,,,,,,,,,,,,348.17960230200015,None,6,1.1744549979998737,348.17960230200015,None,348.17960230200015,None,348.17960230200015,None,258.40063986099995,369.33404167200024,349.39555510399987,None,349.39555510399987,None,/Users/columbiadpml/Documents/GitHub/ebs/fMRI experiment/psychopy code/data/022420_bk1_recall_fmri_wav/recall_audio-1582578789.383.wav,0.01317075240012855,None,6,110.89953315999992,349.39555510399987,None,349.39555510399987,None,022420,0,1,0,2,0,1,0,4,2020_Feb_24_1607,recall_fmri,3.2.4,59.86005915370582,
3,,,,,0,0,0,0,0,3,3,3,,,,,,,,,,,,,,,,,,,,,,,,,,,,369.33963991400014,460.3127327540001,None,375.33414575899997,,,,,,,,,,,,,,,,,,,,,,,,,,022420,0,1,0,2,0,1,0,4,2020_Feb_24_1607,recall_fmri,3.2.4,59.86005915370582,
4,,,,,0,0,0,0,0,4,4,4,,,,,0,0,0,0,,,,,,,,,,,,,,,,,,,,,,,,466.3129267039999,None,6,0.9941613149999284,466.3129267039999,None,466.3129267039999,None,466.3129267039999,None,376.3520671280003,500.05036761400015,467.34478786599993,None,467.34478786599993,None,/Users/columbiadpml/Documents/GitHub/ebs/fMRI experiment/psychopy code/data/022420_bk1_recall_fmri_wav/recall_audio-1582578907.336.wav,0.011364641399723041,None,6,123.66527786400002,467.34478786599993,None,467.34478786599993,None,022420,0,1,0,2,0,1,0,4,2020_Feb_24_1607,recall_fmri,3.2.4,59.86005915370582,
4,,,,,0,0,0,0,0,4,4,4,,,,,,,,,,,,,,,,,,,,,,,,,,,,500.0544936880001,591.029417668,None,506.0507400659999,,,,,,,,,,,,,,,,,,,,,,,,,,022420,0,1,0,2,0,1,0,4,2020_Feb_24_1607,recall_fmri,3.2.4,59.86005915370582,
5,,,,,0,0,0,0,0,5,5,5,,,,,0,0,0,0,,,,,,,,,,,,,,,,,,,,,,,,597.030517446,None,6,1.406548511999972,597.030517446,None,597.030517446,None,597.030517446,None,507.48043703700023,577.4618106380003,598.4927121850001,None,598.4927121850001,None,/Users/columbiadpml/Documents/GitHub/ebs/fMRI experiment/psychopy code/data/022420_bk1_recall_fmri_wav/recall_audio-1582579038.465.wav,0.011089192400504544,None,6,69.9302703090002,598.4927121850001,None,598.4927121850001,None,022420,0,1,0,2,0,1,0,4,2020_Feb_24_1607,recall_fmri,3.2.4,59.86005915370582,
5,,,,,0,0,0,0,0,5,5,5,,,,,,,,,,,,,,,,,,,,,,,,,,,,577.465723416,668.4416683929999,None,583.4671532910002,,,,,,,,,,,,,,,,,,,,,,,,,,022420,0,1,0,2,0,1,0,4,2020_Feb_24_1607,recall_fmri,3.2.4,59.86005915370582,
6,,,,,0,0,0,0,0,6,6,6,,,,,0,0,0,0,,,,,,,,,,,,,,,,,,,,,,,,674.446536728,None,6,1.39737885500017,674.446536728,None,674.446536728,None,674.446536728,None,584.884780672,695.7003702689999,675.8745883740003,None,675.8745883740003,None,/Users/columbiadpml/Documents/GitHub/ebs/fMRI experiment/psychopy code/data/022420_bk1_recall_fmri_wav/recall_audio-1582579115.866.wav,0.01401115039971046,None,2,110.78449406200025,675.8745883740003,None,675.8745883740003,None,022420,0,1,0,2,0,1,0,4,2020_Feb_24_1607,recall_fmri,3.2.4,59.86005915370582,
﻿count,behav_recall_instructions.thisRepN,behav_recall_instructions.thisTrialN,behav_recall_instructions.thisN,behav_recall_instructions.thisIndex,trials.thisRepN,trials.thisTrialN,trials.thisN,trials.thisIndex,trials_4.thisRepN,trials_4.thisTrialN,trials_4.thisN,trials_4.thisIndex,trials_13.thisRepN,trials_13.thisTrialN,trials_13.thisN,trials_13.thisIndex,trials_17.thisRepN,trials_17.thisTrialN,trials_17.thisN,trials_17.thisIndex,story_list_block1,action_list_block1,text_76.started,text_76.stopped,key_resp_30.keys,key_resp_30.rt,key_resp_30.started,key_resp_30.stopped,textTrigger.started,textTrigger.stopped,getTrigger.keys,getTrigger.rt,getTrigger.started,getTrigger.stopped,triggerTime,text_77.started,text_77.stopped,text_78.started,text_78.stopped,waitStart,image_23.started,image_23.stopped,waitEnd,text_41.started,text_41.stopped,key_resp_26.keys,key_resp_26.rt,key_resp_26.started,key_resp_26.stopped,text_42.started,text_42.stopped,text_51.started,text_51.stopped,recall_StartTime,recall_EndTime,image_18.started,image_18.stopped,text_69.started,text_69.stopped,recall_audio.filename,recall_audio.started,recall_audio.stopped,key_resp_25.keys,key_resp_25.rt,key_resp_25.started,key_resp_25.stopped,text_80.started,text_80.stopped,participant,sA,sB,lA,lB,block_struct,block,behavioral,random_seed,date,expName,psychopyVersion,frameRate,
,,,,,,,,,,,,,,,,,,,,,[32 43 23 12 14 34 41 21],[4 2 3 1 1 4 2 3],33.81216194600006,None,space,38.67568641599996,33.81216194600006,None,,,,,,,,,,,,,,,,,,,,,,,,,,,,,,,,,,,,,,,,,022420,0,1,0,2,0,1,0,4,2020_Feb_24_1607,recall_fmri,3.2.4,59.86005915370582,
0,,,,,0,0,0,0,0,0,0,0,,,,,0,0,0,0,,,,,,,,,72.51618429700011,None,equal,18.432847964000075,72.51618429700011,None,57.16714415399997,72.51618429700011,None,72.51618429700011,None,0.0003124160000425036,90.97922297800005,None,5.9996613880000496,96.9827209990001,None,6,1.45636016200001,96.9827209990001,None,96.9827209990001,None,96.9827209990001,None,7.484820594000212,83.64955723599996,98.56234153200012,None,98.56234153200012,None,/Users/columbiadpml/Documents/GitHub/ebs/fMRI experiment/psychopy code/data/022420_bk1_recall_fmri_wav/recall_audio-1582578538.538.wav,0.008807453200233795,None,6,76.04075043599983,98.56234153200012,None,98.56234153200012,None,022420,0,1,0,2,0,1,0,4,2020_Feb_24_1607,recall_fmri,3.2.4,59.86005915370582,
0,,,,,0,0,0,0,0,0,0,0,,,,,,,,,,,,,,,,,,,,,,,,,,,,83.65273191799997,174.62958727600017,None,89.65023878700003,,,,,,,,,,,,,,,,,,,,,,,,,,022420,0,1,0,2,0,1,0,4,2020_Feb_24_1607,recall_fmri,3.2.4,59.86005915370582,
1,,,,,0,0,0,0,0,1,1,1,,,,,0,0,0,0,,,,,,,,,,,,,,,,,,,,,,,,180.62967314000025,None,6,1.6342603329999292,180.62967314000025,None,180.62967314000025,None,180.62967314000025,None,91.31821235799998,245.20031475800033,182.31352579099985,None,182.31352579099985,None,/Users/columbiadpml/Documents/GitHub/ebs/fMRI experiment/psychopy code/data/022420_bk1_recall_fmri_wav/recall_audio-1582578622.299.wav,0.01444643239983634,None,6,153.83756746599965,182.31352579099985,None,182.31352579099985,None,022420,0,1,0,2,0,1,0,4,2020_Feb_24_1607,recall_fmri,3.2.4,59.86005915370582,
1,,,,,0,0,0,0,0,1,1,1,,,,,,,,,,,,,,,,,,,,,,,,,,,,245.20318601400004,336.17955157100005,None,251.20040090200018,,,,,,,,,,,,,,,,,,,,,,,,,,022420,0,1,0,2,0,1,0,4,2020_Feb_24_1607,recall_fmri,3.2.4,59.86005915370582,
2,,,,,0,0,0,0,0,2,2,2,,,,,,,,,,,,,,,,,,,,,,,,,,,,251.20268532399996,342.1792515729999,342.1792515729999,257.1997640710001,,,,,,,,,,,,,,,,,,,,,,,,,,022420,0,1,0,2,0,1,0,4,2020_Feb_24_1607,recall_fmri,3.2.4,59.86005915370582,
3,,,,,0,0,0,0,0,3,3,3,,,,,0,0,0,0,,,,,,,,,,,,,,,,,,,,,,,,348.17960230200015,None,6,1.1744549979998737,348.17960230200015,None,348.17960230200015,None,348.17960230200015,None,258.40063986099995,369.33404167200024,349.39555510399987,None,349.39555510399987,None,/Users/columbiadpml/Documents/GitHub/ebs/fMRI experiment/psychopy code/data/022420_bk1_recall_fmri_wav/recall_audio-1582578789.383.wav,0.01317075240012855,None,6,110.89953315999992,349.39555510399987,None,349.39555510399987,None,022420,0,1,0,2,0,1,0,4,2020_Feb_24_1607,recall_fmri,3.2.4,59.86005915370582,
3,,,,,0,0,0,0,0,3,3,3,,,,,,,,,,,,,,,,,,,,,,,,,,,,369.33963991400014,460.3127327540001,None,375.33414575899997,,,,,,,,,,,,,,,,,,,,,,,,,,022420,0,1,0,2,0,1,0,4,2020_Feb_24_1607,recall_fmri,3.2.4,59.86005915370582,
4,,,,,0,0,0,0,0,4,4,4,,,,,0,0,0,0,,,,,,,,,,,,,,,,,,,,,,,,466.3129267039999,None,6,0.9941613149999284,466.3129267039999,None,466.3129267039999,None,466.3129267039999,None,376.3520671280003,500.05036761400015,467.34478786599993,None,467.34478786599993,None,/Users/columbiadpml/Documents/GitHub/ebs/fMRI experiment/psychopy code/data/022420_bk1_recall_fmri_wav/recall_audio-1582578907.336.wav,0.011364641399723041,None,6,123.66527786400002,467.34478786599993,None,467.34478786599993,None,022420,0,1,0,2,0,1,0,4,2020_Feb_24_1607,recall_fmri,3.2.4,59.86005915370582,
4,,,,,0,0,0,0,0,4,4,4,,,,,,,,,,,,,,,,,,,,,,,,,,,,500.0544936880001,591.029417668,None,506.0507400659999,,,,,,,,,,,,,,,,,,,,,,,,,,022420,0,1,0,2,0,1,0,4,2020_Feb_24_1607,recall_fmri,3.2.4,59.86005915370582,
5,,,,,0,0,0,0,0,5,5,5,,,,,0,0,0,0,,,,,,,,,,,,,,,,,,,,,,,,597.030517446,None,6,1.406548511999972,597.030517446,None,597.030517446,None,597.030517446,None,507.48043703700023,577.4618106380003,598.4927121850001,None,598.4927121850001,None,/Users/columbiadpml/Documents/GitHub/ebs/fMRI experiment/psychopy code/data/022420_bk1_recall_fmri_wav/recall_audio-1582579038.465.wav,0.011089192400504544,None,6,69.9302703090002,598.4927121850001,None,598.4927121850001,None,022420,0,1,0,2,0,1,0,4,2020_Feb_24_1607,recall_fmri,3.2.4,59.86005915370582,
5,,,,,0,0,0,0,0,5,5,5,,,,,,,,,,,,,,,,,,,,,,,,,,,,577.465723416,668.4416683929999,None,583.4671532910002,,,,,,,,,,,,,,,,,,,,,,,,,,022420,0,1,0,2,0,1,0,4,2020_Feb_24_1607,recall_fmri,3.2.4,59.86005915370582,
6,,,,,0,0,0,0,0,6,6,6,,,,,0,0,0,0,,,,,,,,,,,,,,,,,,,,,,,,674.446536728,None,6,1.39737885500017,674.446536728,None,674.446536728,None,674.446536728,None,584.884780672,695.7003702689999,675.8745883740003,None,675.8745883740003,None,/Users/columbiadpml/Documents/GitHub/ebs/fMRI experiment/psychopy code/data/022420_bk1_recall_fmri_wav/recall_audio-1582579115.866.wav,0.01401115039971046,None,2,110.78449406200025,675.8745883740003,None,675.8745883740003,None,022420,0,1,0,2,0,1,0,4,2020_Feb_24_1607,recall_fmri,3.2.4,59.86005915370582,
6,,,,,0,0,0,0,0,6,6,6,,,,,,,,,,,,,,,,,,,,,,,,,,,,695.7046668920002,786.6795073779999,None,701.710202493,,,,,,,,,,,,,,,,,,,,,,,,,,022420,0,1,0,2,0,1,0,4,2020_Feb_24_1607,recall_fmri,3.2.4,59.86005915370582,
