count,audio,trials_14.thisRepN,trials_14.thisTrialN,trials_14.thisN,trials_14.thisIndex,trials_3.thisRepN,trials_3.thisTrialN,trials_3.thisN,trials_3.thisIndex,trials_4.thisRepN,trials_4.thisTrialN,trials_4.thisN,trials_4.thisIndex,trials_6.thisRepN,trials_6.thisTrialN,trials_6.thisN,trials_6.thisIndex,trials_9.thisRepN,trials_9.thisTrialN,trials_9.thisN,trials_9.thisIndex,trials_10.thisRepN,trials_10.thisTrialN,trials_10.thisN,trials_10.thisIndex,trials_12.thisRepN,trials_12.thisTrialN,trials_12.thisN,trials_12.thisIndex,trials_25.thisRepN,trials_25.thisTrialN,trials_25.thisN,trials_25.thisIndex,trials_15.thisRepN,trials_15.thisTrialN,trials_15.thisN,trials_15.thisIndex,trials_26.thisRepN,trials_26.thisTrialN,trials_26.thisN,trials_26.thisIndex,trials_11.thisRepN,trials_11.thisTrialN,trials_11.thisN,trials_11.thisIndex,trials_8.thisRepN,trials_8.thisTrialN,trials_8.thisN,trials_8.thisIndex,story_list_block2,action_list_block2,textTrigger.started,textTrigger.stopped,getTrigger.keys,getTrigger.rt,getTrigger.started,getTrigger.stopped,triggerTime,text_76.started,text_76.stopped,text_77.started,text_77.stopped,startWait,endWait,image_23.started,image_23.stopped,text_55.started,text_55.stopped,text_56.started,text_56.stopped,key_resp_2.keys,key_resp_2.rt,key_resp_2.started,key_resp_2.stopped,text_82.started,text_82.stopped,text_64.started,text_64.stopped,key_resp_20.keys,key_resp_20.rt,key_resp_20.started,key_resp_20.stopped,storyImage_StartTime,storyImage_EndTime,clip_StartTime,clip_EndTime,text_67.started,text_67.stopped,text_68.started,text_68.stopped,text_57.started,text_57.stopped,key_resp_17.keys,key_resp_17.rt,key_resp_17.started,key_resp_17.stopped,text_83.started,text_83.stopped,text_60.started,text_60.stopped,image_2.started,image_2.stopped,text_58.started,text_58.stopped,key_resp_23.keys,key_resp_23.rt,key_resp_23.started,key_resp_23.stopped,text_62.started,text_62.stopped,key_resp_18.keys,key_resp_18.rt,key_resp_18.started,key_resp_18.stopped,text_84.started,text_84.stopped,question1_2.started,question1_2.stopped,question2_2.started,question2_2.stopped,question3_2.started,question3_2.stopped,question4_2.started,question4_2.stopped,question5_2.started,question5_2.stopped,question6_2.started,question6_2.stopped,image_15.started,image_15.stopped,text_59.started,text_59.stopped,key_resp_19.keys,key_resp_19.rt,key_resp_19.started,key_resp_19.stopped,text_85.started,text_85.stopped,text_61.started,text_61.stopped,image_17.started,image_17.stopped,text_63.started,text_63.stopped,key_resp_24.keys,key_resp_24.rt,key_resp_24.started,key_resp_24.stopped,text_36.started,text_36.stopped,participant,sA,sB,lA,lB,block_struct,play_stories,block,behavioral,random_seed,date,expName,psychopyVersion,frameRate,
0,parcelated_audio/44/44_1.ogg,,,,,,,,,0,0,0,0,0,0,0,0,0,0,0,0,,,,,,,,,0,0,0,0,0,0,0,0,,,,,,,,,,,,,[44 22 31 13 11 33 42 24],[4 1 2 3 3 2 4 1],16.381848546999997,None,equal,24.268518917999998,16.381848546999997,None,24.299738149999996,16.381848546999997,None,16.381848546999997,None,0.00037980300000128864,5.999274399000001,40.68219839,None,46.69797354,None,46.69797354,None,6,1.000393122999995,46.69797354,None,46.69797354,None,47.716099138,None,6,0.6922863369999988,47.716099138,None,7.7573431920000075,10.764695005999997,10.769189910000009,19.013372887000003,,,,,,,,,,,,,,,,,,,,,,,,,,,,,,,,,,,,,,,,,,,,,,,,,,,,,,,,,,,,,,,,,022420,0,1,0,2,0,1,2,0,4,2020_Feb_24_1536,listening_fmri,3.2.4,59.94120043966396,
0,parcelated_audio/44/44_2.ogg,,,,,,,,,0,0,0,0,0,0,0,0,0,0,0,0,,,,,,,,,0,0,0,0,0,1,1,1,,,,,,,,,,,,,,,,,,,,,,,,,,,,,,,,,,,,,,,,,,,,,,,,19.013703733,28.14362026500001,,,,,,,,,,,,,,,,,,,,,,,,,,,,,,,,,,,,,,,,,,,,,,,,,,,,,,,,,,,,,,,,,022420,0,1,0,2,0,1,2,0,4,2020_Feb_24_1536,listening_fmri,3.2.4,59.94120043966396,
0,parcelated_audio/44/44_3.ogg,,,,,,,,,0,0,0,0,0,0,0,0,0,0,0,0,,,,,,,,,0,0,0,0,0,2,2,2,,,,,,,,,,,,,,,,,,,,,,,,,,,,,,,,,,,,,,,,,,,,,,,,28.143886933999994,33.60704214200001,,,,,,,,,,,,,,,,,,,,,,,,,,,,,,,,,,,,,,,,,,,,,,,,,,,,,,,,,,,,,,,,,022420,0,1,0,2,0,1,2,0,4,2020_Feb_24_1536,listening_fmri,3.2.4,59.94120043966396,
0,parcelated_audio/44/44_4.ogg,,,,,,,,,0,0,0,0,0,0,0,0,0,0,0,0,,,,,,,,,0,0,0,0,0,3,3,3,,,,,,,,,,,,,,,,,,,,,,,,,,,,,,,,,,,,,,,,,,,,,,,,33.60730998599999,38.68985169800001,,,,,,,,,,,,,,,,,,,,,,,,,,,,,,,,,,,,,,,,,,,,,,,,,,,,,,,,,,,,,,,,,022420,0,1,0,2,0,1,2,0,4,2020_Feb_24_1536,listening_fmri,3.2.4,59.94120043966396,
0,parcelated_audio/44/44_5.ogg,,,,,,,,,0,0,0,0,0,0,0,0,0,0,0,0,,,,,,,,,0,0,0,0,0,4,4,4,,,,,,,,,,,,,,,,,,,,,,,,,,,,,,,,,,,,,,,,,,,,,,,,38.690125025000015,44.913872763,,,,,,,,,,,,,,,,,,,,,,,,,,,,,,,,,,,,,,,,,,,,,,,,,,,,,,,,,,,,,,,,,022420,0,1,0,2,0,1,2,0,4,2020_Feb_24_1536,listening_fmri,3.2.4,59.94120043966396,
0,parcelated_audio/44/44_6.ogg,,,,,,,,,0,0,0,0,0,0,0,0,0,0,0,0,,,,,,,,,0,0,0,0,0,5,5,5,,,,,,,,,,,,,,,,,,,,,,,,,,,,,,,,,,,,,,,,,,,,,,,,44.914126751,51.861229296999994,,,,,,,,,,,,,,,,,,,,,,,,,,,,,,,,,,,,,,,,,,,,,,,,,,,,,,,,,,,,,,,,,022420,0,1,0,2,0,1,2,0,4,2020_Feb_24_1536,listening_fmri,3.2.4,59.94120043966396,
0,parcelated_audio/44/44_7.ogg,,,,,,,,,0,0,0,0,0,0,0,0,0,0,0,0,,,,,,,,,0,0,0,0,0,6,6,6,,,,,,,,,,,,,,,,,,,,,,,,,,,,,,,,,,,,,,,,,,,,,,,,51.86147448700001,57.874845480000005,,,,,,,,,,,,,,,,,,,,,,,,,,,,,,,,,,,,,,,,,,,,,,,,,,,,,,,,,,,,,,,,,022420,0,1,0,2,0,1,2,0,4,2020_Feb_24_1536,listening_fmri,3.2.4,59.94120043966396,
0,parcelated_audio/44/44_8.ogg,,,,,,,,,0,0,0,0,0,0,0,0,0,0,0,0,,,,,,,,,0,0,0,0,0,7,7,7,,,,,,,,,,,,,,,,,,,,,,,,,,,,,,,,,,,,,,,,,,,,,,,,57.875925964000004,62.145348014999996,,,,,,,,,,,,,,,,,,,,,,,,,,,,,,,,,,,,,,,,,,,,,,,,,,,,,,,,,,,,,,,,,022420,0,1,0,2,0,1,2,0,4,2020_Feb_24_1536,listening_fmri,3.2.4,59.94120043966396,
0,parcelated_audio/44/44_9.ogg,,,,,,,,,0,0,0,0,0,0,0,0,0,0,0,0,,,,,,,,,0,0,0,0,0,8,8,8,,,,,,,,,,,,,,,,,,,,,,,,,,,,,,,,,,,,,,,,,,,,,,,,62.14602580100001,65.862076363,,,,,,,,,,,,,,,,,,,,,,,,,,,,,,,,,,,,,,,,,,,,,,,,,,,,,,,,,,,,,,,,,022420,0,1,0,2,0,1,2,0,4,2020_Feb_24_1536,listening_fmri,3.2.4,59.94120043966396,
0,parcelated_audio/44/44_10.ogg,,,,,,,,,0,0,0,0,0,0,0,0,0,0,0,0,,,,,,,,,0,0,0,0,0,9,9,9,,,,,,,,,,,,,,,,,,,,,,,,,,,,,,,,,,,,,,,,,,,,,,,,65.86236668500001,75.974638567,,,,,,,,,,,,,,,,,,,,,,,,,,,,,,,,,,,,,,,,,,,,,,,,,,,,,,,,,,,,,,,,,022420,0,1,0,2,0,1,2,0,4,2020_Feb_24_1536,listening_fmri,3.2.4,59.94120043966396,
0,parcelated_audio/44/44_11.ogg,,,,,,,,,0,0,0,0,0,0,0,0,0,0,0,0,,,,,,,,,0,0,0,0,0,10,10,10,,,,,,,,,,,,,,,,,,,,,,,,,,,,,,,,,,,,,,,,,,,,,,,,75.974903842,79.52630605000002,,,,,,,,,,,,,,,,,,,,,,,,,,,,,,,,,,,,,,,,,,,,,,,,,,,,,,,,,,,,,,,,,022420,0,1,0,2,0,1,2,0,4,2020_Feb_24_1536,listening_fmri,3.2.4,59.94120043966396,
0,parcelated_audio/44/44_12.ogg,,,,,,,,,0,0,0,0,0,0,0,0,0,0,0,0,,,,,,,,,0,0,0,0,0,11,11,11,,,,,,,,,,,,,,,,,,,,,,,,,,,,,,,,,,,,,,,,,,,,,,,,79.52657262,90.129425459,,,,,,,,,,,,,,,,,,,,,,,,,,,,,,,,,,,,,,,,,,,,,,,,,,,,,,,,,,,,,,,,,022420,0,1,0,2,0,1,2,0,4,2020_Feb_24_1536,listening_fmri,3.2.4,59.94120043966396,
0,parcelated_audio/44/44_13.ogg,,,,,,,,,0,0,0,0,0,0,0,0,0,0,0,0,,,,,,,,,0,0,0,0,0,12,12,12,,,,,,,,,,,,,,,,,,,,,,,,,,,,,,,,,,,,,,,,,,,,,,,,90.12979237100001,97.304835886,,,,,,,,,,,,,,,,,,,,,,,,,,,,,,,,,,,,,,,,,,,,,,,,,,,,,,,,,,,,,,,,,022420,0,1,0,2,0,1,2,0,4,2020_Feb_24_1536,listening_fmri,3.2.4,59.94120043966396,
0,parcelated_audio/44/44_14.ogg,,,,,,,,,0,0,0,0,0,0,0,0,0,0,0,0,,,,,,,,,0,0,0,0,0,13,13,13,,,,,,,,,,,,,,,,,,,,,,,,,,,,,,,,,,,,,,,,,,,,,,,,97.30510641200001,103.624332649,,,,,,,,,,,,,,,,,,,,,,,,,,,,,,,,,,,,,,,,,,,,,,,,,,,,,,,,,,,,,,,,,022420,0,1,0,2,0,1,2,0,4,2020_Feb_24_1536,listening_fmri,3.2.4,59.94120043966396,
0,parcelated_audio/44/44_15.ogg,,,,,,,,,0,0,0,0,0,0,0,0,0,0,0,0,,,,,,,,,0,0,0,0,0,14,14,14,,,,,,,,,,,,,,,,,,,,,,,,,,,,,,,,,,,,,,,,,,,,,,,,103.624578515,107.71503782600001,,,,,,,,,,,,,,,,,,,,,,,,,,,,,,,,,,,,,,,,,,,,,,,,,,,,,,,,,,,,,,,,,022420,0,1,0,2,0,1,2,0,4,2020_Feb_24_1536,listening_fmri,3.2.4,59.94120043966396,
0,parcelated_audio/44/44_16.ogg,,,,,,,,,0,0,0,0,0,0,0,0,0,0,0,0,,,,,,,,,0,0,0,0,0,15,15,15,,,,,,,,,,,,,,,,,,,,,,,,,,,,,,,,,,,,,,,,,,,,,,,,107.71533498600002,111.744367471,,,,,,,,,,,,,,,,,,,,,,,,,,,,,,,,,,,,,,,,,,,,,,,,,,,,,,,,,,,,,,,,,022420,0,1,0,2,0,1,2,0,4,2020_Feb_24_1536,listening_fmri,3.2.4,59.94120043966396,
0,parcelated_audio/44/44_17.ogg,,,,,,,,,0,0,0,0,0,0,0,0,0,0,0,0,,,,,,,,,0,0,0,0,0,16,16,16,,,,,,,,,,,,,,,,,,,,,,,,,,,,,,,,,,,,,,,,,,,,,,,,111.74469806600001,120.22420391899999,,,,,,,,,,,,,,,,,,,,,,,,,,,,,,,,,,,,,,,,,,,,,,,,,,,,,,,,,,,,,,,,,022420,0,1,0,2,0,1,2,0,4,2020_Feb_24_1536,listening_fmri,3.2.4,59.94120043966396,
0,parcelated_audio/44/44_18.ogg,,,,,,,,,0,0,0,0,0,0,0,0,0,0,0,0,,,,,,,,,0,0,0,0,0,17,17,17,,,,,,,,,,,,,,,,,,,,,,,,,,,,,,,,,,,,,,,,,,,,,,,,120.224503776,130.055988158,,,,,,,,,,,,,,,,,,,,,,,,,,,,,,,,,,,,,,,,,,,,,,,,,,,,,,,,,,,,,,,,,022420,0,1,0,2,0,1,2,0,4,2020_Feb_24_1536,listening_fmri,3.2.4,59.94120043966396,
0,parcelated_audio/44/44_19.ogg,,,,,,,,,0,0,0,0,0,0,0,0,0,0,0,0,,,,,,,,,0,0,0,0,0,18,18,18,,,,,,,,,,,,,,,,,,,,,,,,,,,,,,,,,,,,,,,,,,,,,,,,130.056255458,141.026569231,,,,,,,,,,,,,,,,,,,,,,,,,,,,,,,,,,,,,,,,,,,,,,,,,,,,,,,,,,,,,,,,,022420,0,1,0,2,0,1,2,0,4,2020_Feb_24_1536,listening_fmri,3.2.4,59.94120043966396,
0,parcelated_audio/44/44_20.ogg,,,,,,,,,0,0,0,0,0,0,0,0,0,0,0,0,,,,,,,,,0,0,0,0,0,19,19,19,,,,,,,,,,,,,,,,,,,,,,,,,,,,,,,,,,,,,,,,,,,,,,,,141.02682302600002,149.238164482,,,,,,,,,,,,,,,,,,,,,,,,,,,,,,,,,,,,,,,,,,,,,,,,,,,,,,,,,,,,,,,,,022420,0,1,0,2,0,1,2,0,4,2020_Feb_24_1536,listening_fmri,3.2.4,59.94120043966396,
0,parcelated_audio/44/44_21.ogg,,,,,,,,,0,0,0,0,0,0,0,0,0,0,0,0,,,,,,,,,0,0,0,0,0,20,20,20,,,,,,,,,,,,,,,,,,,,,,,,,,,,,,,,,,,,,,,,,,,,,,,,149.23843224200002,158.17258368799997,,,,,,,,,,,,,,,,,,,,,,,,,,,,,,,,,,,,,,,,,,,,,,,,,,,,,,,,,,,,,,,,,022420,0,1,0,2,0,1,2,0,4,2020_Feb_24_1536,listening_fmri,3.2.4,59.94120043966396,
0,parcelated_audio/44/44_22.ogg,,,,,,,,,0,0,0,0,0,0,0,0,0,0,0,0,,,,,,,,,0,0,0,0,0,21,21,21,,,,,,,,,,,,,,,,,,,,,,,,,,,,,,,,,,,,,,,,,,,,,,,,158.172857363,163.090175956,,,,,,,,,,,,,,,,,,,,,,,,,,,,,,,,,,,,,,,,,,,,,,,,,,,,,,,,,,,,,,,,,022420,0,1,0,2,0,1,2,0,4,2020_Feb_24_1536,listening_fmri,3.2.4,59.94120043966396,
0,parcelated_audio/44/44_23.ogg,,,,,,,,,0,0,0,0,0,0,0,0,0,0,0,0,,,,,,,,,0,0,0,0,0,22,22,22,,,,,,,,,,,,,,,,,,,,,,,,,,,,,,,,,,,,,,,,,,,,,,,,163.09044757100003,169.748652844,,,,,,,,,,,,,,,,,,,,,,,,,,,,,,,,,,,,,,,,,,,,,,,,,,,,,,,,,,,,,,,,,022420,0,1,0,2,0,1,2,0,4,2020_Feb_24_1536,listening_fmri,3.2.4,59.94120043966396,
0,parcelated_audio/44/44_24.ogg,,,,,,,,,0,0,0,0,0,0,0,0,0,0,0,0,,,,,,,,,0,0,0,0,0,23,23,23,,,,,,,,,,,,,,,,,,,,,,,,,,,,,,,,,,,,,,,,,,,,,,,,169.74891902000002,178.491216915,,,,,,,,,,,,,,,,,,,,,,,,,,,,,,,,,,,,,,,,,,,,,,,,,,,,,,,,,,,,,,,,,022420,0,1,0,2,0,1,2,0,4,2020_Feb_24_1536,listening_fmri,3.2.4,59.94120043966396,
0,parcelated_audio/44/44_25.ogg,,,,,,,,,0,0,0,0,0,0,0,0,0,0,0,0,,,,,,,,,0,0,0,0,0,24,24,24,,,,,,,,,,,,,,,,,,,,,,,,,,,,,,,,,,,,,,,,,,,,,,,,178.491499138,184.79821293100002,,,,,,,,,,,,,,,,,,,,,,,,,,,,,,,,,,,,,,,,,,,,,,,,,,,,,,,,,,,,,,,,,022420,0,1,0,2,0,1,2,0,4,2020_Feb_24_1536,listening_fmri,3.2.4,59.94120043966396,
0,parcelated_audio/44/44_26.ogg,,,,,,,,,0,0,0,0,0,0,0,0,0,0,0,0,,,,,,,,,0,0,0,0,0,25,25,25,,,,,,,,,,,,,,,,,,,,,,,,,,,,,,,,,,,,,,,,,,,,,,,,184.79858011099998,189.66129308,,,,,,,,,,,,,,,,,,,,,,,,,,,,,,,,,,,,,,,,,,,,,,,,,,,,,,,,,,,,,,,,,022420,0,1,0,2,0,1,2,0,4,2020_Feb_24_1536,listening_fmri,3.2.4,59.94120043966396,
0,parcelated_audio/44/44_27.ogg,,,,,,,,,0,0,0,0,0,0,0,0,0,0,0,0,,,,,,,,,0,0,0,0,0,26,26,26,,,,,,,,,,,,,,,,,,,,,,,,,,,,,,,,,,,,,,,,,,,,,,,,189.66156176599998,196.644525214,,,,,,,,,,,,,,,,,,,,,,,,,,,,,,,,,,,,,,,,,,,,,,,,,,,,,,,,,,,,,,,,,022420,0,1,0,2,0,1,2,0,4,2020_Feb_24_1536,listening_fmri,3.2.4,59.94120043966396,
0,parcelated_audio/44/44_28.ogg,,,,,,,,,0,0,0,0,0,0,0,0,0,0,0,0,,,,,,,,,0,0,0,0,0,27,27,27,,,,,,,,,,,,,,,,,,,,,,,,,,,,,,,,,,,,,,,,,,,,,,,,196.644793064,207.91081462199998,,,,,,,,,,,,,,,,,,,,,,,,,,,,,,,,,,,,,,,,,,,,,,,,,,,,,,,,,,,,,,,,,022420,0,1,0,2,0,1,2,0,4,2020_Feb_24_1536,listening_fmri,3.2.4,59.94120043966396,
0,,,,,,,,,,0,0,0,0,0,0,0,0,0,0,0,0,,,,,,,,,0,0,0,0,,,,,,,,,,,,,,,,,,,,,,,,,,,,,,,,,,,,,,,,,,,,,,,,,,,,,,,,,,,,,,,,,,,,,,,,,,,,,,,,,,,,,,,,,,,,,,,,,,,,,,,,,,,,,,,,,,,,,,022420,0,1,0,2,0,1,2,0,4,2020_Feb_24_1536,listening_fmri,3.2.4,59.94120043966396,
0,,,,,,,,,,0,0,0,0,0,0,0,0,0,0,0,0,,,,,,,,,,,,,,,,,,,,,,,,,,,,,,,,,,,,,,,,,,207.911185145,213.89912865000002,248.58212338200002,None,,,,,,,,,,,,,,,,,,,,,254.58229348999998,None,254.58229348999998,None,,,,,,,,,,,,,,,,,,,,,,,,,,,,,,,,,,,,,,,,,,,,,,,,,,,,,,,,,,,,,022420,0,1,0,2,0,1,2,0,4,2020_Feb_24_1536,listening_fmri,3.2.4,59.94120043966396,
0,,,,,,,,,,0,0,0,0,0,0,0,0,,,,,,,,,,,,,,,,,,,,,,,,,,,,,,,,,,,,,,,,,,,,,,,,,,,,,,,,,,,,,,,,,,,,,,,,,,,,,,,,,,,,,,,,,,,,,,,,,,,,,,,,,,,,,,,,,,,,,,,,,,,,,,,,,,,,,,022420,0,1,0,2,0,1,2,0,4,2020_Feb_24_1536,listening_fmri,3.2.4,59.94120043966396,
1,,,,,,,,,,0,0,0,0,0,1,1,1,0,0,0,0,0,0,0,0,,,,,,,,,,,,,,,,,0,0,0,0,,,,,,,,,,,,,,,,,,,,,,255.594262178,None,255.594262178,None,7,0.6941191720000006,255.594262178,None,255.594262178,None,,,,,,,,,,,,,,,256.327589644,None,6,0.7037372189999473,256.327589644,None,256.327589644,None,257.076547268,None,257.076547268,None,257.076547268,None,7,1.1287498469999946,257.076547268,None,258.232523566,None,6,1.429770288000043,258.232523566,None,258.232523566,None,259.761017557,None,259.761017557,None,259.761017557,None,259.761017557,None,259.761017557,None,259.761017557,None,259.761017557,None,,,,,,,,,,,,,,,,,,,,,022420,0,1,0,2,0,1,2,0,4,2020_Feb_24_1536,listening_fmri,3.2.4,59.94120043966396,
1,,,,,,,,,,0,0,0,0,0,1,1,1,0,0,0,0,0,0,0,0,,,,,,,,,,,,,,,,,,,,,,,,,,,,,,,,,,,,,,,,,,,,,,,,,,,,,,,,,,,,,,,,,,,,,,,,,,,,,,,,,,,,,,,,,,,,,,,,,,,,,,,,,,274.460696018,None,6,1.034516558000007,274.460696018,None,274.460696018,None,275.526787221,None,275.526787221,None,275.526787221,None,6,0.5414688739999747,275.526787221,None,,,022420,0,1,0,2,0,1,2,0,4,2020_Feb_24_1536,listening_fmri,3.2.4,59.94120043966396,
1,parcelated_audio/22/22_1.ogg,,,,,,,,,0,0,0,0,0,1,1,1,0,0,0,0,,,,,,,,,0,0,0,0,0,0,0,0,,,,,,,,,,,,,,,,,,,,,,,,,,,,,,,,,,,,,,,,276.098843364,None,6,0.6354398679999917,276.098843364,None,236.106274772,239.115079423,239.119769071,252.157976761,,,,,,,,,,,,,,,,,,,,,,,,,,,,,,,,,,,,,,,,,,,,,,,,,,,,,,,,,,,,,,,,,022420,0,1,0,2,0,1,2,0,4,2020_Feb_24_1536,listening_fmri,3.2.4,59.94120043966396,
1,parcelated_audio/22/22_2.ogg,,,,,,,,,0,0,0,0,0,1,1,1,0,0,0,0,,,,,,,,,0,0,0,0,0,1,1,1,,,,,,,,,,,,,,,,,,,,,,,,,,,,,,,,,,,,,,,,,,,,,,,,252.15879121900002,258.431643409,,,,,,,,,,,,,,,,,,,,,,,,,,,,,,,,,,,,,,,,,,,,,,,,,,,,,,,,,,,,,,,,,022420,0,1,0,2,0,1,2,0,4,2020_Feb_24_1536,listening_fmri,3.2.4,59.94120043966396,
1,parcelated_audio/22/22_3.ogg,,,,,,,,,0,0,0,0,0,1,1,1,0,0,0,0,,,,,,,,,0,0,0,0,0,2,2,2,,,,,,,,,,,,,,,,,,,,,,,,,,,,,,,,,,,,,,,,,,,,,,,,258.432110754,271.362924095,,,,,,,,,,,,,,,,,,,,,,,,,,,,,,,,,,,,,,,,,,,,,,,,,,,,,,,,,,,,,,,,,022420,0,1,0,2,0,1,2,0,4,2020_Feb_24_1536,listening_fmri,3.2.4,59.94120043966396,
1,parcelated_audio/22/22_4.ogg,,,,,,,,,0,0,0,0,0,1,1,1,0,0,0,0,,,,,,,,,0,0,0,0,0,3,3,3,,,,,,,,,,,,,,,,,,,,,,,,,,,,,,,,,,,,,,,,,,,,,,,,271.363540946,283.779664139,,,,,,,,,,,,,,,,,,,,,,,,,,,,,,,,,,,,,,,,,,,,,,,,,,,,,,,,,,,,,,,,,022420,0,1,0,2,0,1,2,0,4,2020_Feb_24_1536,listening_fmri,3.2.4,59.94120043966396,
1,parcelated_audio/22/22_5.ogg,,,,,,,,,0,0,0,0,0,1,1,1,0,0,0,0,,,,,,,,,0,0,0,0,0,4,4,4,,,,,,,,,,,,,,,,,,,,,,,,,,,,,,,,,,,,,,,,,,,,,,,,283.779946714,289.708856019,,,,,,,,,,,,,,,,,,,,,,,,,,,,,,,,,,,,,,,,,,,,,,,,,,,,,,,,,,,,,,,,,022420,0,1,0,2,0,1,2,0,4,2020_Feb_24_1536,listening_fmri,3.2.4,59.94120043966396,
1,parcelated_audio/22/22_6.ogg,,,,,,,,,0,0,0,0,0,1,1,1,0,0,0,0,,,,,,,,,0,0,0,0,0,5,5,5,,,,,,,,,,,,,,,,,,,,,,,,,,,,,,,,,,,,,,,,,,,,,,,,289.709303127,298.908215945,,,,,,,,,,,,,,,,,,,,,,,,,,,,,,,,,,,,,,,,,,,,,,,,,,,,,,,,,,,,,,,,,022420,0,1,0,2,0,1,2,0,4,2020_Feb_24_1536,listening_fmri,3.2.4,59.94120043966396,
1,parcelated_audio/22/22_7.ogg,,,,,,,,,0,0,0,0,0,1,1,1,0,0,0,0,,,,,,,,,0,0,0,0,0,6,6,6,,,,,,,,,,,,,,,,,,,,,,,,,,,,,,,,,,,,,,,,,,,,,,,,298.908486651,303.895580317,,,,,,,,,,,,,,,,,,,,,,,,,,,,,,,,,,,,,,,,,,,,,,,,,,,,,,,,,,,,,,,,,022420,0,1,0,2,0,1,2,0,4,2020_Feb_24_1536,listening_fmri,3.2.4,59.94120043966396,
1,parcelated_audio/22/22_8.ogg,,,,,,,,,0,0,0,0,0,1,1,1,0,0,0,0,,,,,,,,,0,0,0,0,0,7,7,7,,,,,,,,,,,,,,,,,,,,,,,,,,,,,,,,,,,,,,,,,,,,,,,,303.89614821600003,307.42762549,,,,,,,,,,,,,,,,,,,,,,,,,,,,,,,,,,,,,,,,,,,,,,,,,,,,,,,,,,,,,,,,,022420,0,1,0,2,0,1,2,0,4,2020_Feb_24_1536,listening_fmri,3.2.4,59.94120043966396,
1,parcelated_audio/22/22_9.ogg,,,,,,,,,0,0,0,0,0,1,1,1,0,0,0,0,,,,,,,,,0,0,0,0,0,8,8,8,,,,,,,,,,,,,,,,,,,,,,,,,,,,,,,,,,,,,,,,,,,,,,,,307.427901433,311.31916827,,,,,,,,,,,,,,,,,,,,,,,,,,,,,,,,,,,,,,,,,,,,,,,,,,,,,,,,,,,,,,,,,022420,0,1,0,2,0,1,2,0,4,2020_Feb_24_1536,listening_fmri,3.2.4,59.94120043966396,
1,parcelated_audio/22/22_10.ogg,,,,,,,,,0,0,0,0,0,1,1,1,0,0,0,0,,,,,,,,,0,0,0,0,0,9,9,9,,,,,,,,,,,,,,,,,,,,,,,,,,,,,,,,,,,,,,,,,,,,,,,,311.319412258,316.095302762,,,,,,,,,,,,,,,,,,,,,,,,,,,,,,,,,,,,,,,,,,,,,,,,,,,,,,,,,,,,,,,,,022420,0,1,0,2,0,1,2,0,4,2020_Feb_24_1536,listening_fmri,3.2.4,59.94120043966396,
1,parcelated_audio/22/22_11.ogg,,,,,,,,,0,0,0,0,0,1,1,1,0,0,0,0,,,,,,,,,0,0,0,0,0,10,10,10,,,,,,,,,,,,,,,,,,,,,,,,,,,,,,,,,,,,,,,,,,,,,,,,316.095843388,323.388486571,,,,,,,,,,,,,,,,,,,,,,,,,,,,,,,,,,,,,,,,,,,,,,,,,,,,,,,,,,,,,,,,,022420,0,1,0,2,0,1,2,0,4,2020_Feb_24_1536,listening_fmri,3.2.4,59.94120043966396,
1,parcelated_audio/22/22_12.ogg,,,,,,,,,0,0,0,0,0,1,1,1,0,0,0,0,,,,,,,,,0,0,0,0,0,11,11,11,,,,,,,,,,,,,,,,,,,,,,,,,,,,,,,,,,,,,,,,,,,,,,,,323.388855347,331.103550827,,,,,,,,,,,,,,,,,,,,,,,,,,,,,,,,,,,,,,,,,,,,,,,,,,,,,,,,,,,,,,,,,022420,0,1,0,2,0,1,2,0,4,2020_Feb_24_1536,listening_fmri,3.2.4,59.94120043966396,
1,parcelated_audio/22/22_13.ogg,,,,,,,,,0,0,0,0,0,1,1,1,0,0,0,0,,,,,,,,,0,0,0,0,0,12,12,12,,,,,,,,,,,,,,,,,,,,,,,,,,,,,,,,,,,,,,,,,,,,,,,,331.103912698,338.36471231400003,,,,,,,,,,,,,,,,,,,,,,,,,,,,,,,,,,,,,,,,,,,,,,,,,,,,,,,,,,,,,,,,,022420,0,1,0,2,0,1,2,0,4,2020_Feb_24_1536,listening_fmri,3.2.4,59.94120043966396,
1,parcelated_audio/22/22_14.ogg,,,,,,,,,0,0,0,0,0,1,1,1,0,0,0,0,,,,,,,,,0,0,0,0,0,13,13,13,,,,,,,,,,,,,,,,,,,,,,,,,,,,,,,,,,,,,,,,,,,,,,,,338.364980795,343.974629277,,,,,,,,,,,,,,,,,,,,,,,,,,,,,,,,,,,,,,,,,,,,,,,,,,,,,,,,,,,,,,,,,022420,0,1,0,2,0,1,2,0,4,2020_Feb_24_1536,listening_fmri,3.2.4,59.94120043966396,
1,parcelated_audio/22/22_15.ogg,,,,,,,,,0,0,0,0,0,1,1,1,0,0,0,0,,,,,,,,,0,0,0,0,0,14,14,14,,,,,,,,,,,,,,,,,,,,,,,,,,,,,,,,,,,,,,,,,,,,,,,,343.974897488,351.753234491,,,,,,,,,,,,,,,,,,,,,,,,,,,,,,,,,,,,,,,,,,,,,,,,,,,,,,,,,,,,,,,,,022420,0,1,0,2,0,1,2,0,4,2020_Feb_24_1536,listening_fmri,3.2.4,59.94120043966396,
1,parcelated_audio/22/22_16.ogg,,,,,,,,,0,0,0,0,0,1,1,1,0,0,0,0,,,,,,,,,0,0,0,0,0,15,15,15,,,,,,,,,,,,,,,,,,,,,,,,,,,,,,,,,,,,,,,,,,,,,,,,351.753604897,360.427931781,,,,,,,,,,,,,,,,,,,,,,,,,,,,,,,,,,,,,,,,,,,,,,,,,,,,,,,,,,,,,,,,,022420,0,1,0,2,0,1,2,0,4,2020_Feb_24_1536,listening_fmri,3.2.4,59.94120043966396,
1,parcelated_audio/22/22_17.ogg,,,,,,,,,0,0,0,0,0,1,1,1,0,0,0,0,,,,,,,,,0,0,0,0,0,16,16,16,,,,,,,,,,,,,,,,,,,,,,,,,,,,,,,,,,,,,,,,,,,,,,,,360.428198309,363.571621886,,,,,,,,,,,,,,,,,,,,,,,,,,,,,,,,,,,,,,,,,,,,,,,,,,,,,,,,,,,,,,,,,022420,0,1,0,2,0,1,2,0,4,2020_Feb_24_1536,listening_fmri,3.2.4,59.94120043966396,
1,parcelated_audio/22/22_18.ogg,,,,,,,,,0,0,0,0,0,1,1,1,0,0,0,0,,,,,,,,,0,0,0,0,0,17,17,17,,,,,,,,,,,,,,,,,,,,,,,,,,,,,,,,,,,,,,,,,,,,,,,,363.571891419,370.32083165800003,,,,,,,,,,,,,,,,,,,,,,,,,,,,,,,,,,,,,,,,,,,,,,,,,,,,,,,,,,,,,,,,,022420,0,1,0,2,0,1,2,0,4,2020_Feb_24_1536,listening_fmri,3.2.4,59.94120043966396,
1,parcelated_audio/22/22_19.ogg,,,,,,,,,0,0,0,0,0,1,1,1,0,0,0,0,,,,,,,,,0,0,0,0,0,18,18,18,,,,,,,,,,,,,,,,,,,,,,,,,,,,,,,,,,,,,,,,,,,,,,,,370.321100525,375.291966697,,,,,,,,,,,,,,,,,,,,,,,,,,,,,,,,,,,,,,,,,,,,,,,,,,,,,,,,,,,,,,,,,022420,0,1,0,2,0,1,2,0,4,2020_Feb_24_1536,listening_fmri,3.2.4,59.94120043966396,
1,parcelated_audio/22/22_20.ogg,,,,,,,,,0,0,0,0,0,1,1,1,0,0,0,0,,,,,,,,,0,0,0,0,0,19,19,19,,,,,,,,,,,,,,,,,,,,,,,,,,,,,,,,,,,,,,,,,,,,,,,,375.292239878,389.40537484600003,,,,,,,,,,,,,,,,,,,,,,,,,,,,,,,,,,,,,,,,,,,,,,,,,,,,,,,,,,,,,,,,,022420,0,1,0,2,0,1,2,0,4,2020_Feb_24_1536,listening_fmri,3.2.4,59.94120043966396,
1,parcelated_audio/22/22_21.ogg,,,,,,,,,0,0,0,0,0,1,1,1,0,0,0,0,,,,,,,,,0,0,0,0,0,20,20,20,,,,,,,,,,,,,,,,,,,,,,,,,,,,,,,,,,,,,,,,,,,,,,,,389.405897319,391.41680904,,,,,,,,,,,,,,,,,,,,,,,,,,,,,,,,,,,,,,,,,,,,,,,,,,,,,,,,,,,,,,,,,022420,0,1,0,2,0,1,2,0,4,2020_Feb_24_1536,listening_fmri,3.2.4,59.94120043966396,
1,parcelated_audio/22/22_22.ogg,,,,,,,,,0,0,0,0,0,1,1,1,0,0,0,0,,,,,,,,,0,0,0,0,0,21,21,21,,,,,,,,,,,,,,,,,,,,,,,,,,,,,,,,,,,,,,,,,,,,,,,,391.417181544,394.569091075,,,,,,,,,,,,,,,,,,,,,,,,,,,,,,,,,,,,,,,,,,,,,,,,,,,,,,,,,,,,,,,,,022420,0,1,0,2,0,1,2,0,4,2020_Feb_24_1536,listening_fmri,3.2.4,59.94120043966396,
1,parcelated_audio/22/22_23.ogg,,,,,,,,,0,0,0,0,0,1,1,1,0,0,0,0,,,,,,,,,0,0,0,0,0,22,22,22,,,,,,,,,,,,,,,,,,,,,,,,,,,,,,,,,,,,,,,,,,,,,,,,394.569363409,401.090140924,,,,,,,,,,,,,,,,,,,,,,,,,,,,,,,,,,,,,,,,,,,,,,,,,,,,,,,,,,,,,,,,,022420,0,1,0,2,0,1,2,0,4,2020_Feb_24_1536,listening_fmri,3.2.4,59.94120043966396,
1,parcelated_audio/22/22_24.ogg,,,,,,,,,0,0,0,0,0,1,1,1,0,0,0,0,,,,,,,,,0,0,0,0,0,23,23,23,,,,,,,,,,,,,,,,,,,,,,,,,,,,,,,,,,,,,,,,,,,,,,,,401.090407659,406.837557959,,,,,,,,,,,,,,,,,,,,,,,,,,,,,,,,,,,,,,,,,,,,,,,,,,,,,,,,,,,,,,,,,022420,0,1,0,2,0,1,2,0,4,2020_Feb_24_1536,listening_fmri,3.2.4,59.94120043966396,
1,parcelated_audio/22/22_25.ogg,,,,,,,,,0,0,0,0,0,1,1,1,0,0,0,0,,,,,,,,,0,0,0,0,0,24,24,24,,,,,,,,,,,,,,,,,,,,,,,,,,,,,,,,,,,,,,,,,,,,,,,,406.837828362,419.52013334000003,,,,,,,,,,,,,,,,,,,,,,,,,,,,,,,,,,,,,,,,,,,,,,,,,,,,,,,,,,,,,,,,,022420,0,1,0,2,0,1,2,0,4,2020_Feb_24_1536,listening_fmri,3.2.4,59.94120043966396,
1,parcelated_audio/22/22_26.ogg,,,,,,,,,0,0,0,0,0,1,1,1,0,0,0,0,,,,,,,,,0,0,0,0,0,25,25,25,,,,,,,,,,,,,,,,,,,,,,,,,,,,,,,,,,,,,,,,,,,,,,,,419.52040338300003,426.253264897,,,,,,,,,,,,,,,,,,,,,,,,,,,,,,,,,,,,,,,,,,,,,,,,,,,,,,,,,,,,,,,,,022420,0,1,0,2,0,1,2,0,4,2020_Feb_24_1536,listening_fmri,3.2.4,59.94120043966396,
1,parcelated_audio/22/22_27.ogg,,,,,,,,,0,0,0,0,0,1,1,1,0,0,0,0,,,,,,,,,0,0,0,0,0,26,26,26,,,,,,,,,,,,,,,,,,,,,,,,,,,,,,,,,,,,,,,,,,,,,,,,426.25378839999996,430.648033424,,,,,,,,,,,,,,,,,,,,,,,,,,,,,,,,,,,,,,,,,,,,,,,,,,,,,,,,,,,,,,,,,022420,0,1,0,2,0,1,2,0,4,2020_Feb_24_1536,listening_fmri,3.2.4,59.94120043966396,
1,parcelated_audio/22/22_28.ogg,,,,,,,,,0,0,0,0,0,1,1,1,0,0,0,0,,,,,,,,,0,0,0,0,0,27,27,27,,,,,,,,,,,,,,,,,,,,,,,,,,,,,,,,,,,,,,,,,,,,,,,,430.64837421100003,436.391440526,,,,,,,,,,,,,,,,,,,,,,,,,,,,,,,,,,,,,,,,,,,,,,,,,,,,,,,,,,,,,,,,,022420,0,1,0,2,0,1,2,0,4,2020_Feb_24_1536,listening_fmri,3.2.4,59.94120043966396,
1,parcelated_audio/22/22_29.ogg,,,,,,,,,0,0,0,0,0,1,1,1,0,0,0,0,,,,,,,,,0,0,0,0,0,28,28,28,,,,,,,,,,,,,,,,,,,,,,,,,,,,,,,,,,,,,,,,,,,,,,,,436.391994673,442.10262973500005,,,,,,,,,,,,,,,,,,,,,,,,,,,,,,,,,,,,,,,,,,,,,,,,,,,,,,,,,,,,,,,,,022420,0,1,0,2,0,1,2,0,4,2020_Feb_24_1536,listening_fmri,3.2.4,59.94120043966396,
1,parcelated_audio/22/22_30.ogg,,,,,,,,,0,0,0,0,0,1,1,1,0,0,0,0,,,,,,,,,0,0,0,0,0,29,29,29,,,,,,,,,,,,,,,,,,,,,,,,,,,,,,,,,,,,,,,,,,,,,,,,442.10292725399995,444.79630297999995,,,,,,,,,,,,,,,,,,,,,,,,,,,,,,,,,,,,,,,,,,,,,,,,,,,,,,,,,,,,,,,,,022420,0,1,0,2,0,1,2,0,4,2020_Feb_24_1536,listening_fmri,3.2.4,59.94120043966396,
1,parcelated_audio/22/22_31.ogg,,,,,,,,,0,0,0,0,0,1,1,1,0,0,0,0,,,,,,,,,0,0,0,0,0,30,30,30,,,,,,,,,,,,,,,,,,,,,,,,,,,,,,,,,,,,,,,,,,,,,,,,444.797000312,449.94596776800006,,,,,,,,,,,,,,,,,,,,,,,,,,,,,,,,,,,,,,,,,,,,,,,,,,,,,,,,,,,,,,,,,022420,0,1,0,2,0,1,2,0,4,2020_Feb_24_1536,listening_fmri,3.2.4,59.94120043966396,
1,parcelated_audio/22/22_32.ogg,,,,,,,,,0,0,0,0,0,1,1,1,0,0,0,0,,,,,,,,,0,0,0,0,0,31,31,31,,,,,,,,,,,,,,,,,,,,,,,,,,,,,,,,,,,,,,,,,,,,,,,,449.946212277,456.26858208400006,,,,,,,,,,,,,,,,,,,,,,,,,,,,,,,,,,,,,,,,,,,,,,,,,,,,,,,,,,,,,,,,,022420,0,1,0,2,0,1,2,0,4,2020_Feb_24_1536,listening_fmri,3.2.4,59.94120043966396,
1,parcelated_audio/22/22_33.ogg,,,,,,,,,0,0,0,0,0,1,1,1,0,0,0,0,,,,,,,,,0,0,0,0,0,32,32,32,,,,,,,,,,,,,,,,,,,,,,,,,,,,,,,,,,,,,,,,,,,,,,,,456.26914827400003,460.708301011,,,,,,,,,,,,,,,,,,,,,,,,,,,,,,,,,,,,,,,,,,,,,,,,,,,,,,,,,,,,,,,,,022420,0,1,0,2,0,1,2,0,4,2020_Feb_24_1536,listening_fmri,3.2.4,59.94120043966396,
1,parcelated_audio/22/22_34.ogg,,,,,,,,,0,0,0,0,0,1,1,1,0,0,0,0,,,,,,,,,0,0,0,0,0,33,33,33,,,,,,,,,,,,,,,,,,,,,,,,,,,,,,,,,,,,,,,,,,,,,,,,460.70857173599995,468.73503695600004,,,,,,,,,,,,,,,,,,,,,,,,,,,,,,,,,,,,,,,,,,,,,,,,,,,,,,,,,,,,,,,,,022420,0,1,0,2,0,1,2,0,4,2020_Feb_24_1536,listening_fmri,3.2.4,59.94120043966396,
1,parcelated_audio/22/22_35.ogg,,,,,,,,,0,0,0,0,0,1,1,1,0,0,0,0,,,,,,,,,0,0,0,0,0,34,34,34,,,,,,,,,,,,,,,,,,,,,,,,,,,,,,,,,,,,,,,,,,,,,,,,468.735308068,476.25210943900004,,,,,,,,,,,,,,,,,,,,,,,,,,,,,,,,,,,,,,,,,,,,,,,,,,,,,,,,,,,,,,,,,022420,0,1,0,2,0,1,2,0,4,2020_Feb_24_1536,listening_fmri,3.2.4,59.94120043966396,
1,parcelated_audio/22/22_36.ogg,,,,,,,,,0,0,0,0,0,1,1,1,0,0,0,0,,,,,,,,,0,0,0,0,0,35,35,35,,,,,,,,,,,,,,,,,,,,,,,,,,,,,,,,,,,,,,,,,,,,,,,,476.252356673,488.960563608,,,,,,,,,,,,,,,,,,,,,,,,,,,,,,,,,,,,,,,,,,,,,,,,,,,,,,,,,,,,,,,,,022420,0,1,0,2,0,1,2,0,4,2020_Feb_24_1536,listening_fmri,3.2.4,59.94120043966396,
1,parcelated_audio/22/22_37.ogg,,,,,,,,,0,0,0,0,0,1,1,1,0,0,0,0,,,,,,,,,0,0,0,0,0,36,36,36,,,,,,,,,,,,,,,,,,,,,,,,,,,,,,,,,,,,,,,,,,,,,,,,488.96094542400004,496.121421988,,,,,,,,,,,,,,,,,,,,,,,,,,,,,,,,,,,,,,,,,,,,,,,,,,,,,,,,,,,,,,,,,022420,0,1,0,2,0,1,2,0,4,2020_Feb_24_1536,listening_fmri,3.2.4,59.94120043966396,
1,,,,,,,,,,0,0,0,0,0,1,1,1,0,0,0,0,,,,,,,,,0,0,0,0,,,,,,,,,,,,,,,,,,,,,,,,,,,,,,,,,,,,,,,,,,,,,,,,,,,,,,,,,,,,,,,,,,,,,,,,,,,,,,,,,,,,,,,,,,,,,,,,,,,,,,,,,,,,,,,,,,,,,,022420,0,1,0,2,0,1,2,0,4,2020_Feb_24_1536,listening_fmri,3.2.4,59.94120043966396,
1,,,,,,,,,,0,0,0,0,0,1,1,1,0,0,0,0,,,,,,,,,,,,,,,,,,,,,,,,,,,,,,,,,,,,,,,,,,496.121849884,502.115813309,536.799634912,None,,,,,,,,,,,,,,,,,,,,,542.806449924,None,542.806449924,None,,,,,,,,,,,,,,,,,,,,,,,,,,,,,,,,,,,,,,,,,,,,,,,,,,,,,,,,,,,,,022420,0,1,0,2,0,1,2,0,4,2020_Feb_24_1536,listening_fmri,3.2.4,59.94120043966396,
1,,,,,,,,,,0,0,0,0,0,1,1,1,,,,,,,,,,,,,,,,,,,,,,,,,,,,,,,,,,,,,,,,,,,,,,,,,,,,,,,,,,,,,,,,,,,,,,,,,,,,,,,,,,,,,,,,,,,,,,,,,,,,,,,,,,,,,,,,,,,,,,,,,,,,,,,,,,,,,,022420,0,1,0,2,0,1,2,0,4,2020_Feb_24_1536,listening_fmri,3.2.4,59.94120043966396,
2,,,,,,,,,,0,0,0,0,0,2,2,2,0,0,0,0,0,0,0,0,,,,,,,,,,,,,,,,,0,0,0,0,,,,,,,,,,,,,,,,,,,,,,543.832830655,None,543.832830655,None,7,1.1124171660000002,543.832830655,None,543.832830655,None,,,,,,,,,,,,,,,544.966460042,None,7,0.5569372940000221,544.966460042,None,544.966460042,None,545.566157518,None,545.566157518,None,545.566157518,None,7,0.6222307819999742,545.566157518,None,546.216642575,None,7,0.6597380799998973,546.216642575,None,546.216642575,None,546.966418085,None,546.966418085,None,546.966418085,None,546.966418085,None,546.966418085,None,546.966418085,None,546.966418085,None,,,,,,,,,,,,,,,,,,,,,022420,0,1,0,2,0,1,2,0,4,2020_Feb_24_1536,listening_fmri,3.2.4,59.94120043966396,
2,,,,,,,,,,0,0,0,0,0,2,2,2,0,0,0,0,0,0,0,0,,,,,,,,,,,,,,,,,1,0,1,0,,,,,,,,,,,,,,,,,,,,,,,,,,,,,,,,,,,,,,,,,,,,,,,,,,,,,,557.27281888,None,557.27281888,None,557.27281888,None,6,1.1235620479999398,557.27281888,None,558.416167564,None,6,0.5851792779999414,558.416167564,None,558.416167564,None,559.098576422,None,559.098576422,None,559.098576422,None,559.098576422,None,559.098576422,None,559.098576422,None,559.098576422,None,,,,,,,,,,,,,,,,,,,,,022420,0,1,0,2,0,1,2,0,4,2020_Feb_24_1536,listening_fmri,3.2.4,59.94120043966396,
2,,,,,,,,,,0,0,0,0,0,2,2,2,0,0,0,0,0,0,0,0,,,,,,,,,,,,,,,,,,,,,,,,,,,,,,,,,,,,,,,,,,,,,,,,,,,,,,,,,,,,,,,,,,,,,,,,,,,,,,,,,,,,,,,,,,,,,,,,,,,,,,,,,,577.332615874,None,1,1.1537540909999962,577.332615874,None,577.332615874,None,578.522726959,None,578.522726959,None,578.522726959,None,1,0.3006615320000492,578.522726959,None,,,022420,0,1,0,2,0,1,2,0,4,2020_Feb_24_1536,listening_fmri,3.2.4,59.94120043966396,
2,parcelated_audio/31/31_1.ogg,,,,,,,,,0,0,0,0,0,2,2,2,0,0,0,0,,,,,,,,,0,0,0,0,0,0,0,0,,,,,,,,,,,,,,,,,,,,,,,,,,,,,,,,,,,,,,,,578.8496984,None,1,0.5835380920000262,578.8496984,None,538.813067969,541.8227039190001,541.8301109240001,550.498843721,,,,,,,,,,,,,,,,,,,,,,,,,,,,,,,,,,,,,,,,,,,,,,,,,,,,,,,,,,,,,,,,,022420,0,1,0,2,0,1,2,0,4,2020_Feb_24_1536,listening_fmri,3.2.4,59.94120043966396,
2,parcelated_audio/31/31_2.ogg,,,,,,,,,0,0,0,0,0,2,2,2,0,0,0,0,,,,,,,,,0,0,0,0,0,1,1,1,,,,,,,,,,,,,,,,,,,,,,,,,,,,,,,,,,,,,,,,,,,,,,,,550.499119784,554.9600418070002,,,,,,,,,,,,,,,,,,,,,,,,,,,,,,,,,,,,,,,,,,,,,,,,,,,,,,,,,,,,,,,,,022420,0,1,0,2,0,1,2,0,4,2020_Feb_24_1536,listening_fmri,3.2.4,59.94120043966396,
2,parcelated_audio/31/31_3.ogg,,,,,,,,,0,0,0,0,0,2,2,2,0,0,0,0,,,,,,,,,0,0,0,0,0,2,2,2,,,,,,,,,,,,,,,,,,,,,,,,,,,,,,,,,,,,,,,,,,,,,,,,554.960320185,563.242779957,,,,,,,,,,,,,,,,,,,,,,,,,,,,,,,,,,,,,,,,,,,,,,,,,,,,,,,,,,,,,,,,,022420,0,1,0,2,0,1,2,0,4,2020_Feb_24_1536,listening_fmri,3.2.4,59.94120043966396,
2,parcelated_audio/31/31_4.ogg,,,,,,,,,0,0,0,0,0,2,2,2,0,0,0,0,,,,,,,,,0,0,0,0,0,3,3,3,,,,,,,,,,,,,,,,,,,,,,,,,,,,,,,,,,,,,,,,,,,,,,,,563.243050842,573.287845882,,,,,,,,,,,,,,,,,,,,,,,,,,,,,,,,,,,,,,,,,,,,,,,,,,,,,,,,,,,,,,,,,022420,0,1,0,2,0,1,2,0,4,2020_Feb_24_1536,listening_fmri,3.2.4,59.94120043966396,
2,parcelated_audio/31/31_5.ogg,,,,,,,,,0,0,0,0,0,2,2,2,0,0,0,0,,,,,,,,,0,0,0,0,0,4,4,4,,,,,,,,,,,,,,,,,,,,,,,,,,,,,,,,,,,,,,,,,,,,,,,,573.2881170200001,584.402316248,,,,,,,,,,,,,,,,,,,,,,,,,,,,,,,,,,,,,,,,,,,,,,,,,,,,,,,,,,,,,,,,,022420,0,1,0,2,0,1,2,0,4,2020_Feb_24_1536,listening_fmri,3.2.4,59.94120043966396,
2,parcelated_audio/31/31_6.ogg,,,,,,,,,0,0,0,0,0,2,2,2,0,0,0,0,,,,,,,,,0,0,0,0,0,5,5,5,,,,,,,,,,,,,,,,,,,,,,,,,,,,,,,,,,,,,,,,,,,,,,,,584.4028830990001,589.7111040930001,,,,,,,,,,,,,,,,,,,,,,,,,,,,,,,,,,,,,,,,,,,,,,,,,,,,,,,,,,,,,,,,,022420,0,1,0,2,0,1,2,0,4,2020_Feb_24_1536,listening_fmri,3.2.4,59.94120043966396,
2,parcelated_audio/31/31_7.ogg,,,,,,,,,0,0,0,0,0,2,2,2,0,0,0,0,,,,,,,,,0,0,0,0,0,6,6,6,,,,,,,,,,,,,,,,,,,,,,,,,,,,,,,,,,,,,,,,,,,,,,,,589.7113957890001,594.551135385,,,,,,,,,,,,,,,,,,,,,,,,,,,,,,,,,,,,,,,,,,,,,,,,,,,,,,,,,,,,,,,,,022420,0,1,0,2,0,1,2,0,4,2020_Feb_24_1536,listening_fmri,3.2.4,59.94120043966396,
2,parcelated_audio/31/31_8.ogg,,,,,,,,,0,0,0,0,0,2,2,2,0,0,0,0,,,,,,,,,0,0,0,0,0,7,7,7,,,,,,,,,,,,,,,,,,,,,,,,,,,,,,,,,,,,,,,,,,,,,,,,594.5514044710001,603.0012237360002,,,,,,,,,,,,,,,,,,,,,,,,,,,,,,,,,,,,,,,,,,,,,,,,,,,,,,,,,,,,,,,,,022420,0,1,0,2,0,1,2,0,4,2020_Feb_24_1536,listening_fmri,3.2.4,59.94120043966396,
2,parcelated_audio/31/31_9.ogg,,,,,,,,,0,0,0,0,0,2,2,2,0,0,0,0,,,,,,,,,0,0,0,0,0,8,8,8,,,,,,,,,,,,,,,,,,,,,,,,,,,,,,,,,,,,,,,,,,,,,,,,603.00158001,608.060171048,,,,,,,,,,,,,,,,,,,,,,,,,,,,,,,,,,,,,,,,,,,,,,,,,,,,,,,,,,,,,,,,,022420,0,1,0,2,0,1,2,0,4,2020_Feb_24_1536,listening_fmri,3.2.4,59.94120043966396,
2,parcelated_audio/31/31_10.ogg,,,,,,,,,0,0,0,0,0,2,2,2,0,0,0,0,,,,,,,,,0,0,0,0,0,9,9,9,,,,,,,,,,,,,,,,,,,,,,,,,,,,,,,,,,,,,,,,,,,,,,,,608.060422535,613.578780547,,,,,,,,,,,,,,,,,,,,,,,,,,,,,,,,,,,,,,,,,,,,,,,,,,,,,,,,,,,,,,,,,022420,0,1,0,2,0,1,2,0,4,2020_Feb_24_1536,listening_fmri,3.2.4,59.94120043966396,
2,parcelated_audio/31/31_11.ogg,,,,,,,,,0,0,0,0,0,2,2,2,0,0,0,0,,,,,,,,,0,0,0,0,0,10,10,10,,,,,,,,,,,,,,,,,,,,,,,,,,,,,,,,,,,,,,,,,,,,,,,,613.5790507660001,623.798731464,,,,,,,,,,,,,,,,,,,,,,,,,,,,,,,,,,,,,,,,,,,,,,,,,,,,,,,,,,,,,,,,,022420,0,1,0,2,0,1,2,0,4,2020_Feb_24_1536,listening_fmri,3.2.4,59.94120043966396,
2,parcelated_audio/31/31_12.ogg,,,,,,,,,0,0,0,0,0,2,2,2,0,0,0,0,,,,,,,,,0,0,0,0,0,11,11,11,,,,,,,,,,,,,,,,,,,,,,,,,,,,,,,,,,,,,,,,,,,,,,,,623.7994906850001,628.582403552,,,,,,,,,,,,,,,,,,,,,,,,,,,,,,,,,,,,,,,,,,,,,,,,,,,,,,,,,,,,,,,,,022420,0,1,0,2,0,1,2,0,4,2020_Feb_24_1536,listening_fmri,3.2.4,59.94120043966396,
2,parcelated_audio/31/31_13.ogg,,,,,,,,,0,0,0,0,0,2,2,2,0,0,0,0,,,,,,,,,0,0,0,0,0,12,12,12,,,,,,,,,,,,,,,,,,,,,,,,,,,,,,,,,,,,,,,,,,,,,,,,628.5826728710001,635.9104622320001,,,,,,,,,,,,,,,,,,,,,,,,,,,,,,,,,,,,,,,,,,,,,,,,,,,,,,,,,,,,,,,,,022420,0,1,0,2,0,1,2,0,4,2020_Feb_24_1536,listening_fmri,3.2.4,59.94120043966396,
2,parcelated_audio/31/31_14.ogg,,,,,,,,,0,0,0,0,0,2,2,2,0,0,0,0,,,,,,,,,0,0,0,0,0,13,13,13,,,,,,,,,,,,,,,,,,,,,,,,,,,,,,,,,,,,,,,,,,,,,,,,635.9109820180001,642.0250980790001,,,,,,,,,,,,,,,,,,,,,,,,,,,,,,,,,,,,,,,,,,,,,,,,,,,,,,,,,,,,,,,,,022420,0,1,0,2,0,1,2,0,4,2020_Feb_24_1536,listening_fmri,3.2.4,59.94120043966396,
2,parcelated_audio/31/31_15.ogg,,,,,,,,,0,0,0,0,0,2,2,2,0,0,0,0,,,,,,,,,0,0,0,0,0,14,14,14,,,,,,,,,,,,,,,,,,,,,,,,,,,,,,,,,,,,,,,,,,,,,,,,642.025367898,648.7130944780001,,,,,,,,,,,,,,,,,,,,,,,,,,,,,,,,,,,,,,,,,,,,,,,,,,,,,,,,,,,,,,,,,022420,0,1,0,2,0,1,2,0,4,2020_Feb_24_1536,listening_fmri,3.2.4,59.94120043966396,
2,parcelated_audio/31/31_16.ogg,,,,,,,,,0,0,0,0,0,2,2,2,0,0,0,0,,,,,,,,,0,0,0,0,0,15,15,15,,,,,,,,,,,,,,,,,,,,,,,,,,,,,,,,,,,,,,,,,,,,,,,,648.713372062,655.115193997,,,,,,,,,,,,,,,,,,,,,,,,,,,,,,,,,,,,,,,,,,,,,,,,,,,,,,,,,,,,,,,,,022420,0,1,0,2,0,1,2,0,4,2020_Feb_24_1536,listening_fmri,3.2.4,59.94120043966396,
2,parcelated_audio/31/31_17.ogg,,,,,,,,,0,0,0,0,0,2,2,2,0,0,0,0,,,,,,,,,0,0,0,0,0,16,16,16,,,,,,,,,,,,,,,,,,,,,,,,,,,,,,,,,,,,,,,,,,,,,,,,655.1154637320001,658.54753364,,,,,,,,,,,,,,,,,,,,,,,,,,,,,,,,,,,,,,,,,,,,,,,,,,,,,,,,,,,,,,,,,022420,0,1,0,2,0,1,2,0,4,2020_Feb_24_1536,listening_fmri,3.2.4,59.94120043966396,
2,parcelated_audio/31/31_18.ogg,,,,,,,,,0,0,0,0,0,2,2,2,0,0,0,0,,,,,,,,,0,0,0,0,0,17,17,17,,,,,,,,,,,,,,,,,,,,,,,,,,,,,,,,,,,,,,,,,,,,,,,,658.5478028490002,663.1499301180002,,,,,,,,,,,,,,,,,,,,,,,,,,,,,,,,,,,,,,,,,,,,,,,,,,,,,,,,,,,,,,,,,022420,0,1,0,2,0,1,2,0,4,2020_Feb_24_1536,listening_fmri,3.2.4,59.94120043966396,
2,parcelated_audio/31/31_19.ogg,,,,,,,,,0,0,0,0,0,2,2,2,0,0,0,0,,,,,,,,,0,0,0,0,0,18,18,18,,,,,,,,,,,,,,,,,,,,,,,,,,,,,,,,,,,,,,,,,,,,,,,,663.1523455470001,671.3658520900001,,,,,,,,,,,,,,,,,,,,,,,,,,,,,,,,,,,,,,,,,,,,,,,,,,,,,,,,,,,,,,,,,022420,0,1,0,2,0,1,2,0,4,2020_Feb_24_1536,listening_fmri,3.2.4,59.94120043966396,
2,parcelated_audio/31/31_20.ogg,,,,,,,,,0,0,0,0,0,2,2,2,0,0,0,0,,,,,,,,,0,0,0,0,0,19,19,19,,,,,,,,,,,,,,,,,,,,,,,,,,,,,,,,,,,,,,,,,,,,,,,,671.366461374,689.1989414760001,,,,,,,,,,,,,,,,,,,,,,,,,,,,,,,,,,,,,,,,,,,,,,,,,,,,,,,,,,,,,,,,,022420,0,1,0,2,0,1,2,0,4,2020_Feb_24_1536,listening_fmri,3.2.4,59.94120043966396,
2,parcelated_audio/31/31_21.ogg,,,,,,,,,0,0,0,0,0,2,2,2,0,0,0,0,,,,,,,,,0,0,0,0,0,20,20,20,,,,,,,,,,,,,,,,,,,,,,,,,,,,,,,,,,,,,,,,,,,,,,,,689.19921439,699.44550602,,,,,,,,,,,,,,,,,,,,,,,,,,,,,,,,,,,,,,,,,,,,,,,,,,,,,,,,,,,,,,,,,022420,0,1,0,2,0,1,2,0,4,2020_Feb_24_1536,listening_fmri,3.2.4,59.94120043966396,
2,parcelated_audio/31/31_22.ogg,,,,,,,,,0,0,0,0,0,2,2,2,0,0,0,0,,,,,,,,,0,0,0,0,0,21,21,21,,,,,,,,,,,,,,,,,,,,,,,,,,,,,,,,,,,,,,,,,,,,,,,,699.4458305610001,705.162537337,,,,,,,,,,,,,,,,,,,,,,,,,,,,,,,,,,,,,,,,,,,,,,,,,,,,,,,,,,,,,,,,,022420,0,1,0,2,0,1,2,0,4,2020_Feb_24_1536,listening_fmri,3.2.4,59.94120043966396,
2,parcelated_audio/31/31_23.ogg,,,,,,,,,0,0,0,0,0,2,2,2,0,0,0,0,,,,,,,,,0,0,0,0,0,22,22,22,,,,,,,,,,,,,,,,,,,,,,,,,,,,,,,,,,,,,,,,,,,,,,,,705.1628061050001,709.7715293900001,,,,,,,,,,,,,,,,,,,,,,,,,,,,,,,,,,,,,,,,,,,,,,,,,,,,,,,,,,,,,,,,,022420,0,1,0,2,0,1,2,0,4,2020_Feb_24_1536,listening_fmri,3.2.4,59.94120043966396,
2,parcelated_audio/31/31_24.ogg,,,,,,,,,0,0,0,0,0,2,2,2,0,0,0,0,,,,,,,,,0,0,0,0,0,23,23,23,,,,,,,,,,,,,,,,,,,,,,,,,,,,,,,,,,,,,,,,,,,,,,,,709.7718494630001,716.6717521340001,,,,,,,,,,,,,,,,,,,,,,,,,,,,,,,,,,,,,,,,,,,,,,,,,,,,,,,,,,,,,,,,,022420,0,1,0,2,0,1,2,0,4,2020_Feb_24_1536,listening_fmri,3.2.4,59.94120043966396,
2,parcelated_audio/31/31_25.ogg,,,,,,,,,0,0,0,0,0,2,2,2,0,0,0,0,,,,,,,,,0,0,0,0,0,24,24,24,,,,,,,,,,,,,,,,,,,,,,,,,,,,,,,,,,,,,,,,,,,,,,,,716.6720416190001,728.678008649,,,,,,,,,,,,,,,,,,,,,,,,,,,,,,,,,,,,,,,,,,,,,,,,,,,,,,,,,,,,,,,,,022420,0,1,0,2,0,1,2,0,4,2020_Feb_24_1536,listening_fmri,3.2.4,59.94120043966396,
2,parcelated_audio/31/31_26.ogg,,,,,,,,,0,0,0,0,0,2,2,2,0,0,0,0,,,,,,,,,0,0,0,0,0,25,25,25,,,,,,,,,,,,,,,,,,,,,,,,,,,,,,,,,,,,,,,,,,,,,,,,728.6782794200001,736.194104719,,,,,,,,,,,,,,,,,,,,,,,,,,,,,,,,,,,,,,,,,,,,,,,,,,,,,,,,,,,,,,,,,022420,0,1,0,2,0,1,2,0,4,2020_Feb_24_1536,listening_fmri,3.2.4,59.94120043966396,
2,parcelated_audio/31/31_27.ogg,,,,,,,,,0,0,0,0,0,2,2,2,0,0,0,0,,,,,,,,,0,0,0,0,0,26,26,26,,,,,,,,,,,,,,,,,,,,,,,,,,,,,,,,,,,,,,,,,,,,,,,,736.194451395,740.5740719340001,,,,,,,,,,,,,,,,,,,,,,,,,,,,,,,,,,,,,,,,,,,,,,,,,,,,,,,,,,,,,,,,,022420,0,1,0,2,0,1,2,0,4,2020_Feb_24_1536,listening_fmri,3.2.4,59.94120043966396,
2,parcelated_audio/31/31_28.ogg,,,,,,,,,0,0,0,0,0,2,2,2,0,0,0,0,,,,,,,,,0,0,0,0,0,27,27,27,,,,,,,,,,,,,,,,,,,,,,,,,,,,,,,,,,,,,,,,,,,,,,,,740.5743485,745.5935510020001,,,,,,,,,,,,,,,,,,,,,,,,,,,,,,,,,,,,,,,,,,,,,,,,,,,,,,,,,,,,,,,,,022420,0,1,0,2,0,1,2,0,4,2020_Feb_24_1536,listening_fmri,3.2.4,59.94120043966396,
2,parcelated_audio/31/31_29.ogg,,,,,,,,,0,0,0,0,0,2,2,2,0,0,0,0,,,,,,,,,0,0,0,0,0,28,28,28,,,,,,,,,,,,,,,,,,,,,,,,,,,,,,,,,,,,,,,,,,,,,,,,745.5938215150002,749.9349948620002,,,,,,,,,,,,,,,,,,,,,,,,,,,,,,,,,,,,,,,,,,,,,,,,,,,,,,,,,,,,,,,,,022420,0,1,0,2,0,1,2,0,4,2020_Feb_24_1536,listening_fmri,3.2.4,59.94120043966396,
2,parcelated_audio/31/31_30.ogg,,,,,,,,,0,0,0,0,0,2,2,2,0,0,0,0,,,,,,,,,0,0,0,0,0,29,29,29,,,,,,,,,,,,,,,,,,,,,,,,,,,,,,,,,,,,,,,,,,,,,,,,749.9353455330001,753.7121945460001,,,,,,,,,,,,,,,,,,,,,,,,,,,,,,,,,,,,,,,,,,,,,,,,,,,,,,,,,,,,,,,,,022420,0,1,0,2,0,1,2,0,4,2020_Feb_24_1536,listening_fmri,3.2.4,59.94120043966396,
2,parcelated_audio/31/31_31.ogg,,,,,,,,,0,0,0,0,0,2,2,2,0,0,0,0,,,,,,,,,0,0,0,0,0,30,30,30,,,,,,,,,,,,,,,,,,,,,,,,,,,,,,,,,,,,,,,,,,,,,,,,753.712439294,759.6817934630001,,,,,,,,,,,,,,,,,,,,,,,,,,,,,,,,,,,,,,,,,,,,,,,,,,,,,,,,,,,,,,,,,022420,0,1,0,2,0,1,2,0,4,2020_Feb_24_1536,listening_fmri,3.2.4,59.94120043966396,
2,parcelated_audio/31/31_32.ogg,,,,,,,,,0,0,0,0,0,2,2,2,0,0,0,0,,,,,,,,,0,0,0,0,0,31,31,31,,,,,,,,,,,,,,,,,,,,,,,,,,,,,,,,,,,,,,,,,,,,,,,,759.6820622790001,769.6481648030001,,,,,,,,,,,,,,,,,,,,,,,,,,,,,,,,,,,,,,,,,,,,,,,,,,,,,,,,,,,,,,,,,022420,0,1,0,2,0,1,2,0,4,2020_Feb_24_1536,listening_fmri,3.2.4,59.94120043966396,
2,parcelated_audio/31/31_33.ogg,,,,,,,,,0,0,0,0,0,2,2,2,0,0,0,0,,,,,,,,,0,0,0,0,0,32,32,32,,,,,,,,,,,,,,,,,,,,,,,,,,,,,,,,,,,,,,,,,,,,,,,,769.6484431860001,778.013852865,,,,,,,,,,,,,,,,,,,,,,,,,,,,,,,,,,,,,,,,,,,,,,,,,,,,,,,,,,,,,,,,,022420,0,1,0,2,0,1,2,0,4,2020_Feb_24_1536,listening_fmri,3.2.4,59.94120043966396,
2,parcelated_audio/31/31_34.ogg,,,,,,,,,0,0,0,0,0,2,2,2,0,0,0,0,,,,,,,,,0,0,0,0,0,33,33,33,,,,,,,,,,,,,,,,,,,,,,,,,,,,,,,,,,,,,,,,,,,,,,,,778.0141259230002,782.4032394150001,,,,,,,,,,,,,,,,,,,,,,,,,,,,,,,,,,,,,,,,,,,,,,,,,,,,,,,,,,,,,,,,,022420,0,1,0,2,0,1,2,0,4,2020_Feb_24_1536,listening_fmri,3.2.4,59.94120043966396,
2,parcelated_audio/31/31_35.ogg,,,,,,,,,0,0,0,0,0,2,2,2,0,0,0,0,,,,,,,,,0,0,0,0,0,34,34,34,,,,,,,,,,,,,,,,,,,,,,,,,,,,,,,,,,,,,,,,,,,,,,,,782.4036927330001,788.14891369,,,,,,,,,,,,,,,,,,,,,,,,,,,,,,,,,,,,,,,,,,,,,,,,,,,,,,,,,,,,,,,,,022420,0,1,0,2,0,1,2,0,4,2020_Feb_24_1536,listening_fmri,3.2.4,59.94120043966396,
2,parcelated_audio/31/31_36.ogg,,,,,,,,,0,0,0,0,0,2,2,2,0,0,0,0,,,,,,,,,0,0,0,0,0,35,35,35,,,,,,,,,,,,,,,,,,,,,,,,,,,,,,,,,,,,,,,,,,,,,,,,788.1491615350001,794.4655397860001,,,,,,,,,,,,,,,,,,,,,,,,,,,,,,,,,,,,,,,,,,,,,,,,,,,,,,,,,,,,,,,,,022420,0,1,0,2,0,1,2,0,4,2020_Feb_24_1536,listening_fmri,3.2.4,59.94120043966396,
2,,,,,,,,,,0,0,0,0,0,2,2,2,0,0,0,0,,,,,,,,,0,0,0,0,,,,,,,,,,,,,,,,,,,,,,,,,,,,,,,,,,,,,,,,,,,,,,,,,,,,,,,,,,,,,,,,,,,,,,,,,,,,,,,,,,,,,,,,,,,,,,,,,,,,,,,,,,,,,,,,,,,,,,022420,0,1,0,2,0,1,2,0,4,2020_Feb_24_1536,listening_fmri,3.2.4,59.94120043966396,
2,,,,,,,,,,0,0,0,0,0,2,2,2,0,0,0,0,,,,,,,,,,,,,,,,,,,,,,,,,,,,,,,,,,,,,,,,,,794.465911777,800.46628956,835.150096282,None,,,,,,,,,,,,,,,,,,,,,841.152566843,None,841.152566843,None,,,,,,,,,,,,,,,,,,,,,,,,,,,,,,,,,,,,,,,,,,,,,,,,,,,,,,,,,,,,,022420,0,1,0,2,0,1,2,0,4,2020_Feb_24_1536,listening_fmri,3.2.4,59.94120043966396,
2,,,,,,,,,,0,0,0,0,0,2,2,2,,,,,,,,,,,,,,,,,,,,,,,,,,,,,,,,,,,,,,,,,,,,,,,,,,,,,,,,,,,,,,,,,,,,,,,,,,,,,,,,,,,,,,,,,,,,,,,,,,,,,,,,,,,,,,,,,,,,,,,,,,,,,,,,,,,,,,022420,0,1,0,2,0,1,2,0,4,2020_Feb_24_1536,listening_fmri,3.2.4,59.94120043966396,
3,,,,,,,,,,0,0,0,0,0,3,3,3,,,,,,,,,,,,,,,,,,,,,,,,,,,,,,,,,,,,,,,,,,,,,,,,,,,,,,,,,,,,,,,,,,,,,,,,,,,,,,,,,,,,,,,,,,,,,,,,,,,,,,,,,,,,,,,,,,,,,,,,,,,,,,,,,,,,,,022420,0,1,0,2,0,1,2,0,4,2020_Feb_24_1536,listening_fmri,3.2.4,59.94120043966396,
4,,,,,,,,,,0,0,0,0,0,4,4,4,,,,,,,,,,,,,,,,,,,,,,,,,,,,,,,,,,,,,,,,,,,,,,,,,,,,,,,,,,,,,,,,,,,,,,,,,,,,,,,,,,,,,,,,,,,,,,,,,,,,,,,,,,,,,,,,,,,,,,,,,,,,,,,,,,,,,,022420,0,1,0,2,0,1,2,0,4,2020_Feb_24_1536,listening_fmri,3.2.4,59.94120043966396,
5,,,,,,,,,,0,0,0,0,0,5,5,5,0,0,0,0,0,0,0,0,,,,,,,,,,,,,,,,,0,0,0,0,,,,,,,,,,,,,,,,,,,,,,842.183342839,None,842.183342839,None,6,0.09100128800002949,842.183342839,None,842.183342839,None,,,,,,,,,,,,,,,842.299270248,None,6,1.4780035429999998,842.299270248,None,842.299270248,None,843.815896833,None,843.815896833,None,843.815896833,None,6,0.9714821249999659,843.815896833,None,844.81557029,None,6,0.5248009130000355,844.81557029,None,844.81557029,None,845.4351327319999,None,845.4351327319999,None,845.4351327319999,None,845.4351327319999,None,845.4351327319999,None,845.4351327319999,None,845.4351327319999,None,,,,,,,,,,,,,,,,,,,,,022420,0,1,0,2,0,1,2,0,4,2020_Feb_24_1536,listening_fmri,3.2.4,59.94120043966396,
5,,,,,,,,,,0,0,0,0,0,5,5,5,0,0,0,0,0,0,0,0,,,,,,,,,,,,,,,,,,,,,,,,,,,,,,,,,,,,,,,,,,,,,,,,,,,,,,,,,,,,,,,,,,,,,,,,,,,,,,,,,,,,,,,,,,,,,,,,,,,,,,,,,,861.318885046,None,6,0.879465962999916,861.318885046,None,861.318885046,None,862.233598497,None,862.233598497,None,862.233598497,None,6,0.5437958640000033,862.233598497,None,,,022420,0,1,0,2,0,1,2,0,4,2020_Feb_24_1536,listening_fmri,3.2.4,59.94120043966396,
5,parcelated_audio/33/33_1.ogg,,,,,,,,,0,0,0,0,0,5,5,5,0,0,0,0,,,,,,,,,0,0,0,0,0,0,0,0,,,,,,,,,,,,,,,,,,,,,,,,,,,,,,,,,,,,,,,,862.799891205,None,6,0.6934955409999475,862.799891205,None,822.841277556,825.8490374810001,825.8557993510001,835.8320706920001,,,,,,,,,,,,,,,,,,,,,,,,,,,,,,,,,,,,,,,,,,,,,,,,,,,,,,,,,,,,,,,,,022420,0,1,0,2,0,1,2,0,4,2020_Feb_24_1536,listening_fmri,3.2.4,59.94120043966396,
5,parcelated_audio/33/33_2.ogg,,,,,,,,,0,0,0,0,0,5,5,5,0,0,0,0,,,,,,,,,0,0,0,0,0,1,1,1,,,,,,,,,,,,,,,,,,,,,,,,,,,,,,,,,,,,,,,,,,,,,,,,835.8323532290001,846.265784979,,,,,,,,,,,,,,,,,,,,,,,,,,,,,,,,,,,,,,,,,,,,,,,,,,,,,,,,,,,,,,,,,022420,0,1,0,2,0,1,2,0,4,2020_Feb_24_1536,listening_fmri,3.2.4,59.94120043966396,
5,parcelated_audio/33/33_3.ogg,,,,,,,,,0,0,0,0,0,5,5,5,0,0,0,0,,,,,,,,,0,0,0,0,0,2,2,2,,,,,,,,,,,,,,,,,,,,,,,,,,,,,,,,,,,,,,,,,,,,,,,,846.266059582,852.8044040930001,,,,,,,,,,,,,,,,,,,,,,,,,,,,,,,,,,,,,,,,,,,,,,,,,,,,,,,,,,,,,,,,,022420,0,1,0,2,0,1,2,0,4,2020_Feb_24_1536,listening_fmri,3.2.4,59.94120043966396,
5,parcelated_audio/33/33_4.ogg,,,,,,,,,0,0,0,0,0,5,5,5,0,0,0,0,,,,,,,,,0,0,0,0,0,3,3,3,,,,,,,,,,,,,,,,,,,,,,,,,,,,,,,,,,,,,,,,,,,,,,,,852.8046725870001,856.3820309350001,,,,,,,,,,,,,,,,,,,,,,,,,,,,,,,,,,,,,,,,,,,,,,,,,,,,,,,,,,,,,,,,,022420,0,1,0,2,0,1,2,0,4,2020_Feb_24_1536,listening_fmri,3.2.4,59.94120043966396,
5,parcelated_audio/33/33_5.ogg,,,,,,,,,0,0,0,0,0,5,5,5,0,0,0,0,,,,,,,,,0,0,0,0,0,4,4,4,,,,,,,,,,,,,,,,,,,,,,,,,,,,,,,,,,,,,,,,,,,,,,,,856.3823289960001,867.6310375190001,,,,,,,,,,,,,,,,,,,,,,,,,,,,,,,,,,,,,,,,,,,,,,,,,,,,,,,,,,,,,,,,,022420,0,1,0,2,0,1,2,0,4,2020_Feb_24_1536,listening_fmri,3.2.4,59.94120043966396,
5,parcelated_audio/33/33_6.ogg,,,,,,,,,0,0,0,0,0,5,5,5,0,0,0,0,,,,,,,,,0,0,0,0,0,5,5,5,,,,,,,,,,,,,,,,,,,,,,,,,,,,,,,,,,,,,,,,,,,,,,,,867.631316878,879.329029065,,,,,,,,,,,,,,,,,,,,,,,,,,,,,,,,,,,,,,,,,,,,,,,,,,,,,,,,,,,,,,,,,022420,0,1,0,2,0,1,2,0,4,2020_Feb_24_1536,listening_fmri,3.2.4,59.94120043966396,
5,parcelated_audio/33/33_7.ogg,,,,,,,,,0,0,0,0,0,5,5,5,0,0,0,0,,,,,,,,,0,0,0,0,0,6,6,6,,,,,,,,,,,,,,,,,,,,,,,,,,,,,,,,,,,,,,,,,,,,,,,,879.3297757140001,893.8757097580001,,,,,,,,,,,,,,,,,,,,,,,,,,,,,,,,,,,,,,,,,,,,,,,,,,,,,,,,,,,,,,,,,022420,0,1,0,2,0,1,2,0,4,2020_Feb_24_1536,listening_fmri,3.2.4,59.94120043966396,
5,parcelated_audio/33/33_8.ogg,,,,,,,,,0,0,0,0,0,5,5,5,0,0,0,0,,,,,,,,,0,0,0,0,0,7,7,7,,,,,,,,,,,,,,,,,,,,,,,,,,,,,,,,,,,,,,,,,,,,,,,,893.8759756960001,900.012982666,,,,,,,,,,,,,,,,,,,,,,,,,,,,,,,,,,,,,,,,,,,,,,,,,,,,,,,,,,,,,,,,,022420,0,1,0,2,0,1,2,0,4,2020_Feb_24_1536,listening_fmri,3.2.4,59.94120043966396,
5,parcelated_audio/33/33_9.ogg,,,,,,,,,0,0,0,0,0,5,5,5,0,0,0,0,,,,,,,,,0,0,0,0,0,8,8,8,,,,,,,,,,,,,,,,,,,,,,,,,,,,,,,,,,,,,,,,,,,,,,,,900.013246833,903.717745964,,,,,,,,,,,,,,,,,,,,,,,,,,,,,,,,,,,,,,,,,,,,,,,,,,,,,,,,,,,,,,,,,022420,0,1,0,2,0,1,2,0,4,2020_Feb_24_1536,listening_fmri,3.2.4,59.94120043966396,
5,parcelated_audio/33/33_10.ogg,,,,,,,,,0,0,0,0,0,5,5,5,0,0,0,0,,,,,,,,,0,0,0,0,0,9,9,9,,,,,,,,,,,,,,,,,,,,,,,,,,,,,,,,,,,,,,,,,,,,,,,,903.7180178830001,909.0922082950001,,,,,,,,,,,,,,,,,,,,,,,,,,,,,,,,,,,,,,,,,,,,,,,,,,,,,,,,,,,,,,,,,022420,0,1,0,2,0,1,2,0,4,2020_Feb_24_1536,listening_fmri,3.2.4,59.94120043966396,
5,parcelated_audio/33/33_11.ogg,,,,,,,,,0,0,0,0,0,5,5,5,0,0,0,0,,,,,,,,,0,0,0,0,0,10,10,10,,,,,,,,,,,,,,,,,,,,,,,,,,,,,,,,,,,,,,,,,,,,,,,,909.092581156,923.510723767,,,,,,,,,,,,,,,,,,,,,,,,,,,,,,,,,,,,,,,,,,,,,,,,,,,,,,,,,,,,,,,,,022420,0,1,0,2,0,1,2,0,4,2020_Feb_24_1536,listening_fmri,3.2.4,59.94120043966396,
5,parcelated_audio/33/33_12.ogg,,,,,,,,,0,0,0,0,0,5,5,5,0,0,0,0,,,,,,,,,0,0,0,0,0,11,11,11,,,,,,,,,,,,,,,,,,,,,,,,,,,,,,,,,,,,,,,,,,,,,,,,923.510988128,929.614436333,,,,,,,,,,,,,,,,,,,,,,,,,,,,,,,,,,,,,,,,,,,,,,,,,,,,,,,,,,,,,,,,,022420,0,1,0,2,0,1,2,0,4,2020_Feb_24_1536,listening_fmri,3.2.4,59.94120043966396,
5,parcelated_audio/33/33_13.ogg,,,,,,,,,0,0,0,0,0,5,5,5,0,0,0,0,,,,,,,,,0,0,0,0,0,12,12,12,,,,,,,,,,,,,,,,,,,,,,,,,,,,,,,,,,,,,,,,,,,,,,,,929.6147061439999,937.01345543,,,,,,,,,,,,,,,,,,,,,,,,,,,,,,,,,,,,,,,,,,,,,,,,,,,,,,,,,,,,,,,,,022420,0,1,0,2,0,1,2,0,4,2020_Feb_24_1536,listening_fmri,3.2.4,59.94120043966396,
5,parcelated_audio/33/33_14.ogg,,,,,,,,,0,0,0,0,0,5,5,5,0,0,0,0,,,,,,,,,0,0,0,0,0,13,13,13,,,,,,,,,,,,,,,,,,,,,,,,,,,,,,,,,,,,,,,,,,,,,,,,937.0137261570001,949.445013261,,,,,,,,,,,,,,,,,,,,,,,,,,,,,,,,,,,,,,,,,,,,,,,,,,,,,,,,,,,,,,,,,022420,0,1,0,2,0,1,2,0,4,2020_Feb_24_1536,listening_fmri,3.2.4,59.94120043966396,
5,parcelated_audio/33/33_15.ogg,,,,,,,,,0,0,0,0,0,5,5,5,0,0,0,0,,,,,,,,,0,0,0,0,0,14,14,14,,,,,,,,,,,,,,,,,,,,,,,,,,,,,,,,,,,,,,,,,,,,,,,,949.445356506,968.004533264,,,,,,,,,,,,,,,,,,,,,,,,,,,,,,,,,,,,,,,,,,,,,,,,,,,,,,,,,,,,,,,,,022420,0,1,0,2,0,1,2,0,4,2020_Feb_24_1536,listening_fmri,3.2.4,59.94120043966396,
5,parcelated_audio/33/33_16.ogg,,,,,,,,,0,0,0,0,0,5,5,5,0,0,0,0,,,,,,,,,0,0,0,0,0,15,15,15,,,,,,,,,,,,,,,,,,,,,,,,,,,,,,,,,,,,,,,,,,,,,,,,968.0048656409999,980.2316366540001,,,,,,,,,,,,,,,,,,,,,,,,,,,,,,,,,,,,,,,,,,,,,,,,,,,,,,,,,,,,,,,,,022420,0,1,0,2,0,1,2,0,4,2020_Feb_24_1536,listening_fmri,3.2.4,59.94120043966396,
5,parcelated_audio/33/33_17.ogg,,,,,,,,,0,0,0,0,0,5,5,5,0,0,0,0,,,,,,,,,0,0,0,0,0,16,16,16,,,,,,,,,,,,,,,,,,,,,,,,,,,,,,,,,,,,,,,,,,,,,,,,980.232363696,991.4468512420001,,,,,,,,,,,,,,,,,,,,,,,,,,,,,,,,,,,,,,,,,,,,,,,,,,,,,,,,,,,,,,,,,022420,0,1,0,2,0,1,2,0,4,2020_Feb_24_1536,listening_fmri,3.2.4,59.94120043966396,
5,parcelated_audio/33/33_18.ogg,,,,,,,,,0,0,0,0,0,5,5,5,0,0,0,0,,,,,,,,,0,0,0,0,0,17,17,17,,,,,,,,,,,,,,,,,,,,,,,,,,,,,,,,,,,,,,,,,,,,,,,,991.447125269,999.915796906,,,,,,,,,,,,,,,,,,,,,,,,,,,,,,,,,,,,,,,,,,,,,,,,,,,,,,,,,,,,,,,,,022420,0,1,0,2,0,1,2,0,4,2020_Feb_24_1536,listening_fmri,3.2.4,59.94120043966396,
5,parcelated_audio/33/33_19.ogg,,,,,,,,,0,0,0,0,0,5,5,5,0,0,0,0,,,,,,,,,0,0,0,0,0,18,18,18,,,,,,,,,,,,,,,,,,,,,,,,,,,,,,,,,,,,,,,,,,,,,,,,999.916351371,1003.3587263229999,,,,,,,,,,,,,,,,,,,,,,,,,,,,,,,,,,,,,,,,,,,,,,,,,,,,,,,,,,,,,,,,,022420,0,1,0,2,0,1,2,0,4,2020_Feb_24_1536,listening_fmri,3.2.4,59.94120043966396,
5,parcelated_audio/33/33_20.ogg,,,,,,,,,0,0,0,0,0,5,5,5,0,0,0,0,,,,,,,,,0,0,0,0,0,19,19,19,,,,,,,,,,,,,,,,,,,,,,,,,,,,,,,,,,,,,,,,,,,,,,,,1003.3589995340001,1010.241369373,,,,,,,,,,,,,,,,,,,,,,,,,,,,,,,,,,,,,,,,,,,,,,,,,,,,,,,,,,,,,,,,,022420,0,1,0,2,0,1,2,0,4,2020_Feb_24_1536,listening_fmri,3.2.4,59.94120043966396,
5,parcelated_audio/33/33_21.ogg,,,,,,,,,0,0,0,0,0,5,5,5,0,0,0,0,,,,,,,,,0,0,0,0,0,20,20,20,,,,,,,,,,,,,,,,,,,,,,,,,,,,,,,,,,,,,,,,,,,,,,,,1010.241676652,1014.2944442590001,,,,,,,,,,,,,,,,,,,,,,,,,,,,,,,,,,,,,,,,,,,,,,,,,,,,,,,,,,,,,,,,,022420,0,1,0,2,0,1,2,0,4,2020_Feb_24_1536,listening_fmri,3.2.4,59.94120043966396,
5,parcelated_audio/33/33_22.ogg,,,,,,,,,0,0,0,0,0,5,5,5,0,0,0,0,,,,,,,,,0,0,0,0,0,21,21,21,,,,,,,,,,,,,,,,,,,,,,,,,,,,,,,,,,,,,,,,,,,,,,,,1014.2947143199999,1026.132271148,,,,,,,,,,,,,,,,,,,,,,,,,,,,,,,,,,,,,,,,,,,,,,,,,,,,,,,,,,,,,,,,,022420,0,1,0,2,0,1,2,0,4,2020_Feb_24_1536,listening_fmri,3.2.4,59.94120043966396,
5,parcelated_audio/33/33_23.ogg,,,,,,,,,0,0,0,0,0,5,5,5,0,0,0,0,,,,,,,,,0,0,0,0,0,22,22,22,,,,,,,,,,,,,,,,,,,,,,,,,,,,,,,,,,,,,,,,,,,,,,,,1026.132597585,1036.619624584,,,,,,,,,,,,,,,,,,,,,,,,,,,,,,,,,,,,,,,,,,,,,,,,,,,,,,,,,,,,,,,,,022420,0,1,0,2,0,1,2,0,4,2020_Feb_24_1536,listening_fmri,3.2.4,59.94120043966396,
5,parcelated_audio/33/33_24.ogg,,,,,,,,,0,0,0,0,0,5,5,5,0,0,0,0,,,,,,,,,0,0,0,0,0,23,23,23,,,,,,,,,,,,,,,,,,,,,,,,,,,,,,,,,,,,,,,,,,,,,,,,1036.619896728,1042.875242801,,,,,,,,,,,,,,,,,,,,,,,,,,,,,,,,,,,,,,,,,,,,,,,,,,,,,,,,,,,,,,,,,022420,0,1,0,2,0,1,2,0,4,2020_Feb_24_1536,listening_fmri,3.2.4,59.94120043966396,
5,parcelated_audio/33/33_25.ogg,,,,,,,,,0,0,0,0,0,5,5,5,0,0,0,0,,,,,,,,,0,0,0,0,0,24,24,24,,,,,,,,,,,,,,,,,,,,,,,,,,,,,,,,,,,,,,,,,,,,,,,,1042.875514045,1051.077603219,,,,,,,,,,,,,,,,,,,,,,,,,,,,,,,,,,,,,,,,,,,,,,,,,,,,,,,,,,,,,,,,,022420,0,1,0,2,0,1,2,0,4,2020_Feb_24_1536,listening_fmri,3.2.4,59.94120043966396,
5,parcelated_audio/33/33_26.ogg,,,,,,,,,0,0,0,0,0,5,5,5,0,0,0,0,,,,,,,,,0,0,0,0,0,25,25,25,,,,,,,,,,,,,,,,,,,,,,,,,,,,,,,,,,,,,,,,,,,,,,,,1051.07787229,1058.14721002,,,,,,,,,,,,,,,,,,,,,,,,,,,,,,,,,,,,,,,,,,,,,,,,,,,,,,,,,,,,,,,,,022420,0,1,0,2,0,1,2,0,4,2020_Feb_24_1536,listening_fmri,3.2.4,59.94120043966396,
5,parcelated_audio/33/33_27.ogg,,,,,,,,,0,0,0,0,0,5,5,5,0,0,0,0,,,,,,,,,0,0,0,0,0,26,26,26,,,,,,,,,,,,,,,,,,,,,,,,,,,,,,,,,,,,,,,,,,,,,,,,1058.147562595,1065.680113132,,,,,,,,,,,,,,,,,,,,,,,,,,,,,,,,,,,,,,,,,,,,,,,,,,,,,,,,,,,,,,,,,022420,0,1,0,2,0,1,2,0,4,2020_Feb_24_1536,listening_fmri,3.2.4,59.94120043966396,
5,parcelated_audio/33/33_28.ogg,,,,,,,,,0,0,0,0,0,5,5,5,0,0,0,0,,,,,,,,,0,0,0,0,0,27,27,27,,,,,,,,,,,,,,,,,,,,,,,,,,,,,,,,,,,,,,,,,,,,,,,,1065.680473173,1071.362810539,,,,,,,,,,,,,,,,,,,,,,,,,,,,,,,,,,,,,,,,,,,,,,,,,,,,,,,,,,,,,,,,,022420,0,1,0,2,0,1,2,0,4,2020_Feb_24_1536,listening_fmri,3.2.4,59.94120043966396,
5,parcelated_audio/33/33_29.ogg,,,,,,,,,0,0,0,0,0,5,5,5,0,0,0,0,,,,,,,,,0,0,0,0,0,28,28,28,,,,,,,,,,,,,,,,,,,,,,,,,,,,,,,,,,,,,,,,,,,,,,,,1071.363180975,1079.276966257,,,,,,,,,,,,,,,,,,,,,,,,,,,,,,,,,,,,,,,,,,,,,,,,,,,,,,,,,,,,,,,,,022420,0,1,0,2,0,1,2,0,4,2020_Feb_24_1536,listening_fmri,3.2.4,59.94120043966396,
5,parcelated_audio/33/33_30.ogg,,,,,,,,,0,0,0,0,0,5,5,5,0,0,0,0,,,,,,,,,0,0,0,0,0,29,29,29,,,,,,,,,,,,,,,,,,,,,,,,,,,,,,,,,,,,,,,,,,,,,,,,1079.277233868,1094.238418524,,,,,,,,,,,,,,,,,,,,,,,,,,,,,,,,,,,,,,,,,,,,,,,,,,,,,,,,,,,,,,,,,022420,0,1,0,2,0,1,2,0,4,2020_Feb_24_1536,listening_fmri,3.2.4,59.94120043966396,
5,parcelated_audio/33/33_31.ogg,,,,,,,,,0,0,0,0,0,5,5,5,0,0,0,0,,,,,,,,,0,0,0,0,0,30,30,30,,,,,,,,,,,,,,,,,,,,,,,,,,,,,,,,,,,,,,,,,,,,,,,,1094.238690102,1103.980392021,,,,,,,,,,,,,,,,,,,,,,,,,,,,,,,,,,,,,,,,,,,,,,,,,,,,,,,,,,,,,,,,,022420,0,1,0,2,0,1,2,0,4,2020_Feb_24_1536,listening_fmri,3.2.4,59.94120043966396,
5,parcelated_audio/33/33_32.ogg,,,,,,,,,0,0,0,0,0,5,5,5,0,0,0,0,,,,,,,,,0,0,0,0,0,31,31,31,,,,,,,,,,,,,,,,,,,,,,,,,,,,,,,,,,,,,,,,,,,,,,,,1103.980675439,1109.601842578,,,,,,,,,,,,,,,,,,,,,,,,,,,,,,,,,,,,,,,,,,,,,,,,,,,,,,,,,,,,,,,,,022420,0,1,0,2,0,1,2,0,4,2020_Feb_24_1536,listening_fmri,3.2.4,59.94120043966396,
5,,,,,,,,,,0,0,0,0,0,5,5,5,0,0,0,0,,,,,,,,,0,0,0,0,,,,,,,,,,,,,,,,,,,,,,,,,,,,,,,,,,,,,,,,,,,,,,,,,,,,,,,,,,,,,,,,,,,,,,,,,,,,,,,,,,,,,,,,,,,,,,,,,,,,,,,,,,,,,,,,,,,,,,022420,0,1,0,2,0,1,2,0,4,2020_Feb_24_1536,listening_fmri,3.2.4,59.94120043966396,
5,,,,,,,,,,0,0,0,0,0,5,5,5,0,0,0,0,,,,,,,,,,,,,,,,,,,,,,,,,,,,,,,,,,,,,,,,,,1109.602205498,1115.599754378,1150.2814382660001,None,,,,,,,,,,,,,,,,,,,,,1156.2833415520001,None,1156.2833415520001,None,,,,,,,,,,,,,,,,,,,,,,,,,,,,,,,,,,,,,,,,,,,,,,,,,,,,,,,,,,,,,022420,0,1,0,2,0,1,2,0,4,2020_Feb_24_1536,listening_fmri,3.2.4,59.94120043966396,
5,,,,,,,,,,0,0,0,0,0,5,5,5,,,,,,,,,,,,,,,,,,,,,,,,,,,,,,,,,,,,,,,,,,,,,,,,,,,,,,,,,,,,,,,,,,,,,,,,,,,,,,,,,,,,,,,,,,,,,,,,,,,,,,,,,,,,,,,,,,,,,,,,,,,,,,,,,,,,,,022420,0,1,0,2,0,1,2,0,4,2020_Feb_24_1536,listening_fmri,3.2.4,59.94120043966396,
6,parcelated_audio/42/42_1.ogg,,,,,,,,,0,0,0,0,0,6,6,6,0,0,0,0,,,,,,,,,0,0,0,0,0,0,0,0,,,,,,,,,,,,,,,,,,,,,,,,,,,,,,1157.2977737790002,None,1157.2977737790002,None,6,0.7286090899999635,1157.2977737790002,None,1157.2977737790002,None,1158.050481957,None,6,0.46290566600009697,1158.050481957,None,1117.856311512,1120.865894483,1120.872430408,1129.242361517,,,,,,,,,,,,,,,,,,,,,,,,,,,,,,,,,,,,,,,,,,,,,,,,,,,,,,,,,,,,,,,,,022420,0,1,0,2,0,1,2,0,4,2020_Feb_24_1536,listening_fmri,3.2.4,59.94120043966396,
6,parcelated_audio/42/42_2.ogg,,,,,,,,,0,0,0,0,0,6,6,6,0,0,0,0,,,,,,,,,0,0,0,0,0,1,1,1,,,,,,,,,,,,,,,,,,,,,,,,,,,,,,,,,,,,,,,,,,,,,,,,1129.2426766,1141.96190353,,,,,,,,,,,,,,,,,,,,,,,,,,,,,,,,,,,,,,,,,,,,,,,,,,,,,,,,,,,,,,,,,022420,0,1,0,2,0,1,2,0,4,2020_Feb_24_1536,listening_fmri,3.2.4,59.94120043966396,
6,parcelated_audio/42/42_3.ogg,,,,,,,,,0,0,0,0,0,6,6,6,0,0,0,0,,,,,,,,,0,0,0,0,0,2,2,2,,,,,,,,,,,,,,,,,,,,,,,,,,,,,,,,,,,,,,,,,,,,,,,,1141.962173254,1152.246938893,,,,,,,,,,,,,,,,,,,,,,,,,,,,,,,,,,,,,,,,,,,,,,,,,,,,,,,,,,,,,,,,,022420,0,1,0,2,0,1,2,0,4,2020_Feb_24_1536,listening_fmri,3.2.4,59.94120043966396,
6,parcelated_audio/42/42_4.ogg,,,,,,,,,0,0,0,0,0,6,6,6,0,0,0,0,,,,,,,,,0,0,0,0,0,3,3,3,,,,,,,,,,,,,,,,,,,,,,,,,,,,,,,,,,,,,,,,,,,,,,,,1152.247206847,1165.9295112300001,,,,,,,,,,,,,,,,,,,,,,,,,,,,,,,,,,,,,,,,,,,,,,,,,,,,,,,,,,,,,,,,,022420,0,1,0,2,0,1,2,0,4,2020_Feb_24_1536,listening_fmri,3.2.4,59.94120043966396,
6,parcelated_audio/42/42_5.ogg,,,,,,,,,0,0,0,0,0,6,6,6,0,0,0,0,,,,,,,,,0,0,0,0,0,4,4,4,,,,,,,,,,,,,,,,,,,,,,,,,,,,,,,,,,,,,,,,,,,,,,,,1165.930201601,1177.380102473,,,,,,,,,,,,,,,,,,,,,,,,,,,,,,,,,,,,,,,,,,,,,,,,,,,,,,,,,,,,,,,,,022420,0,1,0,2,0,1,2,0,4,2020_Feb_24_1536,listening_fmri,3.2.4,59.94120043966396,
6,parcelated_audio/42/42_6.ogg,,,,,,,,,0,0,0,0,0,6,6,6,0,0,0,0,,,,,,,,,0,0,0,0,0,5,5,5,,,,,,,,,,,,,,,,,,,,,,,,,,,,,,,,,,,,,,,,,,,,,,,,1177.380413942,1183.860251274,,,,,,,,,,,,,,,,,,,,,,,,,,,,,,,,,,,,,,,,,,,,,,,,,,,,,,,,,,,,,,,,,022420,0,1,0,2,0,1,2,0,4,2020_Feb_24_1536,listening_fmri,3.2.4,59.94120043966396,
6,parcelated_audio/42/42_7.ogg,,,,,,,,,0,0,0,0,0,6,6,6,0,0,0,0,,,,,,,,,0,0,0,0,0,6,6,6,,,,,,,,,,,,,,,,,,,,,,,,,,,,,,,,,,,,,,,,,,,,,,,,1183.860589319,1189.041793002,,,,,,,,,,,,,,,,,,,,,,,,,,,,,,,,,,,,,,,,,,,,,,,,,,,,,,,,,,,,,,,,,022420,0,1,0,2,0,1,2,0,4,2020_Feb_24_1536,listening_fmri,3.2.4,59.94120043966396,
6,parcelated_audio/42/42_8.ogg,,,,,,,,,0,0,0,0,0,6,6,6,0,0,0,0,,,,,,,,,0,0,0,0,0,7,7,7,,,,,,,,,,,,,,,,,,,,,,,,,,,,,,,,,,,,,,,,,,,,,,,,1189.042128589,1192.179624161,,,,,,,,,,,,,,,,,,,,,,,,,,,,,,,,,,,,,,,,,,,,,,,,,,,,,,,,,,,,,,,,,022420,0,1,0,2,0,1,2,0,4,2020_Feb_24_1536,listening_fmri,3.2.4,59.94120043966396,
6,parcelated_audio/42/42_9.ogg,,,,,,,,,0,0,0,0,0,6,6,6,0,0,0,0,,,,,,,,,0,0,0,0,0,8,8,8,,,,,,,,,,,,,,,,,,,,,,,,,,,,,,,,,,,,,,,,,,,,,,,,1192.179897257,1200.713186017,,,,,,,,,,,,,,,,,,,,,,,,,,,,,,,,,,,,,,,,,,,,,,,,,,,,,,,,,,,,,,,,,022420,0,1,0,2,0,1,2,0,4,2020_Feb_24_1536,listening_fmri,3.2.4,59.94120043966396,
6,parcelated_audio/42/42_10.ogg,,,,,,,,,0,0,0,0,0,6,6,6,0,0,0,0,,,,,,,,,0,0,0,0,0,9,9,9,,,,,,,,,,,,,,,,,,,,,,,,,,,,,,,,,,,,,,,,,,,,,,,,1200.713459545,1205.035690688,,,,,,,,,,,,,,,,,,,,,,,,,,,,,,,,,,,,,,,,,,,,,,,,,,,,,,,,,,,,,,,,,022420,0,1,0,2,0,1,2,0,4,2020_Feb_24_1536,listening_fmri,3.2.4,59.94120043966396,
6,parcelated_audio/42/42_11.ogg,,,,,,,,,0,0,0,0,0,6,6,6,0,0,0,0,,,,,,,,,0,0,0,0,0,10,10,10,,,,,,,,,,,,,,,,,,,,,,,,,,,,,,,,,,,,,,,,,,,,,,,,1205.035958662,1210.027234823,,,,,,,,,,,,,,,,,,,,,,,,,,,,,,,,,,,,,,,,,,,,,,,,,,,,,,,,,,,,,,,,,022420,0,1,0,2,0,1,2,0,4,2020_Feb_24_1536,listening_fmri,3.2.4,59.94120043966396,
6,parcelated_audio/42/42_12.ogg,,,,,,,,,0,0,0,0,0,6,6,6,0,0,0,0,,,,,,,,,0,0,0,0,0,11,11,11,,,,,,,,,,,,,,,,,,,,,,,,,,,,,,,,,,,,,,,,,,,,,,,,1210.027501419,1215.998131217,,,,,,,,,,,,,,,,,,,,,,,,,,,,,,,,,,,,,,,,,,,,,,,,,,,,,,,,,,,,,,,,,022420,0,1,0,2,0,1,2,0,4,2020_Feb_24_1536,listening_fmri,3.2.4,59.94120043966396,
6,parcelated_audio/42/42_13.ogg,,,,,,,,,0,0,0,0,0,6,6,6,0,0,0,0,,,,,,,,,0,0,0,0,0,12,12,12,,,,,,,,,,,,,,,,,,,,,,,,,,,,,,,,,,,,,,,,,,,,,,,,1215.998498422,1223.152609708,,,,,,,,,,,,,,,,,,,,,,,,,,,,,,,,,,,,,,,,,,,,,,,,,,,,,,,,,,,,,,,,,022420,0,1,0,2,0,1,2,0,4,2020_Feb_24_1536,listening_fmri,3.2.4,59.94120043966396,
6,parcelated_audio/42/42_14.ogg,,,,,,,,,0,0,0,0,0,6,6,6,0,0,0,0,,,,,,,,,0,0,0,0,0,13,13,13,,,,,,,,,,,,,,,,,,,,,,,,,,,,,,,,,,,,,,,,,,,,,,,,1223.152879623,1227.864546209,,,,,,,,,,,,,,,,,,,,,,,,,,,,,,,,,,,,,,,,,,,,,,,,,,,,,,,,,,,,,,,,,022420,0,1,0,2,0,1,2,0,4,2020_Feb_24_1536,listening_fmri,3.2.4,59.94120043966396,
6,parcelated_audio/42/42_15.ogg,,,,,,,,,0,0,0,0,0,6,6,6,0,0,0,0,,,,,,,,,0,0,0,0,0,14,14,14,,,,,,,,,,,,,,,,,,,,,,,,,,,,,,,,,,,,,,,,,,,,,,,,1227.865174558,1233.712468302,,,,,,,,,,,,,,,,,,,,,,,,,,,,,,,,,,,,,,,,,,,,,,,,,,,,,,,,,,,,,,,,,022420,0,1,0,2,0,1,2,0,4,2020_Feb_24_1536,listening_fmri,3.2.4,59.94120043966396,
6,parcelated_audio/42/42_16.ogg,,,,,,,,,0,0,0,0,0,6,6,6,0,0,0,0,,,,,,,,,0,0,0,0,0,15,15,15,,,,,,,,,,,,,,,,,,,,,,,,,,,,,,,,,,,,,,,,,,,,,,,,1233.712738635,1239.2911380580001,,,,,,,,,,,,,,,,,,,,,,,,,,,,,,,,,,,,,,,,,,,,,,,,,,,,,,,,,,,,,,,,,022420,0,1,0,2,0,1,2,0,4,2020_Feb_24_1536,listening_fmri,3.2.4,59.94120043966396,
6,parcelated_audio/42/42_17.ogg,,,,,,,,,0,0,0,0,0,6,6,6,0,0,0,0,,,,,,,,,0,0,0,0,0,16,16,16,,,,,,,,,,,,,,,,,,,,,,,,,,,,,,,,,,,,,,,,,,,,,,,,1239.291477452,1248.98085835,,,,,,,,,,,,,,,,,,,,,,,,,,,,,,,,,,,,,,,,,,,,,,,,,,,,,,,,,,,,,,,,,022420,0,1,0,2,0,1,2,0,4,2020_Feb_24_1536,listening_fmri,3.2.4,59.94120043966396,
6,parcelated_audio/42/42_18.ogg,,,,,,,,,0,0,0,0,0,6,6,6,0,0,0,0,,,,,,,,,0,0,0,0,0,17,17,17,,,,,,,,,,,,,,,,,,,,,,,,,,,,,,,,,,,,,,,,,,,,,,,,1248.981533516,1254.400179705,,,,,,,,,,,,,,,,,,,,,,,,,,,,,,,,,,,,,,,,,,,,,,,,,,,,,,,,,,,,,,,,,022420,0,1,0,2,0,1,2,0,4,2020_Feb_24_1536,listening_fmri,3.2.4,59.94120043966396,
6,parcelated_audio/42/42_19.ogg,,,,,,,,,0,0,0,0,0,6,6,6,0,0,0,0,,,,,,,,,0,0,0,0,0,18,18,18,,,,,,,,,,,,,,,,,,,,,,,,,,,,,,,,,,,,,,,,,,,,,,,,1254.40045595,1263.545406362,,,,,,,,,,,,,,,,,,,,,,,,,,,,,,,,,,,,,,,,,,,,,,,,,,,,,,,,,,,,,,,,,022420,0,1,0,2,0,1,2,0,4,2020_Feb_24_1536,listening_fmri,3.2.4,59.94120043966396,
6,parcelated_audio/42/42_20.ogg,,,,,,,,,0,0,0,0,0,6,6,6,0,0,0,0,,,,,,,,,0,0,0,0,0,19,19,19,,,,,,,,,,,,,,,,,,,,,,,,,,,,,,,,,,,,,,,,,,,,,,,,1263.545713211,1268.191969863,,,,,,,,,,,,,,,,,,,,,,,,,,,,,,,,,,,,,,,,,,,,,,,,,,,,,,,,,,,,,,,,,022420,0,1,0,2,0,1,2,0,4,2020_Feb_24_1536,listening_fmri,3.2.4,59.94120043966396,
6,parcelated_audio/42/42_21.ogg,,,,,,,,,0,0,0,0,0,6,6,6,0,0,0,0,,,,,,,,,0,0,0,0,0,20,20,20,,,,,,,,,,,,,,,,,,,,,,,,,,,,,,,,,,,,,,,,,,,,,,,,1268.192281052,1278.106338449,,,,,,,,,,,,,,,,,,,,,,,,,,,,,,,,,,,,,,,,,,,,,,,,,,,,,,,,,,,,,,,,,022420,0,1,0,2,0,1,2,0,4,2020_Feb_24_1536,listening_fmri,3.2.4,59.94120043966396,
6,parcelated_audio/42/42_22.ogg,,,,,,,,,0,0,0,0,0,6,6,6,0,0,0,0,,,,,,,,,0,0,0,0,0,21,21,21,,,,,,,,,,,,,,,,,,,,,,,,,,,,,,,,,,,,,,,,,,,,,,,,1278.106608633,1282.86301452,,,,,,,,,,,,,,,,,,,,,,,,,,,,,,,,,,,,,,,,,,,,,,,,,,,,,,,,,,,,,,,,,022420,0,1,0,2,0,1,2,0,4,2020_Feb_24_1536,listening_fmri,3.2.4,59.94120043966396,
6,parcelated_audio/42/42_23.ogg,,,,,,,,,0,0,0,0,0,6,6,6,0,0,0,0,,,,,,,,,0,0,0,0,0,22,22,22,,,,,,,,,,,,,,,,,,,,,,,,,,,,,,,,,,,,,,,,,,,,,,,,1282.863285437,1289.084956131,,,,,,,,,,,,,,,,,,,,,,,,,,,,,,,,,,,,,,,,,,,,,,,,,,,,,,,,,,,,,,,,,022420,0,1,0,2,0,1,2,0,4,2020_Feb_24_1536,listening_fmri,3.2.4,59.94120043966396,
6,parcelated_audio/42/42_24.ogg,,,,,,,,,0,0,0,0,0,6,6,6,0,0,0,0,,,,,,,,,0,0,0,0,0,23,23,23,,,,,,,,,,,,,,,,,,,,,,,,,,,,,,,,,,,,,,,,,,,,,,,,1289.085228714,1297.543363659,,,,,,,,,,,,,,,,,,,,,,,,,,,,,,,,,,,,,,,,,,,,,,,,,,,,,,,,,,,,,,,,,022420,0,1,0,2,0,1,2,0,4,2020_Feb_24_1536,listening_fmri,3.2.4,59.94120043966396,
6,parcelated_audio/42/42_25.ogg,,,,,,,,,0,0,0,0,0,6,6,6,0,0,0,0,,,,,,,,,0,0,0,0,0,24,24,24,,,,,,,,,,,,,,,,,,,,,,,,,,,,,,,,,,,,,,,,,,,,,,,,1297.543630684,1303.759335405,,,,,,,,,,,,,,,,,,,,,,,,,,,,,,,,,,,,,,,,,,,,,,,,,,,,,,,,,,,,,,,,,022420,0,1,0,2,0,1,2,0,4,2020_Feb_24_1536,listening_fmri,3.2.4,59.94120043966396,
6,parcelated_audio/42/42_26.ogg,,,,,,,,,0,0,0,0,0,6,6,6,0,0,0,0,,,,,,,,,0,0,0,0,0,25,25,25,,,,,,,,,,,,,,,,,,,,,,,,,,,,,,,,,,,,,,,,,,,,,,,,1303.759661154,1309.644585512,,,,,,,,,,,,,,,,,,,,,,,,,,,,,,,,,,,,,,,,,,,,,,,,,,,,,,,,,,,,,,,,,022420,0,1,0,2,0,1,2,0,4,2020_Feb_24_1536,listening_fmri,3.2.4,59.94120043966396,
6,parcelated_audio/42/42_27.ogg,,,,,,,,,0,0,0,0,0,6,6,6,0,0,0,0,,,,,,,,,0,0,0,0,0,26,26,26,,,,,,,,,,,,,,,,,,,,,,,,,,,,,,,,,,,,,,,,,,,,,,,,1309.644855086,1317.316496031,,,,,,,,,,,,,,,,,,,,,,,,,,,,,,,,,,,,,,,,,,,,,,,,,,,,,,,,,,,,,,,,,022420,0,1,0,2,0,1,2,0,4,2020_Feb_24_1536,listening_fmri,3.2.4,59.94120043966396,
6,parcelated_audio/42/42_28.ogg,,,,,,,,,0,0,0,0,0,6,6,6,0,0,0,0,,,,,,,,,0,0,0,0,0,27,27,27,,,,,,,,,,,,,,,,,,,,,,,,,,,,,,,,,,,,,,,,,,,,,,,,1317.316768734,1322.976719236,,,,,,,,,,,,,,,,,,,,,,,,,,,,,,,,,,,,,,,,,,,,,,,,,,,,,,,,,,,,,,,,,022420,0,1,0,2,0,1,2,0,4,2020_Feb_24_1536,listening_fmri,3.2.4,59.94120043966396,
6,parcelated_audio/42/42_29.ogg,,,,,,,,,0,0,0,0,0,6,6,6,0,0,0,0,,,,,,,,,0,0,0,0,0,28,28,28,,,,,,,,,,,,,,,,,,,,,,,,,,,,,,,,,,,,,,,,,,,,,,,,1322.976978264,1329.873413291,,,,,,,,,,,,,,,,,,,,,,,,,,,,,,,,,,,,,,,,,,,,,,,,,,,,,,,,,,,,,,,,,022420,0,1,0,2,0,1,2,0,4,2020_Feb_24_1536,listening_fmri,3.2.4,59.94120043966396,
6,parcelated_audio/42/42_30.ogg,,,,,,,,,0,0,0,0,0,6,6,6,0,0,0,0,,,,,,,,,0,0,0,0,0,29,29,29,,,,,,,,,,,,,,,,,,,,,,,,,,,,,,,,,,,,,,,,,,,,,,,,1329.874043085,1340.758943315,,,,,,,,,,,,,,,,,,,,,,,,,,,,,,,,,,,,,,,,,,,,,,,,,,,,,,,,,,,,,,,,,022420,0,1,0,2,0,1,2,0,4,2020_Feb_24_1536,listening_fmri,3.2.4,59.94120043966396,
6,parcelated_audio/42/42_31.ogg,,,,,,,,,0,0,0,0,0,6,6,6,0,0,0,0,,,,,,,,,0,0,0,0,0,30,30,30,,,,,,,,,,,,,,,,,,,,,,,,,,,,,,,,,,,,,,,,,,,,,,,,1340.759235368,1346.947363339,,,,,,,,,,,,,,,,,,,,,,,,,,,,,,,,,,,,,,,,,,,,,,,,,,,,,,,,,,,,,,,,,022420,0,1,0,2,0,1,2,0,4,2020_Feb_24_1536,listening_fmri,3.2.4,59.94120043966396,
6,parcelated_audio/42/42_32.ogg,,,,,,,,,0,0,0,0,0,6,6,6,0,0,0,0,,,,,,,,,0,0,0,0,0,31,31,31,,,,,,,,,,,,,,,,,,,,,,,,,,,,,,,,,,,,,,,,,,,,,,,,1346.947686018,1355.10531595,,,,,,,,,,,,,,,,,,,,,,,,,,,,,,,,,,,,,,,,,,,,,,,,,,,,,,,,,,,,,,,,,022420,0,1,0,2,0,1,2,0,4,2020_Feb_24_1536,listening_fmri,3.2.4,59.94120043966396,
6,parcelated_audio/42/42_33.ogg,,,,,,,,,0,0,0,0,0,6,6,6,0,0,0,0,,,,,,,,,0,0,0,0,0,32,32,32,,,,,,,,,,,,,,,,,,,,,,,,,,,,,,,,,,,,,,,,,,,,,,,,1355.105615476,1362.158288605,,,,,,,,,,,,,,,,,,,,,,,,,,,,,,,,,,,,,,,,,,,,,,,,,,,,,,,,,,,,,,,,,022420,0,1,0,2,0,1,2,0,4,2020_Feb_24_1536,listening_fmri,3.2.4,59.94120043966396,
6,parcelated_audio/42/42_34.ogg,,,,,,,,,0,0,0,0,0,6,6,6,0,0,0,0,,,,,,,,,0,0,0,0,0,33,33,33,,,,,,,,,,,,,,,,,,,,,,,,,,,,,,,,,,,,,,,,,,,,,,,,1362.158557102,1372.875336372,,,,,,,,,,,,,,,,,,,,,,,,,,,,,,,,,,,,,,,,,,,,,,,,,,,,,,,,,,,,,,,,,022420,0,1,0,2,0,1,2,0,4,2020_Feb_24_1536,listening_fmri,3.2.4,59.94120043966396,
6,parcelated_audio/42/42_35.ogg,,,,,,,,,0,0,0,0,0,6,6,6,0,0,0,0,,,,,,,,,0,0,0,0,0,34,34,34,,,,,,,,,,,,,,,,,,,,,,,,,,,,,,,,,,,,,,,,,,,,,,,,1372.876091558,1382.632809034,,,,,,,,,,,,,,,,,,,,,,,,,,,,,,,,,,,,,,,,,,,,,,,,,,,,,,,,,,,,,,,,,022420,0,1,0,2,0,1,2,0,4,2020_Feb_24_1536,listening_fmri,3.2.4,59.94120043966396,
6,,,,,,,,,,0,0,0,0,0,6,6,6,0,0,0,0,,,,,,,,,0,0,0,0,,,,,,,,,,,,,,,,,,,,,,,,,,,,,,,,,,,,,,,,,,,,,,,,,,,,,,,,,,,,,,,,,,,,,,,,,,,,,,,,,,,,,,,,,,,,,,,,,,,,,,,,,,,,,,,,,,,,,,022420,0,1,0,2,0,1,2,0,4,2020_Feb_24_1536,listening_fmri,3.2.4,59.94120043966396,
6,,,,,,,,,,0,0,0,0,0,6,6,6,0,0,0,0,,,,,,,,,,,,,,,,,,,,,,,,,,,,,,,,,,,,,,,,,,1382.633214903,1388.627825064,1423.312044687,None,,,,,,,,,,,,,,,,,,,,,1429.311472819,None,1429.311472819,None,,,,,,,,,,,,,,,,,,,,,,,,,,,,,,,,,,,,,,,,,,,,,,,,,,,,,,,,,,,,,022420,0,1,0,2,0,1,2,0,4,2020_Feb_24_1536,listening_fmri,3.2.4,59.94120043966396,
6,,,,,,,,,,0,0,0,0,0,6,6,6,,,,,,,,,,,,,,,,,,,,,,,,,,,,,,,,,,,,,,,,,,,,,,,,,,,,,,,,,,,,,,,,,,,,,,,,,,,,,,,,,,,,,,,,,,,,,,,,,,,,,,,,,,,,,,,,,,,,,,,,,,,,,,,,,,,,,,022420,0,1,0,2,0,1,2,0,4,2020_Feb_24_1536,listening_fmri,3.2.4,59.94120043966396,
7,,,,,,,,,,0,0,0,0,0,7,7,7,0,0,0,0,0,0,0,0,,,,,,,,,,,,,,,,,0,0,0,0,,,,,,,,,,,,,,,,,,,,,,1430.333493301,None,1430.333493301,None,7,0.4007414699999572,1430.333493301,None,1430.333493301,None,,,,,,,,,,,,,,,1430.7673140260001,None,7,0.635917253000116,1430.7673140260001,None,1430.7673140260001,None,1431.482756841,None,1431.482756841,None,1431.482756841,None,7,0.5156045530000029,1431.482756841,None,1432.02822136,None,7,0.39720248300000094,1432.02822136,None,1432.02822136,None,1432.528247298,None,1432.528247298,None,1432.528247298,None,1432.528247298,None,1432.528247298,None,1432.528247298,None,1432.528247298,None,,,,,,,,,,,,,,,,,,,,,022420,0,1,0,2,0,1,2,0,4,2020_Feb_24_1536,listening_fmri,3.2.4,59.94120043966396,
7,,,,,,,,,,0,0,0,0,0,7,7,7,0,0,0,0,0,0,0,0,,,,,,,,,,,,,,,,,,,,,,,,,,,,,,,,,,,,,,,,,,,,,,,,,,,,,,,,,,,,,,,,,,,,,,,,,,,,,,,,,,,,,,,,,,,,,,,,,,,,,,,,,,1446.060831495,None,1,0.781545830999903,1446.060831495,None,1446.060831495,None,1446.876907609,None,1446.876907609,None,1446.876907609,None,1,0.26836304299990843,1446.876907609,None,,,022420,0,1,0,2,0,1,2,0,4,2020_Feb_24_1536,listening_fmri,3.2.4,59.94120043966396,
7,parcelated_audio/24/24_1.ogg,,,,,,,,,0,0,0,0,0,7,7,7,0,0,0,0,,,,,,,,,0,0,0,0,0,0,0,0,,,,,,,,,,,,,,,,,,,,,,,,,,,,,,,,,,,,,,,,1447.167179534,None,1,0.7031668049999098,1447.167179534,None,1407.224265202,1410.227398194,1410.234496167,1420.679754919,,,,,,,,,,,,,,,,,,,,,,,,,,,,,,,,,,,,,,,,,,,,,,,,,,,,,,,,,,,,,,,,,022420,0,1,0,2,0,1,2,0,4,2020_Feb_24_1536,listening_fmri,3.2.4,59.94120043966396,
7,parcelated_audio/24/24_2.ogg,,,,,,,,,0,0,0,0,0,7,7,7,0,0,0,0,,,,,,,,,0,0,0,0,0,1,1,1,,,,,,,,,,,,,,,,,,,,,,,,,,,,,,,,,,,,,,,,,,,,,,,,1420.680403253,1426.990330923,,,,,,,,,,,,,,,,,,,,,,,,,,,,,,,,,,,,,,,,,,,,,,,,,,,,,,,,,,,,,,,,,022420,0,1,0,2,0,1,2,0,4,2020_Feb_24_1536,listening_fmri,3.2.4,59.94120043966396,
7,parcelated_audio/24/24_3.ogg,,,,,,,,,0,0,0,0,0,7,7,7,0,0,0,0,,,,,,,,,0,0,0,0,0,2,2,2,,,,,,,,,,,,,,,,,,,,,,,,,,,,,,,,,,,,,,,,,,,,,,,,1426.990583081,1438.583284516,,,,,,,,,,,,,,,,,,,,,,,,,,,,,,,,,,,,,,,,,,,,,,,,,,,,,,,,,,,,,,,,,022420,0,1,0,2,0,1,2,0,4,2020_Feb_24_1536,listening_fmri,3.2.4,59.94120043966396,
7,parcelated_audio/24/24_4.ogg,,,,,,,,,0,0,0,0,0,7,7,7,0,0,0,0,,,,,,,,,0,0,0,0,0,3,3,3,,,,,,,,,,,,,,,,,,,,,,,,,,,,,,,,,,,,,,,,,,,,,,,,1438.583670933,1445.477557197,,,,,,,,,,,,,,,,,,,,,,,,,,,,,,,,,,,,,,,,,,,,,,,,,,,,,,,,,,,,,,,,,022420,0,1,0,2,0,1,2,0,4,2020_Feb_24_1536,listening_fmri,3.2.4,59.94120043966396,
7,parcelated_audio/24/24_5.ogg,,,,,,,,,0,0,0,0,0,7,7,7,0,0,0,0,,,,,,,,,0,0,0,0,0,4,4,4,,,,,,,,,,,,,,,,,,,,,,,,,,,,,,,,,,,,,,,,,,,,,,,,1445.477940327,1450.449129071,,,,,,,,,,,,,,,,,,,,,,,,,,,,,,,,,,,,,,,,,,,,,,,,,,,,,,,,,,,,,,,,,022420,0,1,0,2,0,1,2,0,4,2020_Feb_24_1536,listening_fmri,3.2.4,59.94120043966396,
7,parcelated_audio/24/24_6.ogg,,,,,,,,,0,0,0,0,0,7,7,7,0,0,0,0,,,,,,,,,0,0,0,0,0,5,5,5,,,,,,,,,,,,,,,,,,,,,,,,,,,,,,,,,,,,,,,,,,,,,,,,1450.449902587,1457.910407105,,,,,,,,,,,,,,,,,,,,,,,,,,,,,,,,,,,,,,,,,,,,,,,,,,,,,,,,,,,,,,,,,022420,0,1,0,2,0,1,2,0,4,2020_Feb_24_1536,listening_fmri,3.2.4,59.94120043966396,
7,parcelated_audio/24/24_7.ogg,,,,,,,,,0,0,0,0,0,7,7,7,0,0,0,0,,,,,,,,,0,0,0,0,0,6,6,6,,,,,,,,,,,,,,,,,,,,,,,,,,,,,,,,,,,,,,,,,,,,,,,,1457.910679628,1462.306291603,,,,,,,,,,,,,,,,,,,,,,,,,,,,,,,,,,,,,,,,,,,,,,,,,,,,,,,,,,,,,,,,,022420,0,1,0,2,0,1,2,0,4,2020_Feb_24_1536,listening_fmri,3.2.4,59.94120043966396,
7,parcelated_audio/24/24_8.ogg,,,,,,,,,0,0,0,0,0,7,7,7,0,0,0,0,,,,,,,,,0,0,0,0,0,7,7,7,,,,,,,,,,,,,,,,,,,,,,,,,,,,,,,,,,,,,,,,,,,,,,,,1462.306653876,1468.360629435,,,,,,,,,,,,,,,,,,,,,,,,,,,,,,,,,,,,,,,,,,,,,,,,,,,,,,,,,,,,,,,,,022420,0,1,0,2,0,1,2,0,4,2020_Feb_24_1536,listening_fmri,3.2.4,59.94120043966396,
7,parcelated_audio/24/24_9.ogg,,,,,,,,,0,0,0,0,0,7,7,7,0,0,0,0,,,,,,,,,0,0,0,0,0,8,8,8,,,,,,,,,,,,,,,,,,,,,,,,,,,,,,,,,,,,,,,,,,,,,,,,1468.360907568,1472.699204571,,,,,,,,,,,,,,,,,,,,,,,,,,,,,,,,,,,,,,,,,,,,,,,,,,,,,,,,,,,,,,,,,022420,0,1,0,2,0,1,2,0,4,2020_Feb_24_1536,listening_fmri,3.2.4,59.94120043966396,
7,parcelated_audio/24/24_10.ogg,,,,,,,,,0,0,0,0,0,7,7,7,0,0,0,0,,,,,,,,,0,0,0,0,0,9,9,9,,,,,,,,,,,,,,,,,,,,,,,,,,,,,,,,,,,,,,,,,,,,,,,,1472.699472779,1476.446041224,,,,,,,,,,,,,,,,,,,,,,,,,,,,,,,,,,,,,,,,,,,,,,,,,,,,,,,,,,,,,,,,,022420,0,1,0,2,0,1,2,0,4,2020_Feb_24_1536,listening_fmri,3.2.4,59.94120043966396,
7,parcelated_audio/24/24_11.ogg,,,,,,,,,0,0,0,0,0,7,7,7,0,0,0,0,,,,,,,,,0,0,0,0,0,10,10,10,,,,,,,,,,,,,,,,,,,,,,,,,,,,,,,,,,,,,,,,,,,,,,,,1476.446311201,1486.562128552,,,,,,,,,,,,,,,,,,,,,,,,,,,,,,,,,,,,,,,,,,,,,,,,,,,,,,,,,,,,,,,,,022420,0,1,0,2,0,1,2,0,4,2020_Feb_24_1536,listening_fmri,3.2.4,59.94120043966396,
7,parcelated_audio/24/24_12.ogg,,,,,,,,,0,0,0,0,0,7,7,7,0,0,0,0,,,,,,,,,0,0,0,0,0,11,11,11,,,,,,,,,,,,,,,,,,,,,,,,,,,,,,,,,,,,,,,,,,,,,,,,1486.56242546,1495.63760027,,,,,,,,,,,,,,,,,,,,,,,,,,,,,,,,,,,,,,,,,,,,,,,,,,,,,,,,,,,,,,,,,022420,0,1,0,2,0,1,2,0,4,2020_Feb_24_1536,listening_fmri,3.2.4,59.94120043966396,
7,parcelated_audio/24/24_13.ogg,,,,,,,,,0,0,0,0,0,7,7,7,0,0,0,0,,,,,,,,,0,0,0,0,0,12,12,12,,,,,,,,,,,,,,,,,,,,,,,,,,,,,,,,,,,,,,,,,,,,,,,,1495.63784823,1499.615970245,,,,,,,,,,,,,,,,,,,,,,,,,,,,,,,,,,,,,,,,,,,,,,,,,,,,,,,,,,,,,,,,,022420,0,1,0,2,0,1,2,0,4,2020_Feb_24_1536,listening_fmri,3.2.4,59.94120043966396,
7,parcelated_audio/24/24_14.ogg,,,,,,,,,0,0,0,0,0,7,7,7,0,0,0,0,,,,,,,,,0,0,0,0,0,13,13,13,,,,,,,,,,,,,,,,,,,,,,,,,,,,,,,,,,,,,,,,,,,,,,,,1499.616242771,1507.011736979,,,,,,,,,,,,,,,,,,,,,,,,,,,,,,,,,,,,,,,,,,,,,,,,,,,,,,,,,,,,,,,,,022420,0,1,0,2,0,1,2,0,4,2020_Feb_24_1536,listening_fmri,3.2.4,59.94120043966396,
7,parcelated_audio/24/24_15.ogg,,,,,,,,,0,0,0,0,0,7,7,7,0,0,0,0,,,,,,,,,0,0,0,0,0,14,14,14,,,,,,,,,,,,,,,,,,,,,,,,,,,,,,,,,,,,,,,,,,,,,,,,1507.012108694,1513.551966172,,,,,,,,,,,,,,,,,,,,,,,,,,,,,,,,,,,,,,,,,,,,,,,,,,,,,,,,,,,,,,,,,022420,0,1,0,2,0,1,2,0,4,2020_Feb_24_1536,listening_fmri,3.2.4,59.94120043966396,
7,parcelated_audio/24/24_16.ogg,,,,,,,,,0,0,0,0,0,7,7,7,0,0,0,0,,,,,,,,,0,0,0,0,0,15,15,15,,,,,,,,,,,,,,,,,,,,,,,,,,,,,,,,,,,,,,,,,,,,,,,,1513.552463569,1520.732985449,,,,,,,,,,,,,,,,,,,,,,,,,,,,,,,,,,,,,,,,,,,,,,,,,,,,,,,,,,,,,,,,,022420,0,1,0,2,0,1,2,0,4,2020_Feb_24_1536,listening_fmri,3.2.4,59.94120043966396,
7,parcelated_audio/24/24_17.ogg,,,,,,,,,0,0,0,0,0,7,7,7,0,0,0,0,,,,,,,,,0,0,0,0,0,16,16,16,,,,,,,,,,,,,,,,,,,,,,,,,,,,,,,,,,,,,,,,,,,,,,,,1520.73333264,1526.711778076,,,,,,,,,,,,,,,,,,,,,,,,,,,,,,,,,,,,,,,,,,,,,,,,,,,,,,,,,,,,,,,,,022420,0,1,0,2,0,1,2,0,4,2020_Feb_24_1536,listening_fmri,3.2.4,59.94120043966396,
7,parcelated_audio/24/24_18.ogg,,,,,,,,,0,0,0,0,0,7,7,7,0,0,0,0,,,,,,,,,0,0,0,0,0,17,17,17,,,,,,,,,,,,,,,,,,,,,,,,,,,,,,,,,,,,,,,,,,,,,,,,1526.712051816,1535.175312803,,,,,,,,,,,,,,,,,,,,,,,,,,,,,,,,,,,,,,,,,,,,,,,,,,,,,,,,,,,,,,,,,022420,0,1,0,2,0,1,2,0,4,2020_Feb_24_1536,listening_fmri,3.2.4,59.94120043966396,
7,parcelated_audio/24/24_19.ogg,,,,,,,,,0,0,0,0,0,7,7,7,0,0,0,0,,,,,,,,,0,0,0,0,0,18,18,18,,,,,,,,,,,,,,,,,,,,,,,,,,,,,,,,,,,,,,,,,,,,,,,,1535.175678285,1544.821587239,,,,,,,,,,,,,,,,,,,,,,,,,,,,,,,,,,,,,,,,,,,,,,,,,,,,,,,,,,,,,,,,,022420,0,1,0,2,0,1,2,0,4,2020_Feb_24_1536,listening_fmri,3.2.4,59.94120043966396,
7,parcelated_audio/24/24_20.ogg,,,,,,,,,0,0,0,0,0,7,7,7,0,0,0,0,,,,,,,,,0,0,0,0,0,19,19,19,,,,,,,,,,,,,,,,,,,,,,,,,,,,,,,,,,,,,,,,,,,,,,,,1544.823582954,1549.287633963,,,,,,,,,,,,,,,,,,,,,,,,,,,,,,,,,,,,,,,,,,,,,,,,,,,,,,,,,,,,,,,,,022420,0,1,0,2,0,1,2,0,4,2020_Feb_24_1536,listening_fmri,3.2.4,59.94120043966396,
7,parcelated_audio/24/24_21.ogg,,,,,,,,,0,0,0,0,0,7,7,7,0,0,0,0,,,,,,,,,0,0,0,0,0,20,20,20,,,,,,,,,,,,,,,,,,,,,,,,,,,,,,,,,,,,,,,,,,,,,,,,1549.28831652,1557.291560112,,,,,,,,,,,,,,,,,,,,,,,,,,,,,,,,,,,,,,,,,,,,,,,,,,,,,,,,,,,,,,,,,022420,0,1,0,2,0,1,2,0,4,2020_Feb_24_1536,listening_fmri,3.2.4,59.94120043966396,
7,parcelated_audio/24/24_22.ogg,,,,,,,,,0,0,0,0,0,7,7,7,0,0,0,0,,,,,,,,,0,0,0,0,0,21,21,21,,,,,,,,,,,,,,,,,,,,,,,,,,,,,,,,,,,,,,,,,,,,,,,,1557.291832211,1567.772719989,,,,,,,,,,,,,,,,,,,,,,,,,,,,,,,,,,,,,,,,,,,,,,,,,,,,,,,,,,,,,,,,,022420,0,1,0,2,0,1,2,0,4,2020_Feb_24_1536,listening_fmri,3.2.4,59.94120043966396,
7,parcelated_audio/24/24_23.ogg,,,,,,,,,0,0,0,0,0,7,7,7,0,0,0,0,,,,,,,,,0,0,0,0,0,22,22,22,,,,,,,,,,,,,,,,,,,,,,,,,,,,,,,,,,,,,,,,,,,,,,,,1567.772990581,1577.982873807,,,,,,,,,,,,,,,,,,,,,,,,,,,,,,,,,,,,,,,,,,,,,,,,,,,,,,,,,,,,,,,,,022420,0,1,0,2,0,1,2,0,4,2020_Feb_24_1536,listening_fmri,3.2.4,59.94120043966396,
7,parcelated_audio/24/24_24.ogg,,,,,,,,,0,0,0,0,0,7,7,7,0,0,0,0,,,,,,,,,0,0,0,0,0,23,23,23,,,,,,,,,,,,,,,,,,,,,,,,,,,,,,,,,,,,,,,,,,,,,,,,1577.983203601,1584.532610713,,,,,,,,,,,,,,,,,,,,,,,,,,,,,,,,,,,,,,,,,,,,,,,,,,,,,,,,,,,,,,,,,022420,0,1,0,2,0,1,2,0,4,2020_Feb_24_1536,listening_fmri,3.2.4,59.94120043966396,
7,parcelated_audio/24/24_25.ogg,,,,,,,,,0,0,0,0,0,7,7,7,0,0,0,0,,,,,,,,,0,0,0,0,0,24,24,24,,,,,,,,,,,,,,,,,,,,,,,,,,,,,,,,,,,,,,,,,,,,,,,,1584.533291153,1593.274549642,,,,,,,,,,,,,,,,,,,,,,,,,,,,,,,,,,,,,,,,,,,,,,,,,,,,,,,,,,,,,,,,,022420,0,1,0,2,0,1,2,0,4,2020_Feb_24_1536,listening_fmri,3.2.4,59.94120043966396,
7,parcelated_audio/24/24_26.ogg,,,,,,,,,0,0,0,0,0,7,7,7,0,0,0,0,,,,,,,,,0,0,0,0,0,25,25,25,,,,,,,,,,,,,,,,,,,,,,,,,,,,,,,,,,,,,,,,,,,,,,,,1593.274818351,1599.844163554,,,,,,,,,,,,,,,,,,,,,,,,,,,,,,,,,,,,,,,,,,,,,,,,,,,,,,,,,,,,,,,,,022420,0,1,0,2,0,1,2,0,4,2020_Feb_24_1536,listening_fmri,3.2.4,59.94120043966396,
7,parcelated_audio/24/24_27.ogg,,,,,,,,,0,0,0,0,0,7,7,7,0,0,0,0,,,,,,,,,0,0,0,0,0,26,26,26,,,,,,,,,,,,,,,,,,,,,,,,,,,,,,,,,,,,,,,,,,,,,,,,1599.844432014,1605.923709973,,,,,,,,,,,,,,,,,,,,,,,,,,,,,,,,,,,,,,,,,,,,,,,,,,,,,,,,,,,,,,,,,022420,0,1,0,2,0,1,2,0,4,2020_Feb_24_1536,listening_fmri,3.2.4,59.94120043966396,
7,parcelated_audio/24/24_28.ogg,,,,,,,,,0,0,0,0,0,7,7,7,0,0,0,0,,,,,,,,,0,0,0,0,0,27,27,27,,,,,,,,,,,,,,,,,,,,,,,,,,,,,,,,,,,,,,,,,,,,,,,,1605.923956198,1610.419681566,,,,,,,,,,,,,,,,,,,,,,,,,,,,,,,,,,,,,,,,,,,,,,,,,,,,,,,,,,,,,,,,,022420,0,1,0,2,0,1,2,0,4,2020_Feb_24_1536,listening_fmri,3.2.4,59.94120043966396,
7,parcelated_audio/24/24_29.ogg,,,,,,,,,0,0,0,0,0,7,7,7,0,0,0,0,,,,,,,,,0,0,0,0,0,28,28,28,,,,,,,,,,,,,,,,,,,,,,,,,,,,,,,,,,,,,,,,,,,,,,,,1610.41993072,1616.704304009,,,,,,,,,,,,,,,,,,,,,,,,,,,,,,,,,,,,,,,,,,,,,,,,,,,,,,,,,,,,,,,,,022420,0,1,0,2,0,1,2,0,4,2020_Feb_24_1536,listening_fmri,3.2.4,59.94120043966396,
7,parcelated_audio/24/24_30.ogg,,,,,,,,,0,0,0,0,0,7,7,7,0,0,0,0,,,,,,,,,0,0,0,0,0,29,29,29,,,,,,,,,,,,,,,,,,,,,,,,,,,,,,,,,,,,,,,,,,,,,,,,1616.704577753,1622.958227826,,,,,,,,,,,,,,,,,,,,,,,,,,,,,,,,,,,,,,,,,,,,,,,,,,,,,,,,,,,,,,,,,022420,0,1,0,2,0,1,2,0,4,2020_Feb_24_1536,listening_fmri,3.2.4,59.94120043966396,
7,parcelated_audio/24/24_31.ogg,,,,,,,,,0,0,0,0,0,7,7,7,0,0,0,0,,,,,,,,,0,0,0,0,0,30,30,30,,,,,,,,,,,,,,,,,,,,,,,,,,,,,,,,,,,,,,,,,,,,,,,,1622.9585673670001,1629.630358981,,,,,,,,,,,,,,,,,,,,,,,,,,,,,,,,,,,,,,,,,,,,,,,,,,,,,,,,,,,,,,,,,022420,0,1,0,2,0,1,2,0,4,2020_Feb_24_1536,listening_fmri,3.2.4,59.94120043966396,
7,parcelated_audio/24/24_32.ogg,,,,,,,,,0,0,0,0,0,7,7,7,0,0,0,0,,,,,,,,,0,0,0,0,0,31,31,31,,,,,,,,,,,,,,,,,,,,,,,,,,,,,,,,,,,,,,,,,,,,,,,,1629.630913807,1640.427398803,,,,,,,,,,,,,,,,,,,,,,,,,,,,,,,,,,,,,,,,,,,,,,,,,,,,,,,,,,,,,,,,,022420,0,1,0,2,0,1,2,0,4,2020_Feb_24_1536,listening_fmri,3.2.4,59.94120043966396,
7,,,,,,,,,,0,0,0,0,0,7,7,7,0,0,0,0,,,,,,,,,0,0,0,0,,,,,,,,,,,,,,,,,,,,,,,,,,,,,,,,,,,,,,,,,,,,,,,,,,,,,,,,,,,,,,,,,,,,,,,,,,,,,,,,,,,,,,,,,,,,,,,,,,,,,,,,,,,,,,,,,,,,,,022420,0,1,0,2,0,1,2,0,4,2020_Feb_24_1536,listening_fmri,3.2.4,59.94120043966396,
7,,,,,,,,,,0,0,0,0,0,7,7,7,0,0,0,0,,,,,,,,,,,,,,,,,,,,,,,,,,,,,,,,,,,,,,,,,,1640.427797156,1646.417442213,1681.1003132970002,None,,,,,,,,,,,,,,,,,,,,,1687.100752642,None,1687.100752642,None,,,,,,,,,,,,,,,,,,,,,,,,,,,,,,,,,,,,,,,,,,,,,,,,,,,,,,,,,,,,,022420,0,1,0,2,0,1,2,0,4,2020_Feb_24_1536,listening_fmri,3.2.4,59.94120043966396,
7,,,,,,,,,,0,0,0,0,0,7,7,7,,,,,,,,,,,,,,,,,,,,,,,,,,,,,,,,,,,,,,,,,,,,,,,,,,,,,,,,,,,,,,,,,,,,,,,,,,,,,,,,,,,,,,,,,,,,,,,,,,,,,,,,,,,,,,,,,,,,,,,,,,,,,,,,,,,,,,022420,0,1,0,2,0,1,2,0,4,2020_Feb_24_1536,listening_fmri,3.2.4,59.94120043966396,
,,,,,,,,,,0,0,0,0,,,,,,,,,,,,,,,,,,,,,,,,,,,,,,,,,,,,,,,,,,,,,,,,,,,,,,,,,,,,,,,,,,,,,,,,,,,,,,,,,,,,,,,,,,,,,,,,,,,,,,,,,,,,,,,,,,,,,,,,,,,,,,,,,,,,,,,,,,022420,0,1,0,2,0,1,2,0,4,2020_Feb_24_1536,listening_fmri,3.2.4,59.94120043966396,
,,,,,,,,,,,,,,,,,,,,,,,,,,,,,,,,,,,,,,,,,,,,,,0,0,0,0,,,,,,,,,,,,,,,,,,,,,,,,,,,,,,,,,,,,,,,,,,,,,,,,,,,,,,,,,,,,,,,,,,,,,,,,,,,,,,,,,,,,,,,,,,,,,,,,,,,,1688.132803181,None,022420,0,1,0,2,0,1,2,0,4,2020_Feb_24_1536,listening_fmri,3.2.4,59.94120043966396,
,,,,,,,,,,,,,,,,,,,,,,,,,,,,,,,,,,,,,,,,,,,,,,1,0,1,0,,,,,,,,,,,,,,,,,,,,,,,,,,,,,,,,,,,,,,,,,,,,,,,,,,,,,,,,,,,,,,,,,,,,,,,,,,,,,,,,,,,,,,,,,,,,,,,,,,,,1688.6175785320002,None,022420,0,1,0,2,0,1,2,0,4,2020_Feb_24_1536,listening_fmri,3.2.4,59.94120043966396,
,,,,,,,,,,,,,,,,,,,,,,,,,,,,,,,,,,,,,,,,,,,,,,2,0,2,0,,,,,,,,,,,,,,,,,,,,,,,,,,,,,,,,,,,,,,,,,,,,,,,,,,,,,,,,,,,,,,,,,,,,,,,,,,,,,,,,,,,,,,,,,,,,,,,,,,,,1689.1167879620002,None,022420,0,1,0,2,0,1,2,0,4,2020_Feb_24_1536,listening_fmri,3.2.4,59.94120043966396,
,,,,,,,,,,,,,,,,,,,,,,,,,,,,,,,,,,,,,,,,,,,,,,3,0,3,0,,,,,,,,,,,,,,,,,,,,,,,,,,,,,,,,,,,,,,,,,,,,,,,,,,,,,,,,,,,,,,,,,,,,,,,,,,,,,,,,,,,,,,,,,,,,,,,,,,,,1689.6168105800002,None,022420,0,1,0,2,0,1,2,0,4,2020_Feb_24_1536,listening_fmri,3.2.4,59.94120043966396,
,,,,,,,,,,,,,,,,,,,,,,,,,,,,,,,,,,,,,,,,,,,,,,4,0,4,0,,,,,,,,,,,,,,,,,,,,,,,,,,,,,,,,,,,,,,,,,,,,,,,,,,,,,,,,,,,,,,,,,,,,,,,,,,,,,,,,,,,,,,,,,,,,,,,,,,,,1690.1171299480002,None,022420,0,1,0,2,0,1,2,0,4,2020_Feb_24_1536,listening_fmri,3.2.4,59.94120043966396,
