instructText,count,trials_5.thisRepN,trials_5.thisTrialN,trials_5.thisN,trials_5.thisIndex,trials_6.thisRepN,trials_6.thisTrialN,trials_6.thisN,trials_6.thisIndex,trials.thisRepN,trials.thisTrialN,trials.thisN,trials.thisIndex,trials_8.thisRepN,trials_8.thisTrialN,trials_8.thisN,trials_8.thisIndex,story_list_block1,action_list_block1,story_list_block2,action_list_block2,key_resp_3.keys,key_resp_3.rt,key_resp_3.started,key_resp_3.stopped,text_13.started,text_13.stopped,text_23.started,text_23.stopped,text_43.started,text_43.stopped,key_resp_11.keys,key_resp_11.rt,key_resp_11.started,key_resp_11.stopped,text_44.started,text_44.stopped,text_53.started,text_53.stopped,image_10.started,image_10.stopped,text_22.started,text_22.stopped,recall,question1_answer,order of question,text_14.started,text_14.stopped,text_15.started,text_15.stopped,image_6.started,image_6.stopped,polygon_3.started,polygon_3.stopped,bottom_line_3.started,bottom_line_3.stopped,right_line_3.started,right_line_3.stopped,left_line_3.started,left_line_3.stopped,question2_answer,text_16.started,text_16.stopped,text_17.started,text_17.stopped,image_7.started,image_7.stopped,polygon_4.started,polygon_4.stopped,bottom_line_4.started,bottom_line_4.stopped,right_line_4.started,right_line_4.stopped,left_line_4.started,left_line_4.stopped,question3_answer,text_18.started,text_18.stopped,text_19.started,text_19.stopped,image_8.started,image_8.stopped,polygon_5.started,polygon_5.stopped,bottom_line_5.started,bottom_line_5.stopped,right_line_5.started,right_line_5.stopped,left_line_5.started,left_line_5.stopped,question4_answer,text_20.started,text_20.stopped,text_21.started,text_21.stopped,image_9.started,image_9.stopped,polygon_6.started,polygon_6.stopped,bottom_line_6.started,bottom_line_6.stopped,right_line_6.started,right_line_6.stopped,left_line_6.started,left_line_6.stopped,question5_answer,text_25.started,text_25.stopped,text_26.started,text_26.stopped,image_11.started,image_11.stopped,polygon_7.started,polygon_7.stopped,bottom_line_7.started,bottom_line_7.stopped,right_line_7.started,right_line_7.stopped,left_line_7.started,left_line_7.stopped,question6_answer,text_27.started,text_27.stopped,text_28.started,text_28.stopped,image_12.started,image_12.stopped,polygon_8.started,polygon_8.stopped,bottom_line_8.started,bottom_line_8.stopped,right_line_8.started,right_line_8.stopped,left_line_8.started,left_line_8.stopped,question7_answer,text_29.started,text_29.stopped,text_30.started,text_30.stopped,image_13.started,image_13.stopped,polygon_9.started,polygon_9.stopped,bottom_line_9.started,bottom_line_9.stopped,right_line_9.started,right_line_9.stopped,left_line_9.started,left_line_9.stopped,question8_answer,text_31.started,text_31.stopped,text_32.started,text_32.stopped,image_14.started,image_14.stopped,polygon_10.started,polygon_10.stopped,bottom_line_10.started,bottom_line_10.stopped,right_line_10.started,right_line_10.stopped,left_line_10.started,left_line_10.stopped,text_36.started,text_36.stopped,participant,sA,sB,lA,lB,block_struct,random_seed,date,expName,psychopyVersion,frameRate,
"In the final part of the experiment, please answer 8 questions about each story.",,0,0,0,0,,,,,,,,,,,,,[32 43 23 12 14 34 41 21],[4 2 3 1 1 4 2 3],[44 22 31 13 11 33 42 24],[4 1 2 3 3 2 4 1],space,5.8776483799993,6.451172715000212,None,6.451172715000212,None,6.451172715000212,None,,,,,,,,,,,,,,,,,,,,,,,,,,,,,,,,,,,,,,,,,,,,,,,,,,,,,,,,,,,,,,,,,,,,,,,,,,,,,,,,,,,,,,,,,,,,,,,,,,,,,,,,,,,,,,,,,,,,,,,,,,,,,,,,,,,,,,,,,,,022420,0,1,0,2,0,4,2020_Feb_24_1652,short_answer,3.2.4,59.85067436309059,
"We did not tell you to think of all or some of these questions during the story, but please do your best to answer them.",,0,1,1,1,,,,,,,,,,,,,,,,,space,5.699090072000217,12.368700785000328,None,12.368700785000328,None,12.368700785000328,None,,,,,,,,,,,,,,,,,,,,,,,,,,,,,,,,,,,,,,,,,,,,,,,,,,,,,,,,,,,,,,,,,,,,,,,,,,,,,,,,,,,,,,,,,,,,,,,,,,,,,,,,,,,,,,,,,,,,,,,,,,,,,,,,,,,,,,,,,,,022420,0,1,0,2,0,4,2020_Feb_24_1652,short_answer,3.2.4,59.85067436309059,
"Answer as much as you remember, and be specific and concrete in your answers. It is best to try to be as faithful as possible to what the story actually said.
",,0,2,2,2,,,,,,,,,,,,,,,,,space,8.958905251000033,18.102308892999645,None,18.102308892999645,None,18.102308892999645,None,,,,,,,,,,,,,,,,,,,,,,,,,,,,,,,,,,,,,,,,,,,,,,,,,,,,,,,,,,,,,,,,,,,,,,,,,,,,,,,,,,,,,,,,,,,,,,,,,,,,,,,,,,,,,,,,,,,,,,,,,,,,,,,,,,,,,,,,,,,022420,0,1,0,2,0,4,2020_Feb_24_1652,short_answer,3.2.4,59.85067436309059,
"When you have finished typing your answer, hit ‘return’ to submit your answer and move onto the next question. ",,0,3,3,3,,,,,,,,,,,,,,,,,space,5.568378635999579,27.102635369999916,None,27.102635369999916,None,27.102635369999916,None,,,,,,,,,,,,,,,,,,,,,,,,,,,,,,,,,,,,,,,,,,,,,,,,,,,,,,,,,,,,,,,,,,,,,,,,,,,,,,,,,,,,,,,,,,,,,,,,,,,,,,,,,,,,,,,,,,,,,,,,,,,,,,,,,,,,,,,,,,,022420,0,1,0,2,0,4,2020_Feb_24_1652,short_answer,3.2.4,59.85067436309059,
,0,,,,,0,0,0,0,0,0,0,0,,,,,,,,,,,,,,,,,32.71891302899985,None,space,2.3096727629999805,32.71891302899985,None,32.71891302899985,None,32.71891302899985,None,35.13561600200046,None,35.13561600200046,None,A handshake,I forget -- but i think the time was ample ... as in they were not in a rush to get to their flights,"[2, 1]",37.469563951000055,None,37.469563951000055,None,37.469563951000055,None,37.469563951000055,None,37.469563951000055,None,37.469563951000055,None,37.469563951000055,None,I couldn't hear this part too well but maybe it was the crate of wine ...,75.23492636300034,None,75.23492636300034,None,75.23492636300034,None,75.23492636300034,None,75.23492636300034,None,75.23492636300034,None,75.23492636300034,None,I can't seem to recall,103.7675192329998,None,103.7675192329998,None,103.7675192329998,None,103.7675192329998,None,103.7675192329998,None,103.7675192329998,None,103.7675192329998,None,"Business class, maybequestion",120.53533376300038,None,120.53533376300038,None,120.53533376300038,None,120.53533376300038,None,120.53533376300038,None,120.53533376300038,None,120.53533376300038,None,They both hold high positions. i can't recall the exact title but one is a buyer and other is a merchant / seller of some sort. ,140.01794476800023,None,140.01794476800023,None,140.01794476800023,None,140.01794476800023,None,140.01794476800023,None,140.01794476800023,None,140.01794476800023,None,"I forget, ten thousand question",183.28407462500036,None,183.28407462500036,None,183.28407462500036,None,183.28407462500036,None,183.28407462500036,None,183.28407462500036,None,183.28407462500036,None,Forget  / couldn't hear too well,201.46660554699974,None,201.46660554699974,None,201.46660554699974,None,201.46660554699974,None,201.46660554699974,None,201.46660554699974,None,201.46660554699974,None,A handshake,215.717327114,None,215.717327114,None,215.717327114,None,215.717327114,None,215.717327114,None,215.717327114,None,215.717327114,None,,,022420,0,1,0,2,0,4,2020_Feb_24_1652,short_answer,3.2.4,59.85067436309059,
,0,,,,,0,0,0,0,,,,,,,,,,,,,,,,,,,,,,,,,,,,,,,,,,,,,,,,,,,,,,,,,,,,,,,,,,,,,,,,,,,,,,,,,,,,,,,,,,,,,,,,,,,,,,,,,,,,,,,,,,,,,,,,,,,,,,,,,,,,,,,,,,,,,,,,,,,,,,,,,,,,,,,,,,,,,,,022420,0,1,0,2,0,4,2020_Feb_24_1652,short_answer,3.2.4,59.85067436309059,
,1,,,,,0,1,1,1,0,0,0,0,,,,,,,,,,,,,,,,,222.33276010200007,None,space,1.0300020189997667,222.33276010200007,None,222.33276010200007,None,222.33276010200007,None,223.39969763600038,None,223.39969763600038,None,"Around 4pm maybe, carina had to leave first for her bbq",Large and spacious,"[2, 1]",224.18372748399997,None,224.18372748399997,None,224.18372748399997,None,224.18372748399997,None,224.18372748399997,None,224.18372748399997,None,224.18372748399997,None,Steak and some type of alcohol i think or maybe seasoning,241.51692184399963,None,241.51692184399963,None,241.51692184399963,None,241.51692184399963,None,241.51692184399963,None,241.51692184399963,None,241.51692184399963,None,"If i recall correctly, the grocery store is rather empty ",275.79941147200043,None,275.79941147200043,None,275.79941147200043,None,275.79941147200043,None,275.79941147200043,None,275.79941147200043,None,275.79941147200043,None,The groceries are around 50$ and simon pays by credit card,312.99919168999986,None,312.99919168999986,None,312.99919168999986,None,312.99919168999986,None,312.99919168999986,None,312.99919168999986,None,312.99919168999986,None,I don't remember,329.48171304100015,None,329.48171304100015,None,329.48171304100015,None,329.48171304100015,None,329.48171304100015,None,329.48171304100015,None,329.48171304100015,None,I think carina asks simon if he thinks the meat is cute,352.5483503430005,None,352.5483503430005,None,352.5483503430005,None,352.5483503430005,None,352.5483503430005,None,352.5483503430005,None,352.5483503430005,None,They will go on a date ,418.8974266410005,None,418.8974266410005,None,418.8974266410005,None,418.8974266410005,None,418.8974266410005,None,418.8974266410005,None,418.8974266410005,None,"Around 4pm maybe, carina had to leave first for her bbq",443.480883315,None,443.480883315,None,443.480883315,None,443.480883315,None,443.480883315,None,443.480883315,None,443.480883315,None,,,022420,0,1,0,2,0,4,2020_Feb_24_1652,short_answer,3.2.4,59.85067436309059,
,1,,,,,0,1,1,1,,,,,,,,,,,,,,,,,,,,,,,,,,,,,,,,,,,,,,,,,,,,,,,,,,,,,,,,,,,,,,,,,,,,,,,,,,,,,,,,,,,,,,,,,,,,,,,,,,,,,,,,,,,,,,,,,,,,,,,,,,,,,,,,,,,,,,,,,,,,,,,,,,,,,,,,,,,,,,,022420,0,1,0,2,0,4,2020_Feb_24_1652,short_answer,3.2.4,59.85067436309059,
,2,,,,,0,2,2,2,,,,,,,,,,,,,,,,,,,,,,,,,,,,,,,,,,,,,,,,,,,,,,,,,,,,,,,,,,,,,,,,,,,,,,,,,,,,,,,,,,,,,,,,,,,,,,,,,,,,,,,,,,,,,,,,,,,,,,,,,,,,,,,,,,,,,,,,,,,,,,,,,,,,,,,,,,,,,,,022420,0,1,0,2,0,4,2020_Feb_24_1652,short_answer,3.2.4,59.85067436309059,
,3,,,,,0,3,3,3,0,0,0,0,,,,,,,,,,,,,,,,,457.712672486,None,space,1.0364171680002983,457.712672486,None,457.712672486,None,457.712672486,None,458.79684809300034,None,458.79684809300034,None,I think it was philosophy books.,"Just enough, i think, they were not in a severe rush","[2, 1]",460.330681593,None,460.330681593,None,460.330681593,None,460.330681593,None,460.330681593,None,460.330681593,None,460.330681593,None,I don't remember ... although i think calvin makes a remark about it that jessie doesn't like,488.9800566140002,None,488.9800566140002,None,488.9800566140002,None,488.9800566140002,None,488.9800566140002,None,488.9800566140002,None,488.9800566140002,None,Don't remember,511.263342536,None,511.263342536,None,511.263342536,None,511.263342536,None,511.263342536,None,511.263342536,None,511.263342536,None,They sit in economy but in different sections and so not together,516.2127419569997,None,516.2127419569997,None,516.2127419569997,None,516.2127419569997,None,516.2127419569997,None,516.2127419569997,None,516.2127419569997,None,For some time ... it sounded like she hasn't been happy for a while,533.4796984100003,None,533.4796984100003,None,533.4796984100003,None,533.4796984100003,None,533.4796984100003,None,533.4796984100003,None,533.4796984100003,None,That their personalities didn't get along,557.1290194180001,None,557.1290194180001,None,557.1290194180001,None,557.1290194180001,None,557.1290194180001,None,557.1290194180001,None,557.1290194180001,None,"At first no, because he says he likes her but if jessie really wants to then yes.",571.0288126249998,None,571.0288126249998,None,571.0288126249998,None,571.0288126249998,None,571.0288126249998,None,571.0288126249998,None,571.0288126249998,None,I think it was philosophy books.,609.1446017059998,None,609.1446017059998,None,609.1446017059998,None,609.1446017059998,None,609.1446017059998,None,609.1446017059998,None,609.1446017059998,None,,,022420,0,1,0,2,0,4,2020_Feb_24_1652,short_answer,3.2.4,59.85067436309059,
,3,,,,,0,3,3,3,,,,,,,,,,,,,,,,,,,,,,,,,,,,,,,,,,,,,,,,,,,,,,,,,,,,,,,,,,,,,,,,,,,,,,,,,,,,,,,,,,,,,,,,,,,,,,,,,,,,,,,,,,,,,,,,,,,,,,,,,,,,,,,,,,,,,,,,,,,,,,,,,,,,,,,,,,,,,,,022420,0,1,0,2,0,4,2020_Feb_24_1652,short_answer,3.2.4,59.85067436309059,
,4,,,,,0,4,4,4,0,0,0,0,,,,,,,,,,,,,,,,,620.0275830230003,None,space,0.9680749099998138,620.0275830230003,None,620.0275830230003,None,620.0275830230003,None,621.0449244929996,None,621.0449244929996,None,I don't know.,"Maybe for a while, can't remember too clearly","[1, 2]",622.7285085860003,None,622.7285085860003,None,622.7285085860003,None,622.7285085860003,None,622.7285085860003,None,622.7285085860003,None,622.7285085860003,None,That she will be studying abroad and so they will be not be together in person and so long distance is too difficult.,657.7438835940002,None,657.7438835940002,None,657.7438835940002,None,657.7438835940002,None,657.7438835940002,None,657.7438835940002,None,657.7438835940002,None,I don't think so. he says he likes her and can visit her.,747.442474556,None,747.442474556,None,747.442474556,None,747.442474556,None,747.442474556,None,747.442474556,None,747.442474556,None,A favorite sweater i think.,770.4921813050005,None,770.4921813050005,None,770.4921813050005,None,770.4921813050005,None,770.4921813050005,None,770.4921813050005,None,770.4921813050005,None,Can't remember ... ,780.9427502340004,None,780.9427502340004,None,780.9427502340004,None,780.9427502340004,None,780.9427502340004,None,780.9427502340004,None,780.9427502340004,None,I think it was on aristotle. and this is a philosophy class.,803.7757161130003,None,803.7757161130003,None,803.7757161130003,None,803.7757161130003,None,803.7757161130003,None,803.7757161130003,None,803.7757161130003,None,Aristotle.,820.4263902680004,None,820.4263902680004,None,820.4263902680004,None,820.4263902680004,None,820.4263902680004,None,820.4263902680004,None,820.4263902680004,None,I don't know.,829.0755037959998,None,829.0755037959998,None,829.0755037959998,None,829.0755037959998,None,829.0755037959998,None,829.0755037959998,None,829.0755037959998,None,,,022420,0,1,0,2,0,4,2020_Feb_24_1652,short_answer,3.2.4,59.85067436309059,
,4,,,,,0,4,4,4,,,,,,,,,,,,,,,,,,,,,,,,,,,,,,,,,,,,,,,,,,,,,,,,,,,,,,,,,,,,,,,,,,,,,,,,,,,,,,,,,,,,,,,,,,,,,,,,,,,,,,,,,,,,,,,,,,,,,,,,,,,,,,,,,,,,,,,,,,,,,,,,,,,,,,,,,,,,,,,022420,0,1,0,2,0,4,2020_Feb_24_1652,short_answer,3.2.4,59.85067436309059,
,5,,,,,0,5,5,5,0,0,0,0,,,,,,,,,,,,,,,,,842.0246793300003,None,space,1.0336658730002455,842.0246793300003,None,842.0246793300003,None,842.0246793300003,None,843.0922084160002,None,843.0922084160002,None,A hug,Modern i think,"[2, 1]",844.074916988,None,844.074916988,None,844.074916988,None,844.074916988,None,844.074916988,None,844.074916988,None,844.074916988,None,I don't remember,854.1418253230004,None,854.1418253230004,None,854.1418253230004,None,854.1418253230004,None,854.1418253230004,None,854.1418253230004,None,854.1418253230004,None,Finance maybe,859.458433152,None,859.458433152,None,859.458433152,None,859.458433152,None,859.458433152,None,859.458433152,None,859.458433152,None,I don't remember,865.0581229460004,None,865.0581229460004,None,865.0581229460004,None,865.0581229460004,None,865.0581229460004,None,865.0581229460004,None,865.0581229460004,None,One is a finance person and the other is a developer of some sort,871.2583188300005,None,871.2583188300005,None,871.2583188300005,None,871.2583188300005,None,871.2583188300005,None,871.2583188300005,None,871.2583188300005,None,2000,905.0902878480001,None,905.0902878480001,None,905.0902878480001,None,905.0902878480001,None,905.0902878480001,None,905.0902878480001,None,905.0902878480001,None,Don't remember,912.174541163,None,912.174541163,None,912.174541163,None,912.174541163,None,912.174541163,None,912.174541163,None,912.174541163,None,A hug,916.8743156460005,None,916.8743156460005,None,916.8743156460005,None,916.8743156460005,None,916.8743156460005,None,916.8743156460005,None,916.8743156460005,None,,,022420,0,1,0,2,0,4,2020_Feb_24_1652,short_answer,3.2.4,59.85067436309059,
,5,,,,,0,5,5,5,,,,,,,,,,,,,,,,,,,,,,,,,,,,,,,,,,,,,,,,,,,,,,,,,,,,,,,,,,,,,,,,,,,,,,,,,,,,,,,,,,,,,,,,,,,,,,,,,,,,,,,,,,,,,,,,,,,,,,,,,,,,,,,,,,,,,,,,,,,,,,,,,,,,,,,,,,,,,,,022420,0,1,0,2,0,4,2020_Feb_24_1652,short_answer,3.2.4,59.85067436309059,
,6,,,,,0,6,6,6,0,0,0,0,,,,,,,,,,,,,,,,,920.4567702370005,None,space,0.9059669050002412,920.4567702370005,None,920.4567702370005,None,920.4567702370005,None,921.4066025230004,None,921.4066025230004,None,Very fresh. very happy.,They are at the airport and i think james notices teresa  but not what they were holding,"[1, 2]",922.2906278290002,None,922.2906278290002,None,922.2906278290002,None,922.2906278290002,None,922.2906278290002,None,922.2906278290002,None,922.2906278290002,None,I can't remember.,1025.0895789639999,None,1025.0895789639999,None,1025.0895789639999,None,1025.0895789639999,None,1025.0895789639999,None,1025.0895789639999,None,1025.0895789639999,None,"When one of them comes back from a trip, they will meet.",1056.023431226,None,1056.023431226,None,1056.023431226,None,1056.023431226,None,1056.023431226,None,1056.023431226,None,1056.023431226,None,Departure time.,1080.255451051,None,1080.255451051,None,1080.255451051,None,1080.255451051,None,1080.255451051,None,1080.255451051,None,1080.255451051,None,This was not at a restaurant ....,1089.055387501,None,1089.055387501,None,1089.055387501,None,1089.055387501,None,1089.055387501,None,1089.055387501,None,1089.055387501,None,This was at a restaurantquestionquestion oh shoot this was the sushi placequestion,1121.3878512930005,None,1121.3878512930005,None,1121.3878512930005,None,1121.3878512930005,None,1121.3878512930005,None,1121.3878512930005,None,1121.3878512930005,None,One orders salmon with japanese beer and the other tuna with someone else.,1138.5038780100003,None,1138.5038780100003,None,1138.5038780100003,None,1138.5038780100003,None,1138.5038780100003,None,1138.5038780100003,None,1138.5038780100003,None,Very fresh. very happy.,1224.4200385430004,None,1224.4200385430004,None,1224.4200385430004,None,1224.4200385430004,None,1224.4200385430004,None,1224.4200385430004,None,1224.4200385430004,None,,,022420,0,1,0,2,0,4,2020_Feb_24_1652,short_answer,3.2.4,59.85067436309059,
,6,,,,,0,6,6,6,,,,,,,,,,,,,,,,,,,,,,,,,,,,,,,,,,,,,,,,,,,,,,,,,,,,,,,,,,,,,,,,,,,,,,,,,,,,,,,,,,,,,,,,,,,,,,,,,,,,,,,,,,,,,,,,,,,,,,,,,,,,,,,,,,,,,,,,,,,,,,,,,,,,,,,,,,,,,,,022420,0,1,0,2,0,4,2020_Feb_24_1652,short_answer,3.2.4,59.85067436309059,
,7,,,,,0,7,7,7,,,,,,,,,,,,,,,,,,,,,,,,,,,,,,,,,,,,,,,,,,,,,,,,,,,,,,,,,,,,,,,,,,,,,,,,,,,,,,,,,,,,,,,,,,,,,,,,,,,,,,,,,,,,,,,,,,,,,,,,,,,,,,,,,,,,,,,,,,,,,,,,,,,,,,,,,,,,,,,022420,0,1,0,2,0,4,2020_Feb_24_1652,short_answer,3.2.4,59.85067436309059,
,8,,,,,0,8,8,8,0,0,0,0,,,,,,,,,,,,,,,,,1235.9201239410004,None,space,0.6608378089995313,1235.9201239410004,None,1235.9201239410004,None,1235.9201239410004,None,1236.6200071020003,None,1236.6200071020003,None,4pm,"It wasn't a hall, more like a small classroom.","[2, 1]",1240.3199002820002,None,1240.3199002820002,None,1240.3199002820002,None,1240.3199002820002,None,1240.3199002820002,None,1240.3199002820002,None,1240.3199002820002,None,"I forget, and i know that leon and ariana don't remember either as they weren't paying attention",1255.6357622320002,None,1255.6357622320002,None,1255.6357622320002,None,1255.6357622320002,None,1255.6357622320002,None,1255.6357622320002,None,1255.6357622320002,None,Greek tragedy,1346.0857887270004,None,1346.0857887270004,None,1346.0857887270004,None,1346.0857887270004,None,1346.0857887270004,None,1346.0857887270004,None,1346.0857887270004,None,The two didn't really pay attention.,1359.951751175,None,1359.951751175,None,1359.951751175,None,1359.951751175,None,1359.951751175,None,1359.951751175,None,1359.951751175,None,I don't know. maybe she was holding her head high and seemed confident. ,1375.4190029580004,None,1375.4190029580004,None,1375.4190029580004,None,1375.4190029580004,None,1375.4190029580004,None,1375.4190029580004,None,1375.4190029580004,None,"Leon to ariana, hey are you from florida",1447.68389355,None,1447.68389355,None,1447.68389355,None,1447.68389355,None,1447.68389355,None,1447.68389355,None,1447.68389355,None,"Later that day, for a datesy walk",1523.766310203,None,1523.766310203,None,1523.766310203,None,1523.766310203,None,1523.766310203,None,1523.766310203,None,1523.766310203,None,4pm,1537.2830980489998,None,1537.2830980489998,None,1537.2830980489998,None,1537.2830980489998,None,1537.2830980489998,None,1537.2830980489998,None,1537.2830980489998,None,,,022420,0,1,0,2,0,4,2020_Feb_24_1652,short_answer,3.2.4,59.85067436309059,
,8,,,,,0,8,8,8,,,,,,,,,,,,,,,,,,,,,,,,,,,,,,,,,,,,,,,,,,,,,,,,,,,,,,,,,,,,,,,,,,,,,,,,,,,,,,,,,,,,,,,,,,,,,,,,,,,,,,,,,,,,,,,,,,,,,,,,,,,,,,,,,,,,,,,,,,,,,,,,,,,,,,,,,,,,,,,022420,0,1,0,2,0,4,2020_Feb_24_1652,short_answer,3.2.4,59.85067436309059,
,9,,,,,0,9,9,9,0,0,0,0,,,,,,,,,,,,,,,,,1541.6483042999998,None,space,0.8063459969998803,1541.6483042999998,None,1541.6483042999998,None,1541.6483042999998,None,1542.4994139780001,None,1542.4994139780001,None,"Don't remember, economy maybe",11 months,"[1, 2]",1543.6996273670002,None,1543.6996273670002,None,1543.6996273670002,None,1543.6996273670002,None,1543.6996273670002,None,1543.6996273670002,None,1543.6996273670002,None,Either four or five red ... maybe ... diamonds as she is avant garde,1568.6489451630005,None,1568.6489451630005,None,1568.6489451630005,None,1568.6489451630005,None,1568.6489451630005,None,1568.6489451630005,None,1568.6489451630005,None,Can't remember,1608.0147164520004,None,1608.0147164520004,None,1608.0147164520004,None,1608.0147164520004,None,1608.0147164520004,None,1608.0147164520004,None,1608.0147164520004,None,Her best friend,1639.6982567799996,None,1639.6982567799996,None,1639.6982567799996,None,1639.6982567799996,None,1639.6982567799996,None,1639.6982567799996,None,1639.6982567799996,None,Not a lot ,1643.3648185829998,None,1643.3648185829998,None,1643.3648185829998,None,1643.3648185829998,None,1643.3648185829998,None,1643.3648185829998,None,1643.3648185829998,None,He had the ring in his pocket and the security guy asked him to empty his pockets,1650.2981701959998,None,1650.2981701959998,None,1650.2981701959998,None,1650.2981701959998,None,1650.2981701959998,None,1650.2981701959998,None,1650.2981701959998,None,Don't remember,1737.9463754890003,None,1737.9463754890003,None,1737.9463754890003,None,1737.9463754890003,None,1737.9463754890003,None,1737.9463754890003,None,1737.9463754890003,None,"Don't remember, economy maybe",1741.264083307,None,1741.264083307,None,1741.264083307,None,1741.264083307,None,1741.264083307,None,1741.264083307,None,1741.264083307,None,,,022420,0,1,0,2,0,4,2020_Feb_24_1652,short_answer,3.2.4,59.85067436309059,
,9,,,,,0,9,9,9,,,,,,,,,,,,,,,,,,,,,,,,,,,,,,,,,,,,,,,,,,,,,,,,,,,,,,,,,,,,,,,,,,,,,,,,,,,,,,,,,,,,,,,,,,,,,,,,,,,,,,,,,,,,,,,,,,,,,,,,,,,,,,,,,,,,,,,,,,,,,,,,,,,,,,,,,,,,,,,022420,0,1,0,2,0,4,2020_Feb_24_1652,short_answer,3.2.4,59.85067436309059,
,10,,,,,0,10,10,10,0,0,0,0,,,,,,,,,,,,,,,,,1750.330100321,None,space,0.8367781870001636,1750.330100321,None,1750.330100321,None,1750.330100321,None,1751.2131572750004,None,1751.2131572750004,None,Handshake,"Posh, upscale","[2, 1]",1752.196745098,None,1752.196745098,None,1752.196745098,None,1752.196745098,None,1752.196745098,None,1752.196745098,None,1752.196745098,None,"Fancy, heavy, felt covered",1757.0801168070002,None,1757.0801168070002,None,1757.0801168070002,None,1757.0801168070002,None,1757.0801168070002,None,1757.0801168070002,None,1757.0801168070002,None,One orders steak and an alcholic drink and the other orders veal and an alcholic drink,1770.0126808160003,None,1770.0126808160003,None,1770.0126808160003,None,1770.0126808160003,None,1770.0126808160003,None,1770.0126808160003,None,1770.0126808160003,None,"Overcooked and maybe a bit bland, so the answer is that they didn't really like it",1788.4956588349996,None,1788.4956588349996,None,1788.4956588349996,None,1788.4956588349996,None,1788.4956588349996,None,1788.4956588349996,None,1788.4956588349996,None,Big fancy finance titles. ,1810.7969433170001,None,1810.7969433170001,None,1810.7969433170001,None,1810.7969433170001,None,1810.7969433170001,None,1810.7969433170001,None,1810.7969433170001,None,"A lot, 10,000 at least",1822.4951596700002,None,1822.4951596700002,None,1822.4951596700002,None,1822.4951596700002,None,1822.4951596700002,None,1822.4951596700002,None,1822.4951596700002,None,Don't knpw,1830.5957423170003,None,1830.5957423170003,None,1830.5957423170003,None,1830.5957423170003,None,1830.5957423170003,None,1830.5957423170003,None,1830.5957423170003,None,Handshake,1836.6958935720004,None,1836.6958935720004,None,1836.6958935720004,None,1836.6958935720004,None,1836.6958935720004,None,1836.6958935720004,None,1836.6958935720004,None,,,022420,0,1,0,2,0,4,2020_Feb_24_1652,short_answer,3.2.4,59.85067436309059,
,10,,,,,0,10,10,10,,,,,,,,,,,,,,,,,,,,,,,,,,,,,,,,,,,,,,,,,,,,,,,,,,,,,,,,,,,,,,,,,,,,,,,,,,,,,,,,,,,,,,,,,,,,,,,,,,,,,,,,,,,,,,,,,,,,,,,,,,,,,,,,,,,,,,,,,,,,,,,,,,,,,,,,,,,,,,,022420,0,1,0,2,0,4,2020_Feb_24_1652,short_answer,3.2.4,59.85067436309059,
,11,,,,,0,11,11,11,,,,,,,,,,,,,,,,,,,,,,,,,,,,,,,,,,,,,,,,,,,,,,,,,,,,,,,,,,,,,,,,,,,,,,,,,,,,,,,,,,,,,,,,,,,,,,,,,,,,,,,,,,,,,,,,,,,,,,,,,,,,,,,,,,,,,,,,,,,,,,,,,,,,,,,,,,,,,,,022420,0,1,0,2,0,4,2020_Feb_24_1652,short_answer,3.2.4,59.85067436309059,
,12,,,,,0,12,12,12,,,,,,,,,,,,,,,,,,,,,,,,,,,,,,,,,,,,,,,,,,,,,,,,,,,,,,,,,,,,,,,,,,,,,,,,,,,,,,,,,,,,,,,,,,,,,,,,,,,,,,,,,,,,,,,,,,,,,,,,,,,,,,,,,,,,,,,,,,,,,,,,,,,,,,,,,,,,,,,022420,0,1,0,2,0,4,2020_Feb_24_1652,short_answer,3.2.4,59.85067436309059,
,13,,,,,0,13,13,13,0,0,0,0,,,,,,,,,,,,,,,,,1840.778969076,None,space,0.884592123999937,1840.778969076,None,1840.778969076,None,1840.778969076,None,1841.7116908320004,None,1841.7116908320004,None,About 23$ and one of the ladies paid by a check which impressed the other.,Don't remember but pretty fancy ,"[1, 2]",1842.6291292200003,None,1842.6291292200003,None,1842.6291292200003,None,1842.6291292200003,None,1842.6291292200003,None,1842.6291292200003,None,1842.6291292200003,None,"A lot, but don't remember",1855.1281796829999,None,1855.1281796829999,None,1855.1281796829999,None,1855.1281796829999,None,1855.1281796829999,None,1855.1281796829999,None,1855.1281796829999,None,Don't remember,1864.5785211809998,None,1864.5785211809998,None,1864.5785211809998,None,1864.5785211809998,None,1864.5785211809998,None,1864.5785211809998,None,1864.5785211809998,None,"Handshake, maybe ...",1867.5452182110002,None,1867.5452182110002,None,1867.5452182110002,None,1867.5452182110002,None,1867.5452182110002,None,1867.5452182110002,None,1867.5452182110002,None,"Industrial, warehouse feel",1875.744656066,None,1875.744656066,None,1875.744656066,None,1875.744656066,None,1875.744656066,None,1875.744656066,None,1875.744656066,None,"Crackers for sure and something else, maybe a bubbly or something. can't remember if one of them bought cheese or not.",1882.4281229280004,None,1882.4281229280004,None,1882.4281229280004,None,1882.4281229280004,None,1882.4281229280004,None,1882.4281229280004,None,1882.4281229280004,None,Very busy day actually. but forget the quantity or which lane.,1906.9111030599997,None,1906.9111030599997,None,1906.9111030599997,None,1906.9111030599997,None,1906.9111030599997,None,1906.9111030599997,None,1906.9111030599997,None,About 23$ and one of the ladies paid by a check which impressed the other.,1929.7273210889998,None,1929.7273210889998,None,1929.7273210889998,None,1929.7273210889998,None,1929.7273210889998,None,1929.7273210889998,None,1929.7273210889998,None,,,022420,0,1,0,2,0,4,2020_Feb_24_1652,short_answer,3.2.4,59.85067436309059,
,13,,,,,0,13,13,13,,,,,,,,,,,,,,,,,,,,,,,,,,,,,,,,,,,,,,,,,,,,,,,,,,,,,,,,,,,,,,,,,,,,,,,,,,,,,,,,,,,,,,,,,,,,,,,,,,,,,,,,,,,,,,,,,,,,,,,,,,,,,,,,,,,,,,,,,,,,,,,,,,,,,,,,,,,,,,,022420,0,1,0,2,0,4,2020_Feb_24_1652,short_answer,3.2.4,59.85067436309059,
,14,,,,,0,14,14,14,0,0,0,0,,,,,,,,,,,,,,,,,1952.1268191199997,None,space,0.6121175400003267,1952.1268191199997,None,1952.1268191199997,None,1952.1268191199997,None,1952.7775335389997,None,1952.7775335389997,None,Anna has to go ,Not a lot,"[2, 1]",1953.6282316180004,None,1953.6282316180004,None,1953.6282316180004,None,1953.6282316180004,None,1953.6282316180004,None,1953.6282316180004,None,1953.6282316180004,None,Don't remember,1994.0106364120002,None,1994.0106364120002,None,1994.0106364120002,None,1994.0106364120002,None,1994.0106364120002,None,1994.0106364120002,None,1994.0106364120002,None,Anna's gate,2001.926692905,None,2001.926692905,None,2001.926692905,None,2001.926692905,None,2001.926692905,None,2001.926692905,None,2001.926692905,None,"Anna gets on the flight, not david",2007.32608455,None,2007.32608455,None,2007.32608455,None,2007.32608455,None,2007.32608455,None,2007.32608455,None,2007.32608455,None,Can't recall,2013.4601247319997,None,2013.4601247319997,None,2013.4601247319997,None,2013.4601247319997,None,2013.4601247319997,None,2013.4601247319997,None,2013.4601247319997,None,Can't recall either,2020.192562067,None,2020.192562067,None,2020.192562067,None,2020.192562067,None,2020.192562067,None,2020.192562067,None,2020.192562067,None,"For a date, and it will be when one of them returns.",2031.7435366560003,None,2031.7435366560003,None,2031.7435366560003,None,2031.7435366560003,None,2031.7435366560003,None,2031.7435366560003,None,2031.7435366560003,None,Anna has to go ,2062.059185397,None,2062.059185397,None,2062.059185397,None,2062.059185397,None,2062.059185397,None,2062.059185397,None,2062.059185397,None,,,022420,0,1,0,2,0,4,2020_Feb_24_1652,short_answer,3.2.4,59.85067436309059,
,14,,,,,0,14,14,14,,,,,,,,,,,,,,,,,,,,,,,,,,,,,,,,,,,,,,,,,,,,,,,,,,,,,,,,,,,,,,,,,,,,,,,,,,,,,,,,,,,,,,,,,,,,,,,,,,,,,,,,,,,,,,,,,,,,,,,,,,,,,,,,,,,,,,,,,,,,,,,,,,,,,,,,,,,,,,,022420,0,1,0,2,0,4,2020_Feb_24_1652,short_answer,3.2.4,59.85067436309059,
,15,,,,,0,15,15,15,0,0,0,0,,,,,,,,,,,,,,,,,2069.057992111,None,space,0.6280336210002133,2069.057992111,None,2069.057992111,None,2069.057992111,None,2069.725893664,None,2069.725893664,None,Sister,"Princeton, one of the fanciest or largest ones","[2, 1]",2070.7765730439996,None,2070.7765730439996,None,2070.7765730439996,None,2070.7765730439996,None,2070.7765730439996,None,2070.7765730439996,None,2070.7765730439996,None,"Chemistry, ions",2094.309195308,None,2094.309195308,None,2094.309195308,None,2094.309195308,None,2094.309195308,None,2094.309195308,None,2094.309195308,None,Ions and protons,2097.7412839770004,None,2097.7412839770004,None,2097.7412839770004,None,2097.7412839770004,None,2097.7412839770004,None,2097.7412839770004,None,2097.7412839770004,None,Don't remember,2103.6581204490003,None,2103.6581204490003,None,2103.6581204490003,None,2103.6581204490003,None,2103.6581204490003,None,2103.6581204490003,None,2103.6581204490003,None,Three years since freshman year,2108.3916560730004,None,2108.3916560730004,None,2108.3916560730004,None,2108.3916560730004,None,2108.3916560730004,None,2108.3916560730004,None,2108.3916560730004,None,Don't remember,2115.2588592740003,None,2115.2588592740003,None,2115.2588592740003,None,2115.2588592740003,None,2115.2588592740003,None,2115.2588592740003,None,2115.2588592740003,None,Notebook or notecard ...,2119.3086720660003,None,2119.3086720660003,None,2119.3086720660003,None,2119.3086720660003,None,2119.3086720660003,None,2119.3086720660003,None,2119.3086720660003,None,Sister,2127.308687029,None,2127.308687029,None,2127.308687029,None,2127.308687029,None,2127.308687029,None,2127.308687029,None,2127.308687029,None,,,022420,0,1,0,2,0,4,2020_Feb_24_1652,short_answer,3.2.4,59.85067436309059,
,15,,,,,0,15,15,15,,,,,,,,,,,,,,,,,,,,,,,,,,,,,,,,,,,,,,,,,,,,,,,,,,,,,,,,,,,,,,,,,,,,,,,,,,,,,,,,,,,,,,,,,,,,,,,,,,,,,,,,,,,,,,,,,,,,,,,,,,,,,,,,,,,,,,,,,,,,,,,,,,,,,,,,,,,,,,,022420,0,1,0,2,0,4,2020_Feb_24_1652,short_answer,3.2.4,59.85067436309059,
,,,,,,,,,,,,,,0,0,0,0,,,,,,,,,,,,,,,,,,,,,,,,,,,,,,,,,,,,,,,,,,,,,,,,,,,,,,,,,,,,,,,,,,,,,,,,,,,,,,,,,,,,,,,,,,,,,,,,,,,,,,,,,,,,,,,,,,,,,,,,,,,,,,,,,,,,,,,,,,,,,,,,,,,,,2129.6745961220004,None,022420,0,1,0,2,0,4,2020_Feb_24_1652,short_answer,3.2.4,59.85067436309059,
