Q1,Q2,Q3,Q4,D1,D2,roleName,rolePic,trials.thisRepN,trials.thisTrialN,trials.thisN,trials.thisIndex,text_18.started,text_18.stopped,image_9.started,image_9.stopped,key_resp_14.keys,key_resp_14.rt,key_resp_14.started,key_resp_14.stopped,text_8.started,text_8.stopped,text_9.started,text_9.stopped,image_5.started,image_5.stopped,key_resp_10.keys,key_resp_10.rt,key_resp_10.started,key_resp_10.stopped,text_10.started,text_10.stopped,text_11.started,text_11.stopped,image_6.started,image_6.stopped,key_resp_11.keys,key_resp_11.rt,key_resp_11.started,key_resp_11.stopped,text_13.started,text_13.stopped,text_14.started,text_14.stopped,image_7.started,image_7.stopped,key_resp_12.keys,key_resp_12.rt,key_resp_12.started,key_resp_12.stopped,text_15.started,text_15.stopped,text_16.started,text_16.stopped,image_8.started,image_8.stopped,key_resp_13.keys,key_resp_13.rt,key_resp_13.started,key_resp_13.stopped,text_5.started,text_5.stopped,key_resp_4.keys,key_resp_4.rt,key_resp_4.started,key_resp_4.stopped,participant,sA,sB,date,expName,psychopyVersion,frameRate,
For how long has the initiator of the breakup been thinking about breaking up with his/her partner?,"What is the initial reason stated by the initiator for why he/she is breaking up?
","Does the person who is being broken up with want to break up, and what’s the reason stated by them for this?",Who wants what items back as a result of the breakup?,Does the person being broken up with expect that this is coming?,Who witnesses the breakup?,"Couples Therapist
",jobphotos/couples.jpg,0,0,0,0,10.763981580967084,None,10.763981580967084,None,space,1.0655324088875204,10.763981580967084,None,,,,,,,,,,,,,,,,,,,,,,,,,,,,,,,,,,,,,,,,,,,,,,,alex,0,2,2020_Jan_07_1550,training_fmri,3.2.1,59.998523536149975,
For how long has the initiator of the breakup been thinking about breaking up with his/her partner?,"What is the initial reason stated by the initiator for why he/she is breaking up?
","Does the person who is being broken up with want to break up, and what’s the reason stated by them for this?",Who wants what items back as a result of the breakup?,Does the person being broken up with expect that this is coming?,Who witnesses the breakup?,"Couples Therapist
",jobphotos/couples.jpg,0,0,0,0,,,,,,,,,11.930712725035846,None,11.930712725035846,None,11.930712725035846,None,space,0.4306453410536051,11.930712725035846,None,,,,,,,,,,,,,,,,,,,,,,,,,,,,,,,,,,,,,alex,0,2,2020_Jan_07_1550,training_fmri,3.2.1,59.998523536149975,
For how long has the initiator of the breakup been thinking about breaking up with his/her partner?,"What is the initial reason stated by the initiator for why he/she is breaking up?
","Does the person who is being broken up with want to break up, and what’s the reason stated by them for this?",Who wants what items back as a result of the breakup?,Does the person being broken up with expect that this is coming?,Who witnesses the breakup?,"Couples Therapist
",jobphotos/couples.jpg,0,0,0,0,,,,,,,,,,,,,,,,,,,12.447527742013335,None,12.447527742013335,None,12.447527742013335,None,space,0.2199587500654161,12.447527742013335,None,,,,,,,,,,,,,,,,,,,,,,,,,,,alex,0,2,2020_Jan_07_1550,training_fmri,3.2.1,59.998523536149975,
For how long has the initiator of the breakup been thinking about breaking up with his/her partner?,"What is the initial reason stated by the initiator for why he/she is breaking up?
","Does the person who is being broken up with want to break up, and what’s the reason stated by them for this?",Who wants what items back as a result of the breakup?,Does the person being broken up with expect that this is coming?,Who witnesses the breakup?,"Couples Therapist
",jobphotos/couples.jpg,0,0,0,0,,,,,,,,,,,,,,,,,,,,,,,,,,,,,12.780910451896489,None,12.780910451896489,None,12.780910451896489,None,space,0.15136671299114823,12.780910451896489,None,,,,,,,,,,,,,,,,,alex,0,2,2020_Jan_07_1550,training_fmri,3.2.1,59.998523536149975,
For how long has the initiator of the breakup been thinking about breaking up with his/her partner?,"What is the initial reason stated by the initiator for why he/she is breaking up?
","Does the person who is being broken up with want to break up, and what’s the reason stated by them for this?",Who wants what items back as a result of the breakup?,Does the person being broken up with expect that this is coming?,Who witnesses the breakup?,"Couples Therapist
",jobphotos/couples.jpg,0,0,0,0,,,,,,,,,,,,,,,,,,,,,,,,,,,,,,,,,,,,,,,13.030849349917844,None,13.030849349917844,None,13.030849349917844,None,space,0.13662134297192097,13.030849349917844,None,,,,,,,alex,0,2,2020_Jan_07_1550,training_fmri,3.2.1,59.998523536149975,
For how long has the initiator of the breakup been thinking about breaking up with his/her partner?,"What is the initial reason stated by the initiator for why he/she is breaking up?
","Does the person who is being broken up with want to break up, and what’s the reason stated by them for this?",Who wants what items back as a result of the breakup?,Does the person being broken up with expect that this is coming?,Who witnesses the breakup?,"Couples Therapist
",jobphotos/couples.jpg,0,0,0,0,,,,,,,,,,,,,,,,,,,,,,,,,,,,,,,,,,,,,,,,,,,,,,,,,13.197537551866844,None,space,0.1947267430368811,13.197537551866844,None,alex,0,2,2020_Jan_07_1550,training_fmri,3.2.1,59.998523536149975,
For how long has the initiator of the breakup been thinking about breaking up with his/her partner?,"What is the initial reason stated by the initiator for why he/she is breaking up?
","Does the person who is being broken up with want to break up, and what’s the reason stated by them for this?",Who wants what items back as a result of the breakup?,Does the person being broken up with expect that this is coming?,Who witnesses the breakup?,"Couples Therapist
",jobphotos/couples.jpg,0,0,0,0,,,,,,,,,,,,,,,,,,,,,,,,,,,,,,,,,,,,,,,,,,,,,,,,,,,,,,,alex,0,2,2020_Jan_07_1550,training_fmri,3.2.1,59.998523536149975,
