instructText,count,trials_5.thisRepN,trials_5.thisTrialN,trials_5.thisN,trials_5.thisIndex,trials_6.thisRepN,trials_6.thisTrialN,trials_6.thisN,trials_6.thisIndex,trials.thisRepN,trials.thisTrialN,trials.thisN,trials.thisIndex,trials_8.thisRepN,trials_8.thisTrialN,trials_8.thisN,trials_8.thisIndex,story_list_block1,action_list_block1,story_list_block2,action_list_block2,key_resp_3.keys,key_resp_3.rt,key_resp_3.started,key_resp_3.stopped,text_13.started,text_13.stopped,text_23.started,text_23.stopped,text_43.started,text_43.stopped,key_resp_11.keys,key_resp_11.rt,key_resp_11.started,key_resp_11.stopped,text_44.started,text_44.stopped,image_10.started,image_10.stopped,text_22.started,text_22.stopped,recall,question1_answer,order of question,text_14.started,text_14.stopped,text_15.started,text_15.stopped,image_6.started,image_6.stopped,polygon_3.started,polygon_3.stopped,bottom_line_3.started,bottom_line_3.stopped,right_line_3.started,right_line_3.stopped,left_line_3.started,left_line_3.stopped,question2_answer,text_16.started,text_16.stopped,text_17.started,text_17.stopped,image_7.started,image_7.stopped,polygon_4.started,polygon_4.stopped,bottom_line_4.started,bottom_line_4.stopped,right_line_4.started,right_line_4.stopped,left_line_4.started,left_line_4.stopped,question3_answer,text_18.started,text_18.stopped,text_19.started,text_19.stopped,image_8.started,image_8.stopped,polygon_5.started,polygon_5.stopped,bottom_line_5.started,bottom_line_5.stopped,right_line_5.started,right_line_5.stopped,left_line_5.started,left_line_5.stopped,question4_answer,text_20.started,text_20.stopped,text_21.started,text_21.stopped,image_9.started,image_9.stopped,polygon_6.started,polygon_6.stopped,bottom_line_6.started,bottom_line_6.stopped,right_line_6.started,right_line_6.stopped,left_line_6.started,left_line_6.stopped,question5_answer,text_25.started,text_25.stopped,text_26.started,text_26.stopped,image_11.started,image_11.stopped,polygon_7.started,polygon_7.stopped,bottom_line_7.started,bottom_line_7.stopped,right_line_7.started,right_line_7.stopped,left_line_7.started,left_line_7.stopped,question6_answer,text_27.started,text_27.stopped,text_28.started,text_28.stopped,image_12.started,image_12.stopped,polygon_8.started,polygon_8.stopped,bottom_line_8.started,bottom_line_8.stopped,right_line_8.started,right_line_8.stopped,left_line_8.started,left_line_8.stopped,question7_answer,text_29.started,text_29.stopped,text_30.started,text_30.stopped,image_13.started,image_13.stopped,polygon_9.started,polygon_9.stopped,bottom_line_9.started,bottom_line_9.stopped,right_line_9.started,right_line_9.stopped,left_line_9.started,left_line_9.stopped,question8_answer,text_31.started,text_31.stopped,text_32.started,text_32.stopped,image_14.started,image_14.stopped,polygon_10.started,polygon_10.stopped,bottom_line_10.started,bottom_line_10.stopped,right_line_10.started,right_line_10.stopped,left_line_10.started,left_line_10.stopped,text_36.started,text_36.stopped,participant,sA,sB,lA,lB,block_struct,random_seed,date,expName,psychopyVersion,frameRate,
"In the final part of the experiment, please answer 8 questions about each story.",,0,0,0,0,,,,,,,,,,,,,[31 13 42 22 24 44 33 11],[2 1 2 3 1 4 4 3],[34 43 32 41 23 14 12 21],[4 4 2 2 1 1 3 3],space,8.000748394002585,5.518590938998386,None,5.518590938998386,None,5.518590938998386,None,,,,,,,,,,,,,,,,,,,,,,,,,,,,,,,,,,,,,,,,,,,,,,,,,,,,,,,,,,,,,,,,,,,,,,,,,,,,,,,,,,,,,,,,,,,,,,,,,,,,,,,,,,,,,,,,,,,,,,,,,,,,,,,,,,,,,,,,,k,0,1,0,1,1,2,2020_Feb_13_1323,body_behavioural,3.2.4,59.875643438585385,
"We did not tell you to think of all or some of these questions during the story, but please do your best to answer them.",,0,1,1,1,,,,,,,,,,,,,,,,,space,0.540005516999372,13.568983686000138,None,13.568983686000138,None,13.568983686000138,None,,,,,,,,,,,,,,,,,,,,,,,,,,,,,,,,,,,,,,,,,,,,,,,,,,,,,,,,,,,,,,,,,,,,,,,,,,,,,,,,,,,,,,,,,,,,,,,,,,,,,,,,,,,,,,,,,,,,,,,,,,,,,,,,,,,,,,,,,k,0,1,0,1,1,2,2020_Feb_13_1323,body_behavioural,3.2.4,59.875643438585385,
"Answer as much as you remember, and be specific and concrete in your answers. It is best to try to be as faithful as possible to what the story actually said.
",,0,2,2,2,,,,,,,,,,,,,,,,,space,0.3711477540018677,14.152795493999292,None,14.152795493999292,None,14.152795493999292,None,,,,,,,,,,,,,,,,,,,,,,,,,,,,,,,,,,,,,,,,,,,,,,,,,,,,,,,,,,,,,,,,,,,,,,,,,,,,,,,,,,,,,,,,,,,,,,,,,,,,,,,,,,,,,,,,,,,,,,,,,,,,,,,,,,,,,,,,,k,0,1,0,1,1,2,2020_Feb_13_1323,body_behavioural,3.2.4,59.875643438585385,
"When you have finished typing your answer, hit ‘return’ to submit your answer and move onto the next question. ",,0,3,3,3,,,,,,,,,,,,,,,,,space,0.3128840339995804,14.568956593000621,None,14.568956593000621,None,14.568956593000621,None,,,,,,,,,,,,,,,,,,,,,,,,,,,,,,,,,,,,,,,,,,,,,,,,,,,,,,,,,,,,,,,,,,,,,,,,,,,,,,,,,,,,,,,,,,,,,,,,,,,,,,,,,,,,,,,,,,,,,,,,,,,,,,,,,,,,,,,,,k,0,1,0,1,1,2,2020_Feb_13_1323,body_behavioural,3.2.4,59.875643438585385,
,0,,,,,0,0,0,0,0,0,0,0,,,,,,,,,,,,,,,,,14.901387646998046,None,space,0.4414487670001108,14.901387646998046,None,14.901387646998046,None,15.419686401000945,None,15.419686401000945,None,K,K,"[2, 1]",15.902781722001237,None,15.902781722001237,None,15.902781722001237,None,15.902781722001237,None,15.902781722001237,None,15.902781722001237,None,15.902781722001237,None,K,16.93546164700092,None,16.93546164700092,None,16.93546164700092,None,16.93546164700092,None,16.93546164700092,None,16.93546164700092,None,16.93546164700092,None,K,17.585142995998467,None,17.585142995998467,None,17.585142995998467,None,17.585142995998467,None,17.585142995998467,None,17.585142995998467,None,17.585142995998467,None,K,18.202287414998864,None,18.202287414998864,None,18.202287414998864,None,18.202287414998864,None,18.202287414998864,None,18.202287414998864,None,18.202287414998864,None,K,18.83537778200116,None,18.83537778200116,None,18.83537778200116,None,18.83537778200116,None,18.83537778200116,None,18.83537778200116,None,18.83537778200116,None,K,19.418370078998123,None,19.418370078998123,None,19.418370078998123,None,19.418370078998123,None,19.418370078998123,None,19.418370078998123,None,19.418370078998123,None,K,20.01959107500079,None,20.01959107500079,None,20.01959107500079,None,20.01959107500079,None,20.01959107500079,None,20.01959107500079,None,20.01959107500079,None,K,20.568284722998214,None,20.568284722998214,None,20.568284722998214,None,20.568284722998214,None,20.568284722998214,None,20.568284722998214,None,20.568284722998214,None,,,k,0,1,0,1,1,2,2020_Feb_13_1323,body_behavioural,3.2.4,59.875643438585385,
,0,,,,,0,0,0,0,,,,,,,,,,,,,,,,,,,,,,,,,,,,,,,,,,,,,,,,,,,,,,,,,,,,,,,,,,,,,,,,,,,,,,,,,,,,,,,,,,,,,,,,,,,,,,,,,,,,,,,,,,,,,,,,,,,,,,,,,,,,,,,,,,,,,,,,,,,,,,,,,,,,,,,,,,,,,k,0,1,0,1,1,2,2020_Feb_13_1323,body_behavioural,3.2.4,59.875643438585385,
,1,,,,,0,1,1,1,0,0,0,0,,,,,,,,,,,,,,,,,20.985097444998246,None,space,0.624468320998858,20.985097444998246,None,20.985097444998246,None,21.651974966000125,None,21.651974966000125,None,,,"[2, 1]",22.152547457000765,None,22.152547457000765,None,22.152547457000765,None,22.152547457000765,None,22.152547457000765,None,22.152547457000765,None,22.152547457000765,None,,22.418714906998503,None,22.418714906998503,None,22.418714906998503,None,22.418714906998503,None,22.418714906998503,None,22.418714906998503,None,22.418714906998503,None,,22.60352350500034,None,22.60352350500034,None,22.60352350500034,None,22.60352350500034,None,22.60352350500034,None,22.60352350500034,None,22.60352350500034,None,,22.75245169700065,None,22.75245169700065,None,22.75245169700065,None,22.75245169700065,None,22.75245169700065,None,22.75245169700065,None,22.75245169700065,None,,22.91930764800054,None,22.91930764800054,None,22.91930764800054,None,22.91930764800054,None,22.91930764800054,None,22.91930764800054,None,22.91930764800054,None,,23.002746804999333,None,23.002746804999333,None,23.002746804999333,None,23.002746804999333,None,23.002746804999333,None,23.002746804999333,None,23.002746804999333,None,,23.17038892399796,None,23.17038892399796,None,23.17038892399796,None,23.17038892399796,None,23.17038892399796,None,23.17038892399796,None,23.17038892399796,None,,23.285071342001174,None,23.285071342001174,None,23.285071342001174,None,23.285071342001174,None,23.285071342001174,None,23.285071342001174,None,23.285071342001174,None,,,k,0,1,0,1,1,2,2020_Feb_13_1323,body_behavioural,3.2.4,59.875643438585385,
,1,,,,,0,1,1,1,,,,,,,,,,,,,,,,,,,,,,,,,,,,,,,,,,,,,,,,,,,,,,,,,,,,,,,,,,,,,,,,,,,,,,,,,,,,,,,,,,,,,,,,,,,,,,,,,,,,,,,,,,,,,,,,,,,,,,,,,,,,,,,,,,,,,,,,,,,,,,,,,,,,,,,,,,,,,k,0,1,0,1,1,2,2020_Feb_13_1323,body_behavioural,3.2.4,59.875643438585385,
,2,,,,,0,2,2,2,0,0,0,0,,,,,,,,,,,,,,,,,23.436503534998337,None,space,0.4689721719987574,23.436503534998337,None,23.436503534998337,None,23.95313971900032,None,23.95313971900032,None,,,"[2, 1]",24.085976711001422,None,24.085976711001422,None,24.085976711001422,None,24.085976711001422,None,24.085976711001422,None,24.085976711001422,None,24.085976711001422,None,,24.40227451499959,None,24.40227451499959,None,24.40227451499959,None,24.40227451499959,None,24.40227451499959,None,24.40227451499959,None,24.40227451499959,None,,24.63569291100066,None,24.63569291100066,None,24.63569291100066,None,24.63569291100066,None,24.63569291100066,None,24.63569291100066,None,24.63569291100066,None,,24.785537214000215,None,24.785537214000215,None,24.785537214000215,None,24.785537214000215,None,24.785537214000215,None,24.785537214000215,None,24.785537214000215,None,,24.969641779000085,None,24.969641779000085,None,24.969641779000085,None,24.969641779000085,None,24.969641779000085,None,24.969641779000085,None,24.969641779000085,None,,25.102751425998576,None,25.102751425998576,None,25.102751425998576,None,25.102751425998576,None,25.102751425998576,None,25.102751425998576,None,25.102751425998576,None,,25.26839665499938,None,25.26839665499938,None,25.26839665499938,None,25.26839665499938,None,25.26839665499938,None,25.26839665499938,None,25.26839665499938,None,,25.585377177998453,None,25.585377177998453,None,25.585377177998453,None,25.585377177998453,None,25.585377177998453,None,25.585377177998453,None,25.585377177998453,None,,,k,0,1,0,1,1,2,2020_Feb_13_1323,body_behavioural,3.2.4,59.875643438585385,
,2,,,,,0,2,2,2,,,,,,,,,,,,,,,,,,,,,,,,,,,,,,,,,,,,,,,,,,,,,,,,,,,,,,,,,,,,,,,,,,,,,,,,,,,,,,,,,,,,,,,,,,,,,,,,,,,,,,,,,,,,,,,,,,,,,,,,,,,,,,,,,,,,,,,,,,,,,,,,,,,,,,,,,,,,,k,0,1,0,1,1,2,2020_Feb_13_1323,body_behavioural,3.2.4,59.875643438585385,
,3,,,,,0,3,3,3,,,,,,,,,,,,,,,,,,,,,,,,,,,,,,,,,,,,,,,,,,,,,,,,,,,,,,,,,,,,,,,,,,,,,,,,,,,,,,,,,,,,,,,,,,,,,,,,,,,,,,,,,,,,,,,,,,,,,,,,,,,,,,,,,,,,,,,,,,,,,,,,,,,,,,,,,,,,,k,0,1,0,1,1,2,2020_Feb_13_1323,body_behavioural,3.2.4,59.875643438585385,
,4,,,,,0,4,4,4,0,0,0,0,,,,,,,,,,,,,,,,,25.73582904199793,None,space,0.3037965969997458,25.73582904199793,None,25.73582904199793,None,26.08643623899843,None,26.08643623899843,None,,   ,"[1, 2]",26.269012894001207,None,26.269012894001207,None,26.269012894001207,None,26.269012894001207,None,26.269012894001207,None,26.269012894001207,None,26.269012894001207,None,,26.835521349999908,None,26.835521349999908,None,26.835521349999908,None,26.835521349999908,None,26.835521349999908,None,26.835521349999908,None,26.835521349999908,None,,26.969337778999034,None,26.969337778999034,None,26.969337778999034,None,26.969337778999034,None,26.969337778999034,None,26.969337778999034,None,26.969337778999034,None,,27.152683489999617,None,27.152683489999617,None,27.152683489999617,None,27.152683489999617,None,27.152683489999617,None,27.152683489999617,None,27.152683489999617,None,,27.318986154001323,None,27.318986154001323,None,27.318986154001323,None,27.318986154001323,None,27.318986154001323,None,27.318986154001323,None,27.318986154001323,None,,27.486648081001476,None,27.486648081001476,None,27.486648081001476,None,27.486648081001476,None,27.486648081001476,None,27.486648081001476,None,27.486648081001476,None,,27.952892569999676,None,27.952892569999676,None,27.952892569999676,None,27.952892569999676,None,27.952892569999676,None,27.952892569999676,None,27.952892569999676,None,,28.13586221800142,None,28.13586221800142,None,28.13586221800142,None,28.13586221800142,None,28.13586221800142,None,28.13586221800142,None,28.13586221800142,None,,,k,0,1,0,1,1,2,2020_Feb_13_1323,body_behavioural,3.2.4,59.875643438585385,
,4,,,,,0,4,4,4,,,,,,,,,,,,,,,,,,,,,,,,,,,,,,,,,,,,,,,,,,,,,,,,,,,,,,,,,,,,,,,,,,,,,,,,,,,,,,,,,,,,,,,,,,,,,,,,,,,,,,,,,,,,,,,,,,,,,,,,,,,,,,,,,,,,,,,,,,,,,,,,,,,,,,,,,,,,,k,0,1,0,1,1,2,2020_Feb_13_1323,body_behavioural,3.2.4,59.875643438585385,
,5,,,,,0,5,5,5,0,0,0,0,,,,,,,,,,,,,,,,,28.268664744999114,None,space,0.4068340279991389,28.268664744999114,None,28.268664744999114,None,28.719706536001468,None,28.719706536001468,None,,  ,"[2, 1]",29.269140166998113,None,29.269140166998113,None,29.269140166998113,None,29.269140166998113,None,29.269140166998113,None,29.269140166998113,None,29.269140166998113,None,,29.836368478998338,None,29.836368478998338,None,29.836368478998338,None,29.836368478998338,None,29.836368478998338,None,29.836368478998338,None,29.836368478998338,None,,29.98496462500043,None,29.98496462500043,None,29.98496462500043,None,29.98496462500043,None,29.98496462500043,None,29.98496462500043,None,29.98496462500043,None,,30.18598949800071,None,30.18598949800071,None,30.18598949800071,None,30.18598949800071,None,30.18598949800071,None,30.18598949800071,None,30.18598949800071,None,,30.3534017819984,None,30.3534017819984,None,30.3534017819984,None,30.3534017819984,None,30.3534017819984,None,30.3534017819984,None,30.3534017819984,None,,30.519572133998736,None,30.519572133998736,None,30.519572133998736,None,30.519572133998736,None,30.519572133998736,None,30.519572133998736,None,30.519572133998736,None,,30.668849224999576,None,30.668849224999576,None,30.668849224999576,None,30.668849224999576,None,30.668849224999576,None,30.668849224999576,None,30.668849224999576,None,,30.86965177499951,None,30.86965177499951,None,30.86965177499951,None,30.86965177499951,None,30.86965177499951,None,30.86965177499951,None,30.86965177499951,None,,,k,0,1,0,1,1,2,2020_Feb_13_1323,body_behavioural,3.2.4,59.875643438585385,
,5,,,,,0,5,5,5,,,,,,,,,,,,,,,,,,,,,,,,,,,,,,,,,,,,,,,,,,,,,,,,,,,,,,,,,,,,,,,,,,,,,,,,,,,,,,,,,,,,,,,,,,,,,,,,,,,,,,,,,,,,,,,,,,,,,,,,,,,,,,,,,,,,,,,,,,,,,,,,,,,,,,,,,,,,,k,0,1,0,1,1,2,2020_Feb_13_1323,body_behavioural,3.2.4,59.875643438585385,
,6,,,,,0,6,6,6,0,0,0,0,,,,,,,,,,,,,,,,,31.036633608000557,None,space,0.47587294400000246,31.036633608000557,None,31.036633608000557,None,31.552769134999835,None,31.552769134999835,None,,  ,"[1, 2]",31.736261973997898,None,31.736261973997898,None,31.736261973997898,None,31.736261973997898,None,31.736261973997898,None,31.736261973997898,None,31.736261973997898,None,,32.235385639000015,None,32.235385639000015,None,32.235385639000015,None,32.235385639000015,None,32.235385639000015,None,32.235385639000015,None,32.235385639000015,None,,32.45180052700016,None,32.45180052700016,None,32.45180052700016,None,32.45180052700016,None,32.45180052700016,None,32.45180052700016,None,32.45180052700016,None,,32.63555718800126,None,32.63555718800126,None,32.63555718800126,None,32.63555718800126,None,32.63555718800126,None,32.63555718800126,None,32.63555718800126,None,,32.802370985999005,None,32.802370985999005,None,32.802370985999005,None,32.802370985999005,None,32.802370985999005,None,32.802370985999005,None,32.802370985999005,None,,33.00273586500043,None,33.00273586500043,None,33.00273586500043,None,33.00273586500043,None,33.00273586500043,None,33.00273586500043,None,33.00273586500043,None,,33.38591258999804,None,33.38591258999804,None,33.38591258999804,None,33.38591258999804,None,33.38591258999804,None,33.38591258999804,None,33.38591258999804,None,,33.5517808830009,None,33.5517808830009,None,33.5517808830009,None,33.5517808830009,None,33.5517808830009,None,33.5517808830009,None,33.5517808830009,None,,,k,0,1,0,1,1,2,2020_Feb_13_1323,body_behavioural,3.2.4,59.875643438585385,
,6,,,,,0,6,6,6,,,,,,,,,,,,,,,,,,,,,,,,,,,,,,,,,,,,,,,,,,,,,,,,,,,,,,,,,,,,,,,,,,,,,,,,,,,,,,,,,,,,,,,,,,,,,,,,,,,,,,,,,,,,,,,,,,,,,,,,,,,,,,,,,,,,,,,,,,,,,,,,,,,,,,,,,,,,,k,0,1,0,1,1,2,2020_Feb_13_1323,body_behavioural,3.2.4,59.875643438585385,
,7,,,,,0,7,7,7,,,,,,,,,,,,,,,,,,,,,,,,,,,,,,,,,,,,,,,,,,,,,,,,,,,,,,,,,,,,,,,,,,,,,,,,,,,,,,,,,,,,,,,,,,,,,,,,,,,,,,,,,,,,,,,,,,,,,,,,,,,,,,,,,,,,,,,,,,,,,,,,,,,,,,,,,,,,,k,0,1,0,1,1,2,2020_Feb_13_1323,body_behavioural,3.2.4,59.875643438585385,
,8,,,,,0,8,8,8,0,0,0,0,,,,,,,,,,,,,,,,,33.91890137899827,None,space,0.48233818500011694,33.91890137899827,None,33.91890137899827,None,34.43606907800131,None,34.43606907800131,None,,  ,"[1, 2]",34.63645130900113,None,34.63645130900113,None,34.63645130900113,None,34.63645130900113,None,34.63645130900113,None,34.63645130900113,None,34.63645130900113,None,,35.202804186999856,None,35.202804186999856,None,35.202804186999856,None,35.202804186999856,None,35.202804186999856,None,35.202804186999856,None,35.202804186999856,None,,35.385694673001126,None,35.385694673001126,None,35.385694673001126,None,35.385694673001126,None,35.385694673001126,None,35.385694673001126,None,35.385694673001126,None,,35.5693954390008,None,35.5693954390008,None,35.5693954390008,None,35.5693954390008,None,35.5693954390008,None,35.5693954390008,None,35.5693954390008,None,,35.752940348000266,None,35.752940348000266,None,35.752940348000266,None,35.752940348000266,None,35.752940348000266,None,35.752940348000266,None,35.752940348000266,None,,35.952762705997884,None,35.952762705997884,None,35.952762705997884,None,35.952762705997884,None,35.952762705997884,None,35.952762705997884,None,35.952762705997884,None,,36.10218810099832,None,36.10218810099832,None,36.10218810099832,None,36.10218810099832,None,36.10218810099832,None,36.10218810099832,None,36.10218810099832,None,,36.286409469998034,None,36.286409469998034,None,36.286409469998034,None,36.286409469998034,None,36.286409469998034,None,36.286409469998034,None,36.286409469998034,None,,,k,0,1,0,1,1,2,2020_Feb_13_1323,body_behavioural,3.2.4,59.875643438585385,
,8,,,,,0,8,8,8,,,,,,,,,,,,,,,,,,,,,,,,,,,,,,,,,,,,,,,,,,,,,,,,,,,,,,,,,,,,,,,,,,,,,,,,,,,,,,,,,,,,,,,,,,,,,,,,,,,,,,,,,,,,,,,,,,,,,,,,,,,,,,,,,,,,,,,,,,,,,,,,,,,,,,,,,,,,,k,0,1,0,1,1,2,2020_Feb_13_1323,body_behavioural,3.2.4,59.875643438585385,
,9,,,,,0,9,9,9,0,0,0,0,,,,,,,,,,,,,,,,,36.41974627499803,None,space,0.40253633599786554,36.41974627499803,None,36.41974627499803,None,36.86991324799965,None,36.86991324799965,None,,  ,"[1, 2]",37.15301141500095,None,37.15301141500095,None,37.15301141500095,None,37.15301141500095,None,37.15301141500095,None,37.15301141500095,None,37.15301141500095,None,,37.73573430900069,None,37.73573430900069,None,37.73573430900069,None,37.73573430900069,None,37.73573430900069,None,37.73573430900069,None,37.73573430900069,None,,37.91861026100014,None,37.91861026100014,None,37.91861026100014,None,37.91861026100014,None,37.91861026100014,None,37.91861026100014,None,37.91861026100014,None,,38.119273593998514,None,38.119273593998514,None,38.119273593998514,None,38.119273593998514,None,38.119273593998514,None,38.119273593998514,None,38.119273593998514,None,,38.302234276998206,None,38.302234276998206,None,38.302234276998206,None,38.302234276998206,None,38.302234276998206,None,38.302234276998206,None,38.302234276998206,None,,38.48582905099829,None,38.48582905099829,None,38.48582905099829,None,38.48582905099829,None,38.48582905099829,None,38.48582905099829,None,38.48582905099829,None,,38.702667024997936,None,38.702667024997936,None,38.702667024997936,None,38.702667024997936,None,38.702667024997936,None,38.702667024997936,None,38.702667024997936,None,,38.85173140799816,None,38.85173140799816,None,38.85173140799816,None,38.85173140799816,None,38.85173140799816,None,38.85173140799816,None,38.85173140799816,None,,,k,0,1,0,1,1,2,2020_Feb_13_1323,body_behavioural,3.2.4,59.875643438585385,
,9,,,,,0,9,9,9,,,,,,,,,,,,,,,,,,,,,,,,,,,,,,,,,,,,,,,,,,,,,,,,,,,,,,,,,,,,,,,,,,,,,,,,,,,,,,,,,,,,,,,,,,,,,,,,,,,,,,,,,,,,,,,,,,,,,,,,,,,,,,,,,,,,,,,,,,,,,,,,,,,,,,,,,,,,,k,0,1,0,1,1,2,2020_Feb_13_1323,body_behavioural,3.2.4,59.875643438585385,
,10,,,,,0,10,10,10,0,0,0,0,,,,,,,,,,,,,,,,,39.03471582600105,None,space,0.4182903810033167,39.03471582600105,None,39.03471582600105,None,39.5016200559985,None,39.5016200559985,None,, ,"[2, 1]",39.70244872799958,None,39.70244872799958,None,39.70244872799958,None,39.70244872799958,None,39.70244872799958,None,39.70244872799958,None,39.70244872799958,None,,40.168305355000484,None,40.168305355000484,None,40.168305355000484,None,40.168305355000484,None,40.168305355000484,None,40.168305355000484,None,40.168305355000484,None,,40.368326471998444,None,40.368326471998444,None,40.368326471998444,None,40.368326471998444,None,40.368326471998444,None,40.368326471998444,None,40.368326471998444,None,,40.551985144000355,None,40.551985144000355,None,40.551985144000355,None,40.551985144000355,None,40.551985144000355,None,40.551985144000355,None,40.551985144000355,None,,40.752183392000006,None,40.752183392000006,None,40.752183392000006,None,40.752183392000006,None,40.752183392000006,None,40.752183392000006,None,40.752183392000006,None,,40.91889740199986,None,40.91889740199986,None,40.91889740199986,None,40.91889740199986,None,40.91889740199986,None,40.91889740199986,None,40.91889740199986,None,,41.1193134540008,None,41.1193134540008,None,41.1193134540008,None,41.1193134540008,None,41.1193134540008,None,41.1193134540008,None,41.1193134540008,None,,41.335390077998454,None,41.335390077998454,None,41.335390077998454,None,41.335390077998454,None,41.335390077998454,None,41.335390077998454,None,41.335390077998454,None,,,k,0,1,0,1,1,2,2020_Feb_13_1323,body_behavioural,3.2.4,59.875643438585385,
,10,,,,,0,10,10,10,,,,,,,,,,,,,,,,,,,,,,,,,,,,,,,,,,,,,,,,,,,,,,,,,,,,,,,,,,,,,,,,,,,,,,,,,,,,,,,,,,,,,,,,,,,,,,,,,,,,,,,,,,,,,,,,,,,,,,,,,,,,,,,,,,,,,,,,,,,,,,,,,,,,,,,,,,,,,k,0,1,0,1,1,2,2020_Feb_13_1323,body_behavioural,3.2.4,59.875643438585385,
,11,,,,,0,11,11,11,0,0,0,0,,,,,,,,,,,,,,,,,41.518622665000294,None,space,0.4803168540020124,41.518622665000294,None,41.518622665000294,None,42.036059606998606,None,42.036059606998606,None,,,"[1, 2]",42.36990395600151,None,42.36990395600151,None,42.36990395600151,None,42.36990395600151,None,42.36990395600151,None,42.36990395600151,None,42.36990395600151,None,,42.87001031299951,None,42.87001031299951,None,42.87001031299951,None,42.87001031299951,None,42.87001031299951,None,42.87001031299951,None,42.87001031299951,None,,43.03535298600036,None,43.03535298600036,None,43.03535298600036,None,43.03535298600036,None,43.03535298600036,None,43.03535298600036,None,43.03535298600036,None,,43.201965233998635,None,43.201965233998635,None,43.201965233998635,None,43.201965233998635,None,43.201965233998635,None,43.201965233998635,None,43.201965233998635,None,,43.38630091899904,None,43.38630091899904,None,43.38630091899904,None,43.38630091899904,None,43.38630091899904,None,43.38630091899904,None,43.38630091899904,None,,43.55186660199979,None,43.55186660199979,None,43.55186660199979,None,43.55186660199979,None,43.55186660199979,None,43.55186660199979,None,43.55186660199979,None,,43.75284726999962,None,43.75284726999962,None,43.75284726999962,None,43.75284726999962,None,43.75284726999962,None,43.75284726999962,None,43.75284726999962,None,,43.93562100800045,None,43.93562100800045,None,43.93562100800045,None,43.93562100800045,None,43.93562100800045,None,43.93562100800045,None,43.93562100800045,None,,,k,0,1,0,1,1,2,2020_Feb_13_1323,body_behavioural,3.2.4,59.875643438585385,
,11,,,,,0,11,11,11,,,,,,,,,,,,,,,,,,,,,,,,,,,,,,,,,,,,,,,,,,,,,,,,,,,,,,,,,,,,,,,,,,,,,,,,,,,,,,,,,,,,,,,,,,,,,,,,,,,,,,,,,,,,,,,,,,,,,,,,,,,,,,,,,,,,,,,,,,,,,,,,,,,,,,,,,,,,,k,0,1,0,1,1,2,2020_Feb_13_1323,body_behavioural,3.2.4,59.875643438585385,
,12,,,,,0,12,12,12,0,0,0,0,,,,,,,,,,,,,,,,,44.269123982001474,None,space,0.47889702600150486,44.269123982001474,None,44.269123982001474,None,44.78622186699795,None,44.78622186699795,None,,,"[1, 2]",46.136145358999784,None,46.136145358999784,None,46.136145358999784,None,46.136145358999784,None,46.136145358999784,None,46.136145358999784,None,46.136145358999784,None,,46.68635687200003,None,46.68635687200003,None,46.68635687200003,None,46.68635687200003,None,46.68635687200003,None,46.68635687200003,None,46.68635687200003,None,,47.07028472499951,None,47.07028472499951,None,47.07028472499951,None,47.07028472499951,None,47.07028472499951,None,47.07028472499951,None,47.07028472499951,None,,47.26892892199976,None,47.26892892199976,None,47.26892892199976,None,47.26892892199976,None,47.26892892199976,None,47.26892892199976,None,47.26892892199976,None,,47.43547432700143,None,47.43547432700143,None,47.43547432700143,None,47.43547432700143,None,47.43547432700143,None,47.43547432700143,None,47.43547432700143,None,,47.61910053400061,None,47.61910053400061,None,47.61910053400061,None,47.61910053400061,None,47.61910053400061,None,47.61910053400061,None,47.61910053400061,None,,47.8023878089989,None,47.8023878089989,None,47.8023878089989,None,47.8023878089989,None,47.8023878089989,None,47.8023878089989,None,47.8023878089989,None,,47.98637190400041,None,47.98637190400041,None,47.98637190400041,None,47.98637190400041,None,47.98637190400041,None,47.98637190400041,None,47.98637190400041,None,,,k,0,1,0,1,1,2,2020_Feb_13_1323,body_behavioural,3.2.4,59.875643438585385,
,12,,,,,0,12,12,12,,,,,,,,,,,,,,,,,,,,,,,,,,,,,,,,,,,,,,,,,,,,,,,,,,,,,,,,,,,,,,,,,,,,,,,,,,,,,,,,,,,,,,,,,,,,,,,,,,,,,,,,,,,,,,,,,,,,,,,,,,,,,,,,,,,,,,,,,,,,,,,,,,,,,,,,,,,,,k,0,1,0,1,1,2,2020_Feb_13_1323,body_behavioural,3.2.4,59.875643438585385,
,13,,,,,0,13,13,13,0,0,0,0,,,,,,,,,,,,,,,,,48.13522250100141,None,space,0.9416289430009783,48.13522250100141,None,48.13522250100141,None,49.11889581200012,None,49.11889581200012,None,J,K,"[1, 2]",49.65317286500067,None,49.65317286500067,None,49.65317286500067,None,49.65317286500067,None,49.65317286500067,None,49.65317286500067,None,49.65317286500067,None,J,50.38586936700085,None,50.38586936700085,None,50.38586936700085,None,50.38586936700085,None,50.38586936700085,None,50.38586936700085,None,50.38586936700085,None,J,51.43655297499936,None,51.43655297499936,None,51.43655297499936,None,51.43655297499936,None,51.43655297499936,None,51.43655297499936,None,51.43655297499936,None,J,52.11904849599887,None,52.11904849599887,None,52.11904849599887,None,52.11904849599887,None,52.11904849599887,None,52.11904849599887,None,52.11904849599887,None,J,52.81916183299836,None,52.81916183299836,None,52.81916183299836,None,52.81916183299836,None,52.81916183299836,None,52.81916183299836,None,52.81916183299836,None,J,53.45330595300038,None,53.45330595300038,None,53.45330595300038,None,53.45330595300038,None,53.45330595300038,None,53.45330595300038,None,53.45330595300038,None,J,54.0531236780007,None,54.0531236780007,None,54.0531236780007,None,54.0531236780007,None,54.0531236780007,None,54.0531236780007,None,54.0531236780007,None,J,55.26968944699911,None,55.26968944699911,None,55.26968944699911,None,55.26968944699911,None,55.26968944699911,None,55.26968944699911,None,55.26968944699911,None,,,k,0,1,0,1,1,2,2020_Feb_13_1323,body_behavioural,3.2.4,59.875643438585385,
,13,,,,,0,13,13,13,,,,,,,,,,,,,,,,,,,,,,,,,,,,,,,,,,,,,,,,,,,,,,,,,,,,,,,,,,,,,,,,,,,,,,,,,,,,,,,,,,,,,,,,,,,,,,,,,,,,,,,,,,,,,,,,,,,,,,,,,,,,,,,,,,,,,,,,,,,,,,,,,,,,,,,,,,,,,k,0,1,0,1,1,2,2020_Feb_13_1323,body_behavioural,3.2.4,59.875643438585385,
,14,,,,,0,14,14,14,,,,,,,,,,,,,,,,,,,,,,,,,,,,,,,,,,,,,,,,,,,,,,,,,,,,,,,,,,,,,,,,,,,,,,,,,,,,,,,,,,,,,,,,,,,,,,,,,,,,,,,,,,,,,,,,,,,,,,,,,,,,,,,,,,,,,,,,,,,,,,,,,,,,,,,,,,,,,k,0,1,0,1,1,2,2020_Feb_13_1323,body_behavioural,3.2.4,59.875643438585385,
,15,,,,,0,15,15,15,,,,,,,,,,,,,,,,,,,,,,,,,,,,,,,,,,,,,,,,,,,,,,,,,,,,,,,,,,,,,,,,,,,,,,,,,,,,,,,,,,,,,,,,,,,,,,,,,,,,,,,,,,,,,,,,,,,,,,,,,,,,,,,,,,,,,,,,,,,,,,,,,,,,,,,,,,,,,k,0,1,0,1,1,2,2020_Feb_13_1323,body_behavioural,3.2.4,59.875643438585385,
,,,,,,,,,,,,,,0,0,0,0,,,,,,,,,,,,,,,,,,,,,,,,,,,,,,,,,,,,,,,,,,,,,,,,,,,,,,,,,,,,,,,,,,,,,,,,,,,,,,,,,,,,,,,,,,,,,,,,,,,,,,,,,,,,,,,,,,,,,,,,,,,,,,,,,,,,,,,,,,,,,,,,,,,56.05288165000093,None,k,0,1,0,1,1,2,2020_Feb_13_1323,body_behavioural,3.2.4,59.875643438585385,
