count,trials_14.thisRepN,trials_14.thisTrialN,trials_14.thisN,trials_14.thisIndex,behav_recall_instructions.thisRepN,behav_recall_instructions.thisTrialN,behav_recall_instructions.thisN,behav_recall_instructions.thisIndex,trials_4.thisRepN,trials_4.thisTrialN,trials_4.thisN,trials_4.thisIndex,trials_13.thisRepN,trials_13.thisTrialN,trials_13.thisN,trials_13.thisIndex,trials_17.thisRepN,trials_17.thisTrialN,trials_17.thisN,trials_17.thisIndex,story_list_block1,action_list_block1,story_list_block2,action_list_block2,testing,story time,text_45.started,text_45.stopped,key_resp_6.keys,key_resp_6.rt,key_resp_6.started,key_resp_6.stopped,text_70.started,text_70.stopped,textTrigger.started,textTrigger.stopped,getTrigger.keys,getTrigger.rt,getTrigger.started,getTrigger.stopped,triggerTime,text_41.started,text_41.stopped,key_resp_10.keys,key_resp_10.rt,key_resp_10.started,key_resp_10.stopped,text_42.started,text_42.stopped,text_51.started,text_51.stopped,recall_StartTime,recall_EndTime,image_18.started,image_18.stopped,text_69.started,text_69.stopped,recall_audio.filename,recall_audio.started,recall_audio.stopped,key_resp_25.keys,key_resp_25.rt,key_resp_25.started,key_resp_25.stopped,participant,s1,s2,l1,l2,story_listening,play_stories,behavioral,date,expName,psychopyVersion,frameRate,
,,,,,,,,,,,,,,,,,,,,,[23 21 41 12 32 14 34 43],[1 3 2 3 2 1 4 4],[31 13 44 22 11 42 33 24],[2 1 4 3 3 2 4 1],89888,2.309495513094589,23.863677408080548,None,space,1.2849520382005721,23.863677408080548,None,,,,,,,,,,,,,,,,,,,,,,,,,,,,,,,,,ok,0,1,0,1,0,0,0,2020_Jan_07_1138,fmri_ebs,3.2.1,59.857580436410295,
,,,,,,,,,,,,,,,,,,,,,,,,,,,,,,,,,25.17901432607323,None,26.179064518073574,None,5,1.418018314987421,26.179064518073574,None,,,,,,,,,,,,,,,,,,,,,,,,,ok,0,1,0,1,0,0,0,2020_Jan_07_1138,fmri_ebs,3.2.1,59.857580436410295,
0,,,,,,,,,0,0,0,0,,,,,0,0,0,0,,,,,,,,,,,,,,,,,,,,,6.590253758011386,27.67940478795208,None,space,0.6086515069473535,27.67940478795208,None,27.67940478795208,None,27.67940478795208,None,0.6846251538954675,1.8836026599165052,28.56327608600259,None,28.56327608600259,None,/Users/alexreblando/Documents/GitHub/ebs/fMRI experiment/data/ok_fmri_ebs_wav/recall_audio-1578415106.564.wav,0.010166812920942903,None,space,0.9328690678812563,28.56327608600259,None,ok,0,1,0,1,0,0,0,2020_Jan_07_1138,fmri_ebs,3.2.1,59.857580436410295,
﻿count,trials_14.thisRepN,trials_14.thisTrialN,trials_14.thisN,trials_14.thisIndex,behav_recall_instructions.thisRepN,behav_recall_instructions.thisTrialN,behav_recall_instructions.thisN,behav_recall_instructions.thisIndex,trials_4.thisRepN,trials_4.thisTrialN,trials_4.thisN,trials_4.thisIndex,trials_13.thisRepN,trials_13.thisTrialN,trials_13.thisN,trials_13.thisIndex,trials_17.thisRepN,trials_17.thisTrialN,trials_17.thisN,trials_17.thisIndex,story_list_block1,action_list_block1,story_list_block2,action_list_block2,testing,story time,text_45.started,text_45.stopped,key_resp_6.keys,key_resp_6.rt,key_resp_6.started,key_resp_6.stopped,text_70.started,text_70.stopped,textTrigger.started,textTrigger.stopped,getTrigger.keys,getTrigger.rt,getTrigger.started,getTrigger.stopped,triggerTime,text_41.started,text_41.stopped,key_resp_10.keys,key_resp_10.rt,key_resp_10.started,key_resp_10.stopped,text_42.started,text_42.stopped,text_51.started,text_51.stopped,recall_StartTime,recall_EndTime,image_18.started,image_18.stopped,text_69.started,text_69.stopped,recall_audio.filename,recall_audio.started,recall_audio.stopped,key_resp_25.keys,key_resp_25.rt,key_resp_25.started,key_resp_25.stopped,participant,s1,s2,l1,l2,story_listening,play_stories,behavioral,date,expName,psychopyVersion,frameRate,
,,,,,,,,,,,,,,,,,,,,,[23 21 41 12 32 14 34 43],[1 3 2 3 2 1 4 4],[31 13 44 22 11 42 33 24],[2 1 4 3 3 2 4 1],89888,2.309495513094589,23.863677408080548,None,space,1.2849520382005721,23.863677408080548,None,,,,,,,,,,,,,,,,,,,,,,,,,,,,,,,,,ok,0,1,0,1,0,0,0,2020_Jan_07_1138,fmri_ebs,3.2.1,59.857580436410295,
,,,,,,,,,,,,,,,,,,,,,,,,,,,,,,,,,25.17901432607323,None,26.179064518073574,None,5,1.418018314987421,26.179064518073574,None,,,,,,,,,,,,,,,,,,,,,,,,,ok,0,1,0,1,0,0,0,2020_Jan_07_1138,fmri_ebs,3.2.1,59.857580436410295,
0,,,,,,,,,0,0,0,0,,,,,0,0,0,0,,,,,,,,,,,,,,,,,,,,,6.590253758011386,27.67940478795208,None,space,0.6086515069473535,27.67940478795208,None,27.67940478795208,None,27.67940478795208,None,0.6846251538954675,1.8836026599165052,28.56327608600259,None,28.56327608600259,None,/Users/alexreblando/Documents/GitHub/ebs/fMRI experiment/data/ok_fmri_ebs_wav/recall_audio-1578415106.564.wav,0.010166812920942903,None,space,0.9328690678812563,28.56327608600259,None,ok,0,1,0,1,0,0,0,2020_Jan_07_1138,fmri_ebs,3.2.1,59.857580436410295,
0,,,,,,,,,0,0,0,0,,,,,,,,,,,,,,,,,,,,,,,,,,,,,,,,,,,,,,,,,,,,,,,,,,,,,ok,0,1,0,1,0,0,0,2020_Jan_07_1138,fmri_ebs,3.2.1,59.857580436410295,
﻿count,trials_14.thisRepN,trials_14.thisTrialN,trials_14.thisN,trials_14.thisIndex,behav_recall_instructions.thisRepN,behav_recall_instructions.thisTrialN,behav_recall_instructions.thisN,behav_recall_instructions.thisIndex,trials_4.thisRepN,trials_4.thisTrialN,trials_4.thisN,trials_4.thisIndex,trials_13.thisRepN,trials_13.thisTrialN,trials_13.thisN,trials_13.thisIndex,trials_17.thisRepN,trials_17.thisTrialN,trials_17.thisN,trials_17.thisIndex,story_list_block1,action_list_block1,story_list_block2,action_list_block2,testing,story time,text_45.started,text_45.stopped,key_resp_6.keys,key_resp_6.rt,key_resp_6.started,key_resp_6.stopped,text_70.started,text_70.stopped,textTrigger.started,textTrigger.stopped,getTrigger.keys,getTrigger.rt,getTrigger.started,getTrigger.stopped,triggerTime,text_41.started,text_41.stopped,key_resp_10.keys,key_resp_10.rt,key_resp_10.started,key_resp_10.stopped,text_42.started,text_42.stopped,text_51.started,text_51.stopped,recall_StartTime,recall_EndTime,image_18.started,image_18.stopped,text_69.started,text_69.stopped,recall_audio.filename,recall_audio.started,recall_audio.stopped,key_resp_25.keys,key_resp_25.rt,key_resp_25.started,key_resp_25.stopped,participant,s1,s2,l1,l2,story_listening,play_stories,behavioral,date,expName,psychopyVersion,frameRate,
,,,,,,,,,,,,,,,,,,,,,[23 21 41 12 32 14 34 43],[1 3 2 3 2 1 4 4],[31 13 44 22 11 42 33 24],[2 1 4 3 3 2 4 1],89888,2.309495513094589,23.863677408080548,None,space,1.2849520382005721,23.863677408080548,None,,,,,,,,,,,,,,,,,,,,,,,,,,,,,,,,,ok,0,1,0,1,0,0,0,2020_Jan_07_1138,fmri_ebs,3.2.1,59.857580436410295,
,,,,,,,,,,,,,,,,,,,,,,,,,,,,,,,,,25.17901432607323,None,26.179064518073574,None,5,1.418018314987421,26.179064518073574,None,,,,,,,,,,,,,,,,,,,,,,,,,ok,0,1,0,1,0,0,0,2020_Jan_07_1138,fmri_ebs,3.2.1,59.857580436410295,
0,,,,,,,,,0,0,0,0,,,,,0,0,0,0,,,,,,,,,,,,,,,,,,,,,6.590253758011386,27.67940478795208,None,space,0.6086515069473535,27.67940478795208,None,27.67940478795208,None,27.67940478795208,None,0.6846251538954675,1.8836026599165052,28.56327608600259,None,28.56327608600259,None,/Users/alexreblando/Documents/GitHub/ebs/fMRI experiment/data/ok_fmri_ebs_wav/recall_audio-1578415106.564.wav,0.010166812920942903,None,space,0.9328690678812563,28.56327608600259,None,ok,0,1,0,1,0,0,0,2020_Jan_07_1138,fmri_ebs,3.2.1,59.857580436410295,
0,,,,,,,,,0,0,0,0,,,,,,,,,,,,,,,,,,,,,,,,,,,,,,,,,,,,,,,,,,,,,,,,,,,,,ok,0,1,0,1,0,0,0,2020_Jan_07_1138,fmri_ebs,3.2.1,59.857580436410295,
1,,,,,,,,,0,1,1,1,,,,,,,,,,,,,,,,,,,,,,,,,,,,,,,,,,,,,,,,,,,,,,,,,,,,,ok,0,1,0,1,0,0,0,2020_Jan_07_1138,fmri_ebs,3.2.1,59.857580436410295,
2,,,,,,,,,0,2,2,2,,,,,0,0,0,0,,,,,,,,,,,,,,,,,,,,,,29.529396923957393,None,space,1.398578700143844,29.529396923957393,None,29.529396923957393,None,29.529396923957393,None,3.319100626045838,5.167299950029701,31.029693473130465,None,31.029693473130465,None,/Users/alexreblando/Documents/GitHub/ebs/fMRI experiment/data/ok_fmri_ebs_wav/recall_audio-1578415109.031.wav,0.010955305770039558,None,space,1.745248198043555,31.029693473130465,None,ok,0,1,0,1,0,0,0,2020_Jan_07_1138,fmri_ebs,3.2.1,59.857580436410295,
﻿count,trials_14.thisRepN,trials_14.thisTrialN,trials_14.thisN,trials_14.thisIndex,behav_recall_instructions.thisRepN,behav_recall_instructions.thisTrialN,behav_recall_instructions.thisN,behav_recall_instructions.thisIndex,trials_4.thisRepN,trials_4.thisTrialN,trials_4.thisN,trials_4.thisIndex,trials_13.thisRepN,trials_13.thisTrialN,trials_13.thisN,trials_13.thisIndex,trials_17.thisRepN,trials_17.thisTrialN,trials_17.thisN,trials_17.thisIndex,story_list_block1,action_list_block1,story_list_block2,action_list_block2,testing,story time,text_45.started,text_45.stopped,key_resp_6.keys,key_resp_6.rt,key_resp_6.started,key_resp_6.stopped,text_70.started,text_70.stopped,textTrigger.started,textTrigger.stopped,getTrigger.keys,getTrigger.rt,getTrigger.started,getTrigger.stopped,triggerTime,text_41.started,text_41.stopped,key_resp_10.keys,key_resp_10.rt,key_resp_10.started,key_resp_10.stopped,text_42.started,text_42.stopped,text_51.started,text_51.stopped,recall_StartTime,recall_EndTime,image_18.started,image_18.stopped,text_69.started,text_69.stopped,recall_audio.filename,recall_audio.started,recall_audio.stopped,key_resp_25.keys,key_resp_25.rt,key_resp_25.started,key_resp_25.stopped,participant,s1,s2,l1,l2,story_listening,play_stories,behavioral,date,expName,psychopyVersion,frameRate,
,,,,,,,,,,,,,,,,,,,,,[23 21 41 12 32 14 34 43],[1 3 2 3 2 1 4 4],[31 13 44 22 11 42 33 24],[2 1 4 3 3 2 4 1],89888,2.309495513094589,23.863677408080548,None,space,1.2849520382005721,23.863677408080548,None,,,,,,,,,,,,,,,,,,,,,,,,,,,,,,,,,ok,0,1,0,1,0,0,0,2020_Jan_07_1138,fmri_ebs,3.2.1,59.857580436410295,
,,,,,,,,,,,,,,,,,,,,,,,,,,,,,,,,,25.17901432607323,None,26.179064518073574,None,5,1.418018314987421,26.179064518073574,None,,,,,,,,,,,,,,,,,,,,,,,,,ok,0,1,0,1,0,0,0,2020_Jan_07_1138,fmri_ebs,3.2.1,59.857580436410295,
0,,,,,,,,,0,0,0,0,,,,,0,0,0,0,,,,,,,,,,,,,,,,,,,,,6.590253758011386,27.67940478795208,None,space,0.6086515069473535,27.67940478795208,None,27.67940478795208,None,27.67940478795208,None,0.6846251538954675,1.8836026599165052,28.56327608600259,None,28.56327608600259,None,/Users/alexreblando/Documents/GitHub/ebs/fMRI experiment/data/ok_fmri_ebs_wav/recall_audio-1578415106.564.wav,0.010166812920942903,None,space,0.9328690678812563,28.56327608600259,None,ok,0,1,0,1,0,0,0,2020_Jan_07_1138,fmri_ebs,3.2.1,59.857580436410295,
0,,,,,,,,,0,0,0,0,,,,,,,,,,,,,,,,,,,,,,,,,,,,,,,,,,,,,,,,,,,,,,,,,,,,,ok,0,1,0,1,0,0,0,2020_Jan_07_1138,fmri_ebs,3.2.1,59.857580436410295,
1,,,,,,,,,0,1,1,1,,,,,,,,,,,,,,,,,,,,,,,,,,,,,,,,,,,,,,,,,,,,,,,,,,,,,ok,0,1,0,1,0,0,0,2020_Jan_07_1138,fmri_ebs,3.2.1,59.857580436410295,
2,,,,,,,,,0,2,2,2,,,,,0,0,0,0,,,,,,,,,,,,,,,,,,,,,,29.529396923957393,None,space,1.398578700143844,29.529396923957393,None,29.529396923957393,None,29.529396923957393,None,3.319100626045838,5.167299950029701,31.029693473130465,None,31.029693473130465,None,/Users/alexreblando/Documents/GitHub/ebs/fMRI experiment/data/ok_fmri_ebs_wav/recall_audio-1578415109.031.wav,0.010955305770039558,None,space,1.745248198043555,31.029693473130465,None,ok,0,1,0,1,0,0,0,2020_Jan_07_1138,fmri_ebs,3.2.1,59.857580436410295,
2,,,,,,,,,0,2,2,2,,,,,,,,,,,,,,,,,,,,,,,,,,,,,,,,,,,,,,,,,,,,,,,,,,,,,ok,0,1,0,1,0,0,0,2020_Jan_07_1138,fmri_ebs,3.2.1,59.857580436410295,
﻿count,trials_14.thisRepN,trials_14.thisTrialN,trials_14.thisN,trials_14.thisIndex,behav_recall_instructions.thisRepN,behav_recall_instructions.thisTrialN,behav_recall_instructions.thisN,behav_recall_instructions.thisIndex,trials_4.thisRepN,trials_4.thisTrialN,trials_4.thisN,trials_4.thisIndex,trials_13.thisRepN,trials_13.thisTrialN,trials_13.thisN,trials_13.thisIndex,trials_17.thisRepN,trials_17.thisTrialN,trials_17.thisN,trials_17.thisIndex,story_list_block1,action_list_block1,story_list_block2,action_list_block2,testing,story time,text_45.started,text_45.stopped,key_resp_6.keys,key_resp_6.rt,key_resp_6.started,key_resp_6.stopped,text_70.started,text_70.stopped,textTrigger.started,textTrigger.stopped,getTrigger.keys,getTrigger.rt,getTrigger.started,getTrigger.stopped,triggerTime,text_41.started,text_41.stopped,key_resp_10.keys,key_resp_10.rt,key_resp_10.started,key_resp_10.stopped,text_42.started,text_42.stopped,text_51.started,text_51.stopped,recall_StartTime,recall_EndTime,image_18.started,image_18.stopped,text_69.started,text_69.stopped,recall_audio.filename,recall_audio.started,recall_audio.stopped,key_resp_25.keys,key_resp_25.rt,key_resp_25.started,key_resp_25.stopped,participant,s1,s2,l1,l2,story_listening,play_stories,behavioral,date,expName,psychopyVersion,frameRate,
,,,,,,,,,,,,,,,,,,,,,[23 21 41 12 32 14 34 43],[1 3 2 3 2 1 4 4],[31 13 44 22 11 42 33 24],[2 1 4 3 3 2 4 1],89888,2.309495513094589,23.863677408080548,None,space,1.2849520382005721,23.863677408080548,None,,,,,,,,,,,,,,,,,,,,,,,,,,,,,,,,,ok,0,1,0,1,0,0,0,2020_Jan_07_1138,fmri_ebs,3.2.1,59.857580436410295,
,,,,,,,,,,,,,,,,,,,,,,,,,,,,,,,,,25.17901432607323,None,26.179064518073574,None,5,1.418018314987421,26.179064518073574,None,,,,,,,,,,,,,,,,,,,,,,,,,ok,0,1,0,1,0,0,0,2020_Jan_07_1138,fmri_ebs,3.2.1,59.857580436410295,
0,,,,,,,,,0,0,0,0,,,,,0,0,0,0,,,,,,,,,,,,,,,,,,,,,6.590253758011386,27.67940478795208,None,space,0.6086515069473535,27.67940478795208,None,27.67940478795208,None,27.67940478795208,None,0.6846251538954675,1.8836026599165052,28.56327608600259,None,28.56327608600259,None,/Users/alexreblando/Documents/GitHub/ebs/fMRI experiment/data/ok_fmri_ebs_wav/recall_audio-1578415106.564.wav,0.010166812920942903,None,space,0.9328690678812563,28.56327608600259,None,ok,0,1,0,1,0,0,0,2020_Jan_07_1138,fmri_ebs,3.2.1,59.857580436410295,
0,,,,,,,,,0,0,0,0,,,,,,,,,,,,,,,,,,,,,,,,,,,,,,,,,,,,,,,,,,,,,,,,,,,,,ok,0,1,0,1,0,0,0,2020_Jan_07_1138,fmri_ebs,3.2.1,59.857580436410295,
1,,,,,,,,,0,1,1,1,,,,,,,,,,,,,,,,,,,,,,,,,,,,,,,,,,,,,,,,,,,,,,,,,,,,,ok,0,1,0,1,0,0,0,2020_Jan_07_1138,fmri_ebs,3.2.1,59.857580436410295,
2,,,,,,,,,0,2,2,2,,,,,0,0,0,0,,,,,,,,,,,,,,,,,,,,,,29.529396923957393,None,space,1.398578700143844,29.529396923957393,None,29.529396923957393,None,29.529396923957393,None,3.319100626045838,5.167299950029701,31.029693473130465,None,31.029693473130465,None,/Users/alexreblando/Documents/GitHub/ebs/fMRI experiment/data/ok_fmri_ebs_wav/recall_audio-1578415109.031.wav,0.010955305770039558,None,space,1.745248198043555,31.029693473130465,None,ok,0,1,0,1,0,0,0,2020_Jan_07_1138,fmri_ebs,3.2.1,59.857580436410295,
2,,,,,,,,,0,2,2,2,,,,,,,,,,,,,,,,,,,,,,,,,,,,,,,,,,,,,,,,,,,,,,,,,,,,,ok,0,1,0,1,0,0,0,2020_Jan_07_1138,fmri_ebs,3.2.1,59.857580436410295,
3,,,,,,,,,0,3,3,3,,,,,,,,,,,,,,,,,,,,,,,,,,,,,,,,,,,,,,,,,,,,,,,,,,,,,ok,0,1,0,1,0,0,0,2020_Jan_07_1138,fmri_ebs,3.2.1,59.857580436410295,
4,,,,,,,,,0,4,4,4,,,,,0,0,0,0,,,,,,,,,,,,,,,,,,,,,,32.830152675975114,None,space,1.2596772199030966,32.830152675975114,None,32.830152675975114,None,32.830152675975114,None,6.48475998500362,8.033956866944209,34.18093192600645,None,34.18093192600645,None,/Users/alexreblando/Documents/GitHub/ebs/fMRI experiment/data/ok_fmri_ebs_wav/recall_audio-1578415112.182.wav,0.011833094991743565,None,space,1.4586299839429557,34.18093192600645,None,ok,0,1,0,1,0,0,0,2020_Jan_07_1138,fmri_ebs,3.2.1,59.857580436410295,
﻿count,trials_14.thisRepN,trials_14.thisTrialN,trials_14.thisN,trials_14.thisIndex,behav_recall_instructions.thisRepN,behav_recall_instructions.thisTrialN,behav_recall_instructions.thisN,behav_recall_instructions.thisIndex,trials_4.thisRepN,trials_4.thisTrialN,trials_4.thisN,trials_4.thisIndex,trials_13.thisRepN,trials_13.thisTrialN,trials_13.thisN,trials_13.thisIndex,trials_17.thisRepN,trials_17.thisTrialN,trials_17.thisN,trials_17.thisIndex,story_list_block1,action_list_block1,story_list_block2,action_list_block2,testing,story time,text_45.started,text_45.stopped,key_resp_6.keys,key_resp_6.rt,key_resp_6.started,key_resp_6.stopped,text_70.started,text_70.stopped,textTrigger.started,textTrigger.stopped,getTrigger.keys,getTrigger.rt,getTrigger.started,getTrigger.stopped,triggerTime,text_41.started,text_41.stopped,key_resp_10.keys,key_resp_10.rt,key_resp_10.started,key_resp_10.stopped,text_42.started,text_42.stopped,text_51.started,text_51.stopped,recall_StartTime,recall_EndTime,image_18.started,image_18.stopped,text_69.started,text_69.stopped,recall_audio.filename,recall_audio.started,recall_audio.stopped,key_resp_25.keys,key_resp_25.rt,key_resp_25.started,key_resp_25.stopped,participant,s1,s2,l1,l2,story_listening,play_stories,behavioral,date,expName,psychopyVersion,frameRate,
,,,,,,,,,,,,,,,,,,,,,[23 21 41 12 32 14 34 43],[1 3 2 3 2 1 4 4],[31 13 44 22 11 42 33 24],[2 1 4 3 3 2 4 1],89888,2.309495513094589,23.863677408080548,None,space,1.2849520382005721,23.863677408080548,None,,,,,,,,,,,,,,,,,,,,,,,,,,,,,,,,,ok,0,1,0,1,0,0,0,2020_Jan_07_1138,fmri_ebs,3.2.1,59.857580436410295,
,,,,,,,,,,,,,,,,,,,,,,,,,,,,,,,,,25.17901432607323,None,26.179064518073574,None,5,1.418018314987421,26.179064518073574,None,,,,,,,,,,,,,,,,,,,,,,,,,ok,0,1,0,1,0,0,0,2020_Jan_07_1138,fmri_ebs,3.2.1,59.857580436410295,
0,,,,,,,,,0,0,0,0,,,,,0,0,0,0,,,,,,,,,,,,,,,,,,,,,6.590253758011386,27.67940478795208,None,space,0.6086515069473535,27.67940478795208,None,27.67940478795208,None,27.67940478795208,None,0.6846251538954675,1.8836026599165052,28.56327608600259,None,28.56327608600259,None,/Users/alexreblando/Documents/GitHub/ebs/fMRI experiment/data/ok_fmri_ebs_wav/recall_audio-1578415106.564.wav,0.010166812920942903,None,space,0.9328690678812563,28.56327608600259,None,ok,0,1,0,1,0,0,0,2020_Jan_07_1138,fmri_ebs,3.2.1,59.857580436410295,
0,,,,,,,,,0,0,0,0,,,,,,,,,,,,,,,,,,,,,,,,,,,,,,,,,,,,,,,,,,,,,,,,,,,,,ok,0,1,0,1,0,0,0,2020_Jan_07_1138,fmri_ebs,3.2.1,59.857580436410295,
1,,,,,,,,,0,1,1,1,,,,,,,,,,,,,,,,,,,,,,,,,,,,,,,,,,,,,,,,,,,,,,,,,,,,,ok,0,1,0,1,0,0,0,2020_Jan_07_1138,fmri_ebs,3.2.1,59.857580436410295,
2,,,,,,,,,0,2,2,2,,,,,0,0,0,0,,,,,,,,,,,,,,,,,,,,,,29.529396923957393,None,space,1.398578700143844,29.529396923957393,None,29.529396923957393,None,29.529396923957393,None,3.319100626045838,5.167299950029701,31.029693473130465,None,31.029693473130465,None,/Users/alexreblando/Documents/GitHub/ebs/fMRI experiment/data/ok_fmri_ebs_wav/recall_audio-1578415109.031.wav,0.010955305770039558,None,space,1.745248198043555,31.029693473130465,None,ok,0,1,0,1,0,0,0,2020_Jan_07_1138,fmri_ebs,3.2.1,59.857580436410295,
2,,,,,,,,,0,2,2,2,,,,,,,,,,,,,,,,,,,,,,,,,,,,,,,,,,,,,,,,,,,,,,,,,,,,,ok,0,1,0,1,0,0,0,2020_Jan_07_1138,fmri_ebs,3.2.1,59.857580436410295,
3,,,,,,,,,0,3,3,3,,,,,,,,,,,,,,,,,,,,,,,,,,,,,,,,,,,,,,,,,,,,,,,,,,,,,ok,0,1,0,1,0,0,0,2020_Jan_07_1138,fmri_ebs,3.2.1,59.857580436410295,
4,,,,,,,,,0,4,4,4,,,,,0,0,0,0,,,,,,,,,,,,,,,,,,,,,,32.830152675975114,None,space,1.2596772199030966,32.830152675975114,None,32.830152675975114,None,32.830152675975114,None,6.48475998500362,8.033956866944209,34.18093192600645,None,34.18093192600645,None,/Users/alexreblando/Documents/GitHub/ebs/fMRI experiment/data/ok_fmri_ebs_wav/recall_audio-1578415112.182.wav,0.011833094991743565,None,space,1.4586299839429557,34.18093192600645,None,ok,0,1,0,1,0,0,0,2020_Jan_07_1138,fmri_ebs,3.2.1,59.857580436410295,
4,,,,,,,,,0,4,4,4,,,,,,,,,,,,,,,,,,,,,,,,,,,,,,,,,,,,,,,,,,,,,,,,,,,,,ok,0,1,0,1,0,0,0,2020_Jan_07_1138,fmri_ebs,3.2.1,59.857580436410295,
5,,,,,,,,,0,5,5,5,,,,,0,0,0,0,,,,,,,,,,,,,,,,,,,,,,35.68014132999815,None,space,1.1063525769859552,35.68014132999815,None,35.68014132999815,None,35.68014132999815,None,9.186459496850148,10.483738836832345,36.880879793083295,None,36.880879793083295,None,/Users/alexreblando/Documents/GitHub/ebs/fMRI experiment/data/ok_fmri_ebs_wav/recall_audio-1578415115.882.wav,0.013680923031643033,None,space,1.212717239977792,36.880879793083295,None,ok,0,1,0,1,0,0,0,2020_Jan_07_1138,fmri_ebs,3.2.1,59.857580436410295,
﻿count,trials_14.thisRepN,trials_14.thisTrialN,trials_14.thisN,trials_14.thisIndex,behav_recall_instructions.thisRepN,behav_recall_instructions.thisTrialN,behav_recall_instructions.thisN,behav_recall_instructions.thisIndex,trials_4.thisRepN,trials_4.thisTrialN,trials_4.thisN,trials_4.thisIndex,trials_13.thisRepN,trials_13.thisTrialN,trials_13.thisN,trials_13.thisIndex,trials_17.thisRepN,trials_17.thisTrialN,trials_17.thisN,trials_17.thisIndex,story_list_block1,action_list_block1,story_list_block2,action_list_block2,testing,story time,text_45.started,text_45.stopped,key_resp_6.keys,key_resp_6.rt,key_resp_6.started,key_resp_6.stopped,text_70.started,text_70.stopped,textTrigger.started,textTrigger.stopped,getTrigger.keys,getTrigger.rt,getTrigger.started,getTrigger.stopped,triggerTime,text_41.started,text_41.stopped,key_resp_10.keys,key_resp_10.rt,key_resp_10.started,key_resp_10.stopped,text_42.started,text_42.stopped,text_51.started,text_51.stopped,recall_StartTime,recall_EndTime,image_18.started,image_18.stopped,text_69.started,text_69.stopped,recall_audio.filename,recall_audio.started,recall_audio.stopped,key_resp_25.keys,key_resp_25.rt,key_resp_25.started,key_resp_25.stopped,participant,s1,s2,l1,l2,story_listening,play_stories,behavioral,date,expName,psychopyVersion,frameRate,
,,,,,,,,,,,,,,,,,,,,,[23 21 41 12 32 14 34 43],[1 3 2 3 2 1 4 4],[31 13 44 22 11 42 33 24],[2 1 4 3 3 2 4 1],89888,2.309495513094589,23.863677408080548,None,space,1.2849520382005721,23.863677408080548,None,,,,,,,,,,,,,,,,,,,,,,,,,,,,,,,,,ok,0,1,0,1,0,0,0,2020_Jan_07_1138,fmri_ebs,3.2.1,59.857580436410295,
,,,,,,,,,,,,,,,,,,,,,,,,,,,,,,,,,25.17901432607323,None,26.179064518073574,None,5,1.418018314987421,26.179064518073574,None,,,,,,,,,,,,,,,,,,,,,,,,,ok,0,1,0,1,0,0,0,2020_Jan_07_1138,fmri_ebs,3.2.1,59.857580436410295,
0,,,,,,,,,0,0,0,0,,,,,0,0,0,0,,,,,,,,,,,,,,,,,,,,,6.590253758011386,27.67940478795208,None,space,0.6086515069473535,27.67940478795208,None,27.67940478795208,None,27.67940478795208,None,0.6846251538954675,1.8836026599165052,28.56327608600259,None,28.56327608600259,None,/Users/alexreblando/Documents/GitHub/ebs/fMRI experiment/data/ok_fmri_ebs_wav/recall_audio-1578415106.564.wav,0.010166812920942903,None,space,0.9328690678812563,28.56327608600259,None,ok,0,1,0,1,0,0,0,2020_Jan_07_1138,fmri_ebs,3.2.1,59.857580436410295,
0,,,,,,,,,0,0,0,0,,,,,,,,,,,,,,,,,,,,,,,,,,,,,,,,,,,,,,,,,,,,,,,,,,,,,ok,0,1,0,1,0,0,0,2020_Jan_07_1138,fmri_ebs,3.2.1,59.857580436410295,
1,,,,,,,,,0,1,1,1,,,,,,,,,,,,,,,,,,,,,,,,,,,,,,,,,,,,,,,,,,,,,,,,,,,,,ok,0,1,0,1,0,0,0,2020_Jan_07_1138,fmri_ebs,3.2.1,59.857580436410295,
2,,,,,,,,,0,2,2,2,,,,,0,0,0,0,,,,,,,,,,,,,,,,,,,,,,29.529396923957393,None,space,1.398578700143844,29.529396923957393,None,29.529396923957393,None,29.529396923957393,None,3.319100626045838,5.167299950029701,31.029693473130465,None,31.029693473130465,None,/Users/alexreblando/Documents/GitHub/ebs/fMRI experiment/data/ok_fmri_ebs_wav/recall_audio-1578415109.031.wav,0.010955305770039558,None,space,1.745248198043555,31.029693473130465,None,ok,0,1,0,1,0,0,0,2020_Jan_07_1138,fmri_ebs,3.2.1,59.857580436410295,
2,,,,,,,,,0,2,2,2,,,,,,,,,,,,,,,,,,,,,,,,,,,,,,,,,,,,,,,,,,,,,,,,,,,,,ok,0,1,0,1,0,0,0,2020_Jan_07_1138,fmri_ebs,3.2.1,59.857580436410295,
3,,,,,,,,,0,3,3,3,,,,,,,,,,,,,,,,,,,,,,,,,,,,,,,,,,,,,,,,,,,,,,,,,,,,,ok,0,1,0,1,0,0,0,2020_Jan_07_1138,fmri_ebs,3.2.1,59.857580436410295,
4,,,,,,,,,0,4,4,4,,,,,0,0,0,0,,,,,,,,,,,,,,,,,,,,,,32.830152675975114,None,space,1.2596772199030966,32.830152675975114,None,32.830152675975114,None,32.830152675975114,None,6.48475998500362,8.033956866944209,34.18093192600645,None,34.18093192600645,None,/Users/alexreblando/Documents/GitHub/ebs/fMRI experiment/data/ok_fmri_ebs_wav/recall_audio-1578415112.182.wav,0.011833094991743565,None,space,1.4586299839429557,34.18093192600645,None,ok,0,1,0,1,0,0,0,2020_Jan_07_1138,fmri_ebs,3.2.1,59.857580436410295,
4,,,,,,,,,0,4,4,4,,,,,,,,,,,,,,,,,,,,,,,,,,,,,,,,,,,,,,,,,,,,,,,,,,,,,ok,0,1,0,1,0,0,0,2020_Jan_07_1138,fmri_ebs,3.2.1,59.857580436410295,
5,,,,,,,,,0,5,5,5,,,,,0,0,0,0,,,,,,,,,,,,,,,,,,,,,,35.68014132999815,None,space,1.1063525769859552,35.68014132999815,None,35.68014132999815,None,35.68014132999815,None,9.186459496850148,10.483738836832345,36.880879793083295,None,36.880879793083295,None,/Users/alexreblando/Documents/GitHub/ebs/fMRI experiment/data/ok_fmri_ebs_wav/recall_audio-1578415115.882.wav,0.013680923031643033,None,space,1.212717239977792,36.880879793083295,None,ok,0,1,0,1,0,0,0,2020_Jan_07_1138,fmri_ebs,3.2.1,59.857580436410295,
5,,,,,,,,,0,5,5,5,,,,,,,,,,,,,,,,,,,,,,,,,,,,,,,,,,,,,,,,,,,,,,,,,,,,,ok,0,1,0,1,0,0,0,2020_Jan_07_1138,fmri_ebs,3.2.1,59.857580436410295,
6,,,,,,,,,0,6,6,6,,,,,0,0,0,0,,,,,,,,,,,,,,,,,,,,,,38.147276039933786,None,space,1.1741851279512048,38.147276039933786,None,38.147276039933786,None,38.147276039933786,None,11.72116397996433,12.950220871949568,39.39672479312867,None,39.39672479312867,None,/Users/alexreblando/Documents/GitHub/ebs/fMRI experiment/data/ok_fmri_ebs_wav/recall_audio-1578415117.398.wav,0.007829186972230673,None,space,1.1656734170392156,39.39672479312867,None,ok,0,1,0,1,0,0,0,2020_Jan_07_1138,fmri_ebs,3.2.1,59.857580436410295,
﻿count,trials_14.thisRepN,trials_14.thisTrialN,trials_14.thisN,trials_14.thisIndex,behav_recall_instructions.thisRepN,behav_recall_instructions.thisTrialN,behav_recall_instructions.thisN,behav_recall_instructions.thisIndex,trials_4.thisRepN,trials_4.thisTrialN,trials_4.thisN,trials_4.thisIndex,trials_13.thisRepN,trials_13.thisTrialN,trials_13.thisN,trials_13.thisIndex,trials_17.thisRepN,trials_17.thisTrialN,trials_17.thisN,trials_17.thisIndex,story_list_block1,action_list_block1,story_list_block2,action_list_block2,testing,story time,text_45.started,text_45.stopped,key_resp_6.keys,key_resp_6.rt,key_resp_6.started,key_resp_6.stopped,text_70.started,text_70.stopped,textTrigger.started,textTrigger.stopped,getTrigger.keys,getTrigger.rt,getTrigger.started,getTrigger.stopped,triggerTime,text_41.started,text_41.stopped,key_resp_10.keys,key_resp_10.rt,key_resp_10.started,key_resp_10.stopped,text_42.started,text_42.stopped,text_51.started,text_51.stopped,recall_StartTime,recall_EndTime,image_18.started,image_18.stopped,text_69.started,text_69.stopped,recall_audio.filename,recall_audio.started,recall_audio.stopped,key_resp_25.keys,key_resp_25.rt,key_resp_25.started,key_resp_25.stopped,participant,s1,s2,l1,l2,story_listening,play_stories,behavioral,date,expName,psychopyVersion,frameRate,
,,,,,,,,,,,,,,,,,,,,,[23 21 41 12 32 14 34 43],[1 3 2 3 2 1 4 4],[31 13 44 22 11 42 33 24],[2 1 4 3 3 2 4 1],89888,2.309495513094589,23.863677408080548,None,space,1.2849520382005721,23.863677408080548,None,,,,,,,,,,,,,,,,,,,,,,,,,,,,,,,,,ok,0,1,0,1,0,0,0,2020_Jan_07_1138,fmri_ebs,3.2.1,59.857580436410295,
,,,,,,,,,,,,,,,,,,,,,,,,,,,,,,,,,25.17901432607323,None,26.179064518073574,None,5,1.418018314987421,26.179064518073574,None,,,,,,,,,,,,,,,,,,,,,,,,,ok,0,1,0,1,0,0,0,2020_Jan_07_1138,fmri_ebs,3.2.1,59.857580436410295,
0,,,,,,,,,0,0,0,0,,,,,0,0,0,0,,,,,,,,,,,,,,,,,,,,,6.590253758011386,27.67940478795208,None,space,0.6086515069473535,27.67940478795208,None,27.67940478795208,None,27.67940478795208,None,0.6846251538954675,1.8836026599165052,28.56327608600259,None,28.56327608600259,None,/Users/alexreblando/Documents/GitHub/ebs/fMRI experiment/data/ok_fmri_ebs_wav/recall_audio-1578415106.564.wav,0.010166812920942903,None,space,0.9328690678812563,28.56327608600259,None,ok,0,1,0,1,0,0,0,2020_Jan_07_1138,fmri_ebs,3.2.1,59.857580436410295,
0,,,,,,,,,0,0,0,0,,,,,,,,,,,,,,,,,,,,,,,,,,,,,,,,,,,,,,,,,,,,,,,,,,,,,ok,0,1,0,1,0,0,0,2020_Jan_07_1138,fmri_ebs,3.2.1,59.857580436410295,
1,,,,,,,,,0,1,1,1,,,,,,,,,,,,,,,,,,,,,,,,,,,,,,,,,,,,,,,,,,,,,,,,,,,,,ok,0,1,0,1,0,0,0,2020_Jan_07_1138,fmri_ebs,3.2.1,59.857580436410295,
2,,,,,,,,,0,2,2,2,,,,,0,0,0,0,,,,,,,,,,,,,,,,,,,,,,29.529396923957393,None,space,1.398578700143844,29.529396923957393,None,29.529396923957393,None,29.529396923957393,None,3.319100626045838,5.167299950029701,31.029693473130465,None,31.029693473130465,None,/Users/alexreblando/Documents/GitHub/ebs/fMRI experiment/data/ok_fmri_ebs_wav/recall_audio-1578415109.031.wav,0.010955305770039558,None,space,1.745248198043555,31.029693473130465,None,ok,0,1,0,1,0,0,0,2020_Jan_07_1138,fmri_ebs,3.2.1,59.857580436410295,
2,,,,,,,,,0,2,2,2,,,,,,,,,,,,,,,,,,,,,,,,,,,,,,,,,,,,,,,,,,,,,,,,,,,,,ok,0,1,0,1,0,0,0,2020_Jan_07_1138,fmri_ebs,3.2.1,59.857580436410295,
3,,,,,,,,,0,3,3,3,,,,,,,,,,,,,,,,,,,,,,,,,,,,,,,,,,,,,,,,,,,,,,,,,,,,,ok,0,1,0,1,0,0,0,2020_Jan_07_1138,fmri_ebs,3.2.1,59.857580436410295,
4,,,,,,,,,0,4,4,4,,,,,0,0,0,0,,,,,,,,,,,,,,,,,,,,,,32.830152675975114,None,space,1.2596772199030966,32.830152675975114,None,32.830152675975114,None,32.830152675975114,None,6.48475998500362,8.033956866944209,34.18093192600645,None,34.18093192600645,None,/Users/alexreblando/Documents/GitHub/ebs/fMRI experiment/data/ok_fmri_ebs_wav/recall_audio-1578415112.182.wav,0.011833094991743565,None,space,1.4586299839429557,34.18093192600645,None,ok,0,1,0,1,0,0,0,2020_Jan_07_1138,fmri_ebs,3.2.1,59.857580436410295,
4,,,,,,,,,0,4,4,4,,,,,,,,,,,,,,,,,,,,,,,,,,,,,,,,,,,,,,,,,,,,,,,,,,,,,ok,0,1,0,1,0,0,0,2020_Jan_07_1138,fmri_ebs,3.2.1,59.857580436410295,
5,,,,,,,,,0,5,5,5,,,,,0,0,0,0,,,,,,,,,,,,,,,,,,,,,,35.68014132999815,None,space,1.1063525769859552,35.68014132999815,None,35.68014132999815,None,35.68014132999815,None,9.186459496850148,10.483738836832345,36.880879793083295,None,36.880879793083295,None,/Users/alexreblando/Documents/GitHub/ebs/fMRI experiment/data/ok_fmri_ebs_wav/recall_audio-1578415115.882.wav,0.013680923031643033,None,space,1.212717239977792,36.880879793083295,None,ok,0,1,0,1,0,0,0,2020_Jan_07_1138,fmri_ebs,3.2.1,59.857580436410295,
5,,,,,,,,,0,5,5,5,,,,,,,,,,,,,,,,,,,,,,,,,,,,,,,,,,,,,,,,,,,,,,,,,,,,,ok,0,1,0,1,0,0,0,2020_Jan_07_1138,fmri_ebs,3.2.1,59.857580436410295,
6,,,,,,,,,0,6,6,6,,,,,0,0,0,0,,,,,,,,,,,,,,,,,,,,,,38.147276039933786,None,space,1.1741851279512048,38.147276039933786,None,38.147276039933786,None,38.147276039933786,None,11.72116397996433,12.950220871949568,39.39672479312867,None,39.39672479312867,None,/Users/alexreblando/Documents/GitHub/ebs/fMRI experiment/data/ok_fmri_ebs_wav/recall_audio-1578415117.398.wav,0.007829186972230673,None,space,1.1656734170392156,39.39672479312867,None,ok,0,1,0,1,0,0,0,2020_Jan_07_1138,fmri_ebs,3.2.1,59.857580436410295,
6,,,,,,,,,0,6,6,6,,,,,,,,,,,,,,,,,,,,,,,,,,,,,,,,,,,,,,,,,,,,,,,,,,,,,ok,0,1,0,1,0,0,0,2020_Jan_07_1138,fmri_ebs,3.2.1,59.857580436410295,
7,,,,,,,,,0,7,7,7,,,,,0,0,0,0,,,,,,,,,,,,,,,,,,,,,,40.59663742012344,None,space,1.049710975959897,40.59663742012344,None,40.59663742012344,None,40.59663742012344,None,14.03692061593756,15.100570000009611,41.713696060935035,None,41.713696060935035,None,/Users/alexreblando/Documents/GitHub/ebs/fMRI experiment/data/ok_fmri_ebs_wav/recall_audio-1578415120.715.wav,0.013269460992887616,None,space,0.9986066701821983,41.713696060935035,None,ok,0,1,0,1,0,0,0,2020_Jan_07_1138,fmri_ebs,3.2.1,59.857580436410295,
﻿count,trials_14.thisRepN,trials_14.thisTrialN,trials_14.thisN,trials_14.thisIndex,behav_recall_instructions.thisRepN,behav_recall_instructions.thisTrialN,behav_recall_instructions.thisN,behav_recall_instructions.thisIndex,trials_4.thisRepN,trials_4.thisTrialN,trials_4.thisN,trials_4.thisIndex,trials_13.thisRepN,trials_13.thisTrialN,trials_13.thisN,trials_13.thisIndex,trials_17.thisRepN,trials_17.thisTrialN,trials_17.thisN,trials_17.thisIndex,trials_20.thisRepN,trials_20.thisTrialN,trials_20.thisN,trials_20.thisIndex,trials_18.thisRepN,trials_18.thisTrialN,trials_18.thisN,trials_18.thisIndex,trials_19.thisRepN,trials_19.thisTrialN,trials_19.thisN,trials_19.thisIndex,story_list_block1,action_list_block1,story_list_block2,action_list_block2,testing,story time,text_45.started,text_45.stopped,key_resp_6.keys,key_resp_6.rt,key_resp_6.started,key_resp_6.stopped,text_70.started,text_70.stopped,textTrigger.started,textTrigger.stopped,getTrigger.keys,getTrigger.rt,getTrigger.started,getTrigger.stopped,triggerTime,text_41.started,text_41.stopped,key_resp_10.keys,key_resp_10.rt,key_resp_10.started,key_resp_10.stopped,text_42.started,text_42.stopped,text_51.started,text_51.stopped,recall_StartTime,recall_EndTime,image_18.started,image_18.stopped,text_69.started,text_69.stopped,recall_audio.filename,recall_audio.started,recall_audio.stopped,key_resp_25.keys,key_resp_25.rt,key_resp_25.started,key_resp_25.stopped,text_71.started,text_71.stopped,image_20.started,image_20.stopped,text_75.started,text_75.stopped,recall_audio_2.filename,recall_audio_2.started,recall_audio_2.stopped,key_resp_26.keys,key_resp_26.rt,key_resp_26.started,key_resp_26.stopped,participant,s1,s2,l1,l2,story_listening,play_stories,behavioral,date,expName,psychopyVersion,frameRate,
,,,,,,,,,,,,,,,,,,,,,,,,,,,,,,,,,[23 21 41 12 32 14 34 43],[1 3 2 3 2 1 4 4],[31 13 44 22 11 42 33 24],[2 1 4 3 3 2 4 1],89888,2.309495513094589,23.863677408080548,None,space,1.2849520382005721,23.863677408080548,None,,,,,,,,,,,,,,,,,,,,,,,,,,,,,,,,,,,,,,,,,,,,,,ok,0,1,0,1,0,0,0,2020_Jan_07_1138,fmri_ebs,3.2.1,59.857580436410295,
,,,,,,,,,,,,,,,,,,,,,,,,,,,,,,,,,,,,,,,,,,,,,25.17901432607323,None,26.179064518073574,None,5,1.418018314987421,26.179064518073574,None,,,,,,,,,,,,,,,,,,,,,,,,,,,,,,,,,,,,,,ok,0,1,0,1,0,0,0,2020_Jan_07_1138,fmri_ebs,3.2.1,59.857580436410295,
0,,,,,,,,,0,0,0,0,,,,,0,0,0,0,,,,,,,,,,,,,,,,,,,,,,,,,,,,,,,,,6.590253758011386,27.67940478795208,None,space,0.6086515069473535,27.67940478795208,None,27.67940478795208,None,27.67940478795208,None,0.6846251538954675,1.8836026599165052,28.56327608600259,None,28.56327608600259,None,/Users/alexreblando/Documents/GitHub/ebs/fMRI experiment/data/ok_fmri_ebs_wav/recall_audio-1578415106.564.wav,0.010166812920942903,None,space,0.9328690678812563,28.56327608600259,None,,,,,,,,,,,,,,ok,0,1,0,1,0,0,0,2020_Jan_07_1138,fmri_ebs,3.2.1,59.857580436410295,
0,,,,,,,,,0,0,0,0,,,,,,,,,,,,,,,,,,,,,,,,,,,,,,,,,,,,,,,,,,,,,,,,,,,,,,,,,,,,,,,,,,,,,,,,,,,,,,ok,0,1,0,1,0,0,0,2020_Jan_07_1138,fmri_ebs,3.2.1,59.857580436410295,
1,,,,,,,,,0,1,1,1,,,,,,,,,,,,,,,,,,,,,,,,,,,,,,,,,,,,,,,,,,,,,,,,,,,,,,,,,,,,,,,,,,,,,,,,,,,,,,ok,0,1,0,1,0,0,0,2020_Jan_07_1138,fmri_ebs,3.2.1,59.857580436410295,
2,,,,,,,,,0,2,2,2,,,,,0,0,0,0,,,,,,,,,,,,,,,,,,,,,,,,,,,,,,,,,,29.529396923957393,None,space,1.398578700143844,29.529396923957393,None,29.529396923957393,None,29.529396923957393,None,3.319100626045838,5.167299950029701,31.029693473130465,None,31.029693473130465,None,/Users/alexreblando/Documents/GitHub/ebs/fMRI experiment/data/ok_fmri_ebs_wav/recall_audio-1578415109.031.wav,0.010955305770039558,None,space,1.745248198043555,31.029693473130465,None,,,,,,,,,,,,,,ok,0,1,0,1,0,0,0,2020_Jan_07_1138,fmri_ebs,3.2.1,59.857580436410295,
2,,,,,,,,,0,2,2,2,,,,,,,,,,,,,,,,,,,,,,,,,,,,,,,,,,,,,,,,,,,,,,,,,,,,,,,,,,,,,,,,,,,,,,,,,,,,,,ok,0,1,0,1,0,0,0,2020_Jan_07_1138,fmri_ebs,3.2.1,59.857580436410295,
3,,,,,,,,,0,3,3,3,,,,,,,,,,,,,,,,,,,,,,,,,,,,,,,,,,,,,,,,,,,,,,,,,,,,,,,,,,,,,,,,,,,,,,,,,,,,,,ok,0,1,0,1,0,0,0,2020_Jan_07_1138,fmri_ebs,3.2.1,59.857580436410295,
4,,,,,,,,,0,4,4,4,,,,,0,0,0,0,,,,,,,,,,,,,,,,,,,,,,,,,,,,,,,,,,32.830152675975114,None,space,1.2596772199030966,32.830152675975114,None,32.830152675975114,None,32.830152675975114,None,6.48475998500362,8.033956866944209,34.18093192600645,None,34.18093192600645,None,/Users/alexreblando/Documents/GitHub/ebs/fMRI experiment/data/ok_fmri_ebs_wav/recall_audio-1578415112.182.wav,0.011833094991743565,None,space,1.4586299839429557,34.18093192600645,None,,,,,,,,,,,,,,ok,0,1,0,1,0,0,0,2020_Jan_07_1138,fmri_ebs,3.2.1,59.857580436410295,
4,,,,,,,,,0,4,4,4,,,,,,,,,,,,,,,,,,,,,,,,,,,,,,,,,,,,,,,,,,,,,,,,,,,,,,,,,,,,,,,,,,,,,,,,,,,,,,ok,0,1,0,1,0,0,0,2020_Jan_07_1138,fmri_ebs,3.2.1,59.857580436410295,
5,,,,,,,,,0,5,5,5,,,,,0,0,0,0,,,,,,,,,,,,,,,,,,,,,,,,,,,,,,,,,,35.68014132999815,None,space,1.1063525769859552,35.68014132999815,None,35.68014132999815,None,35.68014132999815,None,9.186459496850148,10.483738836832345,36.880879793083295,None,36.880879793083295,None,/Users/alexreblando/Documents/GitHub/ebs/fMRI experiment/data/ok_fmri_ebs_wav/recall_audio-1578415115.882.wav,0.013680923031643033,None,space,1.212717239977792,36.880879793083295,None,,,,,,,,,,,,,,ok,0,1,0,1,0,0,0,2020_Jan_07_1138,fmri_ebs,3.2.1,59.857580436410295,
5,,,,,,,,,0,5,5,5,,,,,,,,,,,,,,,,,,,,,,,,,,,,,,,,,,,,,,,,,,,,,,,,,,,,,,,,,,,,,,,,,,,,,,,,,,,,,,ok,0,1,0,1,0,0,0,2020_Jan_07_1138,fmri_ebs,3.2.1,59.857580436410295,
6,,,,,,,,,0,6,6,6,,,,,0,0,0,0,,,,,,,,,,,,,,,,,,,,,,,,,,,,,,,,,,38.147276039933786,None,space,1.1741851279512048,38.147276039933786,None,38.147276039933786,None,38.147276039933786,None,11.72116397996433,12.950220871949568,39.39672479312867,None,39.39672479312867,None,/Users/alexreblando/Documents/GitHub/ebs/fMRI experiment/data/ok_fmri_ebs_wav/recall_audio-1578415117.398.wav,0.007829186972230673,None,space,1.1656734170392156,39.39672479312867,None,,,,,,,,,,,,,,ok,0,1,0,1,0,0,0,2020_Jan_07_1138,fmri_ebs,3.2.1,59.857580436410295,
6,,,,,,,,,0,6,6,6,,,,,,,,,,,,,,,,,,,,,,,,,,,,,,,,,,,,,,,,,,,,,,,,,,,,,,,,,,,,,,,,,,,,,,,,,,,,,,ok,0,1,0,1,0,0,0,2020_Jan_07_1138,fmri_ebs,3.2.1,59.857580436410295,
7,,,,,,,,,0,7,7,7,,,,,0,0,0,0,,,,,,,,,,,,,,,,,,,,,,,,,,,,,,,,,,40.59663742012344,None,space,1.049710975959897,40.59663742012344,None,40.59663742012344,None,40.59663742012344,None,14.03692061593756,15.100570000009611,41.713696060935035,None,41.713696060935035,None,/Users/alexreblando/Documents/GitHub/ebs/fMRI experiment/data/ok_fmri_ebs_wav/recall_audio-1578415120.715.wav,0.013269460992887616,None,space,0.9986066701821983,41.713696060935035,None,,,,,,,,,,,,,,ok,0,1,0,1,0,0,0,2020_Jan_07_1138,fmri_ebs,3.2.1,59.857580436410295,
7,,,,,,,,,0,7,7,7,,,,,,,,,,,,,,,,,,,,,,,,,,,,,,,,,,,,,,,,,,,,,,,,,,,,,,,,,,,,,,,,,,,,,,,,,,,,,,ok,0,1,0,1,0,0,0,2020_Jan_07_1138,fmri_ebs,3.2.1,59.857580436410295,
,,,,,,,,,,,,,,,,,,,,,,,,,,,,,,,,,,,,,,,,,,,,,,,43.73060433799401,None,5,1.1915061250329018,43.73060433799401,None,,,,,,,,,,,,,,,,,,,,,,,,,42.730838956078514,None,,,,,,,,,,,,ok,0,1,0,1,0,0,0,2020_Jan_07_1138,fmri_ebs,3.2.1,59.857580436410295,
0,,,,,,,,,,,,,,,,,,,,,0,0,0,0,,,,,0,0,0,0,,,,,,,,,,,,,,,,,,,,,23.90841967286542,44.98062098794617,None,space,0.48042038292624056,44.98062098794617,None,44.98062098794617,None,44.98062098794617,None,0.535131422104314,2.032700157025829,,,,,,,,,,,,,,45.54786219098605,None,45.54786219098605,None,/Users/alexreblando/Documents/GitHub/ebs/fMRI experiment/data/ok_fmri_ebs_wav/recall_audio_2-1578415123.549.wav,0.0017589698545634747,None,space,1.4010010529309511,45.54786219098605,None,ok,0,1,0,1,0,0,0,2020_Jan_07_1138,fmri_ebs,3.2.1,59.857580436410295,
﻿count,trials_14.thisRepN,trials_14.thisTrialN,trials_14.thisN,trials_14.thisIndex,behav_recall_instructions.thisRepN,behav_recall_instructions.thisTrialN,behav_recall_instructions.thisN,behav_recall_instructions.thisIndex,trials_4.thisRepN,trials_4.thisTrialN,trials_4.thisN,trials_4.thisIndex,trials_13.thisRepN,trials_13.thisTrialN,trials_13.thisN,trials_13.thisIndex,trials_17.thisRepN,trials_17.thisTrialN,trials_17.thisN,trials_17.thisIndex,trials_20.thisRepN,trials_20.thisTrialN,trials_20.thisN,trials_20.thisIndex,trials_18.thisRepN,trials_18.thisTrialN,trials_18.thisN,trials_18.thisIndex,trials_19.thisRepN,trials_19.thisTrialN,trials_19.thisN,trials_19.thisIndex,story_list_block1,action_list_block1,story_list_block2,action_list_block2,testing,story time,text_45.started,text_45.stopped,key_resp_6.keys,key_resp_6.rt,key_resp_6.started,key_resp_6.stopped,text_70.started,text_70.stopped,textTrigger.started,textTrigger.stopped,getTrigger.keys,getTrigger.rt,getTrigger.started,getTrigger.stopped,triggerTime,text_41.started,text_41.stopped,key_resp_10.keys,key_resp_10.rt,key_resp_10.started,key_resp_10.stopped,text_42.started,text_42.stopped,text_51.started,text_51.stopped,recall_StartTime,recall_EndTime,image_18.started,image_18.stopped,text_69.started,text_69.stopped,recall_audio.filename,recall_audio.started,recall_audio.stopped,key_resp_25.keys,key_resp_25.rt,key_resp_25.started,key_resp_25.stopped,text_71.started,text_71.stopped,image_20.started,image_20.stopped,text_75.started,text_75.stopped,recall_audio_2.filename,recall_audio_2.started,recall_audio_2.stopped,key_resp_26.keys,key_resp_26.rt,key_resp_26.started,key_resp_26.stopped,participant,s1,s2,l1,l2,story_listening,play_stories,behavioral,date,expName,psychopyVersion,frameRate,
,,,,,,,,,,,,,,,,,,,,,,,,,,,,,,,,,[23 21 41 12 32 14 34 43],[1 3 2 3 2 1 4 4],[31 13 44 22 11 42 33 24],[2 1 4 3 3 2 4 1],89888,2.309495513094589,23.863677408080548,None,space,1.2849520382005721,23.863677408080548,None,,,,,,,,,,,,,,,,,,,,,,,,,,,,,,,,,,,,,,,,,,,,,,ok,0,1,0,1,0,0,0,2020_Jan_07_1138,fmri_ebs,3.2.1,59.857580436410295,
,,,,,,,,,,,,,,,,,,,,,,,,,,,,,,,,,,,,,,,,,,,,,25.17901432607323,None,26.179064518073574,None,5,1.418018314987421,26.179064518073574,None,,,,,,,,,,,,,,,,,,,,,,,,,,,,,,,,,,,,,,ok,0,1,0,1,0,0,0,2020_Jan_07_1138,fmri_ebs,3.2.1,59.857580436410295,
0,,,,,,,,,0,0,0,0,,,,,0,0,0,0,,,,,,,,,,,,,,,,,,,,,,,,,,,,,,,,,6.590253758011386,27.67940478795208,None,space,0.6086515069473535,27.67940478795208,None,27.67940478795208,None,27.67940478795208,None,0.6846251538954675,1.8836026599165052,28.56327608600259,None,28.56327608600259,None,/Users/alexreblando/Documents/GitHub/ebs/fMRI experiment/data/ok_fmri_ebs_wav/recall_audio-1578415106.564.wav,0.010166812920942903,None,space,0.9328690678812563,28.56327608600259,None,,,,,,,,,,,,,,ok,0,1,0,1,0,0,0,2020_Jan_07_1138,fmri_ebs,3.2.1,59.857580436410295,
0,,,,,,,,,0,0,0,0,,,,,,,,,,,,,,,,,,,,,,,,,,,,,,,,,,,,,,,,,,,,,,,,,,,,,,,,,,,,,,,,,,,,,,,,,,,,,,ok,0,1,0,1,0,0,0,2020_Jan_07_1138,fmri_ebs,3.2.1,59.857580436410295,
1,,,,,,,,,0,1,1,1,,,,,,,,,,,,,,,,,,,,,,,,,,,,,,,,,,,,,,,,,,,,,,,,,,,,,,,,,,,,,,,,,,,,,,,,,,,,,,ok,0,1,0,1,0,0,0,2020_Jan_07_1138,fmri_ebs,3.2.1,59.857580436410295,
2,,,,,,,,,0,2,2,2,,,,,0,0,0,0,,,,,,,,,,,,,,,,,,,,,,,,,,,,,,,,,,29.529396923957393,None,space,1.398578700143844,29.529396923957393,None,29.529396923957393,None,29.529396923957393,None,3.319100626045838,5.167299950029701,31.029693473130465,None,31.029693473130465,None,/Users/alexreblando/Documents/GitHub/ebs/fMRI experiment/data/ok_fmri_ebs_wav/recall_audio-1578415109.031.wav,0.010955305770039558,None,space,1.745248198043555,31.029693473130465,None,,,,,,,,,,,,,,ok,0,1,0,1,0,0,0,2020_Jan_07_1138,fmri_ebs,3.2.1,59.857580436410295,
2,,,,,,,,,0,2,2,2,,,,,,,,,,,,,,,,,,,,,,,,,,,,,,,,,,,,,,,,,,,,,,,,,,,,,,,,,,,,,,,,,,,,,,,,,,,,,,ok,0,1,0,1,0,0,0,2020_Jan_07_1138,fmri_ebs,3.2.1,59.857580436410295,
3,,,,,,,,,0,3,3,3,,,,,,,,,,,,,,,,,,,,,,,,,,,,,,,,,,,,,,,,,,,,,,,,,,,,,,,,,,,,,,,,,,,,,,,,,,,,,,ok,0,1,0,1,0,0,0,2020_Jan_07_1138,fmri_ebs,3.2.1,59.857580436410295,
4,,,,,,,,,0,4,4,4,,,,,0,0,0,0,,,,,,,,,,,,,,,,,,,,,,,,,,,,,,,,,,32.830152675975114,None,space,1.2596772199030966,32.830152675975114,None,32.830152675975114,None,32.830152675975114,None,6.48475998500362,8.033956866944209,34.18093192600645,None,34.18093192600645,None,/Users/alexreblando/Documents/GitHub/ebs/fMRI experiment/data/ok_fmri_ebs_wav/recall_audio-1578415112.182.wav,0.011833094991743565,None,space,1.4586299839429557,34.18093192600645,None,,,,,,,,,,,,,,ok,0,1,0,1,0,0,0,2020_Jan_07_1138,fmri_ebs,3.2.1,59.857580436410295,
4,,,,,,,,,0,4,4,4,,,,,,,,,,,,,,,,,,,,,,,,,,,,,,,,,,,,,,,,,,,,,,,,,,,,,,,,,,,,,,,,,,,,,,,,,,,,,,ok,0,1,0,1,0,0,0,2020_Jan_07_1138,fmri_ebs,3.2.1,59.857580436410295,
5,,,,,,,,,0,5,5,5,,,,,0,0,0,0,,,,,,,,,,,,,,,,,,,,,,,,,,,,,,,,,,35.68014132999815,None,space,1.1063525769859552,35.68014132999815,None,35.68014132999815,None,35.68014132999815,None,9.186459496850148,10.483738836832345,36.880879793083295,None,36.880879793083295,None,/Users/alexreblando/Documents/GitHub/ebs/fMRI experiment/data/ok_fmri_ebs_wav/recall_audio-1578415115.882.wav,0.013680923031643033,None,space,1.212717239977792,36.880879793083295,None,,,,,,,,,,,,,,ok,0,1,0,1,0,0,0,2020_Jan_07_1138,fmri_ebs,3.2.1,59.857580436410295,
5,,,,,,,,,0,5,5,5,,,,,,,,,,,,,,,,,,,,,,,,,,,,,,,,,,,,,,,,,,,,,,,,,,,,,,,,,,,,,,,,,,,,,,,,,,,,,,ok,0,1,0,1,0,0,0,2020_Jan_07_1138,fmri_ebs,3.2.1,59.857580436410295,
6,,,,,,,,,0,6,6,6,,,,,0,0,0,0,,,,,,,,,,,,,,,,,,,,,,,,,,,,,,,,,,38.147276039933786,None,space,1.1741851279512048,38.147276039933786,None,38.147276039933786,None,38.147276039933786,None,11.72116397996433,12.950220871949568,39.39672479312867,None,39.39672479312867,None,/Users/alexreblando/Documents/GitHub/ebs/fMRI experiment/data/ok_fmri_ebs_wav/recall_audio-1578415117.398.wav,0.007829186972230673,None,space,1.1656734170392156,39.39672479312867,None,,,,,,,,,,,,,,ok,0,1,0,1,0,0,0,2020_Jan_07_1138,fmri_ebs,3.2.1,59.857580436410295,
6,,,,,,,,,0,6,6,6,,,,,,,,,,,,,,,,,,,,,,,,,,,,,,,,,,,,,,,,,,,,,,,,,,,,,,,,,,,,,,,,,,,,,,,,,,,,,,ok,0,1,0,1,0,0,0,2020_Jan_07_1138,fmri_ebs,3.2.1,59.857580436410295,
7,,,,,,,,,0,7,7,7,,,,,0,0,0,0,,,,,,,,,,,,,,,,,,,,,,,,,,,,,,,,,,40.59663742012344,None,space,1.049710975959897,40.59663742012344,None,40.59663742012344,None,40.59663742012344,None,14.03692061593756,15.100570000009611,41.713696060935035,None,41.713696060935035,None,/Users/alexreblando/Documents/GitHub/ebs/fMRI experiment/data/ok_fmri_ebs_wav/recall_audio-1578415120.715.wav,0.013269460992887616,None,space,0.9986066701821983,41.713696060935035,None,,,,,,,,,,,,,,ok,0,1,0,1,0,0,0,2020_Jan_07_1138,fmri_ebs,3.2.1,59.857580436410295,
7,,,,,,,,,0,7,7,7,,,,,,,,,,,,,,,,,,,,,,,,,,,,,,,,,,,,,,,,,,,,,,,,,,,,,,,,,,,,,,,,,,,,,,,,,,,,,,ok,0,1,0,1,0,0,0,2020_Jan_07_1138,fmri_ebs,3.2.1,59.857580436410295,
,,,,,,,,,,,,,,,,,,,,,,,,,,,,,,,,,,,,,,,,,,,,,,,43.73060433799401,None,5,1.1915061250329018,43.73060433799401,None,,,,,,,,,,,,,,,,,,,,,,,,,42.730838956078514,None,,,,,,,,,,,,ok,0,1,0,1,0,0,0,2020_Jan_07_1138,fmri_ebs,3.2.1,59.857580436410295,
0,,,,,,,,,,,,,,,,,,,,,0,0,0,0,,,,,0,0,0,0,,,,,,,,,,,,,,,,,,,,,23.90841967286542,44.98062098794617,None,space,0.48042038292624056,44.98062098794617,None,44.98062098794617,None,44.98062098794617,None,0.535131422104314,2.032700157025829,,,,,,,,,,,,,,45.54786219098605,None,45.54786219098605,None,/Users/alexreblando/Documents/GitHub/ebs/fMRI experiment/data/ok_fmri_ebs_wav/recall_audio_2-1578415123.549.wav,0.0017589698545634747,None,space,1.4010010529309511,45.54786219098605,None,ok,0,1,0,1,0,0,0,2020_Jan_07_1138,fmri_ebs,3.2.1,59.857580436410295,
0,,,,,,,,,,,,,,,,,,,,,0,0,0,0,,,,,,,,,,,,,,,,,,,,,,,,,,,,,,,,,,,,,,,,,,,,,,,,,,,,,,,,,,,,,,,,,,ok,0,1,0,1,0,0,0,2020_Jan_07_1138,fmri_ebs,3.2.1,59.857580436410295,
1,,,,,,,,,,,,,,,,,,,,,0,1,1,1,,,,,0,0,0,0,,,,,,,,,,,,,,,,,,,,,,47.013455524109304,None,space,1.1193371068220586,47.013455524109304,None,47.013455524109304,None,47.013455524109304,None,3.2188353249803185,4.700738989980891,,,,,,,,,,,,,,48.23080864595249,None,48.23080864595249,None,/Users/alexreblando/Documents/GitHub/ebs/fMRI experiment/data/ok_fmri_ebs_wav/recall_audio_2-1578415126.232.wav,0.00417283596470952,None,space,1.3918796079233289,48.23080864595249,None,ok,0,1,0,1,0,0,0,2020_Jan_07_1138,fmri_ebs,3.2.1,59.857580436410295,
﻿count,trials_14.thisRepN,trials_14.thisTrialN,trials_14.thisN,trials_14.thisIndex,behav_recall_instructions.thisRepN,behav_recall_instructions.thisTrialN,behav_recall_instructions.thisN,behav_recall_instructions.thisIndex,trials_4.thisRepN,trials_4.thisTrialN,trials_4.thisN,trials_4.thisIndex,trials_13.thisRepN,trials_13.thisTrialN,trials_13.thisN,trials_13.thisIndex,trials_17.thisRepN,trials_17.thisTrialN,trials_17.thisN,trials_17.thisIndex,trials_20.thisRepN,trials_20.thisTrialN,trials_20.thisN,trials_20.thisIndex,trials_18.thisRepN,trials_18.thisTrialN,trials_18.thisN,trials_18.thisIndex,trials_19.thisRepN,trials_19.thisTrialN,trials_19.thisN,trials_19.thisIndex,story_list_block1,action_list_block1,story_list_block2,action_list_block2,testing,story time,text_45.started,text_45.stopped,key_resp_6.keys,key_resp_6.rt,key_resp_6.started,key_resp_6.stopped,text_70.started,text_70.stopped,textTrigger.started,textTrigger.stopped,getTrigger.keys,getTrigger.rt,getTrigger.started,getTrigger.stopped,triggerTime,text_41.started,text_41.stopped,key_resp_10.keys,key_resp_10.rt,key_resp_10.started,key_resp_10.stopped,text_42.started,text_42.stopped,text_51.started,text_51.stopped,recall_StartTime,recall_EndTime,image_18.started,image_18.stopped,text_69.started,text_69.stopped,recall_audio.filename,recall_audio.started,recall_audio.stopped,key_resp_25.keys,key_resp_25.rt,key_resp_25.started,key_resp_25.stopped,text_71.started,text_71.stopped,image_20.started,image_20.stopped,text_75.started,text_75.stopped,recall_audio_2.filename,recall_audio_2.started,recall_audio_2.stopped,key_resp_26.keys,key_resp_26.rt,key_resp_26.started,key_resp_26.stopped,participant,s1,s2,l1,l2,story_listening,play_stories,behavioral,date,expName,psychopyVersion,frameRate,
,,,,,,,,,,,,,,,,,,,,,,,,,,,,,,,,,[23 21 41 12 32 14 34 43],[1 3 2 3 2 1 4 4],[31 13 44 22 11 42 33 24],[2 1 4 3 3 2 4 1],89888,2.309495513094589,23.863677408080548,None,space,1.2849520382005721,23.863677408080548,None,,,,,,,,,,,,,,,,,,,,,,,,,,,,,,,,,,,,,,,,,,,,,,ok,0,1,0,1,0,0,0,2020_Jan_07_1138,fmri_ebs,3.2.1,59.857580436410295,
,,,,,,,,,,,,,,,,,,,,,,,,,,,,,,,,,,,,,,,,,,,,,25.17901432607323,None,26.179064518073574,None,5,1.418018314987421,26.179064518073574,None,,,,,,,,,,,,,,,,,,,,,,,,,,,,,,,,,,,,,,ok,0,1,0,1,0,0,0,2020_Jan_07_1138,fmri_ebs,3.2.1,59.857580436410295,
0,,,,,,,,,0,0,0,0,,,,,0,0,0,0,,,,,,,,,,,,,,,,,,,,,,,,,,,,,,,,,6.590253758011386,27.67940478795208,None,space,0.6086515069473535,27.67940478795208,None,27.67940478795208,None,27.67940478795208,None,0.6846251538954675,1.8836026599165052,28.56327608600259,None,28.56327608600259,None,/Users/alexreblando/Documents/GitHub/ebs/fMRI experiment/data/ok_fmri_ebs_wav/recall_audio-1578415106.564.wav,0.010166812920942903,None,space,0.9328690678812563,28.56327608600259,None,,,,,,,,,,,,,,ok,0,1,0,1,0,0,0,2020_Jan_07_1138,fmri_ebs,3.2.1,59.857580436410295,
0,,,,,,,,,0,0,0,0,,,,,,,,,,,,,,,,,,,,,,,,,,,,,,,,,,,,,,,,,,,,,,,,,,,,,,,,,,,,,,,,,,,,,,,,,,,,,,ok,0,1,0,1,0,0,0,2020_Jan_07_1138,fmri_ebs,3.2.1,59.857580436410295,
1,,,,,,,,,0,1,1,1,,,,,,,,,,,,,,,,,,,,,,,,,,,,,,,,,,,,,,,,,,,,,,,,,,,,,,,,,,,,,,,,,,,,,,,,,,,,,,ok,0,1,0,1,0,0,0,2020_Jan_07_1138,fmri_ebs,3.2.1,59.857580436410295,
2,,,,,,,,,0,2,2,2,,,,,0,0,0,0,,,,,,,,,,,,,,,,,,,,,,,,,,,,,,,,,,29.529396923957393,None,space,1.398578700143844,29.529396923957393,None,29.529396923957393,None,29.529396923957393,None,3.319100626045838,5.167299950029701,31.029693473130465,None,31.029693473130465,None,/Users/alexreblando/Documents/GitHub/ebs/fMRI experiment/data/ok_fmri_ebs_wav/recall_audio-1578415109.031.wav,0.010955305770039558,None,space,1.745248198043555,31.029693473130465,None,,,,,,,,,,,,,,ok,0,1,0,1,0,0,0,2020_Jan_07_1138,fmri_ebs,3.2.1,59.857580436410295,
2,,,,,,,,,0,2,2,2,,,,,,,,,,,,,,,,,,,,,,,,,,,,,,,,,,,,,,,,,,,,,,,,,,,,,,,,,,,,,,,,,,,,,,,,,,,,,,ok,0,1,0,1,0,0,0,2020_Jan_07_1138,fmri_ebs,3.2.1,59.857580436410295,
3,,,,,,,,,0,3,3,3,,,,,,,,,,,,,,,,,,,,,,,,,,,,,,,,,,,,,,,,,,,,,,,,,,,,,,,,,,,,,,,,,,,,,,,,,,,,,,ok,0,1,0,1,0,0,0,2020_Jan_07_1138,fmri_ebs,3.2.1,59.857580436410295,
4,,,,,,,,,0,4,4,4,,,,,0,0,0,0,,,,,,,,,,,,,,,,,,,,,,,,,,,,,,,,,,32.830152675975114,None,space,1.2596772199030966,32.830152675975114,None,32.830152675975114,None,32.830152675975114,None,6.48475998500362,8.033956866944209,34.18093192600645,None,34.18093192600645,None,/Users/alexreblando/Documents/GitHub/ebs/fMRI experiment/data/ok_fmri_ebs_wav/recall_audio-1578415112.182.wav,0.011833094991743565,None,space,1.4586299839429557,34.18093192600645,None,,,,,,,,,,,,,,ok,0,1,0,1,0,0,0,2020_Jan_07_1138,fmri_ebs,3.2.1,59.857580436410295,
4,,,,,,,,,0,4,4,4,,,,,,,,,,,,,,,,,,,,,,,,,,,,,,,,,,,,,,,,,,,,,,,,,,,,,,,,,,,,,,,,,,,,,,,,,,,,,,ok,0,1,0,1,0,0,0,2020_Jan_07_1138,fmri_ebs,3.2.1,59.857580436410295,
5,,,,,,,,,0,5,5,5,,,,,0,0,0,0,,,,,,,,,,,,,,,,,,,,,,,,,,,,,,,,,,35.68014132999815,None,space,1.1063525769859552,35.68014132999815,None,35.68014132999815,None,35.68014132999815,None,9.186459496850148,10.483738836832345,36.880879793083295,None,36.880879793083295,None,/Users/alexreblando/Documents/GitHub/ebs/fMRI experiment/data/ok_fmri_ebs_wav/recall_audio-1578415115.882.wav,0.013680923031643033,None,space,1.212717239977792,36.880879793083295,None,,,,,,,,,,,,,,ok,0,1,0,1,0,0,0,2020_Jan_07_1138,fmri_ebs,3.2.1,59.857580436410295,
5,,,,,,,,,0,5,5,5,,,,,,,,,,,,,,,,,,,,,,,,,,,,,,,,,,,,,,,,,,,,,,,,,,,,,,,,,,,,,,,,,,,,,,,,,,,,,,ok,0,1,0,1,0,0,0,2020_Jan_07_1138,fmri_ebs,3.2.1,59.857580436410295,
6,,,,,,,,,0,6,6,6,,,,,0,0,0,0,,,,,,,,,,,,,,,,,,,,,,,,,,,,,,,,,,38.147276039933786,None,space,1.1741851279512048,38.147276039933786,None,38.147276039933786,None,38.147276039933786,None,11.72116397996433,12.950220871949568,39.39672479312867,None,39.39672479312867,None,/Users/alexreblando/Documents/GitHub/ebs/fMRI experiment/data/ok_fmri_ebs_wav/recall_audio-1578415117.398.wav,0.007829186972230673,None,space,1.1656734170392156,39.39672479312867,None,,,,,,,,,,,,,,ok,0,1,0,1,0,0,0,2020_Jan_07_1138,fmri_ebs,3.2.1,59.857580436410295,
6,,,,,,,,,0,6,6,6,,,,,,,,,,,,,,,,,,,,,,,,,,,,,,,,,,,,,,,,,,,,,,,,,,,,,,,,,,,,,,,,,,,,,,,,,,,,,,ok,0,1,0,1,0,0,0,2020_Jan_07_1138,fmri_ebs,3.2.1,59.857580436410295,
7,,,,,,,,,0,7,7,7,,,,,0,0,0,0,,,,,,,,,,,,,,,,,,,,,,,,,,,,,,,,,,40.59663742012344,None,space,1.049710975959897,40.59663742012344,None,40.59663742012344,None,40.59663742012344,None,14.03692061593756,15.100570000009611,41.713696060935035,None,41.713696060935035,None,/Users/alexreblando/Documents/GitHub/ebs/fMRI experiment/data/ok_fmri_ebs_wav/recall_audio-1578415120.715.wav,0.013269460992887616,None,space,0.9986066701821983,41.713696060935035,None,,,,,,,,,,,,,,ok,0,1,0,1,0,0,0,2020_Jan_07_1138,fmri_ebs,3.2.1,59.857580436410295,
7,,,,,,,,,0,7,7,7,,,,,,,,,,,,,,,,,,,,,,,,,,,,,,,,,,,,,,,,,,,,,,,,,,,,,,,,,,,,,,,,,,,,,,,,,,,,,,ok,0,1,0,1,0,0,0,2020_Jan_07_1138,fmri_ebs,3.2.1,59.857580436410295,
,,,,,,,,,,,,,,,,,,,,,,,,,,,,,,,,,,,,,,,,,,,,,,,43.73060433799401,None,5,1.1915061250329018,43.73060433799401,None,,,,,,,,,,,,,,,,,,,,,,,,,42.730838956078514,None,,,,,,,,,,,,ok,0,1,0,1,0,0,0,2020_Jan_07_1138,fmri_ebs,3.2.1,59.857580436410295,
0,,,,,,,,,,,,,,,,,,,,,0,0,0,0,,,,,0,0,0,0,,,,,,,,,,,,,,,,,,,,,23.90841967286542,44.98062098794617,None,space,0.48042038292624056,44.98062098794617,None,44.98062098794617,None,44.98062098794617,None,0.535131422104314,2.032700157025829,,,,,,,,,,,,,,45.54786219098605,None,45.54786219098605,None,/Users/alexreblando/Documents/GitHub/ebs/fMRI experiment/data/ok_fmri_ebs_wav/recall_audio_2-1578415123.549.wav,0.0017589698545634747,None,space,1.4010010529309511,45.54786219098605,None,ok,0,1,0,1,0,0,0,2020_Jan_07_1138,fmri_ebs,3.2.1,59.857580436410295,
0,,,,,,,,,,,,,,,,,,,,,0,0,0,0,,,,,,,,,,,,,,,,,,,,,,,,,,,,,,,,,,,,,,,,,,,,,,,,,,,,,,,,,,,,,,,,,,ok,0,1,0,1,0,0,0,2020_Jan_07_1138,fmri_ebs,3.2.1,59.857580436410295,
1,,,,,,,,,,,,,,,,,,,,,0,1,1,1,,,,,0,0,0,0,,,,,,,,,,,,,,,,,,,,,,47.013455524109304,None,space,1.1193371068220586,47.013455524109304,None,47.013455524109304,None,47.013455524109304,None,3.2188353249803185,4.700738989980891,,,,,,,,,,,,,,48.23080864595249,None,48.23080864595249,None,/Users/alexreblando/Documents/GitHub/ebs/fMRI experiment/data/ok_fmri_ebs_wav/recall_audio_2-1578415126.232.wav,0.00417283596470952,None,space,1.3918796079233289,48.23080864595249,None,ok,0,1,0,1,0,0,0,2020_Jan_07_1138,fmri_ebs,3.2.1,59.857580436410295,
1,,,,,,,,,,,,,,,,,,,,,0,1,1,1,,,,,,,,,,,,,,,,,,,,,,,,,,,,,,,,,,,,,,,,,,,,,,,,,,,,,,,,,,,,,,,,,,ok,0,1,0,1,0,0,0,2020_Jan_07_1138,fmri_ebs,3.2.1,59.857580436410295,
2,,,,,,,,,,,,,,,,,,,,,0,2,2,2,,,,,0,0,0,0,,,,,,,,,,,,,,,,,,,,,,49.81452660309151,None,space,0.8952227130066603,49.81452660309151,None,49.81452660309151,None,49.81452660309151,None,5.785114657133818,7.066100903088227,,,,,,,,,,,,,,50.78206411609426,None,50.78206411609426,None,/Users/alexreblando/Documents/GitHub/ebs/fMRI experiment/data/ok_fmri_ebs_wav/recall_audio_2-1578415129.783.wav,0.004735999740660191,None,space,1.214611334959045,50.78206411609426,None,ok,0,1,0,1,0,0,0,2020_Jan_07_1138,fmri_ebs,3.2.1,59.857580436410295,
﻿count,trials_14.thisRepN,trials_14.thisTrialN,trials_14.thisN,trials_14.thisIndex,behav_recall_instructions.thisRepN,behav_recall_instructions.thisTrialN,behav_recall_instructions.thisN,behav_recall_instructions.thisIndex,trials_4.thisRepN,trials_4.thisTrialN,trials_4.thisN,trials_4.thisIndex,trials_13.thisRepN,trials_13.thisTrialN,trials_13.thisN,trials_13.thisIndex,trials_17.thisRepN,trials_17.thisTrialN,trials_17.thisN,trials_17.thisIndex,trials_20.thisRepN,trials_20.thisTrialN,trials_20.thisN,trials_20.thisIndex,trials_18.thisRepN,trials_18.thisTrialN,trials_18.thisN,trials_18.thisIndex,trials_19.thisRepN,trials_19.thisTrialN,trials_19.thisN,trials_19.thisIndex,story_list_block1,action_list_block1,story_list_block2,action_list_block2,testing,story time,text_45.started,text_45.stopped,key_resp_6.keys,key_resp_6.rt,key_resp_6.started,key_resp_6.stopped,text_70.started,text_70.stopped,textTrigger.started,textTrigger.stopped,getTrigger.keys,getTrigger.rt,getTrigger.started,getTrigger.stopped,triggerTime,text_41.started,text_41.stopped,key_resp_10.keys,key_resp_10.rt,key_resp_10.started,key_resp_10.stopped,text_42.started,text_42.stopped,text_51.started,text_51.stopped,recall_StartTime,recall_EndTime,image_18.started,image_18.stopped,text_69.started,text_69.stopped,recall_audio.filename,recall_audio.started,recall_audio.stopped,key_resp_25.keys,key_resp_25.rt,key_resp_25.started,key_resp_25.stopped,text_71.started,text_71.stopped,image_20.started,image_20.stopped,text_75.started,text_75.stopped,recall_audio_2.filename,recall_audio_2.started,recall_audio_2.stopped,key_resp_26.keys,key_resp_26.rt,key_resp_26.started,key_resp_26.stopped,participant,s1,s2,l1,l2,story_listening,play_stories,behavioral,date,expName,psychopyVersion,frameRate,
,,,,,,,,,,,,,,,,,,,,,,,,,,,,,,,,,[23 21 41 12 32 14 34 43],[1 3 2 3 2 1 4 4],[31 13 44 22 11 42 33 24],[2 1 4 3 3 2 4 1],89888,2.309495513094589,23.863677408080548,None,space,1.2849520382005721,23.863677408080548,None,,,,,,,,,,,,,,,,,,,,,,,,,,,,,,,,,,,,,,,,,,,,,,ok,0,1,0,1,0,0,0,2020_Jan_07_1138,fmri_ebs,3.2.1,59.857580436410295,
,,,,,,,,,,,,,,,,,,,,,,,,,,,,,,,,,,,,,,,,,,,,,25.17901432607323,None,26.179064518073574,None,5,1.418018314987421,26.179064518073574,None,,,,,,,,,,,,,,,,,,,,,,,,,,,,,,,,,,,,,,ok,0,1,0,1,0,0,0,2020_Jan_07_1138,fmri_ebs,3.2.1,59.857580436410295,
0,,,,,,,,,0,0,0,0,,,,,0,0,0,0,,,,,,,,,,,,,,,,,,,,,,,,,,,,,,,,,6.590253758011386,27.67940478795208,None,space,0.6086515069473535,27.67940478795208,None,27.67940478795208,None,27.67940478795208,None,0.6846251538954675,1.8836026599165052,28.56327608600259,None,28.56327608600259,None,/Users/alexreblando/Documents/GitHub/ebs/fMRI experiment/data/ok_fmri_ebs_wav/recall_audio-1578415106.564.wav,0.010166812920942903,None,space,0.9328690678812563,28.56327608600259,None,,,,,,,,,,,,,,ok,0,1,0,1,0,0,0,2020_Jan_07_1138,fmri_ebs,3.2.1,59.857580436410295,
0,,,,,,,,,0,0,0,0,,,,,,,,,,,,,,,,,,,,,,,,,,,,,,,,,,,,,,,,,,,,,,,,,,,,,,,,,,,,,,,,,,,,,,,,,,,,,,ok,0,1,0,1,0,0,0,2020_Jan_07_1138,fmri_ebs,3.2.1,59.857580436410295,
1,,,,,,,,,0,1,1,1,,,,,,,,,,,,,,,,,,,,,,,,,,,,,,,,,,,,,,,,,,,,,,,,,,,,,,,,,,,,,,,,,,,,,,,,,,,,,,ok,0,1,0,1,0,0,0,2020_Jan_07_1138,fmri_ebs,3.2.1,59.857580436410295,
2,,,,,,,,,0,2,2,2,,,,,0,0,0,0,,,,,,,,,,,,,,,,,,,,,,,,,,,,,,,,,,29.529396923957393,None,space,1.398578700143844,29.529396923957393,None,29.529396923957393,None,29.529396923957393,None,3.319100626045838,5.167299950029701,31.029693473130465,None,31.029693473130465,None,/Users/alexreblando/Documents/GitHub/ebs/fMRI experiment/data/ok_fmri_ebs_wav/recall_audio-1578415109.031.wav,0.010955305770039558,None,space,1.745248198043555,31.029693473130465,None,,,,,,,,,,,,,,ok,0,1,0,1,0,0,0,2020_Jan_07_1138,fmri_ebs,3.2.1,59.857580436410295,
2,,,,,,,,,0,2,2,2,,,,,,,,,,,,,,,,,,,,,,,,,,,,,,,,,,,,,,,,,,,,,,,,,,,,,,,,,,,,,,,,,,,,,,,,,,,,,,ok,0,1,0,1,0,0,0,2020_Jan_07_1138,fmri_ebs,3.2.1,59.857580436410295,
3,,,,,,,,,0,3,3,3,,,,,,,,,,,,,,,,,,,,,,,,,,,,,,,,,,,,,,,,,,,,,,,,,,,,,,,,,,,,,,,,,,,,,,,,,,,,,,ok,0,1,0,1,0,0,0,2020_Jan_07_1138,fmri_ebs,3.2.1,59.857580436410295,
4,,,,,,,,,0,4,4,4,,,,,0,0,0,0,,,,,,,,,,,,,,,,,,,,,,,,,,,,,,,,,,32.830152675975114,None,space,1.2596772199030966,32.830152675975114,None,32.830152675975114,None,32.830152675975114,None,6.48475998500362,8.033956866944209,34.18093192600645,None,34.18093192600645,None,/Users/alexreblando/Documents/GitHub/ebs/fMRI experiment/data/ok_fmri_ebs_wav/recall_audio-1578415112.182.wav,0.011833094991743565,None,space,1.4586299839429557,34.18093192600645,None,,,,,,,,,,,,,,ok,0,1,0,1,0,0,0,2020_Jan_07_1138,fmri_ebs,3.2.1,59.857580436410295,
4,,,,,,,,,0,4,4,4,,,,,,,,,,,,,,,,,,,,,,,,,,,,,,,,,,,,,,,,,,,,,,,,,,,,,,,,,,,,,,,,,,,,,,,,,,,,,,ok,0,1,0,1,0,0,0,2020_Jan_07_1138,fmri_ebs,3.2.1,59.857580436410295,
5,,,,,,,,,0,5,5,5,,,,,0,0,0,0,,,,,,,,,,,,,,,,,,,,,,,,,,,,,,,,,,35.68014132999815,None,space,1.1063525769859552,35.68014132999815,None,35.68014132999815,None,35.68014132999815,None,9.186459496850148,10.483738836832345,36.880879793083295,None,36.880879793083295,None,/Users/alexreblando/Documents/GitHub/ebs/fMRI experiment/data/ok_fmri_ebs_wav/recall_audio-1578415115.882.wav,0.013680923031643033,None,space,1.212717239977792,36.880879793083295,None,,,,,,,,,,,,,,ok,0,1,0,1,0,0,0,2020_Jan_07_1138,fmri_ebs,3.2.1,59.857580436410295,
5,,,,,,,,,0,5,5,5,,,,,,,,,,,,,,,,,,,,,,,,,,,,,,,,,,,,,,,,,,,,,,,,,,,,,,,,,,,,,,,,,,,,,,,,,,,,,,ok,0,1,0,1,0,0,0,2020_Jan_07_1138,fmri_ebs,3.2.1,59.857580436410295,
6,,,,,,,,,0,6,6,6,,,,,0,0,0,0,,,,,,,,,,,,,,,,,,,,,,,,,,,,,,,,,,38.147276039933786,None,space,1.1741851279512048,38.147276039933786,None,38.147276039933786,None,38.147276039933786,None,11.72116397996433,12.950220871949568,39.39672479312867,None,39.39672479312867,None,/Users/alexreblando/Documents/GitHub/ebs/fMRI experiment/data/ok_fmri_ebs_wav/recall_audio-1578415117.398.wav,0.007829186972230673,None,space,1.1656734170392156,39.39672479312867,None,,,,,,,,,,,,,,ok,0,1,0,1,0,0,0,2020_Jan_07_1138,fmri_ebs,3.2.1,59.857580436410295,
6,,,,,,,,,0,6,6,6,,,,,,,,,,,,,,,,,,,,,,,,,,,,,,,,,,,,,,,,,,,,,,,,,,,,,,,,,,,,,,,,,,,,,,,,,,,,,,ok,0,1,0,1,0,0,0,2020_Jan_07_1138,fmri_ebs,3.2.1,59.857580436410295,
7,,,,,,,,,0,7,7,7,,,,,0,0,0,0,,,,,,,,,,,,,,,,,,,,,,,,,,,,,,,,,,40.59663742012344,None,space,1.049710975959897,40.59663742012344,None,40.59663742012344,None,40.59663742012344,None,14.03692061593756,15.100570000009611,41.713696060935035,None,41.713696060935035,None,/Users/alexreblando/Documents/GitHub/ebs/fMRI experiment/data/ok_fmri_ebs_wav/recall_audio-1578415120.715.wav,0.013269460992887616,None,space,0.9986066701821983,41.713696060935035,None,,,,,,,,,,,,,,ok,0,1,0,1,0,0,0,2020_Jan_07_1138,fmri_ebs,3.2.1,59.857580436410295,
7,,,,,,,,,0,7,7,7,,,,,,,,,,,,,,,,,,,,,,,,,,,,,,,,,,,,,,,,,,,,,,,,,,,,,,,,,,,,,,,,,,,,,,,,,,,,,,ok,0,1,0,1,0,0,0,2020_Jan_07_1138,fmri_ebs,3.2.1,59.857580436410295,
,,,,,,,,,,,,,,,,,,,,,,,,,,,,,,,,,,,,,,,,,,,,,,,43.73060433799401,None,5,1.1915061250329018,43.73060433799401,None,,,,,,,,,,,,,,,,,,,,,,,,,42.730838956078514,None,,,,,,,,,,,,ok,0,1,0,1,0,0,0,2020_Jan_07_1138,fmri_ebs,3.2.1,59.857580436410295,
0,,,,,,,,,,,,,,,,,,,,,0,0,0,0,,,,,0,0,0,0,,,,,,,,,,,,,,,,,,,,,23.90841967286542,44.98062098794617,None,space,0.48042038292624056,44.98062098794617,None,44.98062098794617,None,44.98062098794617,None,0.535131422104314,2.032700157025829,,,,,,,,,,,,,,45.54786219098605,None,45.54786219098605,None,/Users/alexreblando/Documents/GitHub/ebs/fMRI experiment/data/ok_fmri_ebs_wav/recall_audio_2-1578415123.549.wav,0.0017589698545634747,None,space,1.4010010529309511,45.54786219098605,None,ok,0,1,0,1,0,0,0,2020_Jan_07_1138,fmri_ebs,3.2.1,59.857580436410295,
0,,,,,,,,,,,,,,,,,,,,,0,0,0,0,,,,,,,,,,,,,,,,,,,,,,,,,,,,,,,,,,,,,,,,,,,,,,,,,,,,,,,,,,,,,,,,,,ok,0,1,0,1,0,0,0,2020_Jan_07_1138,fmri_ebs,3.2.1,59.857580436410295,
1,,,,,,,,,,,,,,,,,,,,,0,1,1,1,,,,,0,0,0,0,,,,,,,,,,,,,,,,,,,,,,47.013455524109304,None,space,1.1193371068220586,47.013455524109304,None,47.013455524109304,None,47.013455524109304,None,3.2188353249803185,4.700738989980891,,,,,,,,,,,,,,48.23080864595249,None,48.23080864595249,None,/Users/alexreblando/Documents/GitHub/ebs/fMRI experiment/data/ok_fmri_ebs_wav/recall_audio_2-1578415126.232.wav,0.00417283596470952,None,space,1.3918796079233289,48.23080864595249,None,ok,0,1,0,1,0,0,0,2020_Jan_07_1138,fmri_ebs,3.2.1,59.857580436410295,
1,,,,,,,,,,,,,,,,,,,,,0,1,1,1,,,,,,,,,,,,,,,,,,,,,,,,,,,,,,,,,,,,,,,,,,,,,,,,,,,,,,,,,,,,,,,,,,ok,0,1,0,1,0,0,0,2020_Jan_07_1138,fmri_ebs,3.2.1,59.857580436410295,
2,,,,,,,,,,,,,,,,,,,,,0,2,2,2,,,,,0,0,0,0,,,,,,,,,,,,,,,,,,,,,,49.81452660309151,None,space,0.8952227130066603,49.81452660309151,None,49.81452660309151,None,49.81452660309151,None,5.785114657133818,7.066100903088227,,,,,,,,,,,,,,50.78206411609426,None,50.78206411609426,None,/Users/alexreblando/Documents/GitHub/ebs/fMRI experiment/data/ok_fmri_ebs_wav/recall_audio_2-1578415129.783.wav,0.004735999740660191,None,space,1.214611334959045,50.78206411609426,None,ok,0,1,0,1,0,0,0,2020_Jan_07_1138,fmri_ebs,3.2.1,59.857580436410295,
2,,,,,,,,,,,,,,,,,,,,,0,2,2,2,,,,,,,,,,,,,,,,,,,,,,,,,,,,,,,,,,,,,,,,,,,,,,,,,,,,,,,,,,,,,,,,,,ok,0,1,0,1,0,0,0,2020_Jan_07_1138,fmri_ebs,3.2.1,59.857580436410295,
﻿count,trials_14.thisRepN,trials_14.thisTrialN,trials_14.thisN,trials_14.thisIndex,behav_recall_instructions.thisRepN,behav_recall_instructions.thisTrialN,behav_recall_instructions.thisN,behav_recall_instructions.thisIndex,trials_4.thisRepN,trials_4.thisTrialN,trials_4.thisN,trials_4.thisIndex,trials_13.thisRepN,trials_13.thisTrialN,trials_13.thisN,trials_13.thisIndex,trials_17.thisRepN,trials_17.thisTrialN,trials_17.thisN,trials_17.thisIndex,trials_20.thisRepN,trials_20.thisTrialN,trials_20.thisN,trials_20.thisIndex,trials_18.thisRepN,trials_18.thisTrialN,trials_18.thisN,trials_18.thisIndex,trials_19.thisRepN,trials_19.thisTrialN,trials_19.thisN,trials_19.thisIndex,story_list_block1,action_list_block1,story_list_block2,action_list_block2,testing,story time,text_45.started,text_45.stopped,key_resp_6.keys,key_resp_6.rt,key_resp_6.started,key_resp_6.stopped,text_70.started,text_70.stopped,textTrigger.started,textTrigger.stopped,getTrigger.keys,getTrigger.rt,getTrigger.started,getTrigger.stopped,triggerTime,text_41.started,text_41.stopped,key_resp_10.keys,key_resp_10.rt,key_resp_10.started,key_resp_10.stopped,text_42.started,text_42.stopped,text_51.started,text_51.stopped,recall_StartTime,recall_EndTime,image_18.started,image_18.stopped,text_69.started,text_69.stopped,recall_audio.filename,recall_audio.started,recall_audio.stopped,key_resp_25.keys,key_resp_25.rt,key_resp_25.started,key_resp_25.stopped,text_71.started,text_71.stopped,image_20.started,image_20.stopped,text_75.started,text_75.stopped,recall_audio_2.filename,recall_audio_2.started,recall_audio_2.stopped,key_resp_26.keys,key_resp_26.rt,key_resp_26.started,key_resp_26.stopped,participant,s1,s2,l1,l2,story_listening,play_stories,behavioral,date,expName,psychopyVersion,frameRate,
,,,,,,,,,,,,,,,,,,,,,,,,,,,,,,,,,[23 21 41 12 32 14 34 43],[1 3 2 3 2 1 4 4],[31 13 44 22 11 42 33 24],[2 1 4 3 3 2 4 1],89888,2.309495513094589,23.863677408080548,None,space,1.2849520382005721,23.863677408080548,None,,,,,,,,,,,,,,,,,,,,,,,,,,,,,,,,,,,,,,,,,,,,,,ok,0,1,0,1,0,0,0,2020_Jan_07_1138,fmri_ebs,3.2.1,59.857580436410295,
,,,,,,,,,,,,,,,,,,,,,,,,,,,,,,,,,,,,,,,,,,,,,25.17901432607323,None,26.179064518073574,None,5,1.418018314987421,26.179064518073574,None,,,,,,,,,,,,,,,,,,,,,,,,,,,,,,,,,,,,,,ok,0,1,0,1,0,0,0,2020_Jan_07_1138,fmri_ebs,3.2.1,59.857580436410295,
0,,,,,,,,,0,0,0,0,,,,,0,0,0,0,,,,,,,,,,,,,,,,,,,,,,,,,,,,,,,,,6.590253758011386,27.67940478795208,None,space,0.6086515069473535,27.67940478795208,None,27.67940478795208,None,27.67940478795208,None,0.6846251538954675,1.8836026599165052,28.56327608600259,None,28.56327608600259,None,/Users/alexreblando/Documents/GitHub/ebs/fMRI experiment/data/ok_fmri_ebs_wav/recall_audio-1578415106.564.wav,0.010166812920942903,None,space,0.9328690678812563,28.56327608600259,None,,,,,,,,,,,,,,ok,0,1,0,1,0,0,0,2020_Jan_07_1138,fmri_ebs,3.2.1,59.857580436410295,
0,,,,,,,,,0,0,0,0,,,,,,,,,,,,,,,,,,,,,,,,,,,,,,,,,,,,,,,,,,,,,,,,,,,,,,,,,,,,,,,,,,,,,,,,,,,,,,ok,0,1,0,1,0,0,0,2020_Jan_07_1138,fmri_ebs,3.2.1,59.857580436410295,
1,,,,,,,,,0,1,1,1,,,,,,,,,,,,,,,,,,,,,,,,,,,,,,,,,,,,,,,,,,,,,,,,,,,,,,,,,,,,,,,,,,,,,,,,,,,,,,ok,0,1,0,1,0,0,0,2020_Jan_07_1138,fmri_ebs,3.2.1,59.857580436410295,
2,,,,,,,,,0,2,2,2,,,,,0,0,0,0,,,,,,,,,,,,,,,,,,,,,,,,,,,,,,,,,,29.529396923957393,None,space,1.398578700143844,29.529396923957393,None,29.529396923957393,None,29.529396923957393,None,3.319100626045838,5.167299950029701,31.029693473130465,None,31.029693473130465,None,/Users/alexreblando/Documents/GitHub/ebs/fMRI experiment/data/ok_fmri_ebs_wav/recall_audio-1578415109.031.wav,0.010955305770039558,None,space,1.745248198043555,31.029693473130465,None,,,,,,,,,,,,,,ok,0,1,0,1,0,0,0,2020_Jan_07_1138,fmri_ebs,3.2.1,59.857580436410295,
2,,,,,,,,,0,2,2,2,,,,,,,,,,,,,,,,,,,,,,,,,,,,,,,,,,,,,,,,,,,,,,,,,,,,,,,,,,,,,,,,,,,,,,,,,,,,,,ok,0,1,0,1,0,0,0,2020_Jan_07_1138,fmri_ebs,3.2.1,59.857580436410295,
3,,,,,,,,,0,3,3,3,,,,,,,,,,,,,,,,,,,,,,,,,,,,,,,,,,,,,,,,,,,,,,,,,,,,,,,,,,,,,,,,,,,,,,,,,,,,,,ok,0,1,0,1,0,0,0,2020_Jan_07_1138,fmri_ebs,3.2.1,59.857580436410295,
4,,,,,,,,,0,4,4,4,,,,,0,0,0,0,,,,,,,,,,,,,,,,,,,,,,,,,,,,,,,,,,32.830152675975114,None,space,1.2596772199030966,32.830152675975114,None,32.830152675975114,None,32.830152675975114,None,6.48475998500362,8.033956866944209,34.18093192600645,None,34.18093192600645,None,/Users/alexreblando/Documents/GitHub/ebs/fMRI experiment/data/ok_fmri_ebs_wav/recall_audio-1578415112.182.wav,0.011833094991743565,None,space,1.4586299839429557,34.18093192600645,None,,,,,,,,,,,,,,ok,0,1,0,1,0,0,0,2020_Jan_07_1138,fmri_ebs,3.2.1,59.857580436410295,
4,,,,,,,,,0,4,4,4,,,,,,,,,,,,,,,,,,,,,,,,,,,,,,,,,,,,,,,,,,,,,,,,,,,,,,,,,,,,,,,,,,,,,,,,,,,,,,ok,0,1,0,1,0,0,0,2020_Jan_07_1138,fmri_ebs,3.2.1,59.857580436410295,
5,,,,,,,,,0,5,5,5,,,,,0,0,0,0,,,,,,,,,,,,,,,,,,,,,,,,,,,,,,,,,,35.68014132999815,None,space,1.1063525769859552,35.68014132999815,None,35.68014132999815,None,35.68014132999815,None,9.186459496850148,10.483738836832345,36.880879793083295,None,36.880879793083295,None,/Users/alexreblando/Documents/GitHub/ebs/fMRI experiment/data/ok_fmri_ebs_wav/recall_audio-1578415115.882.wav,0.013680923031643033,None,space,1.212717239977792,36.880879793083295,None,,,,,,,,,,,,,,ok,0,1,0,1,0,0,0,2020_Jan_07_1138,fmri_ebs,3.2.1,59.857580436410295,
5,,,,,,,,,0,5,5,5,,,,,,,,,,,,,,,,,,,,,,,,,,,,,,,,,,,,,,,,,,,,,,,,,,,,,,,,,,,,,,,,,,,,,,,,,,,,,,ok,0,1,0,1,0,0,0,2020_Jan_07_1138,fmri_ebs,3.2.1,59.857580436410295,
6,,,,,,,,,0,6,6,6,,,,,0,0,0,0,,,,,,,,,,,,,,,,,,,,,,,,,,,,,,,,,,38.147276039933786,None,space,1.1741851279512048,38.147276039933786,None,38.147276039933786,None,38.147276039933786,None,11.72116397996433,12.950220871949568,39.39672479312867,None,39.39672479312867,None,/Users/alexreblando/Documents/GitHub/ebs/fMRI experiment/data/ok_fmri_ebs_wav/recall_audio-1578415117.398.wav,0.007829186972230673,None,space,1.1656734170392156,39.39672479312867,None,,,,,,,,,,,,,,ok,0,1,0,1,0,0,0,2020_Jan_07_1138,fmri_ebs,3.2.1,59.857580436410295,
6,,,,,,,,,0,6,6,6,,,,,,,,,,,,,,,,,,,,,,,,,,,,,,,,,,,,,,,,,,,,,,,,,,,,,,,,,,,,,,,,,,,,,,,,,,,,,,ok,0,1,0,1,0,0,0,2020_Jan_07_1138,fmri_ebs,3.2.1,59.857580436410295,
7,,,,,,,,,0,7,7,7,,,,,0,0,0,0,,,,,,,,,,,,,,,,,,,,,,,,,,,,,,,,,,40.59663742012344,None,space,1.049710975959897,40.59663742012344,None,40.59663742012344,None,40.59663742012344,None,14.03692061593756,15.100570000009611,41.713696060935035,None,41.713696060935035,None,/Users/alexreblando/Documents/GitHub/ebs/fMRI experiment/data/ok_fmri_ebs_wav/recall_audio-1578415120.715.wav,0.013269460992887616,None,space,0.9986066701821983,41.713696060935035,None,,,,,,,,,,,,,,ok,0,1,0,1,0,0,0,2020_Jan_07_1138,fmri_ebs,3.2.1,59.857580436410295,
7,,,,,,,,,0,7,7,7,,,,,,,,,,,,,,,,,,,,,,,,,,,,,,,,,,,,,,,,,,,,,,,,,,,,,,,,,,,,,,,,,,,,,,,,,,,,,,ok,0,1,0,1,0,0,0,2020_Jan_07_1138,fmri_ebs,3.2.1,59.857580436410295,
,,,,,,,,,,,,,,,,,,,,,,,,,,,,,,,,,,,,,,,,,,,,,,,43.73060433799401,None,5,1.1915061250329018,43.73060433799401,None,,,,,,,,,,,,,,,,,,,,,,,,,42.730838956078514,None,,,,,,,,,,,,ok,0,1,0,1,0,0,0,2020_Jan_07_1138,fmri_ebs,3.2.1,59.857580436410295,
0,,,,,,,,,,,,,,,,,,,,,0,0,0,0,,,,,0,0,0,0,,,,,,,,,,,,,,,,,,,,,23.90841967286542,44.98062098794617,None,space,0.48042038292624056,44.98062098794617,None,44.98062098794617,None,44.98062098794617,None,0.535131422104314,2.032700157025829,,,,,,,,,,,,,,45.54786219098605,None,45.54786219098605,None,/Users/alexreblando/Documents/GitHub/ebs/fMRI experiment/data/ok_fmri_ebs_wav/recall_audio_2-1578415123.549.wav,0.0017589698545634747,None,space,1.4010010529309511,45.54786219098605,None,ok,0,1,0,1,0,0,0,2020_Jan_07_1138,fmri_ebs,3.2.1,59.857580436410295,
0,,,,,,,,,,,,,,,,,,,,,0,0,0,0,,,,,,,,,,,,,,,,,,,,,,,,,,,,,,,,,,,,,,,,,,,,,,,,,,,,,,,,,,,,,,,,,,ok,0,1,0,1,0,0,0,2020_Jan_07_1138,fmri_ebs,3.2.1,59.857580436410295,
1,,,,,,,,,,,,,,,,,,,,,0,1,1,1,,,,,0,0,0,0,,,,,,,,,,,,,,,,,,,,,,47.013455524109304,None,space,1.1193371068220586,47.013455524109304,None,47.013455524109304,None,47.013455524109304,None,3.2188353249803185,4.700738989980891,,,,,,,,,,,,,,48.23080864595249,None,48.23080864595249,None,/Users/alexreblando/Documents/GitHub/ebs/fMRI experiment/data/ok_fmri_ebs_wav/recall_audio_2-1578415126.232.wav,0.00417283596470952,None,space,1.3918796079233289,48.23080864595249,None,ok,0,1,0,1,0,0,0,2020_Jan_07_1138,fmri_ebs,3.2.1,59.857580436410295,
1,,,,,,,,,,,,,,,,,,,,,0,1,1,1,,,,,,,,,,,,,,,,,,,,,,,,,,,,,,,,,,,,,,,,,,,,,,,,,,,,,,,,,,,,,,,,,,ok,0,1,0,1,0,0,0,2020_Jan_07_1138,fmri_ebs,3.2.1,59.857580436410295,
2,,,,,,,,,,,,,,,,,,,,,0,2,2,2,,,,,0,0,0,0,,,,,,,,,,,,,,,,,,,,,,49.81452660309151,None,space,0.8952227130066603,49.81452660309151,None,49.81452660309151,None,49.81452660309151,None,5.785114657133818,7.066100903088227,,,,,,,,,,,,,,50.78206411609426,None,50.78206411609426,None,/Users/alexreblando/Documents/GitHub/ebs/fMRI experiment/data/ok_fmri_ebs_wav/recall_audio_2-1578415129.783.wav,0.004735999740660191,None,space,1.214611334959045,50.78206411609426,None,ok,0,1,0,1,0,0,0,2020_Jan_07_1138,fmri_ebs,3.2.1,59.857580436410295,
2,,,,,,,,,,,,,,,,,,,,,0,2,2,2,,,,,,,,,,,,,,,,,,,,,,,,,,,,,,,,,,,,,,,,,,,,,,,,,,,,,,,,,,,,,,,,,,ok,0,1,0,1,0,0,0,2020_Jan_07_1138,fmri_ebs,3.2.1,59.857580436410295,
3,,,,,,,,,,,,,,,,,,,,,0,3,3,3,,,,,,,,,,,,,,,,,,,,,,,,,,,,,,,,,,,,,,,,,,,,,,,,,,,,,,,,,,,,,,,,,,ok,0,1,0,1,0,0,0,2020_Jan_07_1138,fmri_ebs,3.2.1,59.857580436410295,
﻿count,trials_14.thisRepN,trials_14.thisTrialN,trials_14.thisN,trials_14.thisIndex,behav_recall_instructions.thisRepN,behav_recall_instructions.thisTrialN,behav_recall_instructions.thisN,behav_recall_instructions.thisIndex,trials_4.thisRepN,trials_4.thisTrialN,trials_4.thisN,trials_4.thisIndex,trials_13.thisRepN,trials_13.thisTrialN,trials_13.thisN,trials_13.thisIndex,trials_17.thisRepN,trials_17.thisTrialN,trials_17.thisN,trials_17.thisIndex,trials_20.thisRepN,trials_20.thisTrialN,trials_20.thisN,trials_20.thisIndex,trials_18.thisRepN,trials_18.thisTrialN,trials_18.thisN,trials_18.thisIndex,trials_19.thisRepN,trials_19.thisTrialN,trials_19.thisN,trials_19.thisIndex,story_list_block1,action_list_block1,story_list_block2,action_list_block2,testing,story time,text_45.started,text_45.stopped,key_resp_6.keys,key_resp_6.rt,key_resp_6.started,key_resp_6.stopped,text_70.started,text_70.stopped,textTrigger.started,textTrigger.stopped,getTrigger.keys,getTrigger.rt,getTrigger.started,getTrigger.stopped,triggerTime,text_41.started,text_41.stopped,key_resp_10.keys,key_resp_10.rt,key_resp_10.started,key_resp_10.stopped,text_42.started,text_42.stopped,text_51.started,text_51.stopped,recall_StartTime,recall_EndTime,image_18.started,image_18.stopped,text_69.started,text_69.stopped,recall_audio.filename,recall_audio.started,recall_audio.stopped,key_resp_25.keys,key_resp_25.rt,key_resp_25.started,key_resp_25.stopped,text_71.started,text_71.stopped,image_20.started,image_20.stopped,text_75.started,text_75.stopped,recall_audio_2.filename,recall_audio_2.started,recall_audio_2.stopped,key_resp_26.keys,key_resp_26.rt,key_resp_26.started,key_resp_26.stopped,participant,s1,s2,l1,l2,story_listening,play_stories,behavioral,date,expName,psychopyVersion,frameRate,
,,,,,,,,,,,,,,,,,,,,,,,,,,,,,,,,,[23 21 41 12 32 14 34 43],[1 3 2 3 2 1 4 4],[31 13 44 22 11 42 33 24],[2 1 4 3 3 2 4 1],89888,2.309495513094589,23.863677408080548,None,space,1.2849520382005721,23.863677408080548,None,,,,,,,,,,,,,,,,,,,,,,,,,,,,,,,,,,,,,,,,,,,,,,ok,0,1,0,1,0,0,0,2020_Jan_07_1138,fmri_ebs,3.2.1,59.857580436410295,
,,,,,,,,,,,,,,,,,,,,,,,,,,,,,,,,,,,,,,,,,,,,,25.17901432607323,None,26.179064518073574,None,5,1.418018314987421,26.179064518073574,None,,,,,,,,,,,,,,,,,,,,,,,,,,,,,,,,,,,,,,ok,0,1,0,1,0,0,0,2020_Jan_07_1138,fmri_ebs,3.2.1,59.857580436410295,
0,,,,,,,,,0,0,0,0,,,,,0,0,0,0,,,,,,,,,,,,,,,,,,,,,,,,,,,,,,,,,6.590253758011386,27.67940478795208,None,space,0.6086515069473535,27.67940478795208,None,27.67940478795208,None,27.67940478795208,None,0.6846251538954675,1.8836026599165052,28.56327608600259,None,28.56327608600259,None,/Users/alexreblando/Documents/GitHub/ebs/fMRI experiment/data/ok_fmri_ebs_wav/recall_audio-1578415106.564.wav,0.010166812920942903,None,space,0.9328690678812563,28.56327608600259,None,,,,,,,,,,,,,,ok,0,1,0,1,0,0,0,2020_Jan_07_1138,fmri_ebs,3.2.1,59.857580436410295,
0,,,,,,,,,0,0,0,0,,,,,,,,,,,,,,,,,,,,,,,,,,,,,,,,,,,,,,,,,,,,,,,,,,,,,,,,,,,,,,,,,,,,,,,,,,,,,,ok,0,1,0,1,0,0,0,2020_Jan_07_1138,fmri_ebs,3.2.1,59.857580436410295,
1,,,,,,,,,0,1,1,1,,,,,,,,,,,,,,,,,,,,,,,,,,,,,,,,,,,,,,,,,,,,,,,,,,,,,,,,,,,,,,,,,,,,,,,,,,,,,,ok,0,1,0,1,0,0,0,2020_Jan_07_1138,fmri_ebs,3.2.1,59.857580436410295,
2,,,,,,,,,0,2,2,2,,,,,0,0,0,0,,,,,,,,,,,,,,,,,,,,,,,,,,,,,,,,,,29.529396923957393,None,space,1.398578700143844,29.529396923957393,None,29.529396923957393,None,29.529396923957393,None,3.319100626045838,5.167299950029701,31.029693473130465,None,31.029693473130465,None,/Users/alexreblando/Documents/GitHub/ebs/fMRI experiment/data/ok_fmri_ebs_wav/recall_audio-1578415109.031.wav,0.010955305770039558,None,space,1.745248198043555,31.029693473130465,None,,,,,,,,,,,,,,ok,0,1,0,1,0,0,0,2020_Jan_07_1138,fmri_ebs,3.2.1,59.857580436410295,
2,,,,,,,,,0,2,2,2,,,,,,,,,,,,,,,,,,,,,,,,,,,,,,,,,,,,,,,,,,,,,,,,,,,,,,,,,,,,,,,,,,,,,,,,,,,,,,ok,0,1,0,1,0,0,0,2020_Jan_07_1138,fmri_ebs,3.2.1,59.857580436410295,
3,,,,,,,,,0,3,3,3,,,,,,,,,,,,,,,,,,,,,,,,,,,,,,,,,,,,,,,,,,,,,,,,,,,,,,,,,,,,,,,,,,,,,,,,,,,,,,ok,0,1,0,1,0,0,0,2020_Jan_07_1138,fmri_ebs,3.2.1,59.857580436410295,
4,,,,,,,,,0,4,4,4,,,,,0,0,0,0,,,,,,,,,,,,,,,,,,,,,,,,,,,,,,,,,,32.830152675975114,None,space,1.2596772199030966,32.830152675975114,None,32.830152675975114,None,32.830152675975114,None,6.48475998500362,8.033956866944209,34.18093192600645,None,34.18093192600645,None,/Users/alexreblando/Documents/GitHub/ebs/fMRI experiment/data/ok_fmri_ebs_wav/recall_audio-1578415112.182.wav,0.011833094991743565,None,space,1.4586299839429557,34.18093192600645,None,,,,,,,,,,,,,,ok,0,1,0,1,0,0,0,2020_Jan_07_1138,fmri_ebs,3.2.1,59.857580436410295,
4,,,,,,,,,0,4,4,4,,,,,,,,,,,,,,,,,,,,,,,,,,,,,,,,,,,,,,,,,,,,,,,,,,,,,,,,,,,,,,,,,,,,,,,,,,,,,,ok,0,1,0,1,0,0,0,2020_Jan_07_1138,fmri_ebs,3.2.1,59.857580436410295,
5,,,,,,,,,0,5,5,5,,,,,0,0,0,0,,,,,,,,,,,,,,,,,,,,,,,,,,,,,,,,,,35.68014132999815,None,space,1.1063525769859552,35.68014132999815,None,35.68014132999815,None,35.68014132999815,None,9.186459496850148,10.483738836832345,36.880879793083295,None,36.880879793083295,None,/Users/alexreblando/Documents/GitHub/ebs/fMRI experiment/data/ok_fmri_ebs_wav/recall_audio-1578415115.882.wav,0.013680923031643033,None,space,1.212717239977792,36.880879793083295,None,,,,,,,,,,,,,,ok,0,1,0,1,0,0,0,2020_Jan_07_1138,fmri_ebs,3.2.1,59.857580436410295,
5,,,,,,,,,0,5,5,5,,,,,,,,,,,,,,,,,,,,,,,,,,,,,,,,,,,,,,,,,,,,,,,,,,,,,,,,,,,,,,,,,,,,,,,,,,,,,,ok,0,1,0,1,0,0,0,2020_Jan_07_1138,fmri_ebs,3.2.1,59.857580436410295,
6,,,,,,,,,0,6,6,6,,,,,0,0,0,0,,,,,,,,,,,,,,,,,,,,,,,,,,,,,,,,,,38.147276039933786,None,space,1.1741851279512048,38.147276039933786,None,38.147276039933786,None,38.147276039933786,None,11.72116397996433,12.950220871949568,39.39672479312867,None,39.39672479312867,None,/Users/alexreblando/Documents/GitHub/ebs/fMRI experiment/data/ok_fmri_ebs_wav/recall_audio-1578415117.398.wav,0.007829186972230673,None,space,1.1656734170392156,39.39672479312867,None,,,,,,,,,,,,,,ok,0,1,0,1,0,0,0,2020_Jan_07_1138,fmri_ebs,3.2.1,59.857580436410295,
6,,,,,,,,,0,6,6,6,,,,,,,,,,,,,,,,,,,,,,,,,,,,,,,,,,,,,,,,,,,,,,,,,,,,,,,,,,,,,,,,,,,,,,,,,,,,,,ok,0,1,0,1,0,0,0,2020_Jan_07_1138,fmri_ebs,3.2.1,59.857580436410295,
7,,,,,,,,,0,7,7,7,,,,,0,0,0,0,,,,,,,,,,,,,,,,,,,,,,,,,,,,,,,,,,40.59663742012344,None,space,1.049710975959897,40.59663742012344,None,40.59663742012344,None,40.59663742012344,None,14.03692061593756,15.100570000009611,41.713696060935035,None,41.713696060935035,None,/Users/alexreblando/Documents/GitHub/ebs/fMRI experiment/data/ok_fmri_ebs_wav/recall_audio-1578415120.715.wav,0.013269460992887616,None,space,0.9986066701821983,41.713696060935035,None,,,,,,,,,,,,,,ok,0,1,0,1,0,0,0,2020_Jan_07_1138,fmri_ebs,3.2.1,59.857580436410295,
7,,,,,,,,,0,7,7,7,,,,,,,,,,,,,,,,,,,,,,,,,,,,,,,,,,,,,,,,,,,,,,,,,,,,,,,,,,,,,,,,,,,,,,,,,,,,,,ok,0,1,0,1,0,0,0,2020_Jan_07_1138,fmri_ebs,3.2.1,59.857580436410295,
,,,,,,,,,,,,,,,,,,,,,,,,,,,,,,,,,,,,,,,,,,,,,,,43.73060433799401,None,5,1.1915061250329018,43.73060433799401,None,,,,,,,,,,,,,,,,,,,,,,,,,42.730838956078514,None,,,,,,,,,,,,ok,0,1,0,1,0,0,0,2020_Jan_07_1138,fmri_ebs,3.2.1,59.857580436410295,
0,,,,,,,,,,,,,,,,,,,,,0,0,0,0,,,,,0,0,0,0,,,,,,,,,,,,,,,,,,,,,23.90841967286542,44.98062098794617,None,space,0.48042038292624056,44.98062098794617,None,44.98062098794617,None,44.98062098794617,None,0.535131422104314,2.032700157025829,,,,,,,,,,,,,,45.54786219098605,None,45.54786219098605,None,/Users/alexreblando/Documents/GitHub/ebs/fMRI experiment/data/ok_fmri_ebs_wav/recall_audio_2-1578415123.549.wav,0.0017589698545634747,None,space,1.4010010529309511,45.54786219098605,None,ok,0,1,0,1,0,0,0,2020_Jan_07_1138,fmri_ebs,3.2.1,59.857580436410295,
0,,,,,,,,,,,,,,,,,,,,,0,0,0,0,,,,,,,,,,,,,,,,,,,,,,,,,,,,,,,,,,,,,,,,,,,,,,,,,,,,,,,,,,,,,,,,,,ok,0,1,0,1,0,0,0,2020_Jan_07_1138,fmri_ebs,3.2.1,59.857580436410295,
1,,,,,,,,,,,,,,,,,,,,,0,1,1,1,,,,,0,0,0,0,,,,,,,,,,,,,,,,,,,,,,47.013455524109304,None,space,1.1193371068220586,47.013455524109304,None,47.013455524109304,None,47.013455524109304,None,3.2188353249803185,4.700738989980891,,,,,,,,,,,,,,48.23080864595249,None,48.23080864595249,None,/Users/alexreblando/Documents/GitHub/ebs/fMRI experiment/data/ok_fmri_ebs_wav/recall_audio_2-1578415126.232.wav,0.00417283596470952,None,space,1.3918796079233289,48.23080864595249,None,ok,0,1,0,1,0,0,0,2020_Jan_07_1138,fmri_ebs,3.2.1,59.857580436410295,
1,,,,,,,,,,,,,,,,,,,,,0,1,1,1,,,,,,,,,,,,,,,,,,,,,,,,,,,,,,,,,,,,,,,,,,,,,,,,,,,,,,,,,,,,,,,,,,ok,0,1,0,1,0,0,0,2020_Jan_07_1138,fmri_ebs,3.2.1,59.857580436410295,
2,,,,,,,,,,,,,,,,,,,,,0,2,2,2,,,,,0,0,0,0,,,,,,,,,,,,,,,,,,,,,,49.81452660309151,None,space,0.8952227130066603,49.81452660309151,None,49.81452660309151,None,49.81452660309151,None,5.785114657133818,7.066100903088227,,,,,,,,,,,,,,50.78206411609426,None,50.78206411609426,None,/Users/alexreblando/Documents/GitHub/ebs/fMRI experiment/data/ok_fmri_ebs_wav/recall_audio_2-1578415129.783.wav,0.004735999740660191,None,space,1.214611334959045,50.78206411609426,None,ok,0,1,0,1,0,0,0,2020_Jan_07_1138,fmri_ebs,3.2.1,59.857580436410295,
2,,,,,,,,,,,,,,,,,,,,,0,2,2,2,,,,,,,,,,,,,,,,,,,,,,,,,,,,,,,,,,,,,,,,,,,,,,,,,,,,,,,,,,,,,,,,,,ok,0,1,0,1,0,0,0,2020_Jan_07_1138,fmri_ebs,3.2.1,59.857580436410295,
3,,,,,,,,,,,,,,,,,,,,,0,3,3,3,,,,,,,,,,,,,,,,,,,,,,,,,,,,,,,,,,,,,,,,,,,,,,,,,,,,,,,,,,,,,,,,,,ok,0,1,0,1,0,0,0,2020_Jan_07_1138,fmri_ebs,3.2.1,59.857580436410295,
4,,,,,,,,,,,,,,,,,,,,,0,4,4,4,,,,,,,,,,,,,,,,,,,,,,,,,,,,,,,,,,,,,,,,,,,,,,,,,,,,,,,,,,,,,,,,,,ok,0,1,0,1,0,0,0,2020_Jan_07_1138,fmri_ebs,3.2.1,59.857580436410295,
5,,,,,,,,,,,,,,,,,,,,,0,5,5,5,,,,,0,0,0,0,,,,,,,,,,,,,,,,,,,,,,52.065139576094225,None,space,0.8410966899245977,52.065139576094225,None,52.065139576094225,None,52.065139576094225,None,7.986784667009488,9.34982916014269,,,,,,,,,,,,,,52.982202613027766,None,52.982202613027766,None,/Users/alexreblando/Documents/GitHub/ebs/fMRI experiment/data/ok_fmri_ebs_wav/recall_audio_2-1578415131.983.wav,0.013109868159517646,None,space,1.2833276120945811,52.982202613027766,None,ok,0,1,0,1,0,0,0,2020_Jan_07_1138,fmri_ebs,3.2.1,59.857580436410295,
﻿count,trials_14.thisRepN,trials_14.thisTrialN,trials_14.thisN,trials_14.thisIndex,behav_recall_instructions.thisRepN,behav_recall_instructions.thisTrialN,behav_recall_instructions.thisN,behav_recall_instructions.thisIndex,trials_4.thisRepN,trials_4.thisTrialN,trials_4.thisN,trials_4.thisIndex,trials_13.thisRepN,trials_13.thisTrialN,trials_13.thisN,trials_13.thisIndex,trials_17.thisRepN,trials_17.thisTrialN,trials_17.thisN,trials_17.thisIndex,trials_20.thisRepN,trials_20.thisTrialN,trials_20.thisN,trials_20.thisIndex,trials_18.thisRepN,trials_18.thisTrialN,trials_18.thisN,trials_18.thisIndex,trials_19.thisRepN,trials_19.thisTrialN,trials_19.thisN,trials_19.thisIndex,story_list_block1,action_list_block1,story_list_block2,action_list_block2,testing,story time,text_45.started,text_45.stopped,key_resp_6.keys,key_resp_6.rt,key_resp_6.started,key_resp_6.stopped,text_70.started,text_70.stopped,textTrigger.started,textTrigger.stopped,getTrigger.keys,getTrigger.rt,getTrigger.started,getTrigger.stopped,triggerTime,text_41.started,text_41.stopped,key_resp_10.keys,key_resp_10.rt,key_resp_10.started,key_resp_10.stopped,text_42.started,text_42.stopped,text_51.started,text_51.stopped,recall_StartTime,recall_EndTime,image_18.started,image_18.stopped,text_69.started,text_69.stopped,recall_audio.filename,recall_audio.started,recall_audio.stopped,key_resp_25.keys,key_resp_25.rt,key_resp_25.started,key_resp_25.stopped,text_71.started,text_71.stopped,image_20.started,image_20.stopped,text_75.started,text_75.stopped,recall_audio_2.filename,recall_audio_2.started,recall_audio_2.stopped,key_resp_26.keys,key_resp_26.rt,key_resp_26.started,key_resp_26.stopped,participant,s1,s2,l1,l2,story_listening,play_stories,behavioral,date,expName,psychopyVersion,frameRate,
,,,,,,,,,,,,,,,,,,,,,,,,,,,,,,,,,[23 21 41 12 32 14 34 43],[1 3 2 3 2 1 4 4],[31 13 44 22 11 42 33 24],[2 1 4 3 3 2 4 1],89888,2.309495513094589,23.863677408080548,None,space,1.2849520382005721,23.863677408080548,None,,,,,,,,,,,,,,,,,,,,,,,,,,,,,,,,,,,,,,,,,,,,,,ok,0,1,0,1,0,0,0,2020_Jan_07_1138,fmri_ebs,3.2.1,59.857580436410295,
,,,,,,,,,,,,,,,,,,,,,,,,,,,,,,,,,,,,,,,,,,,,,25.17901432607323,None,26.179064518073574,None,5,1.418018314987421,26.179064518073574,None,,,,,,,,,,,,,,,,,,,,,,,,,,,,,,,,,,,,,,ok,0,1,0,1,0,0,0,2020_Jan_07_1138,fmri_ebs,3.2.1,59.857580436410295,
0,,,,,,,,,0,0,0,0,,,,,0,0,0,0,,,,,,,,,,,,,,,,,,,,,,,,,,,,,,,,,6.590253758011386,27.67940478795208,None,space,0.6086515069473535,27.67940478795208,None,27.67940478795208,None,27.67940478795208,None,0.6846251538954675,1.8836026599165052,28.56327608600259,None,28.56327608600259,None,/Users/alexreblando/Documents/GitHub/ebs/fMRI experiment/data/ok_fmri_ebs_wav/recall_audio-1578415106.564.wav,0.010166812920942903,None,space,0.9328690678812563,28.56327608600259,None,,,,,,,,,,,,,,ok,0,1,0,1,0,0,0,2020_Jan_07_1138,fmri_ebs,3.2.1,59.857580436410295,
0,,,,,,,,,0,0,0,0,,,,,,,,,,,,,,,,,,,,,,,,,,,,,,,,,,,,,,,,,,,,,,,,,,,,,,,,,,,,,,,,,,,,,,,,,,,,,,ok,0,1,0,1,0,0,0,2020_Jan_07_1138,fmri_ebs,3.2.1,59.857580436410295,
1,,,,,,,,,0,1,1,1,,,,,,,,,,,,,,,,,,,,,,,,,,,,,,,,,,,,,,,,,,,,,,,,,,,,,,,,,,,,,,,,,,,,,,,,,,,,,,ok,0,1,0,1,0,0,0,2020_Jan_07_1138,fmri_ebs,3.2.1,59.857580436410295,
2,,,,,,,,,0,2,2,2,,,,,0,0,0,0,,,,,,,,,,,,,,,,,,,,,,,,,,,,,,,,,,29.529396923957393,None,space,1.398578700143844,29.529396923957393,None,29.529396923957393,None,29.529396923957393,None,3.319100626045838,5.167299950029701,31.029693473130465,None,31.029693473130465,None,/Users/alexreblando/Documents/GitHub/ebs/fMRI experiment/data/ok_fmri_ebs_wav/recall_audio-1578415109.031.wav,0.010955305770039558,None,space,1.745248198043555,31.029693473130465,None,,,,,,,,,,,,,,ok,0,1,0,1,0,0,0,2020_Jan_07_1138,fmri_ebs,3.2.1,59.857580436410295,
2,,,,,,,,,0,2,2,2,,,,,,,,,,,,,,,,,,,,,,,,,,,,,,,,,,,,,,,,,,,,,,,,,,,,,,,,,,,,,,,,,,,,,,,,,,,,,,ok,0,1,0,1,0,0,0,2020_Jan_07_1138,fmri_ebs,3.2.1,59.857580436410295,
3,,,,,,,,,0,3,3,3,,,,,,,,,,,,,,,,,,,,,,,,,,,,,,,,,,,,,,,,,,,,,,,,,,,,,,,,,,,,,,,,,,,,,,,,,,,,,,ok,0,1,0,1,0,0,0,2020_Jan_07_1138,fmri_ebs,3.2.1,59.857580436410295,
4,,,,,,,,,0,4,4,4,,,,,0,0,0,0,,,,,,,,,,,,,,,,,,,,,,,,,,,,,,,,,,32.830152675975114,None,space,1.2596772199030966,32.830152675975114,None,32.830152675975114,None,32.830152675975114,None,6.48475998500362,8.033956866944209,34.18093192600645,None,34.18093192600645,None,/Users/alexreblando/Documents/GitHub/ebs/fMRI experiment/data/ok_fmri_ebs_wav/recall_audio-1578415112.182.wav,0.011833094991743565,None,space,1.4586299839429557,34.18093192600645,None,,,,,,,,,,,,,,ok,0,1,0,1,0,0,0,2020_Jan_07_1138,fmri_ebs,3.2.1,59.857580436410295,
4,,,,,,,,,0,4,4,4,,,,,,,,,,,,,,,,,,,,,,,,,,,,,,,,,,,,,,,,,,,,,,,,,,,,,,,,,,,,,,,,,,,,,,,,,,,,,,ok,0,1,0,1,0,0,0,2020_Jan_07_1138,fmri_ebs,3.2.1,59.857580436410295,
5,,,,,,,,,0,5,5,5,,,,,0,0,0,0,,,,,,,,,,,,,,,,,,,,,,,,,,,,,,,,,,35.68014132999815,None,space,1.1063525769859552,35.68014132999815,None,35.68014132999815,None,35.68014132999815,None,9.186459496850148,10.483738836832345,36.880879793083295,None,36.880879793083295,None,/Users/alexreblando/Documents/GitHub/ebs/fMRI experiment/data/ok_fmri_ebs_wav/recall_audio-1578415115.882.wav,0.013680923031643033,None,space,1.212717239977792,36.880879793083295,None,,,,,,,,,,,,,,ok,0,1,0,1,0,0,0,2020_Jan_07_1138,fmri_ebs,3.2.1,59.857580436410295,
5,,,,,,,,,0,5,5,5,,,,,,,,,,,,,,,,,,,,,,,,,,,,,,,,,,,,,,,,,,,,,,,,,,,,,,,,,,,,,,,,,,,,,,,,,,,,,,ok,0,1,0,1,0,0,0,2020_Jan_07_1138,fmri_ebs,3.2.1,59.857580436410295,
6,,,,,,,,,0,6,6,6,,,,,0,0,0,0,,,,,,,,,,,,,,,,,,,,,,,,,,,,,,,,,,38.147276039933786,None,space,1.1741851279512048,38.147276039933786,None,38.147276039933786,None,38.147276039933786,None,11.72116397996433,12.950220871949568,39.39672479312867,None,39.39672479312867,None,/Users/alexreblando/Documents/GitHub/ebs/fMRI experiment/data/ok_fmri_ebs_wav/recall_audio-1578415117.398.wav,0.007829186972230673,None,space,1.1656734170392156,39.39672479312867,None,,,,,,,,,,,,,,ok,0,1,0,1,0,0,0,2020_Jan_07_1138,fmri_ebs,3.2.1,59.857580436410295,
6,,,,,,,,,0,6,6,6,,,,,,,,,,,,,,,,,,,,,,,,,,,,,,,,,,,,,,,,,,,,,,,,,,,,,,,,,,,,,,,,,,,,,,,,,,,,,,ok,0,1,0,1,0,0,0,2020_Jan_07_1138,fmri_ebs,3.2.1,59.857580436410295,
7,,,,,,,,,0,7,7,7,,,,,0,0,0,0,,,,,,,,,,,,,,,,,,,,,,,,,,,,,,,,,,40.59663742012344,None,space,1.049710975959897,40.59663742012344,None,40.59663742012344,None,40.59663742012344,None,14.03692061593756,15.100570000009611,41.713696060935035,None,41.713696060935035,None,/Users/alexreblando/Documents/GitHub/ebs/fMRI experiment/data/ok_fmri_ebs_wav/recall_audio-1578415120.715.wav,0.013269460992887616,None,space,0.9986066701821983,41.713696060935035,None,,,,,,,,,,,,,,ok,0,1,0,1,0,0,0,2020_Jan_07_1138,fmri_ebs,3.2.1,59.857580436410295,
7,,,,,,,,,0,7,7,7,,,,,,,,,,,,,,,,,,,,,,,,,,,,,,,,,,,,,,,,,,,,,,,,,,,,,,,,,,,,,,,,,,,,,,,,,,,,,,ok,0,1,0,1,0,0,0,2020_Jan_07_1138,fmri_ebs,3.2.1,59.857580436410295,
,,,,,,,,,,,,,,,,,,,,,,,,,,,,,,,,,,,,,,,,,,,,,,,43.73060433799401,None,5,1.1915061250329018,43.73060433799401,None,,,,,,,,,,,,,,,,,,,,,,,,,42.730838956078514,None,,,,,,,,,,,,ok,0,1,0,1,0,0,0,2020_Jan_07_1138,fmri_ebs,3.2.1,59.857580436410295,
0,,,,,,,,,,,,,,,,,,,,,0,0,0,0,,,,,0,0,0,0,,,,,,,,,,,,,,,,,,,,,23.90841967286542,44.98062098794617,None,space,0.48042038292624056,44.98062098794617,None,44.98062098794617,None,44.98062098794617,None,0.535131422104314,2.032700157025829,,,,,,,,,,,,,,45.54786219098605,None,45.54786219098605,None,/Users/alexreblando/Documents/GitHub/ebs/fMRI experiment/data/ok_fmri_ebs_wav/recall_audio_2-1578415123.549.wav,0.0017589698545634747,None,space,1.4010010529309511,45.54786219098605,None,ok,0,1,0,1,0,0,0,2020_Jan_07_1138,fmri_ebs,3.2.1,59.857580436410295,
0,,,,,,,,,,,,,,,,,,,,,0,0,0,0,,,,,,,,,,,,,,,,,,,,,,,,,,,,,,,,,,,,,,,,,,,,,,,,,,,,,,,,,,,,,,,,,,ok,0,1,0,1,0,0,0,2020_Jan_07_1138,fmri_ebs,3.2.1,59.857580436410295,
1,,,,,,,,,,,,,,,,,,,,,0,1,1,1,,,,,0,0,0,0,,,,,,,,,,,,,,,,,,,,,,47.013455524109304,None,space,1.1193371068220586,47.013455524109304,None,47.013455524109304,None,47.013455524109304,None,3.2188353249803185,4.700738989980891,,,,,,,,,,,,,,48.23080864595249,None,48.23080864595249,None,/Users/alexreblando/Documents/GitHub/ebs/fMRI experiment/data/ok_fmri_ebs_wav/recall_audio_2-1578415126.232.wav,0.00417283596470952,None,space,1.3918796079233289,48.23080864595249,None,ok,0,1,0,1,0,0,0,2020_Jan_07_1138,fmri_ebs,3.2.1,59.857580436410295,
1,,,,,,,,,,,,,,,,,,,,,0,1,1,1,,,,,,,,,,,,,,,,,,,,,,,,,,,,,,,,,,,,,,,,,,,,,,,,,,,,,,,,,,,,,,,,,,ok,0,1,0,1,0,0,0,2020_Jan_07_1138,fmri_ebs,3.2.1,59.857580436410295,
2,,,,,,,,,,,,,,,,,,,,,0,2,2,2,,,,,0,0,0,0,,,,,,,,,,,,,,,,,,,,,,49.81452660309151,None,space,0.8952227130066603,49.81452660309151,None,49.81452660309151,None,49.81452660309151,None,5.785114657133818,7.066100903088227,,,,,,,,,,,,,,50.78206411609426,None,50.78206411609426,None,/Users/alexreblando/Documents/GitHub/ebs/fMRI experiment/data/ok_fmri_ebs_wav/recall_audio_2-1578415129.783.wav,0.004735999740660191,None,space,1.214611334959045,50.78206411609426,None,ok,0,1,0,1,0,0,0,2020_Jan_07_1138,fmri_ebs,3.2.1,59.857580436410295,
2,,,,,,,,,,,,,,,,,,,,,0,2,2,2,,,,,,,,,,,,,,,,,,,,,,,,,,,,,,,,,,,,,,,,,,,,,,,,,,,,,,,,,,,,,,,,,,ok,0,1,0,1,0,0,0,2020_Jan_07_1138,fmri_ebs,3.2.1,59.857580436410295,
3,,,,,,,,,,,,,,,,,,,,,0,3,3,3,,,,,,,,,,,,,,,,,,,,,,,,,,,,,,,,,,,,,,,,,,,,,,,,,,,,,,,,,,,,,,,,,,ok,0,1,0,1,0,0,0,2020_Jan_07_1138,fmri_ebs,3.2.1,59.857580436410295,
4,,,,,,,,,,,,,,,,,,,,,0,4,4,4,,,,,,,,,,,,,,,,,,,,,,,,,,,,,,,,,,,,,,,,,,,,,,,,,,,,,,,,,,,,,,,,,,ok,0,1,0,1,0,0,0,2020_Jan_07_1138,fmri_ebs,3.2.1,59.857580436410295,
5,,,,,,,,,,,,,,,,,,,,,0,5,5,5,,,,,0,0,0,0,,,,,,,,,,,,,,,,,,,,,,52.065139576094225,None,space,0.8410966899245977,52.065139576094225,None,52.065139576094225,None,52.065139576094225,None,7.986784667009488,9.34982916014269,,,,,,,,,,,,,,52.982202613027766,None,52.982202613027766,None,/Users/alexreblando/Documents/GitHub/ebs/fMRI experiment/data/ok_fmri_ebs_wav/recall_audio_2-1578415131.983.wav,0.013109868159517646,None,space,1.2833276120945811,52.982202613027766,None,ok,0,1,0,1,0,0,0,2020_Jan_07_1138,fmri_ebs,3.2.1,59.857580436410295,
5,,,,,,,,,,,,,,,,,,,,,0,5,5,5,,,,,,,,,,,,,,,,,,,,,,,,,,,,,,,,,,,,,,,,,,,,,,,,,,,,,,,,,,,,,,,,,,ok,0,1,0,1,0,0,0,2020_Jan_07_1138,fmri_ebs,3.2.1,59.857580436410295,
6,,,,,,,,,,,,,,,,,,,,,0,6,6,6,,,,,0,0,0,0,,,,,,,,,,,,,,,,,,,,,,54.332206008024514,None,space,0.8593374998308718,54.332206008024514,None,54.332206008024514,None,54.332206008024514,None,10.27038300014101,11.634568925015628,,,,,,,,,,,,,,55.265020536025986,None,55.265020536025986,None,/Users/alexreblando/Documents/GitHub/ebs/fMRI experiment/data/ok_fmri_ebs_wav/recall_audio_2-1578415133.266.wav,0.0021429210901260376,None,space,1.291232282994315,55.265020536025986,None,ok,0,1,0,1,0,0,0,2020_Jan_07_1138,fmri_ebs,3.2.1,59.857580436410295,
﻿count,trials_14.thisRepN,trials_14.thisTrialN,trials_14.thisN,trials_14.thisIndex,behav_recall_instructions.thisRepN,behav_recall_instructions.thisTrialN,behav_recall_instructions.thisN,behav_recall_instructions.thisIndex,trials_4.thisRepN,trials_4.thisTrialN,trials_4.thisN,trials_4.thisIndex,trials_13.thisRepN,trials_13.thisTrialN,trials_13.thisN,trials_13.thisIndex,trials_17.thisRepN,trials_17.thisTrialN,trials_17.thisN,trials_17.thisIndex,trials_20.thisRepN,trials_20.thisTrialN,trials_20.thisN,trials_20.thisIndex,trials_18.thisRepN,trials_18.thisTrialN,trials_18.thisN,trials_18.thisIndex,trials_19.thisRepN,trials_19.thisTrialN,trials_19.thisN,trials_19.thisIndex,story_list_block1,action_list_block1,story_list_block2,action_list_block2,testing,story time,text_45.started,text_45.stopped,key_resp_6.keys,key_resp_6.rt,key_resp_6.started,key_resp_6.stopped,text_70.started,text_70.stopped,textTrigger.started,textTrigger.stopped,getTrigger.keys,getTrigger.rt,getTrigger.started,getTrigger.stopped,triggerTime,text_41.started,text_41.stopped,key_resp_10.keys,key_resp_10.rt,key_resp_10.started,key_resp_10.stopped,text_42.started,text_42.stopped,text_51.started,text_51.stopped,recall_StartTime,recall_EndTime,image_18.started,image_18.stopped,text_69.started,text_69.stopped,recall_audio.filename,recall_audio.started,recall_audio.stopped,key_resp_25.keys,key_resp_25.rt,key_resp_25.started,key_resp_25.stopped,text_71.started,text_71.stopped,image_20.started,image_20.stopped,text_75.started,text_75.stopped,recall_audio_2.filename,recall_audio_2.started,recall_audio_2.stopped,key_resp_26.keys,key_resp_26.rt,key_resp_26.started,key_resp_26.stopped,participant,s1,s2,l1,l2,story_listening,play_stories,behavioral,date,expName,psychopyVersion,frameRate,
,,,,,,,,,,,,,,,,,,,,,,,,,,,,,,,,,[23 21 41 12 32 14 34 43],[1 3 2 3 2 1 4 4],[31 13 44 22 11 42 33 24],[2 1 4 3 3 2 4 1],89888,2.309495513094589,23.863677408080548,None,space,1.2849520382005721,23.863677408080548,None,,,,,,,,,,,,,,,,,,,,,,,,,,,,,,,,,,,,,,,,,,,,,,ok,0,1,0,1,0,0,0,2020_Jan_07_1138,fmri_ebs,3.2.1,59.857580436410295,
,,,,,,,,,,,,,,,,,,,,,,,,,,,,,,,,,,,,,,,,,,,,,25.17901432607323,None,26.179064518073574,None,5,1.418018314987421,26.179064518073574,None,,,,,,,,,,,,,,,,,,,,,,,,,,,,,,,,,,,,,,ok,0,1,0,1,0,0,0,2020_Jan_07_1138,fmri_ebs,3.2.1,59.857580436410295,
0,,,,,,,,,0,0,0,0,,,,,0,0,0,0,,,,,,,,,,,,,,,,,,,,,,,,,,,,,,,,,6.590253758011386,27.67940478795208,None,space,0.6086515069473535,27.67940478795208,None,27.67940478795208,None,27.67940478795208,None,0.6846251538954675,1.8836026599165052,28.56327608600259,None,28.56327608600259,None,/Users/alexreblando/Documents/GitHub/ebs/fMRI experiment/data/ok_fmri_ebs_wav/recall_audio-1578415106.564.wav,0.010166812920942903,None,space,0.9328690678812563,28.56327608600259,None,,,,,,,,,,,,,,ok,0,1,0,1,0,0,0,2020_Jan_07_1138,fmri_ebs,3.2.1,59.857580436410295,
0,,,,,,,,,0,0,0,0,,,,,,,,,,,,,,,,,,,,,,,,,,,,,,,,,,,,,,,,,,,,,,,,,,,,,,,,,,,,,,,,,,,,,,,,,,,,,,ok,0,1,0,1,0,0,0,2020_Jan_07_1138,fmri_ebs,3.2.1,59.857580436410295,
1,,,,,,,,,0,1,1,1,,,,,,,,,,,,,,,,,,,,,,,,,,,,,,,,,,,,,,,,,,,,,,,,,,,,,,,,,,,,,,,,,,,,,,,,,,,,,,ok,0,1,0,1,0,0,0,2020_Jan_07_1138,fmri_ebs,3.2.1,59.857580436410295,
2,,,,,,,,,0,2,2,2,,,,,0,0,0,0,,,,,,,,,,,,,,,,,,,,,,,,,,,,,,,,,,29.529396923957393,None,space,1.398578700143844,29.529396923957393,None,29.529396923957393,None,29.529396923957393,None,3.319100626045838,5.167299950029701,31.029693473130465,None,31.029693473130465,None,/Users/alexreblando/Documents/GitHub/ebs/fMRI experiment/data/ok_fmri_ebs_wav/recall_audio-1578415109.031.wav,0.010955305770039558,None,space,1.745248198043555,31.029693473130465,None,,,,,,,,,,,,,,ok,0,1,0,1,0,0,0,2020_Jan_07_1138,fmri_ebs,3.2.1,59.857580436410295,
2,,,,,,,,,0,2,2,2,,,,,,,,,,,,,,,,,,,,,,,,,,,,,,,,,,,,,,,,,,,,,,,,,,,,,,,,,,,,,,,,,,,,,,,,,,,,,,ok,0,1,0,1,0,0,0,2020_Jan_07_1138,fmri_ebs,3.2.1,59.857580436410295,
3,,,,,,,,,0,3,3,3,,,,,,,,,,,,,,,,,,,,,,,,,,,,,,,,,,,,,,,,,,,,,,,,,,,,,,,,,,,,,,,,,,,,,,,,,,,,,,ok,0,1,0,1,0,0,0,2020_Jan_07_1138,fmri_ebs,3.2.1,59.857580436410295,
4,,,,,,,,,0,4,4,4,,,,,0,0,0,0,,,,,,,,,,,,,,,,,,,,,,,,,,,,,,,,,,32.830152675975114,None,space,1.2596772199030966,32.830152675975114,None,32.830152675975114,None,32.830152675975114,None,6.48475998500362,8.033956866944209,34.18093192600645,None,34.18093192600645,None,/Users/alexreblando/Documents/GitHub/ebs/fMRI experiment/data/ok_fmri_ebs_wav/recall_audio-1578415112.182.wav,0.011833094991743565,None,space,1.4586299839429557,34.18093192600645,None,,,,,,,,,,,,,,ok,0,1,0,1,0,0,0,2020_Jan_07_1138,fmri_ebs,3.2.1,59.857580436410295,
4,,,,,,,,,0,4,4,4,,,,,,,,,,,,,,,,,,,,,,,,,,,,,,,,,,,,,,,,,,,,,,,,,,,,,,,,,,,,,,,,,,,,,,,,,,,,,,ok,0,1,0,1,0,0,0,2020_Jan_07_1138,fmri_ebs,3.2.1,59.857580436410295,
