count,trials_14.thisRepN,trials_14.thisTrialN,trials_14.thisN,trials_14.thisIndex,Block1.thisRepN,Block1.thisTrialN,Block1.thisN,Block1.thisIndex,trials_5.thisRepN,trials_5.thisTrialN,trials_5.thisN,trials_5.thisIndex,trials.thisRepN,trials.thisTrialN,trials.thisN,trials.thisIndex,trials_2.thisRepN,trials_2.thisTrialN,trials_2.thisN,trials_2.thisIndex,trials_22.thisRepN,trials_22.thisTrialN,trials_22.thisN,trials_22.thisIndex,trials_23.thisRepN,trials_23.thisTrialN,trials_23.thisN,trials_23.thisIndex,story_list_block1,action_list_block1,story_list_block2,action_list_block2,text_53.started,text_53.stopped,textTrigger.started,textTrigger.stopped,getTrigger.keys,getTrigger.rt,getTrigger.started,getTrigger.stopped,triggerTime,text_38.started,text_38.stopped,key_resp_8.keys,key_resp_8.rt,key_resp_8.started,key_resp_8.stopped,text_39.started,text_39.stopped,text_50.started,text_50.stopped,key_resp_14.keys,key_resp_14.rt,key_resp_14.started,key_resp_14.stopped,key_resp_27.keys,key_resp_27.rt,key_resp_27.started,key_resp_27.stopped,image_21.started,image_21.stopped,text.started,text.stopped,text_52.started,text_52.stopped,key_resp_16.keys,key_resp_16.rt,key_resp_16.started,key_resp_16.stopped,participant,s1,s2,l1,l2,story_listening,play_stories,behavioral,date,expName,psychopyVersion,frameRate,
0,0,0,0,0,0,0,0,0,0,0,0,0,,,,,,,,,,,,,0,0,0,0,[33 13 44 42 22 24 11 31],[4 1 4 2 3 1 3 2],[34 41 21 23 32 12 43 14],[4 2 3 1 2 3 4 1],26.156511644134298,None,29.18899315292947,None,5,5.217872535111383,29.18899315292947,None,11.276782291941345,34.506103795953095,None,space,0.41280220192857087,34.506103795953095,None,34.506103795953095,None,34.940040978137404,None,space,0.18471638509072363,34.940040978137404,None,space,0.3597745599690825,35.43988590803929,None,35.43988590803929,None,,,,,,,,,test,0,1,0,1,1,0,0,2020_Jan_07_1056,fmri_ebs,3.2.1,60.17735636338531,
,,,,,,,,,,,,,,,,,,,,,,,,,,,,,,,,,,,,,,,,,,,,,,,,,,,,,,,,,,,,,,35.84040364297107,None,35.84040364297107,None,space,0.3623872078023851,35.84040364297107,None,,,,,,,,,,,,,
﻿count,trials_14.thisRepN,trials_14.thisTrialN,trials_14.thisN,trials_14.thisIndex,Block1.thisRepN,Block1.thisTrialN,Block1.thisN,Block1.thisIndex,trials_5.thisRepN,trials_5.thisTrialN,trials_5.thisN,trials_5.thisIndex,trials.thisRepN,trials.thisTrialN,trials.thisN,trials.thisIndex,trials_2.thisRepN,trials_2.thisTrialN,trials_2.thisN,trials_2.thisIndex,trials_22.thisRepN,trials_22.thisTrialN,trials_22.thisN,trials_22.thisIndex,trials_23.thisRepN,trials_23.thisTrialN,trials_23.thisN,trials_23.thisIndex,trials_7.thisRepN,trials_7.thisTrialN,trials_7.thisN,trials_7.thisIndex,story_list_block1,action_list_block1,story_list_block2,action_list_block2,text_53.started,text_53.stopped,textTrigger.started,textTrigger.stopped,getTrigger.keys,getTrigger.rt,getTrigger.started,getTrigger.stopped,triggerTime,text_38.started,text_38.stopped,key_resp_8.keys,key_resp_8.rt,key_resp_8.started,key_resp_8.stopped,text_39.started,text_39.stopped,text_50.started,text_50.stopped,key_resp_14.keys,key_resp_14.rt,key_resp_14.started,key_resp_14.stopped,key_resp_27.keys,key_resp_27.rt,key_resp_27.started,key_resp_27.stopped,image_21.started,image_21.stopped,text.started,text.stopped,text_52.started,text_52.stopped,key_resp_16.keys,key_resp_16.rt,key_resp_16.started,key_resp_16.stopped,text_33.started,text_33.stopped,key_resp_5.keys,key_resp_5.rt,key_resp_5.started,key_resp_5.stopped,text_4.started,text_4.stopped,image.started,image.stopped,text_5.started,text_5.stopped,key_resp_22.keys,key_resp_22.rt,key_resp_22.started,key_resp_22.stopped,text_37.started,text_37.stopped,key_resp_7.keys,key_resp_7.rt,key_resp_7.started,key_resp_7.stopped,question1_3.started,question1_3.stopped,question2_3.started,question2_3.stopped,question3_3.started,question3_3.stopped,question4_3.started,question4_3.stopped,question5_3.started,question5_3.stopped,question6_3.started,question6_3.stopped,image_16.started,image_16.stopped,text_49.started,text_49.stopped,key_resp_15.keys,key_resp_15.rt,key_resp_15.started,key_resp_15.stopped,participant,s1,s2,l1,l2,story_listening,play_stories,behavioral,date,expName,psychopyVersion,frameRate,
0,0,0,0,0,0,0,0,0,0,0,0,0,,,,,,,,,,,,,0,0,0,0,,,,,[33 13 44 42 22 24 11 31],[4 1 4 2 3 1 3 2],[34 41 21 23 32 12 43 14],[4 2 3 1 2 3 4 1],26.156511644134298,None,29.18899315292947,None,5,5.217872535111383,29.18899315292947,None,11.276782291941345,34.506103795953095,None,space,0.41280220192857087,34.506103795953095,None,34.506103795953095,None,34.940040978137404,None,space,0.18471638509072363,34.940040978137404,None,space,0.3597745599690825,35.43988590803929,None,35.43988590803929,None,,,,,,,,,,,,,,,,,,,,,,,,,,,,,,,,,,,,,,,,,,,,,,,,,,,test,0,1,0,1,1,0,0,2020_Jan_07_1056,fmri_ebs,3.2.1,60.17735636338531,
0,0,0,0,0,0,0,0,0,0,0,0,0,,,,,,,,,,,,,,,,,,,,,,,,,,,,,,,,,,,,,,,,,,,,,,,,,,,,,,35.84040364297107,None,35.84040364297107,None,space,0.3623872078023851,35.84040364297107,None,,,,,,,,,,,,,,,,,,,,,,,,,,,,,,,,,,,,,,,,,,,test,0,1,0,1,1,0,0,2020_Jan_07_1056,fmri_ebs,3.2.1,60.17735636338531,
0,0,0,0,0,0,0,0,0,,,,,,,,,,,,,,,,,,,,,,,,,,,,,,,,,,,,,,,,,,,,,,,,,,,,,,,,,,,,,,,,,,,,,,,,,,,,,,,,,,,,,,,,,,,,,,,,,,,,,,,,,,,,test,0,1,0,1,1,0,0,2020_Jan_07_1056,fmri_ebs,3.2.1,60.17735636338531,
1,0,0,0,0,0,1,1,1,0,0,0,0,0,0,0,0,,,,,,,,,,,,,0,0,0,0,,,,,,,,,,,,,,36.239677242934704,None,space,0.2999721288215369,36.239677242934704,None,36.239677242934704,None,,,,,,,,,,,,,,,,,,,,,36.57336189597845,None,space,0.2882414429914206,36.57336189597845,None,36.9733802229166,None,36.9733802229166,None,36.9733802229166,None,space,0.2082125130109489,36.9733802229166,None,37.20702331303619,None,space,0.29574968200176954,37.20702331303619,None,37.93930004793219,None,37.93930004793219,None,37.93930004793219,None,37.93930004793219,None,37.93930004793219,None,37.93930004793219,None,37.93930004793219,None,,,,,,,test,0,1,0,1,1,0,0,2020_Jan_07_1056,fmri_ebs,3.2.1,60.17735636338531,
1,0,0,0,0,0,1,1,1,0,0,0,0,0,0,0,0,,,,,,,,,,,,,,,,,,,,,,,,,,,,,,,,,,,,,,,,,,,,,,,,,,,,,,,,,,,,,,,,41.04103772807866,None,41.04103772807866,None,41.04103772807866,None,space,0.26132475514896214,41.04103772807866,None,,,,,,,,,,,,,,,,,,,,,40.55608171597123,None,space,0.41024832311086357,40.55608171597123,None,test,0,1,0,1,1,0,0,2020_Jan_07_1056,fmri_ebs,3.2.1,60.17735636338531,
1,0,0,0,0,0,1,1,1,0,0,0,0,,,,,,,,,,,,,0,0,0,0,,,,,,,,,,,,,,,,,,,,,,,,,,41.32369832810946,None,space,0.290883825160563,41.32369832810946,None,space,0.2702223227825016,41.739375876961276,None,41.739375876961276,None,,,,,,,,,,,,,,,,,,,,,,,,,,,,,,,,,,,,,,,,,,,,,,,,,,,test,0,1,0,1,1,0,0,2020_Jan_07_1056,fmri_ebs,3.2.1,60.17735636338531,
,,,,,,,,,,,,,,,,,,,,,,,,,,,,,,,,,,,,,,,,,,,,,,,,,,,,,,,,,,,,,,,,,,42.05612591304816,None,42.05612591304816,None,space,0.33720288309268653,42.05612591304816,None,,,,,,,,,,,,,,,,,,,,,,,,,,,,,,,,,,,,,,,,,,,,,,,,,,,,,,,
﻿count,trials_14.thisRepN,trials_14.thisTrialN,trials_14.thisN,trials_14.thisIndex,Block1.thisRepN,Block1.thisTrialN,Block1.thisN,Block1.thisIndex,trials_5.thisRepN,trials_5.thisTrialN,trials_5.thisN,trials_5.thisIndex,trials.thisRepN,trials.thisTrialN,trials.thisN,trials.thisIndex,trials_2.thisRepN,trials_2.thisTrialN,trials_2.thisN,trials_2.thisIndex,trials_22.thisRepN,trials_22.thisTrialN,trials_22.thisN,trials_22.thisIndex,trials_23.thisRepN,trials_23.thisTrialN,trials_23.thisN,trials_23.thisIndex,trials_7.thisRepN,trials_7.thisTrialN,trials_7.thisN,trials_7.thisIndex,story_list_block1,action_list_block1,story_list_block2,action_list_block2,text_53.started,text_53.stopped,textTrigger.started,textTrigger.stopped,getTrigger.keys,getTrigger.rt,getTrigger.started,getTrigger.stopped,triggerTime,text_38.started,text_38.stopped,key_resp_8.keys,key_resp_8.rt,key_resp_8.started,key_resp_8.stopped,text_39.started,text_39.stopped,text_50.started,text_50.stopped,key_resp_14.keys,key_resp_14.rt,key_resp_14.started,key_resp_14.stopped,key_resp_27.keys,key_resp_27.rt,key_resp_27.started,key_resp_27.stopped,image_21.started,image_21.stopped,text.started,text.stopped,text_52.started,text_52.stopped,key_resp_16.keys,key_resp_16.rt,key_resp_16.started,key_resp_16.stopped,text_33.started,text_33.stopped,key_resp_5.keys,key_resp_5.rt,key_resp_5.started,key_resp_5.stopped,text_4.started,text_4.stopped,image.started,image.stopped,text_5.started,text_5.stopped,key_resp_22.keys,key_resp_22.rt,key_resp_22.started,key_resp_22.stopped,text_37.started,text_37.stopped,key_resp_7.keys,key_resp_7.rt,key_resp_7.started,key_resp_7.stopped,question1_3.started,question1_3.stopped,question2_3.started,question2_3.stopped,question3_3.started,question3_3.stopped,question4_3.started,question4_3.stopped,question5_3.started,question5_3.stopped,question6_3.started,question6_3.stopped,image_16.started,image_16.stopped,text_49.started,text_49.stopped,key_resp_15.keys,key_resp_15.rt,key_resp_15.started,key_resp_15.stopped,participant,s1,s2,l1,l2,story_listening,play_stories,behavioral,date,expName,psychopyVersion,frameRate,
0,0,0,0,0,0,0,0,0,0,0,0,0,,,,,,,,,,,,,0,0,0,0,,,,,[33 13 44 42 22 24 11 31],[4 1 4 2 3 1 3 2],[34 41 21 23 32 12 43 14],[4 2 3 1 2 3 4 1],26.156511644134298,None,29.18899315292947,None,5,5.217872535111383,29.18899315292947,None,11.276782291941345,34.506103795953095,None,space,0.41280220192857087,34.506103795953095,None,34.506103795953095,None,34.940040978137404,None,space,0.18471638509072363,34.940040978137404,None,space,0.3597745599690825,35.43988590803929,None,35.43988590803929,None,,,,,,,,,,,,,,,,,,,,,,,,,,,,,,,,,,,,,,,,,,,,,,,,,,,test,0,1,0,1,1,0,0,2020_Jan_07_1056,fmri_ebs,3.2.1,60.17735636338531,
0,0,0,0,0,0,0,0,0,0,0,0,0,,,,,,,,,,,,,,,,,,,,,,,,,,,,,,,,,,,,,,,,,,,,,,,,,,,,,,35.84040364297107,None,35.84040364297107,None,space,0.3623872078023851,35.84040364297107,None,,,,,,,,,,,,,,,,,,,,,,,,,,,,,,,,,,,,,,,,,,,test,0,1,0,1,1,0,0,2020_Jan_07_1056,fmri_ebs,3.2.1,60.17735636338531,
0,0,0,0,0,0,0,0,0,,,,,,,,,,,,,,,,,,,,,,,,,,,,,,,,,,,,,,,,,,,,,,,,,,,,,,,,,,,,,,,,,,,,,,,,,,,,,,,,,,,,,,,,,,,,,,,,,,,,,,,,,,,,test,0,1,0,1,1,0,0,2020_Jan_07_1056,fmri_ebs,3.2.1,60.17735636338531,
1,0,0,0,0,0,1,1,1,0,0,0,0,0,0,0,0,,,,,,,,,,,,,0,0,0,0,,,,,,,,,,,,,,36.239677242934704,None,space,0.2999721288215369,36.239677242934704,None,36.239677242934704,None,,,,,,,,,,,,,,,,,,,,,36.57336189597845,None,space,0.2882414429914206,36.57336189597845,None,36.9733802229166,None,36.9733802229166,None,36.9733802229166,None,space,0.2082125130109489,36.9733802229166,None,37.20702331303619,None,space,0.29574968200176954,37.20702331303619,None,37.93930004793219,None,37.93930004793219,None,37.93930004793219,None,37.93930004793219,None,37.93930004793219,None,37.93930004793219,None,37.93930004793219,None,,,,,,,test,0,1,0,1,1,0,0,2020_Jan_07_1056,fmri_ebs,3.2.1,60.17735636338531,
1,0,0,0,0,0,1,1,1,0,0,0,0,0,0,0,0,,,,,,,,,,,,,,,,,,,,,,,,,,,,,,,,,,,,,,,,,,,,,,,,,,,,,,,,,,,,,,,,41.04103772807866,None,41.04103772807866,None,41.04103772807866,None,space,0.26132475514896214,41.04103772807866,None,,,,,,,,,,,,,,,,,,,,,40.55608171597123,None,space,0.41024832311086357,40.55608171597123,None,test,0,1,0,1,1,0,0,2020_Jan_07_1056,fmri_ebs,3.2.1,60.17735636338531,
1,0,0,0,0,0,1,1,1,0,0,0,0,,,,,,,,,,,,,0,0,0,0,,,,,,,,,,,,,,,,,,,,,,,,,,41.32369832810946,None,space,0.290883825160563,41.32369832810946,None,space,0.2702223227825016,41.739375876961276,None,41.739375876961276,None,,,,,,,,,,,,,,,,,,,,,,,,,,,,,,,,,,,,,,,,,,,,,,,,,,,test,0,1,0,1,1,0,0,2020_Jan_07_1056,fmri_ebs,3.2.1,60.17735636338531,
1,0,0,0,0,0,1,1,1,0,0,0,0,,,,,,,,,,,,,,,,,,,,,,,,,,,,,,,,,,,,,,,,,,,,,,,,,,,,,,42.05612591304816,None,42.05612591304816,None,space,0.33720288309268653,42.05612591304816,None,,,,,,,,,,,,,,,,,,,,,,,,,,,,,,,,,,,,,,,,,,,test,0,1,0,1,1,0,0,2020_Jan_07_1056,fmri_ebs,3.2.1,60.17735636338531,
1,0,0,0,0,0,1,1,1,,,,,,,,,,,,,,,,,,,,,,,,,,,,,,,,,,,,,,,,,,,,,,,,,,,,,,,,,,,,,,,,,,,,,,,,,,,,,,,,,,,,,,,,,,,,,,,,,,,,,,,,,,,,test,0,1,0,1,1,0,0,2020_Jan_07_1056,fmri_ebs,3.2.1,60.17735636338531,
2,0,0,0,0,0,2,2,2,0,0,0,0,,,,,,,,,,,,,0,0,0,0,,,,,,,,,,,,,,,,,,42.439516958082095,None,space,0.3009711531922221,42.439516958082095,None,42.439516958082095,None,42.75693990592845,None,space,0.319353885948658,42.75693990592845,None,space,0.2537471048999578,43.17265091603622,None,43.17265091603622,None,,,,,,,,,,,,,,,,,,,,,,,,,,,,,,,,,,,,,,,,,,,,,,,,,,,test,0,1,0,1,1,0,0,2020_Jan_07_1056,fmri_ebs,3.2.1,60.17735636338531,
,,,,,,,,,,,,,,,,,,,,,,,,,,,,,,,,,,,,,,,,,,,,,,,,,,,,,,,,,,,,,,,,,,43.45660109794699,None,43.45660109794699,None,space,0.29553817794658244,43.45660109794699,None,,,,,,,,,,,,,,,,,,,,,,,,,,,,,,,,,,,,,,,,,,,,,,,,,,,,,,,
﻿count,trials_14.thisRepN,trials_14.thisTrialN,trials_14.thisN,trials_14.thisIndex,Block1.thisRepN,Block1.thisTrialN,Block1.thisN,Block1.thisIndex,trials_5.thisRepN,trials_5.thisTrialN,trials_5.thisN,trials_5.thisIndex,trials.thisRepN,trials.thisTrialN,trials.thisN,trials.thisIndex,trials_2.thisRepN,trials_2.thisTrialN,trials_2.thisN,trials_2.thisIndex,trials_22.thisRepN,trials_22.thisTrialN,trials_22.thisN,trials_22.thisIndex,trials_23.thisRepN,trials_23.thisTrialN,trials_23.thisN,trials_23.thisIndex,trials_7.thisRepN,trials_7.thisTrialN,trials_7.thisN,trials_7.thisIndex,story_list_block1,action_list_block1,story_list_block2,action_list_block2,text_53.started,text_53.stopped,textTrigger.started,textTrigger.stopped,getTrigger.keys,getTrigger.rt,getTrigger.started,getTrigger.stopped,triggerTime,text_38.started,text_38.stopped,key_resp_8.keys,key_resp_8.rt,key_resp_8.started,key_resp_8.stopped,text_39.started,text_39.stopped,text_50.started,text_50.stopped,key_resp_14.keys,key_resp_14.rt,key_resp_14.started,key_resp_14.stopped,key_resp_27.keys,key_resp_27.rt,key_resp_27.started,key_resp_27.stopped,image_21.started,image_21.stopped,text.started,text.stopped,text_52.started,text_52.stopped,key_resp_16.keys,key_resp_16.rt,key_resp_16.started,key_resp_16.stopped,text_33.started,text_33.stopped,key_resp_5.keys,key_resp_5.rt,key_resp_5.started,key_resp_5.stopped,text_4.started,text_4.stopped,image.started,image.stopped,text_5.started,text_5.stopped,key_resp_22.keys,key_resp_22.rt,key_resp_22.started,key_resp_22.stopped,text_37.started,text_37.stopped,key_resp_7.keys,key_resp_7.rt,key_resp_7.started,key_resp_7.stopped,question1_3.started,question1_3.stopped,question2_3.started,question2_3.stopped,question3_3.started,question3_3.stopped,question4_3.started,question4_3.stopped,question5_3.started,question5_3.stopped,question6_3.started,question6_3.stopped,image_16.started,image_16.stopped,text_49.started,text_49.stopped,key_resp_15.keys,key_resp_15.rt,key_resp_15.started,key_resp_15.stopped,participant,s1,s2,l1,l2,story_listening,play_stories,behavioral,date,expName,psychopyVersion,frameRate,
0,0,0,0,0,0,0,0,0,0,0,0,0,,,,,,,,,,,,,0,0,0,0,,,,,[33 13 44 42 22 24 11 31],[4 1 4 2 3 1 3 2],[34 41 21 23 32 12 43 14],[4 2 3 1 2 3 4 1],26.156511644134298,None,29.18899315292947,None,5,5.217872535111383,29.18899315292947,None,11.276782291941345,34.506103795953095,None,space,0.41280220192857087,34.506103795953095,None,34.506103795953095,None,34.940040978137404,None,space,0.18471638509072363,34.940040978137404,None,space,0.3597745599690825,35.43988590803929,None,35.43988590803929,None,,,,,,,,,,,,,,,,,,,,,,,,,,,,,,,,,,,,,,,,,,,,,,,,,,,test,0,1,0,1,1,0,0,2020_Jan_07_1056,fmri_ebs,3.2.1,60.17735636338531,
0,0,0,0,0,0,0,0,0,0,0,0,0,,,,,,,,,,,,,,,,,,,,,,,,,,,,,,,,,,,,,,,,,,,,,,,,,,,,,,35.84040364297107,None,35.84040364297107,None,space,0.3623872078023851,35.84040364297107,None,,,,,,,,,,,,,,,,,,,,,,,,,,,,,,,,,,,,,,,,,,,test,0,1,0,1,1,0,0,2020_Jan_07_1056,fmri_ebs,3.2.1,60.17735636338531,
0,0,0,0,0,0,0,0,0,,,,,,,,,,,,,,,,,,,,,,,,,,,,,,,,,,,,,,,,,,,,,,,,,,,,,,,,,,,,,,,,,,,,,,,,,,,,,,,,,,,,,,,,,,,,,,,,,,,,,,,,,,,,test,0,1,0,1,1,0,0,2020_Jan_07_1056,fmri_ebs,3.2.1,60.17735636338531,
1,0,0,0,0,0,1,1,1,0,0,0,0,0,0,0,0,,,,,,,,,,,,,0,0,0,0,,,,,,,,,,,,,,36.239677242934704,None,space,0.2999721288215369,36.239677242934704,None,36.239677242934704,None,,,,,,,,,,,,,,,,,,,,,36.57336189597845,None,space,0.2882414429914206,36.57336189597845,None,36.9733802229166,None,36.9733802229166,None,36.9733802229166,None,space,0.2082125130109489,36.9733802229166,None,37.20702331303619,None,space,0.29574968200176954,37.20702331303619,None,37.93930004793219,None,37.93930004793219,None,37.93930004793219,None,37.93930004793219,None,37.93930004793219,None,37.93930004793219,None,37.93930004793219,None,,,,,,,test,0,1,0,1,1,0,0,2020_Jan_07_1056,fmri_ebs,3.2.1,60.17735636338531,
1,0,0,0,0,0,1,1,1,0,0,0,0,0,0,0,0,,,,,,,,,,,,,,,,,,,,,,,,,,,,,,,,,,,,,,,,,,,,,,,,,,,,,,,,,,,,,,,,41.04103772807866,None,41.04103772807866,None,41.04103772807866,None,space,0.26132475514896214,41.04103772807866,None,,,,,,,,,,,,,,,,,,,,,40.55608171597123,None,space,0.41024832311086357,40.55608171597123,None,test,0,1,0,1,1,0,0,2020_Jan_07_1056,fmri_ebs,3.2.1,60.17735636338531,
1,0,0,0,0,0,1,1,1,0,0,0,0,,,,,,,,,,,,,0,0,0,0,,,,,,,,,,,,,,,,,,,,,,,,,,41.32369832810946,None,space,0.290883825160563,41.32369832810946,None,space,0.2702223227825016,41.739375876961276,None,41.739375876961276,None,,,,,,,,,,,,,,,,,,,,,,,,,,,,,,,,,,,,,,,,,,,,,,,,,,,test,0,1,0,1,1,0,0,2020_Jan_07_1056,fmri_ebs,3.2.1,60.17735636338531,
1,0,0,0,0,0,1,1,1,0,0,0,0,,,,,,,,,,,,,,,,,,,,,,,,,,,,,,,,,,,,,,,,,,,,,,,,,,,,,,42.05612591304816,None,42.05612591304816,None,space,0.33720288309268653,42.05612591304816,None,,,,,,,,,,,,,,,,,,,,,,,,,,,,,,,,,,,,,,,,,,,test,0,1,0,1,1,0,0,2020_Jan_07_1056,fmri_ebs,3.2.1,60.17735636338531,
1,0,0,0,0,0,1,1,1,,,,,,,,,,,,,,,,,,,,,,,,,,,,,,,,,,,,,,,,,,,,,,,,,,,,,,,,,,,,,,,,,,,,,,,,,,,,,,,,,,,,,,,,,,,,,,,,,,,,,,,,,,,,test,0,1,0,1,1,0,0,2020_Jan_07_1056,fmri_ebs,3.2.1,60.17735636338531,
2,0,0,0,0,0,2,2,2,0,0,0,0,,,,,,,,,,,,,0,0,0,0,,,,,,,,,,,,,,,,,,42.439516958082095,None,space,0.3009711531922221,42.439516958082095,None,42.439516958082095,None,42.75693990592845,None,space,0.319353885948658,42.75693990592845,None,space,0.2537471048999578,43.17265091603622,None,43.17265091603622,None,,,,,,,,,,,,,,,,,,,,,,,,,,,,,,,,,,,,,,,,,,,,,,,,,,,test,0,1,0,1,1,0,0,2020_Jan_07_1056,fmri_ebs,3.2.1,60.17735636338531,
2,0,0,0,0,0,2,2,2,0,0,0,0,,,,,,,,,,,,,,,,,,,,,,,,,,,,,,,,,,,,,,,,,,,,,,,,,,,,,,43.45660109794699,None,43.45660109794699,None,space,0.29553817794658244,43.45660109794699,None,,,,,,,,,,,,,,,,,,,,,,,,,,,,,,,,,,,,,,,,,,,test,0,1,0,1,1,0,0,2020_Jan_07_1056,fmri_ebs,3.2.1,60.17735636338531,
2,0,0,0,0,0,2,2,2,,,,,,,,,,,,,,,,,,,,,,,,,,,,,,,,,,,,,,,,,,,,,,,,,,,,,,,,,,,,,,,,,,,,,,,,,,,,,,,,,,,,,,,,,,,,,,,,,,,,,,,,,,,,test,0,1,0,1,1,0,0,2020_Jan_07_1056,fmri_ebs,3.2.1,60.17735636338531,
3,0,0,0,0,0,3,3,3,0,0,0,0,0,0,0,0,,,,,,,,,,,,,0,0,0,0,,,,,,,,,,,,,,43.78998205298558,None,space,0.2692793500609696,43.78998205298558,None,43.78998205298558,None,,,,,,,,,,,,,,,,,,,,,44.08977964613587,None,space,0.285363731905818,44.08977964613587,None,44.48976996797137,None,44.48976996797137,None,44.48976996797137,None,space,0.3505120200570673,44.48976996797137,None,44.856313762953505,None,space,0.32189746806398034,44.856313762953505,None,45.50759765598923,None,45.50759765598923,None,45.50759765598923,None,45.50759765598923,None,45.50759765598923,None,45.50759765598923,None,45.50759765598923,None,,,,,,,test,0,1,0,1,1,0,0,2020_Jan_07_1056,fmri_ebs,3.2.1,60.17735636338531,
3,0,0,0,0,0,3,3,3,0,0,0,0,0,0,0,0,,,,,,,,,,,,,,,,,,,,,,,,,,,,,,,,,,,,,,,,,,,,,,,,,,,,,,,,,,,,,,,,46.35644188593142,None,46.35644188593142,None,46.35644188593142,None,space,0.2545501198619604,46.35644188593142,None,,,,,,,,,,,,,,,,,,,,,46.10774351609871,None,space,0.19748720014467835,46.10774351609871,None,test,0,1,0,1,1,0,0,2020_Jan_07_1056,fmri_ebs,3.2.1,60.17735636338531,
3,0,0,0,0,0,3,3,3,0,0,0,0,,,,,,,,,,,,,0,0,0,0,,,,,,,,,,,,,,,,,,,,,,,,,,46.640848045935854,None,space,0.30010299012064934,46.640848045935854,None,space,0.20051058195531368,47.05648898310028,None,47.05648898310028,None,,,,,,,,,,,,,,,,,,,,,,,,,,,,,,,,,,,,,,,,,,,,,,,,,,,test,0,1,0,1,1,0,0,2020_Jan_07_1056,fmri_ebs,3.2.1,60.17735636338531,
,,,,,,,,,,,,,,,,,,,,,,,,,,,,,,,,,,,,,,,,,,,,,,,,,,,,,,,,,,,,,,,,,,47.29018958611414,None,47.29018958611414,None,space,0.2957143448293209,47.29018958611414,None,,,,,,,,,,,,,,,,,,,,,,,,,,,,,,,,,,,,,,,,,,,,,,,,,,,,,,,
﻿count,trials_14.thisRepN,trials_14.thisTrialN,trials_14.thisN,trials_14.thisIndex,Block1.thisRepN,Block1.thisTrialN,Block1.thisN,Block1.thisIndex,trials_5.thisRepN,trials_5.thisTrialN,trials_5.thisN,trials_5.thisIndex,trials.thisRepN,trials.thisTrialN,trials.thisN,trials.thisIndex,trials_2.thisRepN,trials_2.thisTrialN,trials_2.thisN,trials_2.thisIndex,trials_22.thisRepN,trials_22.thisTrialN,trials_22.thisN,trials_22.thisIndex,trials_23.thisRepN,trials_23.thisTrialN,trials_23.thisN,trials_23.thisIndex,trials_7.thisRepN,trials_7.thisTrialN,trials_7.thisN,trials_7.thisIndex,story_list_block1,action_list_block1,story_list_block2,action_list_block2,text_53.started,text_53.stopped,textTrigger.started,textTrigger.stopped,getTrigger.keys,getTrigger.rt,getTrigger.started,getTrigger.stopped,triggerTime,text_38.started,text_38.stopped,key_resp_8.keys,key_resp_8.rt,key_resp_8.started,key_resp_8.stopped,text_39.started,text_39.stopped,text_50.started,text_50.stopped,key_resp_14.keys,key_resp_14.rt,key_resp_14.started,key_resp_14.stopped,key_resp_27.keys,key_resp_27.rt,key_resp_27.started,key_resp_27.stopped,image_21.started,image_21.stopped,text.started,text.stopped,text_52.started,text_52.stopped,key_resp_16.keys,key_resp_16.rt,key_resp_16.started,key_resp_16.stopped,text_33.started,text_33.stopped,key_resp_5.keys,key_resp_5.rt,key_resp_5.started,key_resp_5.stopped,text_4.started,text_4.stopped,image.started,image.stopped,text_5.started,text_5.stopped,key_resp_22.keys,key_resp_22.rt,key_resp_22.started,key_resp_22.stopped,text_37.started,text_37.stopped,key_resp_7.keys,key_resp_7.rt,key_resp_7.started,key_resp_7.stopped,question1_3.started,question1_3.stopped,question2_3.started,question2_3.stopped,question3_3.started,question3_3.stopped,question4_3.started,question4_3.stopped,question5_3.started,question5_3.stopped,question6_3.started,question6_3.stopped,image_16.started,image_16.stopped,text_49.started,text_49.stopped,key_resp_15.keys,key_resp_15.rt,key_resp_15.started,key_resp_15.stopped,participant,s1,s2,l1,l2,story_listening,play_stories,behavioral,date,expName,psychopyVersion,frameRate,
0,0,0,0,0,0,0,0,0,0,0,0,0,,,,,,,,,,,,,0,0,0,0,,,,,[33 13 44 42 22 24 11 31],[4 1 4 2 3 1 3 2],[34 41 21 23 32 12 43 14],[4 2 3 1 2 3 4 1],26.156511644134298,None,29.18899315292947,None,5,5.217872535111383,29.18899315292947,None,11.276782291941345,34.506103795953095,None,space,0.41280220192857087,34.506103795953095,None,34.506103795953095,None,34.940040978137404,None,space,0.18471638509072363,34.940040978137404,None,space,0.3597745599690825,35.43988590803929,None,35.43988590803929,None,,,,,,,,,,,,,,,,,,,,,,,,,,,,,,,,,,,,,,,,,,,,,,,,,,,test,0,1,0,1,1,0,0,2020_Jan_07_1056,fmri_ebs,3.2.1,60.17735636338531,
0,0,0,0,0,0,0,0,0,0,0,0,0,,,,,,,,,,,,,,,,,,,,,,,,,,,,,,,,,,,,,,,,,,,,,,,,,,,,,,35.84040364297107,None,35.84040364297107,None,space,0.3623872078023851,35.84040364297107,None,,,,,,,,,,,,,,,,,,,,,,,,,,,,,,,,,,,,,,,,,,,test,0,1,0,1,1,0,0,2020_Jan_07_1056,fmri_ebs,3.2.1,60.17735636338531,
0,0,0,0,0,0,0,0,0,,,,,,,,,,,,,,,,,,,,,,,,,,,,,,,,,,,,,,,,,,,,,,,,,,,,,,,,,,,,,,,,,,,,,,,,,,,,,,,,,,,,,,,,,,,,,,,,,,,,,,,,,,,,test,0,1,0,1,1,0,0,2020_Jan_07_1056,fmri_ebs,3.2.1,60.17735636338531,
1,0,0,0,0,0,1,1,1,0,0,0,0,0,0,0,0,,,,,,,,,,,,,0,0,0,0,,,,,,,,,,,,,,36.239677242934704,None,space,0.2999721288215369,36.239677242934704,None,36.239677242934704,None,,,,,,,,,,,,,,,,,,,,,36.57336189597845,None,space,0.2882414429914206,36.57336189597845,None,36.9733802229166,None,36.9733802229166,None,36.9733802229166,None,space,0.2082125130109489,36.9733802229166,None,37.20702331303619,None,space,0.29574968200176954,37.20702331303619,None,37.93930004793219,None,37.93930004793219,None,37.93930004793219,None,37.93930004793219,None,37.93930004793219,None,37.93930004793219,None,37.93930004793219,None,,,,,,,test,0,1,0,1,1,0,0,2020_Jan_07_1056,fmri_ebs,3.2.1,60.17735636338531,
1,0,0,0,0,0,1,1,1,0,0,0,0,0,0,0,0,,,,,,,,,,,,,,,,,,,,,,,,,,,,,,,,,,,,,,,,,,,,,,,,,,,,,,,,,,,,,,,,41.04103772807866,None,41.04103772807866,None,41.04103772807866,None,space,0.26132475514896214,41.04103772807866,None,,,,,,,,,,,,,,,,,,,,,40.55608171597123,None,space,0.41024832311086357,40.55608171597123,None,test,0,1,0,1,1,0,0,2020_Jan_07_1056,fmri_ebs,3.2.1,60.17735636338531,
1,0,0,0,0,0,1,1,1,0,0,0,0,,,,,,,,,,,,,0,0,0,0,,,,,,,,,,,,,,,,,,,,,,,,,,41.32369832810946,None,space,0.290883825160563,41.32369832810946,None,space,0.2702223227825016,41.739375876961276,None,41.739375876961276,None,,,,,,,,,,,,,,,,,,,,,,,,,,,,,,,,,,,,,,,,,,,,,,,,,,,test,0,1,0,1,1,0,0,2020_Jan_07_1056,fmri_ebs,3.2.1,60.17735636338531,
1,0,0,0,0,0,1,1,1,0,0,0,0,,,,,,,,,,,,,,,,,,,,,,,,,,,,,,,,,,,,,,,,,,,,,,,,,,,,,,42.05612591304816,None,42.05612591304816,None,space,0.33720288309268653,42.05612591304816,None,,,,,,,,,,,,,,,,,,,,,,,,,,,,,,,,,,,,,,,,,,,test,0,1,0,1,1,0,0,2020_Jan_07_1056,fmri_ebs,3.2.1,60.17735636338531,
1,0,0,0,0,0,1,1,1,,,,,,,,,,,,,,,,,,,,,,,,,,,,,,,,,,,,,,,,,,,,,,,,,,,,,,,,,,,,,,,,,,,,,,,,,,,,,,,,,,,,,,,,,,,,,,,,,,,,,,,,,,,,test,0,1,0,1,1,0,0,2020_Jan_07_1056,fmri_ebs,3.2.1,60.17735636338531,
2,0,0,0,0,0,2,2,2,0,0,0,0,,,,,,,,,,,,,0,0,0,0,,,,,,,,,,,,,,,,,,42.439516958082095,None,space,0.3009711531922221,42.439516958082095,None,42.439516958082095,None,42.75693990592845,None,space,0.319353885948658,42.75693990592845,None,space,0.2537471048999578,43.17265091603622,None,43.17265091603622,None,,,,,,,,,,,,,,,,,,,,,,,,,,,,,,,,,,,,,,,,,,,,,,,,,,,test,0,1,0,1,1,0,0,2020_Jan_07_1056,fmri_ebs,3.2.1,60.17735636338531,
2,0,0,0,0,0,2,2,2,0,0,0,0,,,,,,,,,,,,,,,,,,,,,,,,,,,,,,,,,,,,,,,,,,,,,,,,,,,,,,43.45660109794699,None,43.45660109794699,None,space,0.29553817794658244,43.45660109794699,None,,,,,,,,,,,,,,,,,,,,,,,,,,,,,,,,,,,,,,,,,,,test,0,1,0,1,1,0,0,2020_Jan_07_1056,fmri_ebs,3.2.1,60.17735636338531,
2,0,0,0,0,0,2,2,2,,,,,,,,,,,,,,,,,,,,,,,,,,,,,,,,,,,,,,,,,,,,,,,,,,,,,,,,,,,,,,,,,,,,,,,,,,,,,,,,,,,,,,,,,,,,,,,,,,,,,,,,,,,,test,0,1,0,1,1,0,0,2020_Jan_07_1056,fmri_ebs,3.2.1,60.17735636338531,
3,0,0,0,0,0,3,3,3,0,0,0,0,0,0,0,0,,,,,,,,,,,,,0,0,0,0,,,,,,,,,,,,,,43.78998205298558,None,space,0.2692793500609696,43.78998205298558,None,43.78998205298558,None,,,,,,,,,,,,,,,,,,,,,44.08977964613587,None,space,0.285363731905818,44.08977964613587,None,44.48976996797137,None,44.48976996797137,None,44.48976996797137,None,space,0.3505120200570673,44.48976996797137,None,44.856313762953505,None,space,0.32189746806398034,44.856313762953505,None,45.50759765598923,None,45.50759765598923,None,45.50759765598923,None,45.50759765598923,None,45.50759765598923,None,45.50759765598923,None,45.50759765598923,None,,,,,,,test,0,1,0,1,1,0,0,2020_Jan_07_1056,fmri_ebs,3.2.1,60.17735636338531,
3,0,0,0,0,0,3,3,3,0,0,0,0,0,0,0,0,,,,,,,,,,,,,,,,,,,,,,,,,,,,,,,,,,,,,,,,,,,,,,,,,,,,,,,,,,,,,,,,46.35644188593142,None,46.35644188593142,None,46.35644188593142,None,space,0.2545501198619604,46.35644188593142,None,,,,,,,,,,,,,,,,,,,,,46.10774351609871,None,space,0.19748720014467835,46.10774351609871,None,test,0,1,0,1,1,0,0,2020_Jan_07_1056,fmri_ebs,3.2.1,60.17735636338531,
3,0,0,0,0,0,3,3,3,0,0,0,0,,,,,,,,,,,,,0,0,0,0,,,,,,,,,,,,,,,,,,,,,,,,,,46.640848045935854,None,space,0.30010299012064934,46.640848045935854,None,space,0.20051058195531368,47.05648898310028,None,47.05648898310028,None,,,,,,,,,,,,,,,,,,,,,,,,,,,,,,,,,,,,,,,,,,,,,,,,,,,test,0,1,0,1,1,0,0,2020_Jan_07_1056,fmri_ebs,3.2.1,60.17735636338531,
3,0,0,0,0,0,3,3,3,0,0,0,0,,,,,,,,,,,,,,,,,,,,,,,,,,,,,,,,,,,,,,,,,,,,,,,,,,,,,,47.29018958611414,None,47.29018958611414,None,space,0.2957143448293209,47.29018958611414,None,,,,,,,,,,,,,,,,,,,,,,,,,,,,,,,,,,,,,,,,,,,test,0,1,0,1,1,0,0,2020_Jan_07_1056,fmri_ebs,3.2.1,60.17735636338531,
3,0,0,0,0,0,3,3,3,,,,,,,,,,,,,,,,,,,,,,,,,,,,,,,,,,,,,,,,,,,,,,,,,,,,,,,,,,,,,,,,,,,,,,,,,,,,,,,,,,,,,,,,,,,,,,,,,,,,,,,,,,,,test,0,1,0,1,1,0,0,2020_Jan_07_1056,fmri_ebs,3.2.1,60.17735636338531,
4,0,0,0,0,0,4,4,4,,,,,,,,,,,,,,,,,,,,,,,,,,,,,,,,,,,,,,,,,,,,,,,,,,,,,,,,,,,,,,,,,,,,,,,,,,,,,,,,,,,,,,,,,,,,,,,,,,,,,,,,,,,,test,0,1,0,1,1,0,0,2020_Jan_07_1056,fmri_ebs,3.2.1,60.17735636338531,
5,0,0,0,0,0,5,5,5,0,0,0,0,0,0,0,0,,,,,,,,,,,,,0,0,0,0,,,,,,,,,,,,,,47.623747227014974,None,space,0.2953060909640044,47.623747227014974,None,47.623747227014974,None,,,,,,,,,,,,,,,,,,,,,47.94083168799989,None,space,0.28319336008280516,47.94083168799989,None,48.306841406039894,None,48.306841406039894,None,48.306841406039894,None,space,0.2400573850609362,48.306841406039894,None,48.57334083109163,None,space,0.29966007685288787,48.57334083109163,None,49.15686881612055,None,49.15686881612055,None,49.15686881612055,None,49.15686881612055,None,49.15686881612055,None,49.15686881612055,None,49.15686881612055,None,,,,,,,test,0,1,0,1,1,0,0,2020_Jan_07_1056,fmri_ebs,3.2.1,60.17735636338531,
5,0,0,0,0,0,5,5,5,0,0,0,0,0,0,0,0,,,,,,,,,,,,,,,,,,,,,,,,,,,,,,,,,,,,,,,,,,,,,,,,,,,,,,,,,,,,,,,,50.05712903593667,None,50.05712903593667,None,50.05712903593667,None,space,0.24982736096717417,50.05712903593667,None,,,,,,,,,,,,,,,,,,,,,49.7901390879415,None,space,0.1998153270687908,49.7901390879415,None,test,0,1,0,1,1,0,0,2020_Jan_07_1056,fmri_ebs,3.2.1,60.17735636338531,
5,0,0,0,0,0,5,5,5,0,0,0,0,,,,,,,,,,,,,0,0,0,0,,,,,,,,,,,,,,,,,,,,,,,,,,50.323645462980494,None,space,0.29306597192771733,50.323645462980494,None,space,0.18496051686815917,50.723735568113625,None,50.723735568113625,None,,,,,,,,,,,,,,,,,,,,,,,,,,,,,,,,,,,,,,,,,,,,,,,,,,,test,0,1,0,1,1,0,0,2020_Jan_07_1056,fmri_ebs,3.2.1,60.17735636338531,
,,,,,,,,,,,,,,,,,,,,,,,,,,,,,,,,,,,,,,,,,,,,,,,,,,,,,,,,,,,,,,,,,,50.94058312801644,None,50.94058312801644,None,space,0.31526286294683814,50.94058312801644,None,,,,,,,,,,,,,,,,,,,,,,,,,,,,,,,,,,,,,,,,,,,,,,,,,,,,,,,
﻿count,trials_14.thisRepN,trials_14.thisTrialN,trials_14.thisN,trials_14.thisIndex,Block1.thisRepN,Block1.thisTrialN,Block1.thisN,Block1.thisIndex,trials_5.thisRepN,trials_5.thisTrialN,trials_5.thisN,trials_5.thisIndex,trials.thisRepN,trials.thisTrialN,trials.thisN,trials.thisIndex,trials_2.thisRepN,trials_2.thisTrialN,trials_2.thisN,trials_2.thisIndex,trials_22.thisRepN,trials_22.thisTrialN,trials_22.thisN,trials_22.thisIndex,trials_23.thisRepN,trials_23.thisTrialN,trials_23.thisN,trials_23.thisIndex,trials_7.thisRepN,trials_7.thisTrialN,trials_7.thisN,trials_7.thisIndex,story_list_block1,action_list_block1,story_list_block2,action_list_block2,text_53.started,text_53.stopped,textTrigger.started,textTrigger.stopped,getTrigger.keys,getTrigger.rt,getTrigger.started,getTrigger.stopped,triggerTime,text_38.started,text_38.stopped,key_resp_8.keys,key_resp_8.rt,key_resp_8.started,key_resp_8.stopped,text_39.started,text_39.stopped,text_50.started,text_50.stopped,key_resp_14.keys,key_resp_14.rt,key_resp_14.started,key_resp_14.stopped,key_resp_27.keys,key_resp_27.rt,key_resp_27.started,key_resp_27.stopped,image_21.started,image_21.stopped,text.started,text.stopped,text_52.started,text_52.stopped,key_resp_16.keys,key_resp_16.rt,key_resp_16.started,key_resp_16.stopped,text_33.started,text_33.stopped,key_resp_5.keys,key_resp_5.rt,key_resp_5.started,key_resp_5.stopped,text_4.started,text_4.stopped,image.started,image.stopped,text_5.started,text_5.stopped,key_resp_22.keys,key_resp_22.rt,key_resp_22.started,key_resp_22.stopped,text_37.started,text_37.stopped,key_resp_7.keys,key_resp_7.rt,key_resp_7.started,key_resp_7.stopped,question1_3.started,question1_3.stopped,question2_3.started,question2_3.stopped,question3_3.started,question3_3.stopped,question4_3.started,question4_3.stopped,question5_3.started,question5_3.stopped,question6_3.started,question6_3.stopped,image_16.started,image_16.stopped,text_49.started,text_49.stopped,key_resp_15.keys,key_resp_15.rt,key_resp_15.started,key_resp_15.stopped,participant,s1,s2,l1,l2,story_listening,play_stories,behavioral,date,expName,psychopyVersion,frameRate,
0,0,0,0,0,0,0,0,0,0,0,0,0,,,,,,,,,,,,,0,0,0,0,,,,,[33 13 44 42 22 24 11 31],[4 1 4 2 3 1 3 2],[34 41 21 23 32 12 43 14],[4 2 3 1 2 3 4 1],26.156511644134298,None,29.18899315292947,None,5,5.217872535111383,29.18899315292947,None,11.276782291941345,34.506103795953095,None,space,0.41280220192857087,34.506103795953095,None,34.506103795953095,None,34.940040978137404,None,space,0.18471638509072363,34.940040978137404,None,space,0.3597745599690825,35.43988590803929,None,35.43988590803929,None,,,,,,,,,,,,,,,,,,,,,,,,,,,,,,,,,,,,,,,,,,,,,,,,,,,test,0,1,0,1,1,0,0,2020_Jan_07_1056,fmri_ebs,3.2.1,60.17735636338531,
0,0,0,0,0,0,0,0,0,0,0,0,0,,,,,,,,,,,,,,,,,,,,,,,,,,,,,,,,,,,,,,,,,,,,,,,,,,,,,,35.84040364297107,None,35.84040364297107,None,space,0.3623872078023851,35.84040364297107,None,,,,,,,,,,,,,,,,,,,,,,,,,,,,,,,,,,,,,,,,,,,test,0,1,0,1,1,0,0,2020_Jan_07_1056,fmri_ebs,3.2.1,60.17735636338531,
0,0,0,0,0,0,0,0,0,,,,,,,,,,,,,,,,,,,,,,,,,,,,,,,,,,,,,,,,,,,,,,,,,,,,,,,,,,,,,,,,,,,,,,,,,,,,,,,,,,,,,,,,,,,,,,,,,,,,,,,,,,,,test,0,1,0,1,1,0,0,2020_Jan_07_1056,fmri_ebs,3.2.1,60.17735636338531,
1,0,0,0,0,0,1,1,1,0,0,0,0,0,0,0,0,,,,,,,,,,,,,0,0,0,0,,,,,,,,,,,,,,36.239677242934704,None,space,0.2999721288215369,36.239677242934704,None,36.239677242934704,None,,,,,,,,,,,,,,,,,,,,,36.57336189597845,None,space,0.2882414429914206,36.57336189597845,None,36.9733802229166,None,36.9733802229166,None,36.9733802229166,None,space,0.2082125130109489,36.9733802229166,None,37.20702331303619,None,space,0.29574968200176954,37.20702331303619,None,37.93930004793219,None,37.93930004793219,None,37.93930004793219,None,37.93930004793219,None,37.93930004793219,None,37.93930004793219,None,37.93930004793219,None,,,,,,,test,0,1,0,1,1,0,0,2020_Jan_07_1056,fmri_ebs,3.2.1,60.17735636338531,
1,0,0,0,0,0,1,1,1,0,0,0,0,0,0,0,0,,,,,,,,,,,,,,,,,,,,,,,,,,,,,,,,,,,,,,,,,,,,,,,,,,,,,,,,,,,,,,,,41.04103772807866,None,41.04103772807866,None,41.04103772807866,None,space,0.26132475514896214,41.04103772807866,None,,,,,,,,,,,,,,,,,,,,,40.55608171597123,None,space,0.41024832311086357,40.55608171597123,None,test,0,1,0,1,1,0,0,2020_Jan_07_1056,fmri_ebs,3.2.1,60.17735636338531,
1,0,0,0,0,0,1,1,1,0,0,0,0,,,,,,,,,,,,,0,0,0,0,,,,,,,,,,,,,,,,,,,,,,,,,,41.32369832810946,None,space,0.290883825160563,41.32369832810946,None,space,0.2702223227825016,41.739375876961276,None,41.739375876961276,None,,,,,,,,,,,,,,,,,,,,,,,,,,,,,,,,,,,,,,,,,,,,,,,,,,,test,0,1,0,1,1,0,0,2020_Jan_07_1056,fmri_ebs,3.2.1,60.17735636338531,
1,0,0,0,0,0,1,1,1,0,0,0,0,,,,,,,,,,,,,,,,,,,,,,,,,,,,,,,,,,,,,,,,,,,,,,,,,,,,,,42.05612591304816,None,42.05612591304816,None,space,0.33720288309268653,42.05612591304816,None,,,,,,,,,,,,,,,,,,,,,,,,,,,,,,,,,,,,,,,,,,,test,0,1,0,1,1,0,0,2020_Jan_07_1056,fmri_ebs,3.2.1,60.17735636338531,
1,0,0,0,0,0,1,1,1,,,,,,,,,,,,,,,,,,,,,,,,,,,,,,,,,,,,,,,,,,,,,,,,,,,,,,,,,,,,,,,,,,,,,,,,,,,,,,,,,,,,,,,,,,,,,,,,,,,,,,,,,,,,test,0,1,0,1,1,0,0,2020_Jan_07_1056,fmri_ebs,3.2.1,60.17735636338531,
2,0,0,0,0,0,2,2,2,0,0,0,0,,,,,,,,,,,,,0,0,0,0,,,,,,,,,,,,,,,,,,42.439516958082095,None,space,0.3009711531922221,42.439516958082095,None,42.439516958082095,None,42.75693990592845,None,space,0.319353885948658,42.75693990592845,None,space,0.2537471048999578,43.17265091603622,None,43.17265091603622,None,,,,,,,,,,,,,,,,,,,,,,,,,,,,,,,,,,,,,,,,,,,,,,,,,,,test,0,1,0,1,1,0,0,2020_Jan_07_1056,fmri_ebs,3.2.1,60.17735636338531,
2,0,0,0,0,0,2,2,2,0,0,0,0,,,,,,,,,,,,,,,,,,,,,,,,,,,,,,,,,,,,,,,,,,,,,,,,,,,,,,43.45660109794699,None,43.45660109794699,None,space,0.29553817794658244,43.45660109794699,None,,,,,,,,,,,,,,,,,,,,,,,,,,,,,,,,,,,,,,,,,,,test,0,1,0,1,1,0,0,2020_Jan_07_1056,fmri_ebs,3.2.1,60.17735636338531,
2,0,0,0,0,0,2,2,2,,,,,,,,,,,,,,,,,,,,,,,,,,,,,,,,,,,,,,,,,,,,,,,,,,,,,,,,,,,,,,,,,,,,,,,,,,,,,,,,,,,,,,,,,,,,,,,,,,,,,,,,,,,,test,0,1,0,1,1,0,0,2020_Jan_07_1056,fmri_ebs,3.2.1,60.17735636338531,
3,0,0,0,0,0,3,3,3,0,0,0,0,0,0,0,0,,,,,,,,,,,,,0,0,0,0,,,,,,,,,,,,,,43.78998205298558,None,space,0.2692793500609696,43.78998205298558,None,43.78998205298558,None,,,,,,,,,,,,,,,,,,,,,44.08977964613587,None,space,0.285363731905818,44.08977964613587,None,44.48976996797137,None,44.48976996797137,None,44.48976996797137,None,space,0.3505120200570673,44.48976996797137,None,44.856313762953505,None,space,0.32189746806398034,44.856313762953505,None,45.50759765598923,None,45.50759765598923,None,45.50759765598923,None,45.50759765598923,None,45.50759765598923,None,45.50759765598923,None,45.50759765598923,None,,,,,,,test,0,1,0,1,1,0,0,2020_Jan_07_1056,fmri_ebs,3.2.1,60.17735636338531,
3,0,0,0,0,0,3,3,3,0,0,0,0,0,0,0,0,,,,,,,,,,,,,,,,,,,,,,,,,,,,,,,,,,,,,,,,,,,,,,,,,,,,,,,,,,,,,,,,46.35644188593142,None,46.35644188593142,None,46.35644188593142,None,space,0.2545501198619604,46.35644188593142,None,,,,,,,,,,,,,,,,,,,,,46.10774351609871,None,space,0.19748720014467835,46.10774351609871,None,test,0,1,0,1,1,0,0,2020_Jan_07_1056,fmri_ebs,3.2.1,60.17735636338531,
3,0,0,0,0,0,3,3,3,0,0,0,0,,,,,,,,,,,,,0,0,0,0,,,,,,,,,,,,,,,,,,,,,,,,,,46.640848045935854,None,space,0.30010299012064934,46.640848045935854,None,space,0.20051058195531368,47.05648898310028,None,47.05648898310028,None,,,,,,,,,,,,,,,,,,,,,,,,,,,,,,,,,,,,,,,,,,,,,,,,,,,test,0,1,0,1,1,0,0,2020_Jan_07_1056,fmri_ebs,3.2.1,60.17735636338531,
3,0,0,0,0,0,3,3,3,0,0,0,0,,,,,,,,,,,,,,,,,,,,,,,,,,,,,,,,,,,,,,,,,,,,,,,,,,,,,,47.29018958611414,None,47.29018958611414,None,space,0.2957143448293209,47.29018958611414,None,,,,,,,,,,,,,,,,,,,,,,,,,,,,,,,,,,,,,,,,,,,test,0,1,0,1,1,0,0,2020_Jan_07_1056,fmri_ebs,3.2.1,60.17735636338531,
3,0,0,0,0,0,3,3,3,,,,,,,,,,,,,,,,,,,,,,,,,,,,,,,,,,,,,,,,,,,,,,,,,,,,,,,,,,,,,,,,,,,,,,,,,,,,,,,,,,,,,,,,,,,,,,,,,,,,,,,,,,,,test,0,1,0,1,1,0,0,2020_Jan_07_1056,fmri_ebs,3.2.1,60.17735636338531,
4,0,0,0,0,0,4,4,4,,,,,,,,,,,,,,,,,,,,,,,,,,,,,,,,,,,,,,,,,,,,,,,,,,,,,,,,,,,,,,,,,,,,,,,,,,,,,,,,,,,,,,,,,,,,,,,,,,,,,,,,,,,,test,0,1,0,1,1,0,0,2020_Jan_07_1056,fmri_ebs,3.2.1,60.17735636338531,
5,0,0,0,0,0,5,5,5,0,0,0,0,0,0,0,0,,,,,,,,,,,,,0,0,0,0,,,,,,,,,,,,,,47.623747227014974,None,space,0.2953060909640044,47.623747227014974,None,47.623747227014974,None,,,,,,,,,,,,,,,,,,,,,47.94083168799989,None,space,0.28319336008280516,47.94083168799989,None,48.306841406039894,None,48.306841406039894,None,48.306841406039894,None,space,0.2400573850609362,48.306841406039894,None,48.57334083109163,None,space,0.29966007685288787,48.57334083109163,None,49.15686881612055,None,49.15686881612055,None,49.15686881612055,None,49.15686881612055,None,49.15686881612055,None,49.15686881612055,None,49.15686881612055,None,,,,,,,test,0,1,0,1,1,0,0,2020_Jan_07_1056,fmri_ebs,3.2.1,60.17735636338531,
5,0,0,0,0,0,5,5,5,0,0,0,0,0,0,0,0,,,,,,,,,,,,,,,,,,,,,,,,,,,,,,,,,,,,,,,,,,,,,,,,,,,,,,,,,,,,,,,,50.05712903593667,None,50.05712903593667,None,50.05712903593667,None,space,0.24982736096717417,50.05712903593667,None,,,,,,,,,,,,,,,,,,,,,49.7901390879415,None,space,0.1998153270687908,49.7901390879415,None,test,0,1,0,1,1,0,0,2020_Jan_07_1056,fmri_ebs,3.2.1,60.17735636338531,
5,0,0,0,0,0,5,5,5,0,0,0,0,,,,,,,,,,,,,0,0,0,0,,,,,,,,,,,,,,,,,,,,,,,,,,50.323645462980494,None,space,0.29306597192771733,50.323645462980494,None,space,0.18496051686815917,50.723735568113625,None,50.723735568113625,None,,,,,,,,,,,,,,,,,,,,,,,,,,,,,,,,,,,,,,,,,,,,,,,,,,,test,0,1,0,1,1,0,0,2020_Jan_07_1056,fmri_ebs,3.2.1,60.17735636338531,
5,0,0,0,0,0,5,5,5,0,0,0,0,,,,,,,,,,,,,,,,,,,,,,,,,,,,,,,,,,,,,,,,,,,,,,,,,,,,,,50.94058312801644,None,50.94058312801644,None,space,0.31526286294683814,50.94058312801644,None,,,,,,,,,,,,,,,,,,,,,,,,,,,,,,,,,,,,,,,,,,,test,0,1,0,1,1,0,0,2020_Jan_07_1056,fmri_ebs,3.2.1,60.17735636338531,
5,0,0,0,0,0,5,5,5,,,,,,,,,,,,,,,,,,,,,,,,,,,,,,,,,,,,,,,,,,,,,,,,,,,,,,,,,,,,,,,,,,,,,,,,,,,,,,,,,,,,,,,,,,,,,,,,,,,,,,,,,,,,test,0,1,0,1,1,0,0,2020_Jan_07_1056,fmri_ebs,3.2.1,60.17735636338531,
6,0,0,0,0,0,6,6,6,,,,,,,,,,,,,,,,,,,,,,,,,,,,,,,,,,,,,,,,,,,,,,,,,,,,,,,,,,,,,,,,,,,,,,,,,,,,,,,,,,,,,,,,,,,,,,,,,,,,,,,,,,,,test,0,1,0,1,1,0,0,2020_Jan_07_1056,fmri_ebs,3.2.1,60.17735636338531,
7,0,0,0,0,0,7,7,7,0,0,0,0,0,0,0,0,,,,,,,,,,,,,0,0,0,0,,,,,,,,,,,,,,51.30715954513289,None,space,0.2666337490081787,51.30715954513289,None,51.30715954513289,None,,,,,,,,,,,,,,,,,,,,,51.60793040599674,None,space,0.29270448512397707,51.60793040599674,None,51.99085822305642,None,51.99085822305642,None,51.99085822305642,None,space,0.24075272004120052,51.99085822305642,None,52.257745815906674,None,space,0.3118506239261478,52.257745815906674,None,52.80800130101852,None,52.80800130101852,None,52.80800130101852,None,52.80800130101852,None,52.80800130101852,None,52.80800130101852,None,52.80800130101852,None,,,,,,,test,0,1,0,1,1,0,0,2020_Jan_07_1056,fmri_ebs,3.2.1,60.17735636338531,
7,0,0,0,0,0,7,7,7,0,0,0,0,0,0,0,0,,,,,,,,,,,,,,,,,,,,,,,,,,,,,,,,,,,,,,,,,,,,,,,,,,,,,,,,,,,,,,,,53.64175412291661,None,53.64175412291661,None,53.64175412291661,None,space,0.2619696347974241,53.64175412291661,None,,,,,,,,,,,,,,,,,,,,,53.35741064790636,None,space,0.24215189297683537,53.35741064790636,None,test,0,1,0,1,1,0,0,2020_Jan_07_1056,fmri_ebs,3.2.1,60.17735636338531,
7,0,0,0,0,0,7,7,7,0,0,0,0,,,,,,,,,,,,,0,0,0,0,,,,,,,,,,,,,,,,,,,,,,,,,,53.924723827978596,None,space,0.256900193169713,53.924723827978596,None,space,0.13394640013575554,54.307629788061604,None,54.307629788061604,None,,,,,,,,,,,,,,,,,,,,,,,,,,,,,,,,,,,,,,,,,,,,,,,,,,,test,0,1,0,1,1,0,0,2020_Jan_07_1056,fmri_ebs,3.2.1,60.17735636338531,
,,,,,,,,,,,,,,,,,,,,,,,,,,,,,,,,,,,,,,,,,,,,,,,,,,,,,,,,,,,,,,,,,,54.474703372921795,None,54.474703372921795,None,space,0.26493355305865407,54.474703372921795,None,,,,,,,,,,,,,,,,,,,,,,,,,,,,,,,,,,,,,,,,,,,,,,,,,,,,,,,
﻿count,trials_14.thisRepN,trials_14.thisTrialN,trials_14.thisN,trials_14.thisIndex,Block1.thisRepN,Block1.thisTrialN,Block1.thisN,Block1.thisIndex,trials_5.thisRepN,trials_5.thisTrialN,trials_5.thisN,trials_5.thisIndex,trials.thisRepN,trials.thisTrialN,trials.thisN,trials.thisIndex,trials_2.thisRepN,trials_2.thisTrialN,trials_2.thisN,trials_2.thisIndex,trials_22.thisRepN,trials_22.thisTrialN,trials_22.thisN,trials_22.thisIndex,trials_23.thisRepN,trials_23.thisTrialN,trials_23.thisN,trials_23.thisIndex,trials_7.thisRepN,trials_7.thisTrialN,trials_7.thisN,trials_7.thisIndex,trials_6.thisRepN,trials_6.thisTrialN,trials_6.thisN,trials_6.thisIndex,trials_9.thisRepN,trials_9.thisTrialN,trials_9.thisN,trials_9.thisIndex,trials_10.thisRepN,trials_10.thisTrialN,trials_10.thisN,trials_10.thisIndex,trials_12.thisRepN,trials_12.thisTrialN,trials_12.thisN,trials_12.thisIndex,trials_25.thisRepN,trials_25.thisTrialN,trials_25.thisN,trials_25.thisIndex,trials_26.thisRepN,trials_26.thisTrialN,trials_26.thisN,trials_26.thisIndex,story_list_block1,action_list_block1,story_list_block2,action_list_block2,text_53.started,text_53.stopped,textTrigger.started,textTrigger.stopped,getTrigger.keys,getTrigger.rt,getTrigger.started,getTrigger.stopped,triggerTime,text_38.started,text_38.stopped,key_resp_8.keys,key_resp_8.rt,key_resp_8.started,key_resp_8.stopped,text_39.started,text_39.stopped,text_50.started,text_50.stopped,key_resp_14.keys,key_resp_14.rt,key_resp_14.started,key_resp_14.stopped,key_resp_27.keys,key_resp_27.rt,key_resp_27.started,key_resp_27.stopped,image_21.started,image_21.stopped,text.started,text.stopped,text_52.started,text_52.stopped,key_resp_16.keys,key_resp_16.rt,key_resp_16.started,key_resp_16.stopped,text_33.started,text_33.stopped,key_resp_5.keys,key_resp_5.rt,key_resp_5.started,key_resp_5.stopped,text_4.started,text_4.stopped,image.started,image.stopped,text_5.started,text_5.stopped,key_resp_22.keys,key_resp_22.rt,key_resp_22.started,key_resp_22.stopped,text_37.started,text_37.stopped,key_resp_7.keys,key_resp_7.rt,key_resp_7.started,key_resp_7.stopped,question1_3.started,question1_3.stopped,question2_3.started,question2_3.stopped,question3_3.started,question3_3.stopped,question4_3.started,question4_3.stopped,question5_3.started,question5_3.stopped,question6_3.started,question6_3.stopped,image_16.started,image_16.stopped,text_49.started,text_49.stopped,key_resp_15.keys,key_resp_15.rt,key_resp_15.started,key_resp_15.stopped,text_54.started,text_54.stopped,text_55.started,text_55.stopped,text_56.started,text_56.stopped,key_resp.keys,key_resp.rt,key_resp.started,key_resp.stopped,text_64.started,text_64.stopped,key_resp_20.keys,key_resp_20.rt,key_resp_20.started,key_resp_20.stopped,key_resp_28.keys,key_resp_28.rt,key_resp_28.started,key_resp_28.stopped,image_22.started,image_22.stopped,text_67.started,text_67.stopped,text_68.started,text_68.stopped,key_resp_21.keys,key_resp_21.rt,key_resp_21.started,key_resp_21.stopped,participant,s1,s2,l1,l2,story_listening,play_stories,behavioral,date,expName,psychopyVersion,frameRate,
0,0,0,0,0,0,0,0,0,0,0,0,0,,,,,,,,,,,,,0,0,0,0,,,,,,,,,,,,,,,,,,,,,,,,,,,,,[33 13 44 42 22 24 11 31],[4 1 4 2 3 1 3 2],[34 41 21 23 32 12 43 14],[4 2 3 1 2 3 4 1],26.156511644134298,None,29.18899315292947,None,5,5.217872535111383,29.18899315292947,None,11.276782291941345,34.506103795953095,None,space,0.41280220192857087,34.506103795953095,None,34.506103795953095,None,34.940040978137404,None,space,0.18471638509072363,34.940040978137404,None,space,0.3597745599690825,35.43988590803929,None,35.43988590803929,None,,,,,,,,,,,,,,,,,,,,,,,,,,,,,,,,,,,,,,,,,,,,,,,,,,,,,,,,,,,,,,,,,,,,,,,,,,,,,,,,,test,0,1,0,1,1,0,0,2020_Jan_07_1056,fmri_ebs,3.2.1,60.17735636338531,
0,0,0,0,0,0,0,0,0,0,0,0,0,,,,,,,,,,,,,,,,,,,,,,,,,,,,,,,,,,,,,,,,,,,,,,,,,,,,,,,,,,,,,,,,,,,,,,,,,,,,,,35.84040364297107,None,35.84040364297107,None,space,0.3623872078023851,35.84040364297107,None,,,,,,,,,,,,,,,,,,,,,,,,,,,,,,,,,,,,,,,,,,,,,,,,,,,,,,,,,,,,,,,,,,,,,,,,,test,0,1,0,1,1,0,0,2020_Jan_07_1056,fmri_ebs,3.2.1,60.17735636338531,
0,0,0,0,0,0,0,0,0,,,,,,,,,,,,,,,,,,,,,,,,,,,,,,,,,,,,,,,,,,,,,,,,,,,,,,,,,,,,,,,,,,,,,,,,,,,,,,,,,,,,,,,,,,,,,,,,,,,,,,,,,,,,,,,,,,,,,,,,,,,,,,,,,,,,,,,,,,,,,,,,,,,,,,,,,,,,,,,,,,test,0,1,0,1,1,0,0,2020_Jan_07_1056,fmri_ebs,3.2.1,60.17735636338531,
1,0,0,0,0,0,1,1,1,0,0,0,0,0,0,0,0,,,,,,,,,,,,,0,0,0,0,,,,,,,,,,,,,,,,,,,,,,,,,,,,,,,,,,,,,,36.239677242934704,None,space,0.2999721288215369,36.239677242934704,None,36.239677242934704,None,,,,,,,,,,,,,,,,,,,,,36.57336189597845,None,space,0.2882414429914206,36.57336189597845,None,36.9733802229166,None,36.9733802229166,None,36.9733802229166,None,space,0.2082125130109489,36.9733802229166,None,37.20702331303619,None,space,0.29574968200176954,37.20702331303619,None,37.93930004793219,None,37.93930004793219,None,37.93930004793219,None,37.93930004793219,None,37.93930004793219,None,37.93930004793219,None,37.93930004793219,None,,,,,,,,,,,,,,,,,,,,,,,,,,,,,,,,,,,,,test,0,1,0,1,1,0,0,2020_Jan_07_1056,fmri_ebs,3.2.1,60.17735636338531,
1,0,0,0,0,0,1,1,1,0,0,0,0,0,0,0,0,,,,,,,,,,,,,,,,,,,,,,,,,,,,,,,,,,,,,,,,,,,,,,,,,,,,,,,,,,,,,,,,,,,,,,,,,,,,,,,,,,,,,,,,41.04103772807866,None,41.04103772807866,None,41.04103772807866,None,space,0.26132475514896214,41.04103772807866,None,,,,,,,,,,,,,,,,,,,,,40.55608171597123,None,space,0.41024832311086357,40.55608171597123,None,,,,,,,,,,,,,,,,,,,,,,,,,,,,,,,test,0,1,0,1,1,0,0,2020_Jan_07_1056,fmri_ebs,3.2.1,60.17735636338531,
1,0,0,0,0,0,1,1,1,0,0,0,0,,,,,,,,,,,,,0,0,0,0,,,,,,,,,,,,,,,,,,,,,,,,,,,,,,,,,,,,,,,,,,,,,,,,,,41.32369832810946,None,space,0.290883825160563,41.32369832810946,None,space,0.2702223227825016,41.739375876961276,None,41.739375876961276,None,,,,,,,,,,,,,,,,,,,,,,,,,,,,,,,,,,,,,,,,,,,,,,,,,,,,,,,,,,,,,,,,,,,,,,,,,,,,,,,,,test,0,1,0,1,1,0,0,2020_Jan_07_1056,fmri_ebs,3.2.1,60.17735636338531,
1,0,0,0,0,0,1,1,1,0,0,0,0,,,,,,,,,,,,,,,,,,,,,,,,,,,,,,,,,,,,,,,,,,,,,,,,,,,,,,,,,,,,,,,,,,,,,,,,,,,,,,42.05612591304816,None,42.05612591304816,None,space,0.33720288309268653,42.05612591304816,None,,,,,,,,,,,,,,,,,,,,,,,,,,,,,,,,,,,,,,,,,,,,,,,,,,,,,,,,,,,,,,,,,,,,,,,,,test,0,1,0,1,1,0,0,2020_Jan_07_1056,fmri_ebs,3.2.1,60.17735636338531,
1,0,0,0,0,0,1,1,1,,,,,,,,,,,,,,,,,,,,,,,,,,,,,,,,,,,,,,,,,,,,,,,,,,,,,,,,,,,,,,,,,,,,,,,,,,,,,,,,,,,,,,,,,,,,,,,,,,,,,,,,,,,,,,,,,,,,,,,,,,,,,,,,,,,,,,,,,,,,,,,,,,,,,,,,,,,,,,,,,,test,0,1,0,1,1,0,0,2020_Jan_07_1056,fmri_ebs,3.2.1,60.17735636338531,
2,0,0,0,0,0,2,2,2,0,0,0,0,,,,,,,,,,,,,0,0,0,0,,,,,,,,,,,,,,,,,,,,,,,,,,,,,,,,,,,,,,,,,,42.439516958082095,None,space,0.3009711531922221,42.439516958082095,None,42.439516958082095,None,42.75693990592845,None,space,0.319353885948658,42.75693990592845,None,space,0.2537471048999578,43.17265091603622,None,43.17265091603622,None,,,,,,,,,,,,,,,,,,,,,,,,,,,,,,,,,,,,,,,,,,,,,,,,,,,,,,,,,,,,,,,,,,,,,,,,,,,,,,,,,test,0,1,0,1,1,0,0,2020_Jan_07_1056,fmri_ebs,3.2.1,60.17735636338531,
2,0,0,0,0,0,2,2,2,0,0,0,0,,,,,,,,,,,,,,,,,,,,,,,,,,,,,,,,,,,,,,,,,,,,,,,,,,,,,,,,,,,,,,,,,,,,,,,,,,,,,,43.45660109794699,None,43.45660109794699,None,space,0.29553817794658244,43.45660109794699,None,,,,,,,,,,,,,,,,,,,,,,,,,,,,,,,,,,,,,,,,,,,,,,,,,,,,,,,,,,,,,,,,,,,,,,,,,test,0,1,0,1,1,0,0,2020_Jan_07_1056,fmri_ebs,3.2.1,60.17735636338531,
2,0,0,0,0,0,2,2,2,,,,,,,,,,,,,,,,,,,,,,,,,,,,,,,,,,,,,,,,,,,,,,,,,,,,,,,,,,,,,,,,,,,,,,,,,,,,,,,,,,,,,,,,,,,,,,,,,,,,,,,,,,,,,,,,,,,,,,,,,,,,,,,,,,,,,,,,,,,,,,,,,,,,,,,,,,,,,,,,,,test,0,1,0,1,1,0,0,2020_Jan_07_1056,fmri_ebs,3.2.1,60.17735636338531,
3,0,0,0,0,0,3,3,3,0,0,0,0,0,0,0,0,,,,,,,,,,,,,0,0,0,0,,,,,,,,,,,,,,,,,,,,,,,,,,,,,,,,,,,,,,43.78998205298558,None,space,0.2692793500609696,43.78998205298558,None,43.78998205298558,None,,,,,,,,,,,,,,,,,,,,,44.08977964613587,None,space,0.285363731905818,44.08977964613587,None,44.48976996797137,None,44.48976996797137,None,44.48976996797137,None,space,0.3505120200570673,44.48976996797137,None,44.856313762953505,None,space,0.32189746806398034,44.856313762953505,None,45.50759765598923,None,45.50759765598923,None,45.50759765598923,None,45.50759765598923,None,45.50759765598923,None,45.50759765598923,None,45.50759765598923,None,,,,,,,,,,,,,,,,,,,,,,,,,,,,,,,,,,,,,test,0,1,0,1,1,0,0,2020_Jan_07_1056,fmri_ebs,3.2.1,60.17735636338531,
3,0,0,0,0,0,3,3,3,0,0,0,0,0,0,0,0,,,,,,,,,,,,,,,,,,,,,,,,,,,,,,,,,,,,,,,,,,,,,,,,,,,,,,,,,,,,,,,,,,,,,,,,,,,,,,,,,,,,,,,,46.35644188593142,None,46.35644188593142,None,46.35644188593142,None,space,0.2545501198619604,46.35644188593142,None,,,,,,,,,,,,,,,,,,,,,46.10774351609871,None,space,0.19748720014467835,46.10774351609871,None,,,,,,,,,,,,,,,,,,,,,,,,,,,,,,,test,0,1,0,1,1,0,0,2020_Jan_07_1056,fmri_ebs,3.2.1,60.17735636338531,
3,0,0,0,0,0,3,3,3,0,0,0,0,,,,,,,,,,,,,0,0,0,0,,,,,,,,,,,,,,,,,,,,,,,,,,,,,,,,,,,,,,,,,,,,,,,,,,46.640848045935854,None,space,0.30010299012064934,46.640848045935854,None,space,0.20051058195531368,47.05648898310028,None,47.05648898310028,None,,,,,,,,,,,,,,,,,,,,,,,,,,,,,,,,,,,,,,,,,,,,,,,,,,,,,,,,,,,,,,,,,,,,,,,,,,,,,,,,,test,0,1,0,1,1,0,0,2020_Jan_07_1056,fmri_ebs,3.2.1,60.17735636338531,
3,0,0,0,0,0,3,3,3,0,0,0,0,,,,,,,,,,,,,,,,,,,,,,,,,,,,,,,,,,,,,,,,,,,,,,,,,,,,,,,,,,,,,,,,,,,,,,,,,,,,,,47.29018958611414,None,47.29018958611414,None,space,0.2957143448293209,47.29018958611414,None,,,,,,,,,,,,,,,,,,,,,,,,,,,,,,,,,,,,,,,,,,,,,,,,,,,,,,,,,,,,,,,,,,,,,,,,,test,0,1,0,1,1,0,0,2020_Jan_07_1056,fmri_ebs,3.2.1,60.17735636338531,
3,0,0,0,0,0,3,3,3,,,,,,,,,,,,,,,,,,,,,,,,,,,,,,,,,,,,,,,,,,,,,,,,,,,,,,,,,,,,,,,,,,,,,,,,,,,,,,,,,,,,,,,,,,,,,,,,,,,,,,,,,,,,,,,,,,,,,,,,,,,,,,,,,,,,,,,,,,,,,,,,,,,,,,,,,,,,,,,,,,test,0,1,0,1,1,0,0,2020_Jan_07_1056,fmri_ebs,3.2.1,60.17735636338531,
4,0,0,0,0,0,4,4,4,,,,,,,,,,,,,,,,,,,,,,,,,,,,,,,,,,,,,,,,,,,,,,,,,,,,,,,,,,,,,,,,,,,,,,,,,,,,,,,,,,,,,,,,,,,,,,,,,,,,,,,,,,,,,,,,,,,,,,,,,,,,,,,,,,,,,,,,,,,,,,,,,,,,,,,,,,,,,,,,,,test,0,1,0,1,1,0,0,2020_Jan_07_1056,fmri_ebs,3.2.1,60.17735636338531,
5,0,0,0,0,0,5,5,5,0,0,0,0,0,0,0,0,,,,,,,,,,,,,0,0,0,0,,,,,,,,,,,,,,,,,,,,,,,,,,,,,,,,,,,,,,47.623747227014974,None,space,0.2953060909640044,47.623747227014974,None,47.623747227014974,None,,,,,,,,,,,,,,,,,,,,,47.94083168799989,None,space,0.28319336008280516,47.94083168799989,None,48.306841406039894,None,48.306841406039894,None,48.306841406039894,None,space,0.2400573850609362,48.306841406039894,None,48.57334083109163,None,space,0.29966007685288787,48.57334083109163,None,49.15686881612055,None,49.15686881612055,None,49.15686881612055,None,49.15686881612055,None,49.15686881612055,None,49.15686881612055,None,49.15686881612055,None,,,,,,,,,,,,,,,,,,,,,,,,,,,,,,,,,,,,,test,0,1,0,1,1,0,0,2020_Jan_07_1056,fmri_ebs,3.2.1,60.17735636338531,
5,0,0,0,0,0,5,5,5,0,0,0,0,0,0,0,0,,,,,,,,,,,,,,,,,,,,,,,,,,,,,,,,,,,,,,,,,,,,,,,,,,,,,,,,,,,,,,,,,,,,,,,,,,,,,,,,,,,,,,,,50.05712903593667,None,50.05712903593667,None,50.05712903593667,None,space,0.24982736096717417,50.05712903593667,None,,,,,,,,,,,,,,,,,,,,,49.7901390879415,None,space,0.1998153270687908,49.7901390879415,None,,,,,,,,,,,,,,,,,,,,,,,,,,,,,,,test,0,1,0,1,1,0,0,2020_Jan_07_1056,fmri_ebs,3.2.1,60.17735636338531,
5,0,0,0,0,0,5,5,5,0,0,0,0,,,,,,,,,,,,,0,0,0,0,,,,,,,,,,,,,,,,,,,,,,,,,,,,,,,,,,,,,,,,,,,,,,,,,,50.323645462980494,None,space,0.29306597192771733,50.323645462980494,None,space,0.18496051686815917,50.723735568113625,None,50.723735568113625,None,,,,,,,,,,,,,,,,,,,,,,,,,,,,,,,,,,,,,,,,,,,,,,,,,,,,,,,,,,,,,,,,,,,,,,,,,,,,,,,,,test,0,1,0,1,1,0,0,2020_Jan_07_1056,fmri_ebs,3.2.1,60.17735636338531,
5,0,0,0,0,0,5,5,5,0,0,0,0,,,,,,,,,,,,,,,,,,,,,,,,,,,,,,,,,,,,,,,,,,,,,,,,,,,,,,,,,,,,,,,,,,,,,,,,,,,,,,50.94058312801644,None,50.94058312801644,None,space,0.31526286294683814,50.94058312801644,None,,,,,,,,,,,,,,,,,,,,,,,,,,,,,,,,,,,,,,,,,,,,,,,,,,,,,,,,,,,,,,,,,,,,,,,,,test,0,1,0,1,1,0,0,2020_Jan_07_1056,fmri_ebs,3.2.1,60.17735636338531,
5,0,0,0,0,0,5,5,5,,,,,,,,,,,,,,,,,,,,,,,,,,,,,,,,,,,,,,,,,,,,,,,,,,,,,,,,,,,,,,,,,,,,,,,,,,,,,,,,,,,,,,,,,,,,,,,,,,,,,,,,,,,,,,,,,,,,,,,,,,,,,,,,,,,,,,,,,,,,,,,,,,,,,,,,,,,,,,,,,,test,0,1,0,1,1,0,0,2020_Jan_07_1056,fmri_ebs,3.2.1,60.17735636338531,
6,0,0,0,0,0,6,6,6,,,,,,,,,,,,,,,,,,,,,,,,,,,,,,,,,,,,,,,,,,,,,,,,,,,,,,,,,,,,,,,,,,,,,,,,,,,,,,,,,,,,,,,,,,,,,,,,,,,,,,,,,,,,,,,,,,,,,,,,,,,,,,,,,,,,,,,,,,,,,,,,,,,,,,,,,,,,,,,,,,test,0,1,0,1,1,0,0,2020_Jan_07_1056,fmri_ebs,3.2.1,60.17735636338531,
7,0,0,0,0,0,7,7,7,0,0,0,0,0,0,0,0,,,,,,,,,,,,,0,0,0,0,,,,,,,,,,,,,,,,,,,,,,,,,,,,,,,,,,,,,,51.30715954513289,None,space,0.2666337490081787,51.30715954513289,None,51.30715954513289,None,,,,,,,,,,,,,,,,,,,,,51.60793040599674,None,space,0.29270448512397707,51.60793040599674,None,51.99085822305642,None,51.99085822305642,None,51.99085822305642,None,space,0.24075272004120052,51.99085822305642,None,52.257745815906674,None,space,0.3118506239261478,52.257745815906674,None,52.80800130101852,None,52.80800130101852,None,52.80800130101852,None,52.80800130101852,None,52.80800130101852,None,52.80800130101852,None,52.80800130101852,None,,,,,,,,,,,,,,,,,,,,,,,,,,,,,,,,,,,,,test,0,1,0,1,1,0,0,2020_Jan_07_1056,fmri_ebs,3.2.1,60.17735636338531,
7,0,0,0,0,0,7,7,7,0,0,0,0,0,0,0,0,,,,,,,,,,,,,,,,,,,,,,,,,,,,,,,,,,,,,,,,,,,,,,,,,,,,,,,,,,,,,,,,,,,,,,,,,,,,,,,,,,,,,,,,53.64175412291661,None,53.64175412291661,None,53.64175412291661,None,space,0.2619696347974241,53.64175412291661,None,,,,,,,,,,,,,,,,,,,,,53.35741064790636,None,space,0.24215189297683537,53.35741064790636,None,,,,,,,,,,,,,,,,,,,,,,,,,,,,,,,test,0,1,0,1,1,0,0,2020_Jan_07_1056,fmri_ebs,3.2.1,60.17735636338531,
7,0,0,0,0,0,7,7,7,0,0,0,0,,,,,,,,,,,,,0,0,0,0,,,,,,,,,,,,,,,,,,,,,,,,,,,,,,,,,,,,,,,,,,,,,,,,,,53.924723827978596,None,space,0.256900193169713,53.924723827978596,None,space,0.13394640013575554,54.307629788061604,None,54.307629788061604,None,,,,,,,,,,,,,,,,,,,,,,,,,,,,,,,,,,,,,,,,,,,,,,,,,,,,,,,,,,,,,,,,,,,,,,,,,,,,,,,,,test,0,1,0,1,1,0,0,2020_Jan_07_1056,fmri_ebs,3.2.1,60.17735636338531,
7,0,0,0,0,0,7,7,7,0,0,0,0,,,,,,,,,,,,,,,,,,,,,,,,,,,,,,,,,,,,,,,,,,,,,,,,,,,,,,,,,,,,,,,,,,,,,,,,,,,,,,54.474703372921795,None,54.474703372921795,None,space,0.26493355305865407,54.474703372921795,None,,,,,,,,,,,,,,,,,,,,,,,,,,,,,,,,,,,,,,,,,,,,,,,,,,,,,,,,,,,,,,,,,,,,,,,,,test,0,1,0,1,1,0,0,2020_Jan_07_1056,fmri_ebs,3.2.1,60.17735636338531,
7,0,0,0,0,0,7,7,7,,,,,,,,,,,,,,,,,,,,,,,,,,,,,,,,,,,,,,,,,,,,,,,,,,,,,,,,,,,,,,,,,,,,,,,,,,,,,,,,,,,,,,,,,,,,,,,,,,,,,,,,,,,,,,,,,,,,,,,,,,,,,,,,,,,,,,,,,,,,,,,,,,,,,,,,,,,,,,,,,,test,0,1,0,1,1,0,0,2020_Jan_07_1056,fmri_ebs,3.2.1,60.17735636338531,
0,0,0,0,0,,,,,,,,,,,,,,,,,,,,,,,,,,,,,0,0,0,0,0,0,0,0,,,,,,,,,,,,,0,0,0,0,,,,,,,55.77436584793031,None,5,1.372949424898252,55.77436584793031,None,34.01272923499346,,,,,,,,,,,,,,,,,,,,,,,,,,,,,,,,,,,,,,,,,,,,,,,,,,,,,,,,,,,,,,,,,,,,,,,54.77439834596589,None,57.20783214806579,None,57.20783214806579,None,space,0.29865216300822794,57.20783214806579,None,57.52482595597394,None,space,0.2076405598782003,57.52482595597394,None,space,0.08181194588541985,57.840444188099355,None,57.840444188099355,None,,,,,,,,,test,0,1,0,1,1,0,0,2020_Jan_07_1056,fmri_ebs,3.2.1,60.17735636338531,
,,,,,,,,,,,,,,,,,,,,,,,,,,,,,,,,,,,,,,,,,,,,,,,,,,,,,,,,,,,,,,,,,,,,,,,,,,,,,,,,,,,,,,,,,,,,,,,,,,,,,,,,,,,,,,,,,,,,,,,,,,,,,,,,,,,,,,,,,,,,,,,,,,,,,,,,,,,,,,,,,,57.94083026703447,None,57.94083026703447,None,space,0.24338295892812312,57.94083026703447,None,,,,,,,,,,,,,
﻿count,trials_14.thisRepN,trials_14.thisTrialN,trials_14.thisN,trials_14.thisIndex,Block1.thisRepN,Block1.thisTrialN,Block1.thisN,Block1.thisIndex,trials_5.thisRepN,trials_5.thisTrialN,trials_5.thisN,trials_5.thisIndex,trials.thisRepN,trials.thisTrialN,trials.thisN,trials.thisIndex,trials_2.thisRepN,trials_2.thisTrialN,trials_2.thisN,trials_2.thisIndex,trials_22.thisRepN,trials_22.thisTrialN,trials_22.thisN,trials_22.thisIndex,trials_23.thisRepN,trials_23.thisTrialN,trials_23.thisN,trials_23.thisIndex,trials_7.thisRepN,trials_7.thisTrialN,trials_7.thisN,trials_7.thisIndex,trials_6.thisRepN,trials_6.thisTrialN,trials_6.thisN,trials_6.thisIndex,trials_9.thisRepN,trials_9.thisTrialN,trials_9.thisN,trials_9.thisIndex,trials_10.thisRepN,trials_10.thisTrialN,trials_10.thisN,trials_10.thisIndex,trials_12.thisRepN,trials_12.thisTrialN,trials_12.thisN,trials_12.thisIndex,trials_25.thisRepN,trials_25.thisTrialN,trials_25.thisN,trials_25.thisIndex,trials_26.thisRepN,trials_26.thisTrialN,trials_26.thisN,trials_26.thisIndex,trials_11.thisRepN,trials_11.thisTrialN,trials_11.thisN,trials_11.thisIndex,story_list_block1,action_list_block1,story_list_block2,action_list_block2,text_53.started,text_53.stopped,textTrigger.started,textTrigger.stopped,getTrigger.keys,getTrigger.rt,getTrigger.started,getTrigger.stopped,triggerTime,text_38.started,text_38.stopped,key_resp_8.keys,key_resp_8.rt,key_resp_8.started,key_resp_8.stopped,text_39.started,text_39.stopped,text_50.started,text_50.stopped,key_resp_14.keys,key_resp_14.rt,key_resp_14.started,key_resp_14.stopped,key_resp_27.keys,key_resp_27.rt,key_resp_27.started,key_resp_27.stopped,image_21.started,image_21.stopped,text.started,text.stopped,text_52.started,text_52.stopped,key_resp_16.keys,key_resp_16.rt,key_resp_16.started,key_resp_16.stopped,text_33.started,text_33.stopped,key_resp_5.keys,key_resp_5.rt,key_resp_5.started,key_resp_5.stopped,text_4.started,text_4.stopped,image.started,image.stopped,text_5.started,text_5.stopped,key_resp_22.keys,key_resp_22.rt,key_resp_22.started,key_resp_22.stopped,text_37.started,text_37.stopped,key_resp_7.keys,key_resp_7.rt,key_resp_7.started,key_resp_7.stopped,question1_3.started,question1_3.stopped,question2_3.started,question2_3.stopped,question3_3.started,question3_3.stopped,question4_3.started,question4_3.stopped,question5_3.started,question5_3.stopped,question6_3.started,question6_3.stopped,image_16.started,image_16.stopped,text_49.started,text_49.stopped,key_resp_15.keys,key_resp_15.rt,key_resp_15.started,key_resp_15.stopped,text_54.started,text_54.stopped,text_55.started,text_55.stopped,text_56.started,text_56.stopped,key_resp.keys,key_resp.rt,key_resp.started,key_resp.stopped,text_64.started,text_64.stopped,key_resp_20.keys,key_resp_20.rt,key_resp_20.started,key_resp_20.stopped,key_resp_28.keys,key_resp_28.rt,key_resp_28.started,key_resp_28.stopped,image_22.started,image_22.stopped,text_67.started,text_67.stopped,text_68.started,text_68.stopped,key_resp_21.keys,key_resp_21.rt,key_resp_21.started,key_resp_21.stopped,text_57.started,text_57.stopped,key_resp_17.keys,key_resp_17.rt,key_resp_17.started,key_resp_17.stopped,text_60.started,text_60.stopped,image_2.started,image_2.stopped,text_58.started,text_58.stopped,key_resp_23.keys,key_resp_23.rt,key_resp_23.started,key_resp_23.stopped,text_62.started,text_62.stopped,key_resp_18.keys,key_resp_18.rt,key_resp_18.started,key_resp_18.stopped,question1_2.started,question1_2.stopped,question2_2.started,question2_2.stopped,question3_2.started,question3_2.stopped,question4_2.started,question4_2.stopped,question5_2.started,question5_2.stopped,question6_2.started,question6_2.stopped,image_15.started,image_15.stopped,text_59.started,text_59.stopped,key_resp_19.keys,key_resp_19.rt,key_resp_19.started,key_resp_19.stopped,text_61.started,text_61.stopped,image_17.started,image_17.stopped,text_63.started,text_63.stopped,key_resp_24.keys,key_resp_24.rt,key_resp_24.started,key_resp_24.stopped,participant,s1,s2,l1,l2,story_listening,play_stories,behavioral,date,expName,psychopyVersion,frameRate,
0,0,0,0,0,0,0,0,0,0,0,0,0,,,,,,,,,,,,,0,0,0,0,,,,,,,,,,,,,,,,,,,,,,,,,,,,,,,,,[33 13 44 42 22 24 11 31],[4 1 4 2 3 1 3 2],[34 41 21 23 32 12 43 14],[4 2 3 1 2 3 4 1],26.156511644134298,None,29.18899315292947,None,5,5.217872535111383,29.18899315292947,None,11.276782291941345,34.506103795953095,None,space,0.41280220192857087,34.506103795953095,None,34.506103795953095,None,34.940040978137404,None,space,0.18471638509072363,34.940040978137404,None,space,0.3597745599690825,35.43988590803929,None,35.43988590803929,None,,,,,,,,,,,,,,,,,,,,,,,,,,,,,,,,,,,,,,,,,,,,,,,,,,,,,,,,,,,,,,,,,,,,,,,,,,,,,,,,,,,,,,,,,,,,,,,,,,,,,,,,,,,,,,,,,,,,,,,,,,,,,,,,,,,,,test,0,1,0,1,1,0,0,2020_Jan_07_1056,fmri_ebs,3.2.1,60.17735636338531,
0,0,0,0,0,0,0,0,0,0,0,0,0,,,,,,,,,,,,,,,,,,,,,,,,,,,,,,,,,,,,,,,,,,,,,,,,,,,,,,,,,,,,,,,,,,,,,,,,,,,,,,,,,,35.84040364297107,None,35.84040364297107,None,space,0.3623872078023851,35.84040364297107,None,,,,,,,,,,,,,,,,,,,,,,,,,,,,,,,,,,,,,,,,,,,,,,,,,,,,,,,,,,,,,,,,,,,,,,,,,,,,,,,,,,,,,,,,,,,,,,,,,,,,,,,,,,,,,,,,,,,,,,,,,,,,,test,0,1,0,1,1,0,0,2020_Jan_07_1056,fmri_ebs,3.2.1,60.17735636338531,
0,0,0,0,0,0,0,0,0,,,,,,,,,,,,,,,,,,,,,,,,,,,,,,,,,,,,,,,,,,,,,,,,,,,,,,,,,,,,,,,,,,,,,,,,,,,,,,,,,,,,,,,,,,,,,,,,,,,,,,,,,,,,,,,,,,,,,,,,,,,,,,,,,,,,,,,,,,,,,,,,,,,,,,,,,,,,,,,,,,,,,,,,,,,,,,,,,,,,,,,,,,,,,,,,,,,,,,,,,,,,,,,,,,,,,,,,,,test,0,1,0,1,1,0,0,2020_Jan_07_1056,fmri_ebs,3.2.1,60.17735636338531,
1,0,0,0,0,0,1,1,1,0,0,0,0,0,0,0,0,,,,,,,,,,,,,0,0,0,0,,,,,,,,,,,,,,,,,,,,,,,,,,,,,,,,,,,,,,,,,,36.239677242934704,None,space,0.2999721288215369,36.239677242934704,None,36.239677242934704,None,,,,,,,,,,,,,,,,,,,,,36.57336189597845,None,space,0.2882414429914206,36.57336189597845,None,36.9733802229166,None,36.9733802229166,None,36.9733802229166,None,space,0.2082125130109489,36.9733802229166,None,37.20702331303619,None,space,0.29574968200176954,37.20702331303619,None,37.93930004793219,None,37.93930004793219,None,37.93930004793219,None,37.93930004793219,None,37.93930004793219,None,37.93930004793219,None,37.93930004793219,None,,,,,,,,,,,,,,,,,,,,,,,,,,,,,,,,,,,,,,,,,,,,,,,,,,,,,,,,,,,,,,,,,,,,,,,,,,,,,,,,,,,,,,,,,test,0,1,0,1,1,0,0,2020_Jan_07_1056,fmri_ebs,3.2.1,60.17735636338531,
1,0,0,0,0,0,1,1,1,0,0,0,0,0,0,0,0,,,,,,,,,,,,,,,,,,,,,,,,,,,,,,,,,,,,,,,,,,,,,,,,,,,,,,,,,,,,,,,,,,,,,,,,,,,,,,,,,,,,,,,,,,,,41.04103772807866,None,41.04103772807866,None,41.04103772807866,None,space,0.26132475514896214,41.04103772807866,None,,,,,,,,,,,,,,,,,,,,,40.55608171597123,None,space,0.41024832311086357,40.55608171597123,None,,,,,,,,,,,,,,,,,,,,,,,,,,,,,,,,,,,,,,,,,,,,,,,,,,,,,,,,,,,,,,,,,,,,,,,,,,,,,,,,,,,test,0,1,0,1,1,0,0,2020_Jan_07_1056,fmri_ebs,3.2.1,60.17735636338531,
1,0,0,0,0,0,1,1,1,0,0,0,0,,,,,,,,,,,,,0,0,0,0,,,,,,,,,,,,,,,,,,,,,,,,,,,,,,,,,,,,,,,,,,,,,,,,,,,,,,41.32369832810946,None,space,0.290883825160563,41.32369832810946,None,space,0.2702223227825016,41.739375876961276,None,41.739375876961276,None,,,,,,,,,,,,,,,,,,,,,,,,,,,,,,,,,,,,,,,,,,,,,,,,,,,,,,,,,,,,,,,,,,,,,,,,,,,,,,,,,,,,,,,,,,,,,,,,,,,,,,,,,,,,,,,,,,,,,,,,,,,,,,,,,,,,,test,0,1,0,1,1,0,0,2020_Jan_07_1056,fmri_ebs,3.2.1,60.17735636338531,
1,0,0,0,0,0,1,1,1,0,0,0,0,,,,,,,,,,,,,,,,,,,,,,,,,,,,,,,,,,,,,,,,,,,,,,,,,,,,,,,,,,,,,,,,,,,,,,,,,,,,,,,,,,42.05612591304816,None,42.05612591304816,None,space,0.33720288309268653,42.05612591304816,None,,,,,,,,,,,,,,,,,,,,,,,,,,,,,,,,,,,,,,,,,,,,,,,,,,,,,,,,,,,,,,,,,,,,,,,,,,,,,,,,,,,,,,,,,,,,,,,,,,,,,,,,,,,,,,,,,,,,,,,,,,,,,test,0,1,0,1,1,0,0,2020_Jan_07_1056,fmri_ebs,3.2.1,60.17735636338531,
1,0,0,0,0,0,1,1,1,,,,,,,,,,,,,,,,,,,,,,,,,,,,,,,,,,,,,,,,,,,,,,,,,,,,,,,,,,,,,,,,,,,,,,,,,,,,,,,,,,,,,,,,,,,,,,,,,,,,,,,,,,,,,,,,,,,,,,,,,,,,,,,,,,,,,,,,,,,,,,,,,,,,,,,,,,,,,,,,,,,,,,,,,,,,,,,,,,,,,,,,,,,,,,,,,,,,,,,,,,,,,,,,,,,,,,,,,,test,0,1,0,1,1,0,0,2020_Jan_07_1056,fmri_ebs,3.2.1,60.17735636338531,
2,0,0,0,0,0,2,2,2,0,0,0,0,,,,,,,,,,,,,0,0,0,0,,,,,,,,,,,,,,,,,,,,,,,,,,,,,,,,,,,,,,,,,,,,,,42.439516958082095,None,space,0.3009711531922221,42.439516958082095,None,42.439516958082095,None,42.75693990592845,None,space,0.319353885948658,42.75693990592845,None,space,0.2537471048999578,43.17265091603622,None,43.17265091603622,None,,,,,,,,,,,,,,,,,,,,,,,,,,,,,,,,,,,,,,,,,,,,,,,,,,,,,,,,,,,,,,,,,,,,,,,,,,,,,,,,,,,,,,,,,,,,,,,,,,,,,,,,,,,,,,,,,,,,,,,,,,,,,,,,,,,,,test,0,1,0,1,1,0,0,2020_Jan_07_1056,fmri_ebs,3.2.1,60.17735636338531,
2,0,0,0,0,0,2,2,2,0,0,0,0,,,,,,,,,,,,,,,,,,,,,,,,,,,,,,,,,,,,,,,,,,,,,,,,,,,,,,,,,,,,,,,,,,,,,,,,,,,,,,,,,,43.45660109794699,None,43.45660109794699,None,space,0.29553817794658244,43.45660109794699,None,,,,,,,,,,,,,,,,,,,,,,,,,,,,,,,,,,,,,,,,,,,,,,,,,,,,,,,,,,,,,,,,,,,,,,,,,,,,,,,,,,,,,,,,,,,,,,,,,,,,,,,,,,,,,,,,,,,,,,,,,,,,,test,0,1,0,1,1,0,0,2020_Jan_07_1056,fmri_ebs,3.2.1,60.17735636338531,
2,0,0,0,0,0,2,2,2,,,,,,,,,,,,,,,,,,,,,,,,,,,,,,,,,,,,,,,,,,,,,,,,,,,,,,,,,,,,,,,,,,,,,,,,,,,,,,,,,,,,,,,,,,,,,,,,,,,,,,,,,,,,,,,,,,,,,,,,,,,,,,,,,,,,,,,,,,,,,,,,,,,,,,,,,,,,,,,,,,,,,,,,,,,,,,,,,,,,,,,,,,,,,,,,,,,,,,,,,,,,,,,,,,,,,,,,,,test,0,1,0,1,1,0,0,2020_Jan_07_1056,fmri_ebs,3.2.1,60.17735636338531,
3,0,0,0,0,0,3,3,3,0,0,0,0,0,0,0,0,,,,,,,,,,,,,0,0,0,0,,,,,,,,,,,,,,,,,,,,,,,,,,,,,,,,,,,,,,,,,,43.78998205298558,None,space,0.2692793500609696,43.78998205298558,None,43.78998205298558,None,,,,,,,,,,,,,,,,,,,,,44.08977964613587,None,space,0.285363731905818,44.08977964613587,None,44.48976996797137,None,44.48976996797137,None,44.48976996797137,None,space,0.3505120200570673,44.48976996797137,None,44.856313762953505,None,space,0.32189746806398034,44.856313762953505,None,45.50759765598923,None,45.50759765598923,None,45.50759765598923,None,45.50759765598923,None,45.50759765598923,None,45.50759765598923,None,45.50759765598923,None,,,,,,,,,,,,,,,,,,,,,,,,,,,,,,,,,,,,,,,,,,,,,,,,,,,,,,,,,,,,,,,,,,,,,,,,,,,,,,,,,,,,,,,,,test,0,1,0,1,1,0,0,2020_Jan_07_1056,fmri_ebs,3.2.1,60.17735636338531,
3,0,0,0,0,0,3,3,3,0,0,0,0,0,0,0,0,,,,,,,,,,,,,,,,,,,,,,,,,,,,,,,,,,,,,,,,,,,,,,,,,,,,,,,,,,,,,,,,,,,,,,,,,,,,,,,,,,,,,,,,,,,,46.35644188593142,None,46.35644188593142,None,46.35644188593142,None,space,0.2545501198619604,46.35644188593142,None,,,,,,,,,,,,,,,,,,,,,46.10774351609871,None,space,0.19748720014467835,46.10774351609871,None,,,,,,,,,,,,,,,,,,,,,,,,,,,,,,,,,,,,,,,,,,,,,,,,,,,,,,,,,,,,,,,,,,,,,,,,,,,,,,,,,,,test,0,1,0,1,1,0,0,2020_Jan_07_1056,fmri_ebs,3.2.1,60.17735636338531,
3,0,0,0,0,0,3,3,3,0,0,0,0,,,,,,,,,,,,,0,0,0,0,,,,,,,,,,,,,,,,,,,,,,,,,,,,,,,,,,,,,,,,,,,,,,,,,,,,,,46.640848045935854,None,space,0.30010299012064934,46.640848045935854,None,space,0.20051058195531368,47.05648898310028,None,47.05648898310028,None,,,,,,,,,,,,,,,,,,,,,,,,,,,,,,,,,,,,,,,,,,,,,,,,,,,,,,,,,,,,,,,,,,,,,,,,,,,,,,,,,,,,,,,,,,,,,,,,,,,,,,,,,,,,,,,,,,,,,,,,,,,,,,,,,,,,,test,0,1,0,1,1,0,0,2020_Jan_07_1056,fmri_ebs,3.2.1,60.17735636338531,
3,0,0,0,0,0,3,3,3,0,0,0,0,,,,,,,,,,,,,,,,,,,,,,,,,,,,,,,,,,,,,,,,,,,,,,,,,,,,,,,,,,,,,,,,,,,,,,,,,,,,,,,,,,47.29018958611414,None,47.29018958611414,None,space,0.2957143448293209,47.29018958611414,None,,,,,,,,,,,,,,,,,,,,,,,,,,,,,,,,,,,,,,,,,,,,,,,,,,,,,,,,,,,,,,,,,,,,,,,,,,,,,,,,,,,,,,,,,,,,,,,,,,,,,,,,,,,,,,,,,,,,,,,,,,,,,test,0,1,0,1,1,0,0,2020_Jan_07_1056,fmri_ebs,3.2.1,60.17735636338531,
3,0,0,0,0,0,3,3,3,,,,,,,,,,,,,,,,,,,,,,,,,,,,,,,,,,,,,,,,,,,,,,,,,,,,,,,,,,,,,,,,,,,,,,,,,,,,,,,,,,,,,,,,,,,,,,,,,,,,,,,,,,,,,,,,,,,,,,,,,,,,,,,,,,,,,,,,,,,,,,,,,,,,,,,,,,,,,,,,,,,,,,,,,,,,,,,,,,,,,,,,,,,,,,,,,,,,,,,,,,,,,,,,,,,,,,,,,,test,0,1,0,1,1,0,0,2020_Jan_07_1056,fmri_ebs,3.2.1,60.17735636338531,
4,0,0,0,0,0,4,4,4,,,,,,,,,,,,,,,,,,,,,,,,,,,,,,,,,,,,,,,,,,,,,,,,,,,,,,,,,,,,,,,,,,,,,,,,,,,,,,,,,,,,,,,,,,,,,,,,,,,,,,,,,,,,,,,,,,,,,,,,,,,,,,,,,,,,,,,,,,,,,,,,,,,,,,,,,,,,,,,,,,,,,,,,,,,,,,,,,,,,,,,,,,,,,,,,,,,,,,,,,,,,,,,,,,,,,,,,,,test,0,1,0,1,1,0,0,2020_Jan_07_1056,fmri_ebs,3.2.1,60.17735636338531,
5,0,0,0,0,0,5,5,5,0,0,0,0,0,0,0,0,,,,,,,,,,,,,0,0,0,0,,,,,,,,,,,,,,,,,,,,,,,,,,,,,,,,,,,,,,,,,,47.623747227014974,None,space,0.2953060909640044,47.623747227014974,None,47.623747227014974,None,,,,,,,,,,,,,,,,,,,,,47.94083168799989,None,space,0.28319336008280516,47.94083168799989,None,48.306841406039894,None,48.306841406039894,None,48.306841406039894,None,space,0.2400573850609362,48.306841406039894,None,48.57334083109163,None,space,0.29966007685288787,48.57334083109163,None,49.15686881612055,None,49.15686881612055,None,49.15686881612055,None,49.15686881612055,None,49.15686881612055,None,49.15686881612055,None,49.15686881612055,None,,,,,,,,,,,,,,,,,,,,,,,,,,,,,,,,,,,,,,,,,,,,,,,,,,,,,,,,,,,,,,,,,,,,,,,,,,,,,,,,,,,,,,,,,test,0,1,0,1,1,0,0,2020_Jan_07_1056,fmri_ebs,3.2.1,60.17735636338531,
5,0,0,0,0,0,5,5,5,0,0,0,0,0,0,0,0,,,,,,,,,,,,,,,,,,,,,,,,,,,,,,,,,,,,,,,,,,,,,,,,,,,,,,,,,,,,,,,,,,,,,,,,,,,,,,,,,,,,,,,,,,,,50.05712903593667,None,50.05712903593667,None,50.05712903593667,None,space,0.24982736096717417,50.05712903593667,None,,,,,,,,,,,,,,,,,,,,,49.7901390879415,None,space,0.1998153270687908,49.7901390879415,None,,,,,,,,,,,,,,,,,,,,,,,,,,,,,,,,,,,,,,,,,,,,,,,,,,,,,,,,,,,,,,,,,,,,,,,,,,,,,,,,,,,test,0,1,0,1,1,0,0,2020_Jan_07_1056,fmri_ebs,3.2.1,60.17735636338531,
5,0,0,0,0,0,5,5,5,0,0,0,0,,,,,,,,,,,,,0,0,0,0,,,,,,,,,,,,,,,,,,,,,,,,,,,,,,,,,,,,,,,,,,,,,,,,,,,,,,50.323645462980494,None,space,0.29306597192771733,50.323645462980494,None,space,0.18496051686815917,50.723735568113625,None,50.723735568113625,None,,,,,,,,,,,,,,,,,,,,,,,,,,,,,,,,,,,,,,,,,,,,,,,,,,,,,,,,,,,,,,,,,,,,,,,,,,,,,,,,,,,,,,,,,,,,,,,,,,,,,,,,,,,,,,,,,,,,,,,,,,,,,,,,,,,,,test,0,1,0,1,1,0,0,2020_Jan_07_1056,fmri_ebs,3.2.1,60.17735636338531,
5,0,0,0,0,0,5,5,5,0,0,0,0,,,,,,,,,,,,,,,,,,,,,,,,,,,,,,,,,,,,,,,,,,,,,,,,,,,,,,,,,,,,,,,,,,,,,,,,,,,,,,,,,,50.94058312801644,None,50.94058312801644,None,space,0.31526286294683814,50.94058312801644,None,,,,,,,,,,,,,,,,,,,,,,,,,,,,,,,,,,,,,,,,,,,,,,,,,,,,,,,,,,,,,,,,,,,,,,,,,,,,,,,,,,,,,,,,,,,,,,,,,,,,,,,,,,,,,,,,,,,,,,,,,,,,,test,0,1,0,1,1,0,0,2020_Jan_07_1056,fmri_ebs,3.2.1,60.17735636338531,
5,0,0,0,0,0,5,5,5,,,,,,,,,,,,,,,,,,,,,,,,,,,,,,,,,,,,,,,,,,,,,,,,,,,,,,,,,,,,,,,,,,,,,,,,,,,,,,,,,,,,,,,,,,,,,,,,,,,,,,,,,,,,,,,,,,,,,,,,,,,,,,,,,,,,,,,,,,,,,,,,,,,,,,,,,,,,,,,,,,,,,,,,,,,,,,,,,,,,,,,,,,,,,,,,,,,,,,,,,,,,,,,,,,,,,,,,,,test,0,1,0,1,1,0,0,2020_Jan_07_1056,fmri_ebs,3.2.1,60.17735636338531,
6,0,0,0,0,0,6,6,6,,,,,,,,,,,,,,,,,,,,,,,,,,,,,,,,,,,,,,,,,,,,,,,,,,,,,,,,,,,,,,,,,,,,,,,,,,,,,,,,,,,,,,,,,,,,,,,,,,,,,,,,,,,,,,,,,,,,,,,,,,,,,,,,,,,,,,,,,,,,,,,,,,,,,,,,,,,,,,,,,,,,,,,,,,,,,,,,,,,,,,,,,,,,,,,,,,,,,,,,,,,,,,,,,,,,,,,,,,test,0,1,0,1,1,0,0,2020_Jan_07_1056,fmri_ebs,3.2.1,60.17735636338531,
7,0,0,0,0,0,7,7,7,0,0,0,0,0,0,0,0,,,,,,,,,,,,,0,0,0,0,,,,,,,,,,,,,,,,,,,,,,,,,,,,,,,,,,,,,,,,,,51.30715954513289,None,space,0.2666337490081787,51.30715954513289,None,51.30715954513289,None,,,,,,,,,,,,,,,,,,,,,51.60793040599674,None,space,0.29270448512397707,51.60793040599674,None,51.99085822305642,None,51.99085822305642,None,51.99085822305642,None,space,0.24075272004120052,51.99085822305642,None,52.257745815906674,None,space,0.3118506239261478,52.257745815906674,None,52.80800130101852,None,52.80800130101852,None,52.80800130101852,None,52.80800130101852,None,52.80800130101852,None,52.80800130101852,None,52.80800130101852,None,,,,,,,,,,,,,,,,,,,,,,,,,,,,,,,,,,,,,,,,,,,,,,,,,,,,,,,,,,,,,,,,,,,,,,,,,,,,,,,,,,,,,,,,,test,0,1,0,1,1,0,0,2020_Jan_07_1056,fmri_ebs,3.2.1,60.17735636338531,
7,0,0,0,0,0,7,7,7,0,0,0,0,0,0,0,0,,,,,,,,,,,,,,,,,,,,,,,,,,,,,,,,,,,,,,,,,,,,,,,,,,,,,,,,,,,,,,,,,,,,,,,,,,,,,,,,,,,,,,,,,,,,53.64175412291661,None,53.64175412291661,None,53.64175412291661,None,space,0.2619696347974241,53.64175412291661,None,,,,,,,,,,,,,,,,,,,,,53.35741064790636,None,space,0.24215189297683537,53.35741064790636,None,,,,,,,,,,,,,,,,,,,,,,,,,,,,,,,,,,,,,,,,,,,,,,,,,,,,,,,,,,,,,,,,,,,,,,,,,,,,,,,,,,,test,0,1,0,1,1,0,0,2020_Jan_07_1056,fmri_ebs,3.2.1,60.17735636338531,
7,0,0,0,0,0,7,7,7,0,0,0,0,,,,,,,,,,,,,0,0,0,0,,,,,,,,,,,,,,,,,,,,,,,,,,,,,,,,,,,,,,,,,,,,,,,,,,,,,,53.924723827978596,None,space,0.256900193169713,53.924723827978596,None,space,0.13394640013575554,54.307629788061604,None,54.307629788061604,None,,,,,,,,,,,,,,,,,,,,,,,,,,,,,,,,,,,,,,,,,,,,,,,,,,,,,,,,,,,,,,,,,,,,,,,,,,,,,,,,,,,,,,,,,,,,,,,,,,,,,,,,,,,,,,,,,,,,,,,,,,,,,,,,,,,,,test,0,1,0,1,1,0,0,2020_Jan_07_1056,fmri_ebs,3.2.1,60.17735636338531,
7,0,0,0,0,0,7,7,7,0,0,0,0,,,,,,,,,,,,,,,,,,,,,,,,,,,,,,,,,,,,,,,,,,,,,,,,,,,,,,,,,,,,,,,,,,,,,,,,,,,,,,,,,,54.474703372921795,None,54.474703372921795,None,space,0.26493355305865407,54.474703372921795,None,,,,,,,,,,,,,,,,,,,,,,,,,,,,,,,,,,,,,,,,,,,,,,,,,,,,,,,,,,,,,,,,,,,,,,,,,,,,,,,,,,,,,,,,,,,,,,,,,,,,,,,,,,,,,,,,,,,,,,,,,,,,,test,0,1,0,1,1,0,0,2020_Jan_07_1056,fmri_ebs,3.2.1,60.17735636338531,
7,0,0,0,0,0,7,7,7,,,,,,,,,,,,,,,,,,,,,,,,,,,,,,,,,,,,,,,,,,,,,,,,,,,,,,,,,,,,,,,,,,,,,,,,,,,,,,,,,,,,,,,,,,,,,,,,,,,,,,,,,,,,,,,,,,,,,,,,,,,,,,,,,,,,,,,,,,,,,,,,,,,,,,,,,,,,,,,,,,,,,,,,,,,,,,,,,,,,,,,,,,,,,,,,,,,,,,,,,,,,,,,,,,,,,,,,,,test,0,1,0,1,1,0,0,2020_Jan_07_1056,fmri_ebs,3.2.1,60.17735636338531,
0,0,0,0,0,,,,,,,,,,,,,,,,,,,,,,,,,,,,,0,0,0,0,0,0,0,0,,,,,,,,,,,,,0,0,0,0,,,,,,,,,,,55.77436584793031,None,5,1.372949424898252,55.77436584793031,None,34.01272923499346,,,,,,,,,,,,,,,,,,,,,,,,,,,,,,,,,,,,,,,,,,,,,,,,,,,,,,,,,,,,,,,,,,,,,,,54.77439834596589,None,57.20783214806579,None,57.20783214806579,None,space,0.29865216300822794,57.20783214806579,None,57.52482595597394,None,space,0.2076405598782003,57.52482595597394,None,space,0.08181194588541985,57.840444188099355,None,57.840444188099355,None,,,,,,,,,,,,,,,,,,,,,,,,,,,,,,,,,,,,,,,,,,,,,,,,,,,,,,,,,,,,,test,0,1,0,1,1,0,0,2020_Jan_07_1056,fmri_ebs,3.2.1,60.17735636338531,
0,0,0,0,0,,,,,,,,,,,,,,,,,,,,,,,,,,,,,0,0,0,0,0,0,0,0,,,,,,,,,,,,,,,,,,,,,,,,,,,,,,,,,,,,,,,,,,,,,,,,,,,,,,,,,,,,,,,,,,,,,,,,,,,,,,,,,,,,,,,,,,,,,,,,,,,,,,,,,,,,,,,,,,,,,,,,,,,,,,57.94083026703447,None,57.94083026703447,None,space,0.24338295892812312,57.94083026703447,None,,,,,,,,,,,,,,,,,,,,,,,,,,,,,,,,,,,,,,,,,,,,,,,,,,,,,test,0,1,0,1,1,0,0,2020_Jan_07_1056,fmri_ebs,3.2.1,60.17735636338531,
0,0,0,0,0,,,,,,,,,,,,,,,,,,,,,,,,,,,,,0,0,0,0,,,,,,,,,,,,,,,,,,,,,,,,,,,,,,,,,,,,,,,,,,,,,,,,,,,,,,,,,,,,,,,,,,,,,,,,,,,,,,,,,,,,,,,,,,,,,,,,,,,,,,,,,,,,,,,,,,,,,,,,,,,,,,,,,,,,,,,,,,,,,,,,,,,,,,,,,,,,,,,,,,,,,,,,,,,,,,,,,,,,,,,,,,,,,,test,0,1,0,1,1,0,0,2020_Jan_07_1056,fmri_ebs,3.2.1,60.17735636338531,
1,0,0,0,0,,,,,,,,,,,,,,,,,,,,,,,,,,,,,0,1,1,1,0,0,0,0,0,0,0,0,,,,,,,,,,,,,0,0,0,0,,,,,,,,,,,,,,,,,,,,,,,,,,,,,,,,,,,,,,,,,,,,,,,,,,,,,,,,,,,,,,,,,,,,,,,,,,,,,,,,,,,,,,58.257145821116865,None,58.257145821116865,None,space,0.3152909481432289,58.257145821116865,None,,,,,,,,,,,,,,,,,,,,,58.591038566082716,None,space,0.2823953628540039,58.591038566082716,None,58.94116599811241,None,58.94116599811241,None,58.94116599811241,None,space,0.2222193020861596,58.94116599811241,None,59.19161432306282,None,space,0.3005929801147431,59.19161432306282,None,59.75789279304445,None,59.75789279304445,None,59.75789279304445,None,59.75789279304445,None,59.75789279304445,None,59.75789279304445,None,59.75789279304445,None,,,,,,,,,,,,,,,,,test,0,1,0,1,1,0,0,2020_Jan_07_1056,fmri_ebs,3.2.1,60.17735636338531,
1,0,0,0,0,,,,,,,,,,,,,,,,,,,,,,,,,,,,,0,1,1,1,0,0,0,0,0,0,0,0,,,,,,,,,,,,,,,,,,,,,,,,,,,,,,,,,,,,,,,,,,,,,,,,,,,,,,,,,,,,,,,,,,,,,,,,,,,,,,,,,,,,,,,,,,,,,,,,,,,,,,,,,,,,,,,,,,,,,,,,,,,,,,,,,,,,,,,,,,,,,,,,,,,,,,,,,,,,,,,,,,,,,,60.75720106810331,None,space,0.20581435109488666,60.75720106810331,None,61.04232402611524,None,61.04232402611524,None,61.04232402611524,None,space,0.17894635000266135,61.04232402611524,None,test,0,1,0,1,1,0,0,2020_Jan_07_1056,fmri_ebs,3.2.1,60.17735636338531,
1,0,0,0,0,,,,,,,,,,,,,,,,,,,,,,,,,,,,,0,1,1,1,0,0,0,0,,,,,,,,,,,,,0,0,0,0,,,,,,,,,,,,,,,,,,,,,,,,,,,,,,,,,,,,,,,,,,,,,,,,,,,,,,,,,,,,,,,,,,,,,,,,,,,,,,,,,,,,,,,,,,,,,,,,,,61.24190618796274,None,space,0.20325344987213612,61.24190618796274,None,space,0.11930409190244973,61.55787572590634,None,61.55787572590634,None,,,,,,,,,,,,,,,,,,,,,,,,,,,,,,,,,,,,,,,,,,,,,,,,,,,,,,,,,,,,,test,0,1,0,1,1,0,0,2020_Jan_07_1056,fmri_ebs,3.2.1,60.17735636338531,
,,,,,,,,,,,,,,,,,,,,,,,,,,,,,,,,,,,,,,,,,,,,,,,,,,,,,,,,,,,,,,,,,,,,,,,,,,,,,,,,,,,,,,,,,,,,,,,,,,,,,,,,,,,,,,,,,,,,,,,,,,,,,,,,,,,,,,,,,,,,,,,,,,,,,,,,,,,,,,,,,,,,,,61.70996651612222,None,61.70996651612222,None,space,0.21319987019523978,61.70996651612222,None,,,,,,,,,,,,,,,,,,,,,,,,,,,,,,,,,,,,,,,,,,,,,,,,,,,,,,,,,,,,,,,,,
﻿count,trials_14.thisRepN,trials_14.thisTrialN,trials_14.thisN,trials_14.thisIndex,Block1.thisRepN,Block1.thisTrialN,Block1.thisN,Block1.thisIndex,trials_5.thisRepN,trials_5.thisTrialN,trials_5.thisN,trials_5.thisIndex,trials.thisRepN,trials.thisTrialN,trials.thisN,trials.thisIndex,trials_2.thisRepN,trials_2.thisTrialN,trials_2.thisN,trials_2.thisIndex,trials_22.thisRepN,trials_22.thisTrialN,trials_22.thisN,trials_22.thisIndex,trials_23.thisRepN,trials_23.thisTrialN,trials_23.thisN,trials_23.thisIndex,trials_7.thisRepN,trials_7.thisTrialN,trials_7.thisN,trials_7.thisIndex,trials_6.thisRepN,trials_6.thisTrialN,trials_6.thisN,trials_6.thisIndex,trials_9.thisRepN,trials_9.thisTrialN,trials_9.thisN,trials_9.thisIndex,trials_10.thisRepN,trials_10.thisTrialN,trials_10.thisN,trials_10.thisIndex,trials_12.thisRepN,trials_12.thisTrialN,trials_12.thisN,trials_12.thisIndex,trials_25.thisRepN,trials_25.thisTrialN,trials_25.thisN,trials_25.thisIndex,trials_26.thisRepN,trials_26.thisTrialN,trials_26.thisN,trials_26.thisIndex,trials_11.thisRepN,trials_11.thisTrialN,trials_11.thisN,trials_11.thisIndex,story_list_block1,action_list_block1,story_list_block2,action_list_block2,text_53.started,text_53.stopped,textTrigger.started,textTrigger.stopped,getTrigger.keys,getTrigger.rt,getTrigger.started,getTrigger.stopped,triggerTime,text_38.started,text_38.stopped,key_resp_8.keys,key_resp_8.rt,key_resp_8.started,key_resp_8.stopped,text_39.started,text_39.stopped,text_50.started,text_50.stopped,key_resp_14.keys,key_resp_14.rt,key_resp_14.started,key_resp_14.stopped,key_resp_27.keys,key_resp_27.rt,key_resp_27.started,key_resp_27.stopped,image_21.started,image_21.stopped,text.started,text.stopped,text_52.started,text_52.stopped,key_resp_16.keys,key_resp_16.rt,key_resp_16.started,key_resp_16.stopped,text_33.started,text_33.stopped,key_resp_5.keys,key_resp_5.rt,key_resp_5.started,key_resp_5.stopped,text_4.started,text_4.stopped,image.started,image.stopped,text_5.started,text_5.stopped,key_resp_22.keys,key_resp_22.rt,key_resp_22.started,key_resp_22.stopped,text_37.started,text_37.stopped,key_resp_7.keys,key_resp_7.rt,key_resp_7.started,key_resp_7.stopped,question1_3.started,question1_3.stopped,question2_3.started,question2_3.stopped,question3_3.started,question3_3.stopped,question4_3.started,question4_3.stopped,question5_3.started,question5_3.stopped,question6_3.started,question6_3.stopped,image_16.started,image_16.stopped,text_49.started,text_49.stopped,key_resp_15.keys,key_resp_15.rt,key_resp_15.started,key_resp_15.stopped,text_54.started,text_54.stopped,text_55.started,text_55.stopped,text_56.started,text_56.stopped,key_resp.keys,key_resp.rt,key_resp.started,key_resp.stopped,text_64.started,text_64.stopped,key_resp_20.keys,key_resp_20.rt,key_resp_20.started,key_resp_20.stopped,key_resp_28.keys,key_resp_28.rt,key_resp_28.started,key_resp_28.stopped,image_22.started,image_22.stopped,text_67.started,text_67.stopped,text_68.started,text_68.stopped,key_resp_21.keys,key_resp_21.rt,key_resp_21.started,key_resp_21.stopped,text_57.started,text_57.stopped,key_resp_17.keys,key_resp_17.rt,key_resp_17.started,key_resp_17.stopped,text_60.started,text_60.stopped,image_2.started,image_2.stopped,text_58.started,text_58.stopped,key_resp_23.keys,key_resp_23.rt,key_resp_23.started,key_resp_23.stopped,text_62.started,text_62.stopped,key_resp_18.keys,key_resp_18.rt,key_resp_18.started,key_resp_18.stopped,question1_2.started,question1_2.stopped,question2_2.started,question2_2.stopped,question3_2.started,question3_2.stopped,question4_2.started,question4_2.stopped,question5_2.started,question5_2.stopped,question6_2.started,question6_2.stopped,image_15.started,image_15.stopped,text_59.started,text_59.stopped,key_resp_19.keys,key_resp_19.rt,key_resp_19.started,key_resp_19.stopped,text_61.started,text_61.stopped,image_17.started,image_17.stopped,text_63.started,text_63.stopped,key_resp_24.keys,key_resp_24.rt,key_resp_24.started,key_resp_24.stopped,participant,s1,s2,l1,l2,story_listening,play_stories,behavioral,date,expName,psychopyVersion,frameRate,
0,0,0,0,0,0,0,0,0,0,0,0,0,,,,,,,,,,,,,0,0,0,0,,,,,,,,,,,,,,,,,,,,,,,,,,,,,,,,,[33 13 44 42 22 24 11 31],[4 1 4 2 3 1 3 2],[34 41 21 23 32 12 43 14],[4 2 3 1 2 3 4 1],26.156511644134298,None,29.18899315292947,None,5,5.217872535111383,29.18899315292947,None,11.276782291941345,34.506103795953095,None,space,0.41280220192857087,34.506103795953095,None,34.506103795953095,None,34.940040978137404,None,space,0.18471638509072363,34.940040978137404,None,space,0.3597745599690825,35.43988590803929,None,35.43988590803929,None,,,,,,,,,,,,,,,,,,,,,,,,,,,,,,,,,,,,,,,,,,,,,,,,,,,,,,,,,,,,,,,,,,,,,,,,,,,,,,,,,,,,,,,,,,,,,,,,,,,,,,,,,,,,,,,,,,,,,,,,,,,,,,,,,,,,,test,0,1,0,1,1,0,0,2020_Jan_07_1056,fmri_ebs,3.2.1,60.17735636338531,
0,0,0,0,0,0,0,0,0,0,0,0,0,,,,,,,,,,,,,,,,,,,,,,,,,,,,,,,,,,,,,,,,,,,,,,,,,,,,,,,,,,,,,,,,,,,,,,,,,,,,,,,,,,35.84040364297107,None,35.84040364297107,None,space,0.3623872078023851,35.84040364297107,None,,,,,,,,,,,,,,,,,,,,,,,,,,,,,,,,,,,,,,,,,,,,,,,,,,,,,,,,,,,,,,,,,,,,,,,,,,,,,,,,,,,,,,,,,,,,,,,,,,,,,,,,,,,,,,,,,,,,,,,,,,,,,test,0,1,0,1,1,0,0,2020_Jan_07_1056,fmri_ebs,3.2.1,60.17735636338531,
0,0,0,0,0,0,0,0,0,,,,,,,,,,,,,,,,,,,,,,,,,,,,,,,,,,,,,,,,,,,,,,,,,,,,,,,,,,,,,,,,,,,,,,,,,,,,,,,,,,,,,,,,,,,,,,,,,,,,,,,,,,,,,,,,,,,,,,,,,,,,,,,,,,,,,,,,,,,,,,,,,,,,,,,,,,,,,,,,,,,,,,,,,,,,,,,,,,,,,,,,,,,,,,,,,,,,,,,,,,,,,,,,,,,,,,,,,,test,0,1,0,1,1,0,0,2020_Jan_07_1056,fmri_ebs,3.2.1,60.17735636338531,
1,0,0,0,0,0,1,1,1,0,0,0,0,0,0,0,0,,,,,,,,,,,,,0,0,0,0,,,,,,,,,,,,,,,,,,,,,,,,,,,,,,,,,,,,,,,,,,36.239677242934704,None,space,0.2999721288215369,36.239677242934704,None,36.239677242934704,None,,,,,,,,,,,,,,,,,,,,,36.57336189597845,None,space,0.2882414429914206,36.57336189597845,None,36.9733802229166,None,36.9733802229166,None,36.9733802229166,None,space,0.2082125130109489,36.9733802229166,None,37.20702331303619,None,space,0.29574968200176954,37.20702331303619,None,37.93930004793219,None,37.93930004793219,None,37.93930004793219,None,37.93930004793219,None,37.93930004793219,None,37.93930004793219,None,37.93930004793219,None,,,,,,,,,,,,,,,,,,,,,,,,,,,,,,,,,,,,,,,,,,,,,,,,,,,,,,,,,,,,,,,,,,,,,,,,,,,,,,,,,,,,,,,,,test,0,1,0,1,1,0,0,2020_Jan_07_1056,fmri_ebs,3.2.1,60.17735636338531,
1,0,0,0,0,0,1,1,1,0,0,0,0,0,0,0,0,,,,,,,,,,,,,,,,,,,,,,,,,,,,,,,,,,,,,,,,,,,,,,,,,,,,,,,,,,,,,,,,,,,,,,,,,,,,,,,,,,,,,,,,,,,,41.04103772807866,None,41.04103772807866,None,41.04103772807866,None,space,0.26132475514896214,41.04103772807866,None,,,,,,,,,,,,,,,,,,,,,40.55608171597123,None,space,0.41024832311086357,40.55608171597123,None,,,,,,,,,,,,,,,,,,,,,,,,,,,,,,,,,,,,,,,,,,,,,,,,,,,,,,,,,,,,,,,,,,,,,,,,,,,,,,,,,,,test,0,1,0,1,1,0,0,2020_Jan_07_1056,fmri_ebs,3.2.1,60.17735636338531,
1,0,0,0,0,0,1,1,1,0,0,0,0,,,,,,,,,,,,,0,0,0,0,,,,,,,,,,,,,,,,,,,,,,,,,,,,,,,,,,,,,,,,,,,,,,,,,,,,,,41.32369832810946,None,space,0.290883825160563,41.32369832810946,None,space,0.2702223227825016,41.739375876961276,None,41.739375876961276,None,,,,,,,,,,,,,,,,,,,,,,,,,,,,,,,,,,,,,,,,,,,,,,,,,,,,,,,,,,,,,,,,,,,,,,,,,,,,,,,,,,,,,,,,,,,,,,,,,,,,,,,,,,,,,,,,,,,,,,,,,,,,,,,,,,,,,test,0,1,0,1,1,0,0,2020_Jan_07_1056,fmri_ebs,3.2.1,60.17735636338531,
1,0,0,0,0,0,1,1,1,0,0,0,0,,,,,,,,,,,,,,,,,,,,,,,,,,,,,,,,,,,,,,,,,,,,,,,,,,,,,,,,,,,,,,,,,,,,,,,,,,,,,,,,,,42.05612591304816,None,42.05612591304816,None,space,0.33720288309268653,42.05612591304816,None,,,,,,,,,,,,,,,,,,,,,,,,,,,,,,,,,,,,,,,,,,,,,,,,,,,,,,,,,,,,,,,,,,,,,,,,,,,,,,,,,,,,,,,,,,,,,,,,,,,,,,,,,,,,,,,,,,,,,,,,,,,,,test,0,1,0,1,1,0,0,2020_Jan_07_1056,fmri_ebs,3.2.1,60.17735636338531,
1,0,0,0,0,0,1,1,1,,,,,,,,,,,,,,,,,,,,,,,,,,,,,,,,,,,,,,,,,,,,,,,,,,,,,,,,,,,,,,,,,,,,,,,,,,,,,,,,,,,,,,,,,,,,,,,,,,,,,,,,,,,,,,,,,,,,,,,,,,,,,,,,,,,,,,,,,,,,,,,,,,,,,,,,,,,,,,,,,,,,,,,,,,,,,,,,,,,,,,,,,,,,,,,,,,,,,,,,,,,,,,,,,,,,,,,,,,test,0,1,0,1,1,0,0,2020_Jan_07_1056,fmri_ebs,3.2.1,60.17735636338531,
2,0,0,0,0,0,2,2,2,0,0,0,0,,,,,,,,,,,,,0,0,0,0,,,,,,,,,,,,,,,,,,,,,,,,,,,,,,,,,,,,,,,,,,,,,,42.439516958082095,None,space,0.3009711531922221,42.439516958082095,None,42.439516958082095,None,42.75693990592845,None,space,0.319353885948658,42.75693990592845,None,space,0.2537471048999578,43.17265091603622,None,43.17265091603622,None,,,,,,,,,,,,,,,,,,,,,,,,,,,,,,,,,,,,,,,,,,,,,,,,,,,,,,,,,,,,,,,,,,,,,,,,,,,,,,,,,,,,,,,,,,,,,,,,,,,,,,,,,,,,,,,,,,,,,,,,,,,,,,,,,,,,,test,0,1,0,1,1,0,0,2020_Jan_07_1056,fmri_ebs,3.2.1,60.17735636338531,
2,0,0,0,0,0,2,2,2,0,0,0,0,,,,,,,,,,,,,,,,,,,,,,,,,,,,,,,,,,,,,,,,,,,,,,,,,,,,,,,,,,,,,,,,,,,,,,,,,,,,,,,,,,43.45660109794699,None,43.45660109794699,None,space,0.29553817794658244,43.45660109794699,None,,,,,,,,,,,,,,,,,,,,,,,,,,,,,,,,,,,,,,,,,,,,,,,,,,,,,,,,,,,,,,,,,,,,,,,,,,,,,,,,,,,,,,,,,,,,,,,,,,,,,,,,,,,,,,,,,,,,,,,,,,,,,test,0,1,0,1,1,0,0,2020_Jan_07_1056,fmri_ebs,3.2.1,60.17735636338531,
2,0,0,0,0,0,2,2,2,,,,,,,,,,,,,,,,,,,,,,,,,,,,,,,,,,,,,,,,,,,,,,,,,,,,,,,,,,,,,,,,,,,,,,,,,,,,,,,,,,,,,,,,,,,,,,,,,,,,,,,,,,,,,,,,,,,,,,,,,,,,,,,,,,,,,,,,,,,,,,,,,,,,,,,,,,,,,,,,,,,,,,,,,,,,,,,,,,,,,,,,,,,,,,,,,,,,,,,,,,,,,,,,,,,,,,,,,,test,0,1,0,1,1,0,0,2020_Jan_07_1056,fmri_ebs,3.2.1,60.17735636338531,
3,0,0,0,0,0,3,3,3,0,0,0,0,0,0,0,0,,,,,,,,,,,,,0,0,0,0,,,,,,,,,,,,,,,,,,,,,,,,,,,,,,,,,,,,,,,,,,43.78998205298558,None,space,0.2692793500609696,43.78998205298558,None,43.78998205298558,None,,,,,,,,,,,,,,,,,,,,,44.08977964613587,None,space,0.285363731905818,44.08977964613587,None,44.48976996797137,None,44.48976996797137,None,44.48976996797137,None,space,0.3505120200570673,44.48976996797137,None,44.856313762953505,None,space,0.32189746806398034,44.856313762953505,None,45.50759765598923,None,45.50759765598923,None,45.50759765598923,None,45.50759765598923,None,45.50759765598923,None,45.50759765598923,None,45.50759765598923,None,,,,,,,,,,,,,,,,,,,,,,,,,,,,,,,,,,,,,,,,,,,,,,,,,,,,,,,,,,,,,,,,,,,,,,,,,,,,,,,,,,,,,,,,,test,0,1,0,1,1,0,0,2020_Jan_07_1056,fmri_ebs,3.2.1,60.17735636338531,
3,0,0,0,0,0,3,3,3,0,0,0,0,0,0,0,0,,,,,,,,,,,,,,,,,,,,,,,,,,,,,,,,,,,,,,,,,,,,,,,,,,,,,,,,,,,,,,,,,,,,,,,,,,,,,,,,,,,,,,,,,,,,46.35644188593142,None,46.35644188593142,None,46.35644188593142,None,space,0.2545501198619604,46.35644188593142,None,,,,,,,,,,,,,,,,,,,,,46.10774351609871,None,space,0.19748720014467835,46.10774351609871,None,,,,,,,,,,,,,,,,,,,,,,,,,,,,,,,,,,,,,,,,,,,,,,,,,,,,,,,,,,,,,,,,,,,,,,,,,,,,,,,,,,,test,0,1,0,1,1,0,0,2020_Jan_07_1056,fmri_ebs,3.2.1,60.17735636338531,
3,0,0,0,0,0,3,3,3,0,0,0,0,,,,,,,,,,,,,0,0,0,0,,,,,,,,,,,,,,,,,,,,,,,,,,,,,,,,,,,,,,,,,,,,,,,,,,,,,,46.640848045935854,None,space,0.30010299012064934,46.640848045935854,None,space,0.20051058195531368,47.05648898310028,None,47.05648898310028,None,,,,,,,,,,,,,,,,,,,,,,,,,,,,,,,,,,,,,,,,,,,,,,,,,,,,,,,,,,,,,,,,,,,,,,,,,,,,,,,,,,,,,,,,,,,,,,,,,,,,,,,,,,,,,,,,,,,,,,,,,,,,,,,,,,,,,test,0,1,0,1,1,0,0,2020_Jan_07_1056,fmri_ebs,3.2.1,60.17735636338531,
3,0,0,0,0,0,3,3,3,0,0,0,0,,,,,,,,,,,,,,,,,,,,,,,,,,,,,,,,,,,,,,,,,,,,,,,,,,,,,,,,,,,,,,,,,,,,,,,,,,,,,,,,,,47.29018958611414,None,47.29018958611414,None,space,0.2957143448293209,47.29018958611414,None,,,,,,,,,,,,,,,,,,,,,,,,,,,,,,,,,,,,,,,,,,,,,,,,,,,,,,,,,,,,,,,,,,,,,,,,,,,,,,,,,,,,,,,,,,,,,,,,,,,,,,,,,,,,,,,,,,,,,,,,,,,,,test,0,1,0,1,1,0,0,2020_Jan_07_1056,fmri_ebs,3.2.1,60.17735636338531,
3,0,0,0,0,0,3,3,3,,,,,,,,,,,,,,,,,,,,,,,,,,,,,,,,,,,,,,,,,,,,,,,,,,,,,,,,,,,,,,,,,,,,,,,,,,,,,,,,,,,,,,,,,,,,,,,,,,,,,,,,,,,,,,,,,,,,,,,,,,,,,,,,,,,,,,,,,,,,,,,,,,,,,,,,,,,,,,,,,,,,,,,,,,,,,,,,,,,,,,,,,,,,,,,,,,,,,,,,,,,,,,,,,,,,,,,,,,test,0,1,0,1,1,0,0,2020_Jan_07_1056,fmri_ebs,3.2.1,60.17735636338531,
4,0,0,0,0,0,4,4,4,,,,,,,,,,,,,,,,,,,,,,,,,,,,,,,,,,,,,,,,,,,,,,,,,,,,,,,,,,,,,,,,,,,,,,,,,,,,,,,,,,,,,,,,,,,,,,,,,,,,,,,,,,,,,,,,,,,,,,,,,,,,,,,,,,,,,,,,,,,,,,,,,,,,,,,,,,,,,,,,,,,,,,,,,,,,,,,,,,,,,,,,,,,,,,,,,,,,,,,,,,,,,,,,,,,,,,,,,,test,0,1,0,1,1,0,0,2020_Jan_07_1056,fmri_ebs,3.2.1,60.17735636338531,
5,0,0,0,0,0,5,5,5,0,0,0,0,0,0,0,0,,,,,,,,,,,,,0,0,0,0,,,,,,,,,,,,,,,,,,,,,,,,,,,,,,,,,,,,,,,,,,47.623747227014974,None,space,0.2953060909640044,47.623747227014974,None,47.623747227014974,None,,,,,,,,,,,,,,,,,,,,,47.94083168799989,None,space,0.28319336008280516,47.94083168799989,None,48.306841406039894,None,48.306841406039894,None,48.306841406039894,None,space,0.2400573850609362,48.306841406039894,None,48.57334083109163,None,space,0.29966007685288787,48.57334083109163,None,49.15686881612055,None,49.15686881612055,None,49.15686881612055,None,49.15686881612055,None,49.15686881612055,None,49.15686881612055,None,49.15686881612055,None,,,,,,,,,,,,,,,,,,,,,,,,,,,,,,,,,,,,,,,,,,,,,,,,,,,,,,,,,,,,,,,,,,,,,,,,,,,,,,,,,,,,,,,,,test,0,1,0,1,1,0,0,2020_Jan_07_1056,fmri_ebs,3.2.1,60.17735636338531,
5,0,0,0,0,0,5,5,5,0,0,0,0,0,0,0,0,,,,,,,,,,,,,,,,,,,,,,,,,,,,,,,,,,,,,,,,,,,,,,,,,,,,,,,,,,,,,,,,,,,,,,,,,,,,,,,,,,,,,,,,,,,,50.05712903593667,None,50.05712903593667,None,50.05712903593667,None,space,0.24982736096717417,50.05712903593667,None,,,,,,,,,,,,,,,,,,,,,49.7901390879415,None,space,0.1998153270687908,49.7901390879415,None,,,,,,,,,,,,,,,,,,,,,,,,,,,,,,,,,,,,,,,,,,,,,,,,,,,,,,,,,,,,,,,,,,,,,,,,,,,,,,,,,,,test,0,1,0,1,1,0,0,2020_Jan_07_1056,fmri_ebs,3.2.1,60.17735636338531,
5,0,0,0,0,0,5,5,5,0,0,0,0,,,,,,,,,,,,,0,0,0,0,,,,,,,,,,,,,,,,,,,,,,,,,,,,,,,,,,,,,,,,,,,,,,,,,,,,,,50.323645462980494,None,space,0.29306597192771733,50.323645462980494,None,space,0.18496051686815917,50.723735568113625,None,50.723735568113625,None,,,,,,,,,,,,,,,,,,,,,,,,,,,,,,,,,,,,,,,,,,,,,,,,,,,,,,,,,,,,,,,,,,,,,,,,,,,,,,,,,,,,,,,,,,,,,,,,,,,,,,,,,,,,,,,,,,,,,,,,,,,,,,,,,,,,,test,0,1,0,1,1,0,0,2020_Jan_07_1056,fmri_ebs,3.2.1,60.17735636338531,
5,0,0,0,0,0,5,5,5,0,0,0,0,,,,,,,,,,,,,,,,,,,,,,,,,,,,,,,,,,,,,,,,,,,,,,,,,,,,,,,,,,,,,,,,,,,,,,,,,,,,,,,,,,50.94058312801644,None,50.94058312801644,None,space,0.31526286294683814,50.94058312801644,None,,,,,,,,,,,,,,,,,,,,,,,,,,,,,,,,,,,,,,,,,,,,,,,,,,,,,,,,,,,,,,,,,,,,,,,,,,,,,,,,,,,,,,,,,,,,,,,,,,,,,,,,,,,,,,,,,,,,,,,,,,,,,test,0,1,0,1,1,0,0,2020_Jan_07_1056,fmri_ebs,3.2.1,60.17735636338531,
5,0,0,0,0,0,5,5,5,,,,,,,,,,,,,,,,,,,,,,,,,,,,,,,,,,,,,,,,,,,,,,,,,,,,,,,,,,,,,,,,,,,,,,,,,,,,,,,,,,,,,,,,,,,,,,,,,,,,,,,,,,,,,,,,,,,,,,,,,,,,,,,,,,,,,,,,,,,,,,,,,,,,,,,,,,,,,,,,,,,,,,,,,,,,,,,,,,,,,,,,,,,,,,,,,,,,,,,,,,,,,,,,,,,,,,,,,,test,0,1,0,1,1,0,0,2020_Jan_07_1056,fmri_ebs,3.2.1,60.17735636338531,
6,0,0,0,0,0,6,6,6,,,,,,,,,,,,,,,,,,,,,,,,,,,,,,,,,,,,,,,,,,,,,,,,,,,,,,,,,,,,,,,,,,,,,,,,,,,,,,,,,,,,,,,,,,,,,,,,,,,,,,,,,,,,,,,,,,,,,,,,,,,,,,,,,,,,,,,,,,,,,,,,,,,,,,,,,,,,,,,,,,,,,,,,,,,,,,,,,,,,,,,,,,,,,,,,,,,,,,,,,,,,,,,,,,,,,,,,,,test,0,1,0,1,1,0,0,2020_Jan_07_1056,fmri_ebs,3.2.1,60.17735636338531,
7,0,0,0,0,0,7,7,7,0,0,0,0,0,0,0,0,,,,,,,,,,,,,0,0,0,0,,,,,,,,,,,,,,,,,,,,,,,,,,,,,,,,,,,,,,,,,,51.30715954513289,None,space,0.2666337490081787,51.30715954513289,None,51.30715954513289,None,,,,,,,,,,,,,,,,,,,,,51.60793040599674,None,space,0.29270448512397707,51.60793040599674,None,51.99085822305642,None,51.99085822305642,None,51.99085822305642,None,space,0.24075272004120052,51.99085822305642,None,52.257745815906674,None,space,0.3118506239261478,52.257745815906674,None,52.80800130101852,None,52.80800130101852,None,52.80800130101852,None,52.80800130101852,None,52.80800130101852,None,52.80800130101852,None,52.80800130101852,None,,,,,,,,,,,,,,,,,,,,,,,,,,,,,,,,,,,,,,,,,,,,,,,,,,,,,,,,,,,,,,,,,,,,,,,,,,,,,,,,,,,,,,,,,test,0,1,0,1,1,0,0,2020_Jan_07_1056,fmri_ebs,3.2.1,60.17735636338531,
7,0,0,0,0,0,7,7,7,0,0,0,0,0,0,0,0,,,,,,,,,,,,,,,,,,,,,,,,,,,,,,,,,,,,,,,,,,,,,,,,,,,,,,,,,,,,,,,,,,,,,,,,,,,,,,,,,,,,,,,,,,,,53.64175412291661,None,53.64175412291661,None,53.64175412291661,None,space,0.2619696347974241,53.64175412291661,None,,,,,,,,,,,,,,,,,,,,,53.35741064790636,None,space,0.24215189297683537,53.35741064790636,None,,,,,,,,,,,,,,,,,,,,,,,,,,,,,,,,,,,,,,,,,,,,,,,,,,,,,,,,,,,,,,,,,,,,,,,,,,,,,,,,,,,test,0,1,0,1,1,0,0,2020_Jan_07_1056,fmri_ebs,3.2.1,60.17735636338531,
7,0,0,0,0,0,7,7,7,0,0,0,0,,,,,,,,,,,,,0,0,0,0,,,,,,,,,,,,,,,,,,,,,,,,,,,,,,,,,,,,,,,,,,,,,,,,,,,,,,53.924723827978596,None,space,0.256900193169713,53.924723827978596,None,space,0.13394640013575554,54.307629788061604,None,54.307629788061604,None,,,,,,,,,,,,,,,,,,,,,,,,,,,,,,,,,,,,,,,,,,,,,,,,,,,,,,,,,,,,,,,,,,,,,,,,,,,,,,,,,,,,,,,,,,,,,,,,,,,,,,,,,,,,,,,,,,,,,,,,,,,,,,,,,,,,,test,0,1,0,1,1,0,0,2020_Jan_07_1056,fmri_ebs,3.2.1,60.17735636338531,
7,0,0,0,0,0,7,7,7,0,0,0,0,,,,,,,,,,,,,,,,,,,,,,,,,,,,,,,,,,,,,,,,,,,,,,,,,,,,,,,,,,,,,,,,,,,,,,,,,,,,,,,,,,54.474703372921795,None,54.474703372921795,None,space,0.26493355305865407,54.474703372921795,None,,,,,,,,,,,,,,,,,,,,,,,,,,,,,,,,,,,,,,,,,,,,,,,,,,,,,,,,,,,,,,,,,,,,,,,,,,,,,,,,,,,,,,,,,,,,,,,,,,,,,,,,,,,,,,,,,,,,,,,,,,,,,test,0,1,0,1,1,0,0,2020_Jan_07_1056,fmri_ebs,3.2.1,60.17735636338531,
7,0,0,0,0,0,7,7,7,,,,,,,,,,,,,,,,,,,,,,,,,,,,,,,,,,,,,,,,,,,,,,,,,,,,,,,,,,,,,,,,,,,,,,,,,,,,,,,,,,,,,,,,,,,,,,,,,,,,,,,,,,,,,,,,,,,,,,,,,,,,,,,,,,,,,,,,,,,,,,,,,,,,,,,,,,,,,,,,,,,,,,,,,,,,,,,,,,,,,,,,,,,,,,,,,,,,,,,,,,,,,,,,,,,,,,,,,,test,0,1,0,1,1,0,0,2020_Jan_07_1056,fmri_ebs,3.2.1,60.17735636338531,
0,0,0,0,0,,,,,,,,,,,,,,,,,,,,,,,,,,,,,0,0,0,0,0,0,0,0,,,,,,,,,,,,,0,0,0,0,,,,,,,,,,,55.77436584793031,None,5,1.372949424898252,55.77436584793031,None,34.01272923499346,,,,,,,,,,,,,,,,,,,,,,,,,,,,,,,,,,,,,,,,,,,,,,,,,,,,,,,,,,,,,,,,,,,,,,,54.77439834596589,None,57.20783214806579,None,57.20783214806579,None,space,0.29865216300822794,57.20783214806579,None,57.52482595597394,None,space,0.2076405598782003,57.52482595597394,None,space,0.08181194588541985,57.840444188099355,None,57.840444188099355,None,,,,,,,,,,,,,,,,,,,,,,,,,,,,,,,,,,,,,,,,,,,,,,,,,,,,,,,,,,,,,test,0,1,0,1,1,0,0,2020_Jan_07_1056,fmri_ebs,3.2.1,60.17735636338531,
0,0,0,0,0,,,,,,,,,,,,,,,,,,,,,,,,,,,,,0,0,0,0,0,0,0,0,,,,,,,,,,,,,,,,,,,,,,,,,,,,,,,,,,,,,,,,,,,,,,,,,,,,,,,,,,,,,,,,,,,,,,,,,,,,,,,,,,,,,,,,,,,,,,,,,,,,,,,,,,,,,,,,,,,,,,,,,,,,,,57.94083026703447,None,57.94083026703447,None,space,0.24338295892812312,57.94083026703447,None,,,,,,,,,,,,,,,,,,,,,,,,,,,,,,,,,,,,,,,,,,,,,,,,,,,,,test,0,1,0,1,1,0,0,2020_Jan_07_1056,fmri_ebs,3.2.1,60.17735636338531,
0,0,0,0,0,,,,,,,,,,,,,,,,,,,,,,,,,,,,,0,0,0,0,,,,,,,,,,,,,,,,,,,,,,,,,,,,,,,,,,,,,,,,,,,,,,,,,,,,,,,,,,,,,,,,,,,,,,,,,,,,,,,,,,,,,,,,,,,,,,,,,,,,,,,,,,,,,,,,,,,,,,,,,,,,,,,,,,,,,,,,,,,,,,,,,,,,,,,,,,,,,,,,,,,,,,,,,,,,,,,,,,,,,,,,,,,,,,test,0,1,0,1,1,0,0,2020_Jan_07_1056,fmri_ebs,3.2.1,60.17735636338531,
1,0,0,0,0,,,,,,,,,,,,,,,,,,,,,,,,,,,,,0,1,1,1,0,0,0,0,0,0,0,0,,,,,,,,,,,,,0,0,0,0,,,,,,,,,,,,,,,,,,,,,,,,,,,,,,,,,,,,,,,,,,,,,,,,,,,,,,,,,,,,,,,,,,,,,,,,,,,,,,,,,,,,,,58.257145821116865,None,58.257145821116865,None,space,0.3152909481432289,58.257145821116865,None,,,,,,,,,,,,,,,,,,,,,58.591038566082716,None,space,0.2823953628540039,58.591038566082716,None,58.94116599811241,None,58.94116599811241,None,58.94116599811241,None,space,0.2222193020861596,58.94116599811241,None,59.19161432306282,None,space,0.3005929801147431,59.19161432306282,None,59.75789279304445,None,59.75789279304445,None,59.75789279304445,None,59.75789279304445,None,59.75789279304445,None,59.75789279304445,None,59.75789279304445,None,,,,,,,,,,,,,,,,,test,0,1,0,1,1,0,0,2020_Jan_07_1056,fmri_ebs,3.2.1,60.17735636338531,
1,0,0,0,0,,,,,,,,,,,,,,,,,,,,,,,,,,,,,0,1,1,1,0,0,0,0,0,0,0,0,,,,,,,,,,,,,,,,,,,,,,,,,,,,,,,,,,,,,,,,,,,,,,,,,,,,,,,,,,,,,,,,,,,,,,,,,,,,,,,,,,,,,,,,,,,,,,,,,,,,,,,,,,,,,,,,,,,,,,,,,,,,,,,,,,,,,,,,,,,,,,,,,,,,,,,,,,,,,,,,,,,,,,60.75720106810331,None,space,0.20581435109488666,60.75720106810331,None,61.04232402611524,None,61.04232402611524,None,61.04232402611524,None,space,0.17894635000266135,61.04232402611524,None,test,0,1,0,1,1,0,0,2020_Jan_07_1056,fmri_ebs,3.2.1,60.17735636338531,
1,0,0,0,0,,,,,,,,,,,,,,,,,,,,,,,,,,,,,0,1,1,1,0,0,0,0,,,,,,,,,,,,,0,0,0,0,,,,,,,,,,,,,,,,,,,,,,,,,,,,,,,,,,,,,,,,,,,,,,,,,,,,,,,,,,,,,,,,,,,,,,,,,,,,,,,,,,,,,,,,,,,,,,,,,,61.24190618796274,None,space,0.20325344987213612,61.24190618796274,None,space,0.11930409190244973,61.55787572590634,None,61.55787572590634,None,,,,,,,,,,,,,,,,,,,,,,,,,,,,,,,,,,,,,,,,,,,,,,,,,,,,,,,,,,,,,test,0,1,0,1,1,0,0,2020_Jan_07_1056,fmri_ebs,3.2.1,60.17735636338531,
1,0,0,0,0,,,,,,,,,,,,,,,,,,,,,,,,,,,,,0,1,1,1,0,0,0,0,,,,,,,,,,,,,,,,,,,,,,,,,,,,,,,,,,,,,,,,,,,,,,,,,,,,,,,,,,,,,,,,,,,,,,,,,,,,,,,,,,,,,,,,,,,,,,,,,,,,,,,,,,,,,,,,,,,,,,,,,,,,,,61.70996651612222,None,61.70996651612222,None,space,0.21319987019523978,61.70996651612222,None,,,,,,,,,,,,,,,,,,,,,,,,,,,,,,,,,,,,,,,,,,,,,,,,,,,,,test,0,1,0,1,1,0,0,2020_Jan_07_1056,fmri_ebs,3.2.1,60.17735636338531,
1,0,0,0,0,,,,,,,,,,,,,,,,,,,,,,,,,,,,,0,1,1,1,,,,,,,,,,,,,,,,,,,,,,,,,,,,,,,,,,,,,,,,,,,,,,,,,,,,,,,,,,,,,,,,,,,,,,,,,,,,,,,,,,,,,,,,,,,,,,,,,,,,,,,,,,,,,,,,,,,,,,,,,,,,,,,,,,,,,,,,,,,,,,,,,,,,,,,,,,,,,,,,,,,,,,,,,,,,,,,,,,,,,,,,,,,,,,test,0,1,0,1,1,0,0,2020_Jan_07_1056,fmri_ebs,3.2.1,60.17735636338531,
2,0,0,0,0,,,,,,,,,,,,,,,,,,,,,,,,,,,,,0,2,2,2,,,,,,,,,,,,,,,,,,,,,,,,,,,,,,,,,,,,,,,,,,,,,,,,,,,,,,,,,,,,,,,,,,,,,,,,,,,,,,,,,,,,,,,,,,,,,,,,,,,,,,,,,,,,,,,,,,,,,,,,,,,,,,,,,,,,,,,,,,,,,,,,,,,,,,,,,,,,,,,,,,,,,,,,,,,,,,,,,,,,,,,,,,,,,,test,0,1,0,1,1,0,0,2020_Jan_07_1056,fmri_ebs,3.2.1,60.17735636338531,
3,0,0,0,0,,,,,,,,,,,,,,,,,,,,,,,,,,,,,0,3,3,3,0,0,0,0,0,0,0,0,,,,,,,,,,,,,0,0,0,0,,,,,,,,,,,,,,,,,,,,,,,,,,,,,,,,,,,,,,,,,,,,,,,,,,,,,,,,,,,,,,,,,,,,,,,,,,,,,,,,,,,,,,61.991070884047076,None,61.991070884047076,None,space,0.20089870295487344,61.991070884047076,None,,,,,,,,,,,,,,,,,,,,,62.22530825296417,None,space,0.2556919299531728,62.22530825296417,None,62.57536742603406,None,62.57536742603406,None,62.57536742603406,None,space,0.1595684268977493,62.57536742603406,None,62.75810754601844,None,space,0.2799744850490242,62.75810754601844,None,63.29194278595969,None,63.29194278595969,None,63.29194278595969,None,63.29194278595969,None,63.29194278595969,None,63.29194278595969,None,63.29194278595969,None,,,,,,,,,,,,,,,,,test,0,1,0,1,1,0,0,2020_Jan_07_1056,fmri_ebs,3.2.1,60.17735636338531,
3,0,0,0,0,,,,,,,,,,,,,,,,,,,,,,,,,,,,,0,3,3,3,0,0,0,0,0,0,0,0,,,,,,,,,,,,,,,,,,,,,,,,,,,,,,,,,,,,,,,,,,,,,,,,,,,,,,,,,,,,,,,,,,,,,,,,,,,,,,,,,,,,,,,,,,,,,,,,,,,,,,,,,,,,,,,,,,,,,,,,,,,,,,,,,,,,,,,,,,,,,,,,,,,,,,,,,,,,,,,,,,,,,,64.00834565795958,None,space,0.2026627950835973,64.00834565795958,None,64.29187453305349,None,64.29187453305349,None,64.29187453305349,None,space,0.16983586503192782,64.29187453305349,None,test,0,1,0,1,1,0,0,2020_Jan_07_1056,fmri_ebs,3.2.1,60.17735636338531,
