count,audio,trials_14.thisRepN,trials_14.thisTrialN,trials_14.thisN,trials_14.thisIndex,trials_3.thisRepN,trials_3.thisTrialN,trials_3.thisN,trials_3.thisIndex,trials_4.thisRepN,trials_4.thisTrialN,trials_4.thisN,trials_4.thisIndex,trials_6.thisRepN,trials_6.thisTrialN,trials_6.thisN,trials_6.thisIndex,trials_9.thisRepN,trials_9.thisTrialN,trials_9.thisN,trials_9.thisIndex,trials_10.thisRepN,trials_10.thisTrialN,trials_10.thisN,trials_10.thisIndex,trials_12.thisRepN,trials_12.thisTrialN,trials_12.thisN,trials_12.thisIndex,trials_25.thisRepN,trials_25.thisTrialN,trials_25.thisN,trials_25.thisIndex,trials_15.thisRepN,trials_15.thisTrialN,trials_15.thisN,trials_15.thisIndex,trials_26.thisRepN,trials_26.thisTrialN,trials_26.thisN,trials_26.thisIndex,trials_11.thisRepN,trials_11.thisTrialN,trials_11.thisN,trials_11.thisIndex,trials_8.thisRepN,trials_8.thisTrialN,trials_8.thisN,trials_8.thisIndex,story_list_block2,action_list_block2,textTrigger.started,textTrigger.stopped,getTrigger.keys,getTrigger.rt,getTrigger.started,getTrigger.stopped,triggerTime,text_76.started,text_76.stopped,text_77.started,text_77.stopped,startWait,endWait,image_23.started,image_23.stopped,text_55.started,text_55.stopped,text_56.started,text_56.stopped,key_resp_2.keys,key_resp_2.rt,key_resp_2.started,key_resp_2.stopped,text_82.started,text_82.stopped,text_64.started,text_64.stopped,key_resp_20.keys,key_resp_20.rt,key_resp_20.started,key_resp_20.stopped,storyImage_StartTime,storyImage_EndTime,clip_StartTime,clip_EndTime,text_67.started,text_67.stopped,text_68.started,text_68.stopped,text_57.started,text_57.stopped,key_resp_17.keys,key_resp_17.rt,key_resp_17.started,key_resp_17.stopped,text_83.started,text_83.stopped,text_60.started,text_60.stopped,image_2.started,image_2.stopped,text_58.started,text_58.stopped,key_resp_23.keys,key_resp_23.rt,key_resp_23.started,key_resp_23.stopped,text_62.started,text_62.stopped,key_resp_18.keys,key_resp_18.rt,key_resp_18.started,key_resp_18.stopped,text_84.started,text_84.stopped,question1_2.started,question1_2.stopped,question2_2.started,question2_2.stopped,question3_2.started,question3_2.stopped,question4_2.started,question4_2.stopped,question5_2.started,question5_2.stopped,question6_2.started,question6_2.stopped,image_15.started,image_15.stopped,text_59.started,text_59.stopped,key_resp_19.keys,key_resp_19.rt,key_resp_19.started,key_resp_19.stopped,text_85.started,text_85.stopped,text_61.started,text_61.stopped,image_17.started,image_17.stopped,text_63.started,text_63.stopped,key_resp_24.keys,key_resp_24.rt,key_resp_24.started,key_resp_24.stopped,text_36.started,text_36.stopped,participant,sA,sB,lA,lB,block_struct,play_stories,block,behavioral,random_seed,date,expName,psychopyVersion,frameRate,
0,parcelated_audio/34/34_1.ogg,,,,,,,,,0,0,0,0,0,0,0,0,0,0,0,0,,,,,,,,,0,0,0,0,0,0,0,0,,,,,,,,,,,,,[34 43 32 41 23 14 12 21],[4 4 2 2 1 1 3 3],21.084153114000003,None,equal,1.43501934599999,21.084153114000003,None,1.4768520020000153,21.084153114000003,None,21.084153114000003,None,0.00036840099997448306,6.015227479999993,22.566812805000012,None,28.583923739,None,28.583923739,None,space,1.6301098130000184,28.583923739,None,28.583923739,None,30.233253681000008,None,space,3.333193315000017,30.233253681000008,None,11.040467941999992,14.049129796999978,14.054082844999982,23.070662474999978,,,,,,,,,,,,,,,,,,,,,,,,,,,,,,,,,,,,,,,,,,,,,,,,,,,,,,,,,,,,,,,,,tony_test,0,1,0,1,1,1,2,0,2,2020_Jan_30_1113,listening_fmri,3.2.4,59.95500125344973,
0,parcelated_audio/34/34_2.ogg,,,,,,,,,0,0,0,0,0,0,0,0,0,0,0,0,,,,,,,,,0,0,0,0,0,1,1,1,,,,,,,,,,,,,,,,,,,,,,,,,,,,,,,,,,,,,,,,,,,,,,,,23.070955785999985,27.737040891999982,,,,,,,,,,,,,,,,,,,,,,,,,,,,,,,,,,,,,,,,,,,,,,,,,,,,,,,,,,,,,,,,,tony_test,0,1,0,1,1,1,2,0,2,2020_Jan_30_1113,listening_fmri,3.2.4,59.95500125344973,
0,parcelated_audio/34/34_3.ogg,,,,,,,,,0,0,0,0,0,0,0,0,0,0,0,0,,,,,,,,,0,0,0,0,0,2,2,2,,,,,,,,,,,,,,,,,,,,,,,,,,,,,,,,,,,,,,,,,,,,,,,,27.737325577999997,32.49809113699999,,,,,,,,,,,,,,,,,,,,,,,,,,,,,,,,,,,,,,,,,,,,,,,,,,,,,,,,,,,,,,,,,tony_test,0,1,0,1,1,1,2,0,2,2020_Jan_30_1113,listening_fmri,3.2.4,59.95500125344973,
0,parcelated_audio/34/34_4.ogg,,,,,,,,,0,0,0,0,0,0,0,0,0,0,0,0,,,,,,,,,0,0,0,0,0,3,3,3,,,,,,,,,,,,,,,,,,,,,,,,,,,,,,,,,,,,,,,,,,,,,,,,32.498683201999995,42.231373684999994,,,,,,,,,,,,,,,,,,,,,,,,,,,,,,,,,,,,,,,,,,,,,,,,,,,,,,,,,,,,,,,,,tony_test,0,1,0,1,1,1,2,0,2,2020_Jan_30_1113,listening_fmri,3.2.4,59.95500125344973,
0,parcelated_audio/34/34_5.ogg,,,,,,,,,0,0,0,0,0,0,0,0,0,0,0,0,,,,,,,,,0,0,0,0,0,4,4,4,,,,,,,,,,,,,,,,,,,,,,,,,,,,,,,,,,,,,,,,,,,,,,,,42.23164435699999,52.679800331999985,,,,,,,,,,,,,,,,,,,,,,,,,,,,,,,,,,,,,,,,,,,,,,,,,,,,,,,,,,,,,,,,,tony_test,0,1,0,1,1,1,2,0,2,2020_Jan_30_1113,listening_fmri,3.2.4,59.95500125344973,
0,parcelated_audio/34/34_6.ogg,,,,,,,,,0,0,0,0,0,0,0,0,0,0,0,0,,,,,,,,,0,0,0,0,0,5,5,5,,,,,,,,,,,,,,,,,,,,,,,,,,,,,,,,,,,,,,,,,,,,,,,,52.68021302299999,61.46342480599998,,,,,,,,,,,,,,,,,,,,,,,,,,,,,,,,,,,,,,,,,,,,,,,,,,,,,,,,,,,,,,,,,tony_test,0,1,0,1,1,1,2,0,2,2020_Jan_30_1113,listening_fmri,3.2.4,59.95500125344973,
0,parcelated_audio/34/34_7.ogg,,,,,,,,,0,0,0,0,0,0,0,0,0,0,0,0,,,,,,,,,0,0,0,0,0,6,6,6,,,,,,,,,,,,,,,,,,,,,,,,,,,,,,,,,,,,,,,,,,,,,,,,61.46491304199998,67.561634331,,,,,,,,,,,,,,,,,,,,,,,,,,,,,,,,,,,,,,,,,,,,,,,,,,,,,,,,,,,,,,,,,tony_test,0,1,0,1,1,1,2,0,2,2020_Jan_30_1113,listening_fmri,3.2.4,59.95500125344973,
0,parcelated_audio/34/34_8.ogg,,,,,,,,,0,0,0,0,0,0,0,0,0,0,0,0,,,,,,,,,0,0,0,0,0,7,7,7,,,,,,,,,,,,,,,,,,,,,,,,,,,,,,,,,,,,,,,,,,,,,,,,67.56190669999998,75.6624349,,,,,,,,,,,,,,,,,,,,,,,,,,,,,,,,,,,,,,,,,,,,,,,,,,,,,,,,,,,,,,,,,tony_test,0,1,0,1,1,1,2,0,2,2020_Jan_30_1113,listening_fmri,3.2.4,59.95500125344973,
0,parcelated_audio/34/34_9.ogg,,,,,,,,,0,0,0,0,0,0,0,0,0,0,0,0,,,,,,,,,0,0,0,0,0,8,8,8,,,,,,,,,,,,,,,,,,,,,,,,,,,,,,,,,,,,,,,,,,,,,,,,75.66270859699998,80.56312878699998,,,,,,,,,,,,,,,,,,,,,,,,,,,,,,,,,,,,,,,,,,,,,,,,,,,,,,,,,,,,,,,,,tony_test,0,1,0,1,1,1,2,0,2,2020_Jan_30_1113,listening_fmri,3.2.4,59.95500125344973,
0,parcelated_audio/34/34_10.ogg,,,,,,,,,0,0,0,0,0,0,0,0,0,0,0,0,,,,,,,,,0,0,0,0,0,9,9,9,,,,,,,,,,,,,,,,,,,,,,,,,,,,,,,,,,,,,,,,,,,,,,,,80.56339734899998,87.69243591199998,,,,,,,,,,,,,,,,,,,,,,,,,,,,,,,,,,,,,,,,,,,,,,,,,,,,,,,,,,,,,,,,,tony_test,0,1,0,1,1,1,2,0,2,2020_Jan_30_1113,listening_fmri,3.2.4,59.95500125344973,
0,parcelated_audio/34/34_11.ogg,,,,,,,,,0,0,0,0,0,0,0,0,0,0,0,0,,,,,,,,,0,0,0,0,0,10,10,10,,,,,,,,,,,,,,,,,,,,,,,,,,,,,,,,,,,,,,,,,,,,,,,,87.69268646200001,91.23803762599997,,,,,,,,,,,,,,,,,,,,,,,,,,,,,,,,,,,,,,,,,,,,,,,,,,,,,,,,,,,,,,,,,tony_test,0,1,0,1,1,1,2,0,2,2020_Jan_30_1113,listening_fmri,3.2.4,59.95500125344973,
0,parcelated_audio/34/34_12.ogg,,,,,,,,,0,0,0,0,0,0,0,0,0,0,0,0,,,,,,,,,0,0,0,0,0,11,11,11,,,,,,,,,,,,,,,,,,,,,,,,,,,,,,,,,,,,,,,,,,,,,,,,91.23831410199998,99.487932513,,,,,,,,,,,,,,,,,,,,,,,,,,,,,,,,,,,,,,,,,,,,,,,,,,,,,,,,,,,,,,,,,tony_test,0,1,0,1,1,1,2,0,2,2020_Jan_30_1113,listening_fmri,3.2.4,59.95500125344973,
0,parcelated_audio/34/34_13.ogg,,,,,,,,,0,0,0,0,0,0,0,0,0,0,0,0,,,,,,,,,0,0,0,0,0,12,12,12,,,,,,,,,,,,,,,,,,,,,,,,,,,,,,,,,,,,,,,,,,,,,,,,99.488309085,103.481682285,,,,,,,,,,,,,,,,,,,,,,,,,,,,,,,,,,,,,,,,,,,,,,,,,,,,,,,,,,,,,,,,,tony_test,0,1,0,1,1,1,2,0,2,2020_Jan_30_1113,listening_fmri,3.2.4,59.95500125344973,
0,parcelated_audio/34/34_14.ogg,,,,,,,,,0,0,0,0,0,0,0,0,0,0,0,0,,,,,,,,,0,0,0,0,0,13,13,13,,,,,,,,,,,,,,,,,,,,,,,,,,,,,,,,,,,,,,,,,,,,,,,,103.48206953899998,108.24376553699997,,,,,,,,,,,,,,,,,,,,,,,,,,,,,,,,,,,,,,,,,,,,,,,,,,,,,,,,,,,,,,,,,tony_test,0,1,0,1,1,1,2,0,2,2020_Jan_30_1113,listening_fmri,3.2.4,59.95500125344973,
0,parcelated_audio/34/34_15.ogg,,,,,,,,,0,0,0,0,0,0,0,0,0,0,0,0,,,,,,,,,0,0,0,0,0,14,14,14,,,,,,,,,,,,,,,,,,,,,,,,,,,,,,,,,,,,,,,,,,,,,,,,108.24406845000001,112.53639923899996,,,,,,,,,,,,,,,,,,,,,,,,,,,,,,,,,,,,,,,,,,,,,,,,,,,,,,,,,,,,,,,,,tony_test,0,1,0,1,1,1,2,0,2,2020_Jan_30_1113,listening_fmri,3.2.4,59.95500125344973,
0,parcelated_audio/34/34_16.ogg,,,,,,,,,0,0,0,0,0,0,0,0,0,0,0,0,,,,,,,,,0,0,0,0,0,15,15,15,,,,,,,,,,,,,,,,,,,,,,,,,,,,,,,,,,,,,,,,,,,,,,,,112.53667290899998,125.65002329399996,,,,,,,,,,,,,,,,,,,,,,,,,,,,,,,,,,,,,,,,,,,,,,,,,,,,,,,,,,,,,,,,,tony_test,0,1,0,1,1,1,2,0,2,2020_Jan_30_1113,listening_fmri,3.2.4,59.95500125344973,
0,parcelated_audio/34/34_17.ogg,,,,,,,,,0,0,0,0,0,0,0,0,0,0,0,0,,,,,,,,,0,0,0,0,0,16,16,16,,,,,,,,,,,,,,,,,,,,,,,,,,,,,,,,,,,,,,,,,,,,,,,,125.65032123,134.699644706,,,,,,,,,,,,,,,,,,,,,,,,,,,,,,,,,,,,,,,,,,,,,,,,,,,,,,,,,,,,,,,,,tony_test,0,1,0,1,1,1,2,0,2,2020_Jan_30_1113,listening_fmri,3.2.4,59.95500125344973,
0,parcelated_audio/34/34_18.ogg,,,,,,,,,0,0,0,0,0,0,0,0,0,0,0,0,,,,,,,,,0,0,0,0,0,17,17,17,,,,,,,,,,,,,,,,,,,,,,,,,,,,,,,,,,,,,,,,,,,,,,,,134.699915226,140.68810608099997,,,,,,,,,,,,,,,,,,,,,,,,,,,,,,,,,,,,,,,,,,,,,,,,,,,,,,,,,,,,,,,,,tony_test,0,1,0,1,1,1,2,0,2,2020_Jan_30_1113,listening_fmri,3.2.4,59.95500125344973,
0,parcelated_audio/34/34_19.ogg,,,,,,,,,0,0,0,0,0,0,0,0,0,0,0,0,,,,,,,,,0,0,0,0,0,18,18,18,,,,,,,,,,,,,,,,,,,,,,,,,,,,,,,,,,,,,,,,,,,,,,,,140.68837790899997,147.018399492,,,,,,,,,,,,,,,,,,,,,,,,,,,,,,,,,,,,,,,,,,,,,,,,,,,,,,,,,,,,,,,,,tony_test,0,1,0,1,1,1,2,0,2,2020_Jan_30_1113,listening_fmri,3.2.4,59.95500125344973,
0,parcelated_audio/34/34_20.ogg,,,,,,,,,0,0,0,0,0,0,0,0,0,0,0,0,,,,,,,,,0,0,0,0,0,19,19,19,,,,,,,,,,,,,,,,,,,,,,,,,,,,,,,,,,,,,,,,,,,,,,,,147.018673184,155.57743802299998,,,,,,,,,,,,,,,,,,,,,,,,,,,,,,,,,,,,,,,,,,,,,,,,,,,,,,,,,,,,,,,,,tony_test,0,1,0,1,1,1,2,0,2,2020_Jan_30_1113,listening_fmri,3.2.4,59.95500125344973,
0,parcelated_audio/34/34_21.ogg,,,,,,,,,0,0,0,0,0,0,0,0,0,0,0,0,,,,,,,,,0,0,0,0,0,20,20,20,,,,,,,,,,,,,,,,,,,,,,,,,,,,,,,,,,,,,,,,,,,,,,,,155.57774261399996,162.04548448199998,,,,,,,,,,,,,,,,,,,,,,,,,,,,,,,,,,,,,,,,,,,,,,,,,,,,,,,,,,,,,,,,,tony_test,0,1,0,1,1,1,2,0,2,2020_Jan_30_1113,listening_fmri,3.2.4,59.95500125344973,
0,parcelated_audio/34/34_22.ogg,,,,,,,,,0,0,0,0,0,0,0,0,0,0,0,0,,,,,,,,,0,0,0,0,0,21,21,21,,,,,,,,,,,,,,,,,,,,,,,,,,,,,,,,,,,,,,,,,,,,,,,,162.04575980799999,167.26668717599998,,,,,,,,,,,,,,,,,,,,,,,,,,,,,,,,,,,,,,,,,,,,,,,,,,,,,,,,,,,,,,,,,tony_test,0,1,0,1,1,1,2,0,2,2020_Jan_30_1113,listening_fmri,3.2.4,59.95500125344973,
0,parcelated_audio/34/34_23.ogg,,,,,,,,,0,0,0,0,0,0,0,0,0,0,0,0,,,,,,,,,0,0,0,0,0,22,22,22,,,,,,,,,,,,,,,,,,,,,,,,,,,,,,,,,,,,,,,,,,,,,,,,167.26695450599996,175.15501611199997,,,,,,,,,,,,,,,,,,,,,,,,,,,,,,,,,,,,,,,,,,,,,,,,,,,,,,,,,,,,,,,,,tony_test,0,1,0,1,1,1,2,0,2,2020_Jan_30_1113,listening_fmri,3.2.4,59.95500125344973,
0,parcelated_audio/34/34_24.ogg,,,,,,,,,0,0,0,0,0,0,0,0,0,0,0,0,,,,,,,,,0,0,0,0,0,23,23,23,,,,,,,,,,,,,,,,,,,,,,,,,,,,,,,,,,,,,,,,,,,,,,,,175.155316655,181.06923632199997,,,,,,,,,,,,,,,,,,,,,,,,,,,,,,,,,,,,,,,,,,,,,,,,,,,,,,,,,,,,,,,,,tony_test,0,1,0,1,1,1,2,0,2,2020_Jan_30_1113,listening_fmri,3.2.4,59.95500125344973,
0,parcelated_audio/34/34_25.ogg,,,,,,,,,0,0,0,0,0,0,0,0,0,0,0,0,,,,,,,,,0,0,0,0,0,24,24,24,,,,,,,,,,,,,,,,,,,,,,,,,,,,,,,,,,,,,,,,,,,,,,,,181.06955836,187.76221191699997,,,,,,,,,,,,,,,,,,,,,,,,,,,,,,,,,,,,,,,,,,,,,,,,,,,,,,,,,,,,,,,,,tony_test,0,1,0,1,1,1,2,0,2,2020_Jan_30_1113,listening_fmri,3.2.4,59.95500125344973,
0,parcelated_audio/34/34_26.ogg,,,,,,,,,0,0,0,0,0,0,0,0,0,0,0,0,,,,,,,,,0,0,0,0,0,25,25,25,,,,,,,,,,,,,,,,,,,,,,,,,,,,,,,,,,,,,,,,,,,,,,,,187.76251194299996,197.52782747299997,,,,,,,,,,,,,,,,,,,,,,,,,,,,,,,,,,,,,,,,,,,,,,,,,,,,,,,,,,,,,,,,,tony_test,0,1,0,1,1,1,2,0,2,2020_Jan_30_1113,listening_fmri,3.2.4,59.95500125344973,
0,parcelated_audio/34/34_27.ogg,,,,,,,,,0,0,0,0,0,0,0,0,0,0,0,0,,,,,,,,,0,0,0,0,0,26,26,26,,,,,,,,,,,,,,,,,,,,,,,,,,,,,,,,,,,,,,,,,,,,,,,,197.52863625,205.13884397999996,,,,,,,,,,,,,,,,,,,,,,,,,,,,,,,,,,,,,,,,,,,,,,,,,,,,,,,,,,,,,,,,,tony_test,0,1,0,1,1,1,2,0,2,2020_Jan_30_1113,listening_fmri,3.2.4,59.95500125344973,
0,,,,,,,,,,0,0,0,0,0,0,0,0,0,0,0,0,,,,,,,,,0,0,0,0,,,,,,,,,,,,,,,,,,,,,,,,,,,,,,,,,,,,,,,,,,,,,,,,,,,,,,,,,,,,,,,,,,,,,,,,,,,,,,,,,,,,,,,,,,,,,,,,,,,,,,,,,,,,,,,,,,,,,,tony_test,0,1,0,1,1,1,2,0,2,2020_Jan_30_1113,listening_fmri,3.2.4,59.95500125344973,
0,,,,,,,,,,0,0,0,0,0,0,0,0,0,0,0,0,,,,,,,,,,,,,,,,,,,,,,,,,,,,,,,,,,,,,,,,,,205.13922001899996,211.128961395,227.680721177,None,,,,,,,,,,,,,,,,,,,,,233.68146391,None,233.68146391,None,,,,,,,,,,,,,,,,,,,,,,,,,,,,,,,,,,,,,,,,,,,,,,,,,,,,,,,,,,,,,tony_test,0,1,0,1,1,1,2,0,2,2020_Jan_30_1113,listening_fmri,3.2.4,59.95500125344973,
0,,,,,,,,,,0,0,0,0,0,0,0,0,,,,,,,,,,,,,,,,,,,,,,,,,,,,,,,,,,,,,,,,,,,,,,,,,,,,,,,,,,,,,,,,,,,,,,,,,,,,,,,,,,,,,,,,,,,,,,,,,,,,,,,,,,,,,,,,,,,,,,,,,,,,,,,,,,,,,,tony_test,0,1,0,1,1,1,2,0,2,2020_Jan_30_1113,listening_fmri,3.2.4,59.95500125344973,
1,parcelated_audio/43/43_1.ogg,,,,,,,,,0,0,0,0,0,1,1,1,0,0,0,0,,,,,,,,,0,0,0,0,0,0,0,0,,,,,,,,,,,,,,,,,,,,,,,,,,,,,,234.68089259200002,None,234.68089259200002,None,space,8.201562342999978,234.68089259200002,None,234.68089259200002,None,242.91427884900003,None,space,1.7072484450000047,242.91427884900003,None,222.102521081,225.112707357,225.117660622,232.80357315899997,,,,,,,,,,,,,,,,,,,,,,,,,,,,,,,,,,,,,,,,,,,,,,,,,,,,,,,,,,,,,,,,,tony_test,0,1,0,1,1,1,2,0,2,2020_Jan_30_1113,listening_fmri,3.2.4,59.95500125344973,
1,parcelated_audio/43/43_2.ogg,,,,,,,,,0,0,0,0,0,1,1,1,0,0,0,0,,,,,,,,,0,0,0,0,0,1,1,1,,,,,,,,,,,,,,,,,,,,,,,,,,,,,,,,,,,,,,,,,,,,,,,,232.803856647,236.67943885999998,,,,,,,,,,,,,,,,,,,,,,,,,,,,,,,,,,,,,,,,,,,,,,,,,,,,,,,,,,,,,,,,,tony_test,0,1,0,1,1,1,2,0,2,2020_Jan_30_1113,listening_fmri,3.2.4,59.95500125344973,
1,parcelated_audio/43/43_3.ogg,,,,,,,,,0,0,0,0,0,1,1,1,0,0,0,0,,,,,,,,,0,0,0,0,0,2,2,2,,,,,,,,,,,,,,,,,,,,,,,,,,,,,,,,,,,,,,,,,,,,,,,,236.67993790699998,245.65812182099998,,,,,,,,,,,,,,,,,,,,,,,,,,,,,,,,,,,,,,,,,,,,,,,,,,,,,,,,,,,,,,,,,tony_test,0,1,0,1,1,1,2,0,2,2020_Jan_30_1113,listening_fmri,3.2.4,59.95500125344973,
1,parcelated_audio/43/43_4.ogg,,,,,,,,,0,0,0,0,0,1,1,1,0,0,0,0,,,,,,,,,0,0,0,0,0,3,3,3,,,,,,,,,,,,,,,,,,,,,,,,,,,,,,,,,,,,,,,,,,,,,,,,245.65885995699998,254.26057962399997,,,,,,,,,,,,,,,,,,,,,,,,,,,,,,,,,,,,,,,,,,,,,,,,,,,,,,,,,,,,,,,,,tony_test,0,1,0,1,1,1,2,0,2,2020_Jan_30_1113,listening_fmri,3.2.4,59.95500125344973,
1,parcelated_audio/43/43_5.ogg,,,,,,,,,0,0,0,0,0,1,1,1,0,0,0,0,,,,,,,,,0,0,0,0,0,4,4,4,,,,,,,,,,,,,,,,,,,,,,,,,,,,,,,,,,,,,,,,,,,,,,,,254.26084950499998,263.619652996,,,,,,,,,,,,,,,,,,,,,,,,,,,,,,,,,,,,,,,,,,,,,,,,,,,,,,,,,,,,,,,,,tony_test,0,1,0,1,1,1,2,0,2,2020_Jan_30_1113,listening_fmri,3.2.4,59.95500125344973,
1,parcelated_audio/43/43_6.ogg,,,,,,,,,0,0,0,0,0,1,1,1,0,0,0,0,,,,,,,,,0,0,0,0,0,5,5,5,,,,,,,,,,,,,,,,,,,,,,,,,,,,,,,,,,,,,,,,,,,,,,,,263.61992085199995,272.776538134,,,,,,,,,,,,,,,,,,,,,,,,,,,,,,,,,,,,,,,,,,,,,,,,,,,,,,,,,,,,,,,,,tony_test,0,1,0,1,1,1,2,0,2,2020_Jan_30_1113,listening_fmri,3.2.4,59.95500125344973,
1,parcelated_audio/43/43_7.ogg,,,,,,,,,0,0,0,0,0,1,1,1,0,0,0,0,,,,,,,,,0,0,0,0,0,6,6,6,,,,,,,,,,,,,,,,,,,,,,,,,,,,,,,,,,,,,,,,,,,,,,,,272.77686766599993,277.635555231,,,,,,,,,,,,,,,,,,,,,,,,,,,,,,,,,,,,,,,,,,,,,,,,,,,,,,,,,,,,,,,,,tony_test,0,1,0,1,1,1,2,0,2,2020_Jan_30_1113,listening_fmri,3.2.4,59.95500125344973,
1,parcelated_audio/43/43_8.ogg,,,,,,,,,0,0,0,0,0,1,1,1,0,0,0,0,,,,,,,,,0,0,0,0,0,7,7,7,,,,,,,,,,,,,,,,,,,,,,,,,,,,,,,,,,,,,,,,,,,,,,,,277.635833153,284.28599347499994,,,,,,,,,,,,,,,,,,,,,,,,,,,,,,,,,,,,,,,,,,,,,,,,,,,,,,,,,,,,,,,,,tony_test,0,1,0,1,1,1,2,0,2,2020_Jan_30_1113,listening_fmri,3.2.4,59.95500125344973,
1,parcelated_audio/43/43_9.ogg,,,,,,,,,0,0,0,0,0,1,1,1,0,0,0,0,,,,,,,,,0,0,0,0,0,8,8,8,,,,,,,,,,,,,,,,,,,,,,,,,,,,,,,,,,,,,,,,,,,,,,,,284.28673727599994,288.92006122500004,,,,,,,,,,,,,,,,,,,,,,,,,,,,,,,,,,,,,,,,,,,,,,,,,,,,,,,,,,,,,,,,,tony_test,0,1,0,1,1,1,2,0,2,2020_Jan_30_1113,listening_fmri,3.2.4,59.95500125344973,
1,parcelated_audio/43/43_10.ogg,,,,,,,,,0,0,0,0,0,1,1,1,0,0,0,0,,,,,,,,,0,0,0,0,0,9,9,9,,,,,,,,,,,,,,,,,,,,,,,,,,,,,,,,,,,,,,,,,,,,,,,,288.920332948,293.89572758400004,,,,,,,,,,,,,,,,,,,,,,,,,,,,,,,,,,,,,,,,,,,,,,,,,,,,,,,,,,,,,,,,,tony_test,0,1,0,1,1,1,2,0,2,2020_Jan_30_1113,listening_fmri,3.2.4,59.95500125344973,
1,parcelated_audio/43/43_11.ogg,,,,,,,,,0,0,0,0,0,1,1,1,0,0,0,0,,,,,,,,,0,0,0,0,0,10,10,10,,,,,,,,,,,,,,,,,,,,,,,,,,,,,,,,,,,,,,,,,,,,,,,,293.89599899199993,305.05815172199993,,,,,,,,,,,,,,,,,,,,,,,,,,,,,,,,,,,,,,,,,,,,,,,,,,,,,,,,,,,,,,,,,tony_test,0,1,0,1,1,1,2,0,2,2020_Jan_30_1113,listening_fmri,3.2.4,59.95500125344973,
1,parcelated_audio/43/43_12.ogg,,,,,,,,,0,0,0,0,0,1,1,1,0,0,0,0,,,,,,,,,0,0,0,0,0,11,11,11,,,,,,,,,,,,,,,,,,,,,,,,,,,,,,,,,,,,,,,,,,,,,,,,305.05918606599994,311.25118512899996,,,,,,,,,,,,,,,,,,,,,,,,,,,,,,,,,,,,,,,,,,,,,,,,,,,,,,,,,,,,,,,,,tony_test,0,1,0,1,1,1,2,0,2,2020_Jan_30_1113,listening_fmri,3.2.4,59.95500125344973,
1,parcelated_audio/43/43_13.ogg,,,,,,,,,0,0,0,0,0,1,1,1,0,0,0,0,,,,,,,,,0,0,0,0,0,12,12,12,,,,,,,,,,,,,,,,,,,,,,,,,,,,,,,,,,,,,,,,,,,,,,,,311.25146070100004,319.59644915399997,,,,,,,,,,,,,,,,,,,,,,,,,,,,,,,,,,,,,,,,,,,,,,,,,,,,,,,,,,,,,,,,,tony_test,0,1,0,1,1,1,2,0,2,2020_Jan_30_1113,listening_fmri,3.2.4,59.95500125344973,
1,parcelated_audio/43/43_14.ogg,,,,,,,,,0,0,0,0,0,1,1,1,0,0,0,0,,,,,,,,,0,0,0,0,0,13,13,13,,,,,,,,,,,,,,,,,,,,,,,,,,,,,,,,,,,,,,,,,,,,,,,,319.596723621,328.25185586099997,,,,,,,,,,,,,,,,,,,,,,,,,,,,,,,,,,,,,,,,,,,,,,,,,,,,,,,,,,,,,,,,,tony_test,0,1,0,1,1,1,2,0,2,2020_Jan_30_1113,listening_fmri,3.2.4,59.95500125344973,
1,parcelated_audio/43/43_15.ogg,,,,,,,,,0,0,0,0,0,1,1,1,0,0,0,0,,,,,,,,,0,0,0,0,0,14,14,14,,,,,,,,,,,,,,,,,,,,,,,,,,,,,,,,,,,,,,,,,,,,,,,,328.25213716099995,332.693518895,,,,,,,,,,,,,,,,,,,,,,,,,,,,,,,,,,,,,,,,,,,,,,,,,,,,,,,,,,,,,,,,,tony_test,0,1,0,1,1,1,2,0,2,2020_Jan_30_1113,listening_fmri,3.2.4,59.95500125344973,
1,parcelated_audio/43/43_16.ogg,,,,,,,,,0,0,0,0,0,1,1,1,0,0,0,0,,,,,,,,,0,0,0,0,0,15,15,15,,,,,,,,,,,,,,,,,,,,,,,,,,,,,,,,,,,,,,,,,,,,,,,,332.69379213799994,337.327997255,,,,,,,,,,,,,,,,,,,,,,,,,,,,,,,,,,,,,,,,,,,,,,,,,,,,,,,,,,,,,,,,,tony_test,0,1,0,1,1,1,2,0,2,2020_Jan_30_1113,listening_fmri,3.2.4,59.95500125344973,
1,parcelated_audio/43/43_17.ogg,,,,,,,,,0,0,0,0,0,1,1,1,0,0,0,0,,,,,,,,,0,0,0,0,0,16,16,16,,,,,,,,,,,,,,,,,,,,,,,,,,,,,,,,,,,,,,,,,,,,,,,,337.32828766299997,341.19406336500003,,,,,,,,,,,,,,,,,,,,,,,,,,,,,,,,,,,,,,,,,,,,,,,,,,,,,,,,,,,,,,,,,tony_test,0,1,0,1,1,1,2,0,2,2020_Jan_30_1113,listening_fmri,3.2.4,59.95500125344973,
1,parcelated_audio/43/43_18.ogg,,,,,,,,,0,0,0,0,0,1,1,1,0,0,0,0,,,,,,,,,0,0,0,0,0,17,17,17,,,,,,,,,,,,,,,,,,,,,,,,,,,,,,,,,,,,,,,,,,,,,,,,341.194796492,343.50317338499997,,,,,,,,,,,,,,,,,,,,,,,,,,,,,,,,,,,,,,,,,,,,,,,,,,,,,,,,,,,,,,,,,tony_test,0,1,0,1,1,1,2,0,2,2020_Jan_30_1113,listening_fmri,3.2.4,59.95500125344973,
1,parcelated_audio/43/43_19.ogg,,,,,,,,,0,0,0,0,0,1,1,1,0,0,0,0,,,,,,,,,0,0,0,0,0,18,18,18,,,,,,,,,,,,,,,,,,,,,,,,,,,,,,,,,,,,,,,,,,,,,,,,343.5034215740001,347.242364113,,,,,,,,,,,,,,,,,,,,,,,,,,,,,,,,,,,,,,,,,,,,,,,,,,,,,,,,,,,,,,,,,tony_test,0,1,0,1,1,1,2,0,2,2020_Jan_30_1113,listening_fmri,3.2.4,59.95500125344973,
1,parcelated_audio/43/43_20.ogg,,,,,,,,,0,0,0,0,0,1,1,1,0,0,0,0,,,,,,,,,0,0,0,0,0,19,19,19,,,,,,,,,,,,,,,,,,,,,,,,,,,,,,,,,,,,,,,,,,,,,,,,347.24304773000006,354.543620596,,,,,,,,,,,,,,,,,,,,,,,,,,,,,,,,,,,,,,,,,,,,,,,,,,,,,,,,,,,,,,,,,tony_test,0,1,0,1,1,1,2,0,2,2020_Jan_30_1113,listening_fmri,3.2.4,59.95500125344973,
1,parcelated_audio/43/43_21.ogg,,,,,,,,,0,0,0,0,0,1,1,1,0,0,0,0,,,,,,,,,0,0,0,0,0,20,20,20,,,,,,,,,,,,,,,,,,,,,,,,,,,,,,,,,,,,,,,,,,,,,,,,354.54389421300004,357.142075761,,,,,,,,,,,,,,,,,,,,,,,,,,,,,,,,,,,,,,,,,,,,,,,,,,,,,,,,,,,,,,,,,tony_test,0,1,0,1,1,1,2,0,2,2020_Jan_30_1113,listening_fmri,3.2.4,59.95500125344973,
1,parcelated_audio/43/43_22.ogg,,,,,,,,,0,0,0,0,0,1,1,1,0,0,0,0,,,,,,,,,0,0,0,0,0,21,21,21,,,,,,,,,,,,,,,,,,,,,,,,,,,,,,,,,,,,,,,,,,,,,,,,357.142380322,360.635901912,,,,,,,,,,,,,,,,,,,,,,,,,,,,,,,,,,,,,,,,,,,,,,,,,,,,,,,,,,,,,,,,,tony_test,0,1,0,1,1,1,2,0,2,2020_Jan_30_1113,listening_fmri,3.2.4,59.95500125344973,
1,parcelated_audio/43/43_23.ogg,,,,,,,,,0,0,0,0,0,1,1,1,0,0,0,0,,,,,,,,,0,0,0,0,0,22,22,22,,,,,,,,,,,,,,,,,,,,,,,,,,,,,,,,,,,,,,,,,,,,,,,,360.63617554000007,366.774133235,,,,,,,,,,,,,,,,,,,,,,,,,,,,,,,,,,,,,,,,,,,,,,,,,,,,,,,,,,,,,,,,,tony_test,0,1,0,1,1,1,2,0,2,2020_Jan_30_1113,listening_fmri,3.2.4,59.95500125344973,
1,parcelated_audio/43/43_24.ogg,,,,,,,,,0,0,0,0,0,1,1,1,0,0,0,0,,,,,,,,,0,0,0,0,0,23,23,23,,,,,,,,,,,,,,,,,,,,,,,,,,,,,,,,,,,,,,,,,,,,,,,,366.774461545,373.20159819599996,,,,,,,,,,,,,,,,,,,,,,,,,,,,,,,,,,,,,,,,,,,,,,,,,,,,,,,,,,,,,,,,,tony_test,0,1,0,1,1,1,2,0,2,2020_Jan_30_1113,listening_fmri,3.2.4,59.95500125344973,
1,parcelated_audio/43/43_25.ogg,,,,,,,,,0,0,0,0,0,1,1,1,0,0,0,0,,,,,,,,,0,0,0,0,0,24,24,24,,,,,,,,,,,,,,,,,,,,,,,,,,,,,,,,,,,,,,,,,,,,,,,,373.20186992699996,378.337312365,,,,,,,,,,,,,,,,,,,,,,,,,,,,,,,,,,,,,,,,,,,,,,,,,,,,,,,,,,,,,,,,,tony_test,0,1,0,1,1,1,2,0,2,2020_Jan_30_1113,listening_fmri,3.2.4,59.95500125344973,
1,parcelated_audio/43/43_26.ogg,,,,,,,,,0,0,0,0,0,1,1,1,0,0,0,0,,,,,,,,,0,0,0,0,0,25,25,25,,,,,,,,,,,,,,,,,,,,,,,,,,,,,,,,,,,,,,,,,,,,,,,,378.33763733500007,387.004483821,,,,,,,,,,,,,,,,,,,,,,,,,,,,,,,,,,,,,,,,,,,,,,,,,,,,,,,,,,,,,,,,,tony_test,0,1,0,1,1,1,2,0,2,2020_Jan_30_1113,listening_fmri,3.2.4,59.95500125344973,
1,parcelated_audio/43/43_27.ogg,,,,,,,,,0,0,0,0,0,1,1,1,0,0,0,0,,,,,,,,,0,0,0,0,0,26,26,26,,,,,,,,,,,,,,,,,,,,,,,,,,,,,,,,,,,,,,,,,,,,,,,,387.00475416899997,391.488759438,,,,,,,,,,,,,,,,,,,,,,,,,,,,,,,,,,,,,,,,,,,,,,,,,,,,,,,,,,,,,,,,,tony_test,0,1,0,1,1,1,2,0,2,2020_Jan_30_1113,listening_fmri,3.2.4,59.95500125344973,
1,parcelated_audio/43/43_28.ogg,,,,,,,,,0,0,0,0,0,1,1,1,0,0,0,0,,,,,,,,,0,0,0,0,0,27,27,27,,,,,,,,,,,,,,,,,,,,,,,,,,,,,,,,,,,,,,,,,,,,,,,,391.489071382,396.572008397,,,,,,,,,,,,,,,,,,,,,,,,,,,,,,,,,,,,,,,,,,,,,,,,,,,,,,,,,,,,,,,,,tony_test,0,1,0,1,1,1,2,0,2,2020_Jan_30_1113,listening_fmri,3.2.4,59.95500125344973,
1,parcelated_audio/43/43_29.ogg,,,,,,,,,0,0,0,0,0,1,1,1,0,0,0,0,,,,,,,,,0,0,0,0,0,28,28,28,,,,,,,,,,,,,,,,,,,,,,,,,,,,,,,,,,,,,,,,,,,,,,,,396.57240482200007,402.80617707500005,,,,,,,,,,,,,,,,,,,,,,,,,,,,,,,,,,,,,,,,,,,,,,,,,,,,,,,,,,,,,,,,,tony_test,0,1,0,1,1,1,2,0,2,2020_Jan_30_1113,listening_fmri,3.2.4,59.95500125344973,
1,,,,,,,,,,0,0,0,0,0,1,1,1,0,0,0,0,,,,,,,,,0,0,0,0,,,,,,,,,,,,,,,,,,,,,,,,,,,,,,,,,,,,,,,,,,,,,,,,,,,,,,,,,,,,,,,,,,,,,,,,,,,,,,,,,,,,,,,,,,,,,,,,,,,,,,,,,,,,,,,,,,,,,,tony_test,0,1,0,1,1,1,2,0,2,2020_Jan_30_1113,listening_fmri,3.2.4,59.95500125344973,
1,,,,,,,,,,0,0,0,0,0,1,1,1,0,0,0,0,,,,,,,,,,,,,,,,,,,,,,,,,,,,,,,,,,,,,,,,,,402.806569522,408.809124375,425.362347319,None,,,,,,,,,,,,,,,,,,,,,431.36134385500003,None,431.36134385500003,None,,,,,,,,,,,,,,,,,,,,,,,,,,,,,,,,,,,,,,,,,,,,,,,,,,,,,,,,,,,,,tony_test,0,1,0,1,1,1,2,0,2,2020_Jan_30_1113,listening_fmri,3.2.4,59.95500125344973,
1,,,,,,,,,,0,0,0,0,0,1,1,1,,,,,,,,,,,,,,,,,,,,,,,,,,,,,,,,,,,,,,,,,,,,,,,,,,,,,,,,,,,,,,,,,,,,,,,,,,,,,,,,,,,,,,,,,,,,,,,,,,,,,,,,,,,,,,,,,,,,,,,,,,,,,,,,,,,,,,tony_test,0,1,0,1,1,1,2,0,2,2020_Jan_30_1113,listening_fmri,3.2.4,59.95500125344973,
2,,,,,,,,,,0,0,0,0,0,2,2,2,0,0,0,0,0,0,0,0,,,,,,,,,,,,,,,,,0,0,0,0,,,,,,,,,,,,,,,,,,,,,,432.37909032400006,None,432.37909032400006,None,space,8.221380388999933,432.37909032400006,None,432.37909032400006,None,,,,,,,,,,,,,,,440.627734344,None,space,0.6062925259999474,440.627734344,None,440.627734344,None,441.293944588,None,441.293944588,None,441.293944588,None,space,0.9859259400000155,441.293944588,None,442.31153026600003,None,space,0.6732927659999177,442.31153026600003,None,442.31153026600003,None,443.112120383,None,443.112120383,None,443.112120383,None,443.112120383,None,443.112120383,None,443.112120383,None,443.112120383,None,,,,,,,,,,,,,,,,,,,,,tony_test,0,1,0,1,1,1,2,0,2,2020_Jan_30_1113,listening_fmri,3.2.4,59.95500125344973,
2,,,,,,,,,,0,0,0,0,0,2,2,2,0,0,0,0,0,0,0,0,,,,,,,,,,,,,,,,,,,,,,,,,,,,,,,,,,,,,,,,,,,,,,,,,,,,,,,,,,,,,,,,,,,,,,,,,,,,,,,,,,,,,,,,,,,,,,,,,,,,,,,,,,456.87792622800004,None,space,4.591189332999988,456.87792622800004,None,456.87792622800004,None,461.51130749500004,None,461.51130749500004,None,461.51130749500004,None,space,2.234292056999948,461.51130749500004,None,,,tony_test,0,1,0,1,1,1,2,0,2,2020_Jan_30_1113,listening_fmri,3.2.4,59.95500125344973,
2,parcelated_audio/32/32_1.ogg,,,,,,,,,0,0,0,0,0,2,2,2,0,0,0,0,,,,,,,,,0,0,0,0,0,0,0,0,,,,,,,,,,,,,,,,,,,,,,,,,,,,,,,,,,,,,,,,463.77790868799997,None,space,1.5727755729999444,463.77790868799997,None,442.84510802700004,445.859805802,445.864961183,457.345978963,,,,,,,,,,,,,,,,,,,,,,,,,,,,,,,,,,,,,,,,,,,,,,,,,,,,,,,,,,,,,,,,,tony_test,0,1,0,1,1,1,2,0,2,2020_Jan_30_1113,listening_fmri,3.2.4,59.95500125344973,
2,parcelated_audio/32/32_2.ogg,,,,,,,,,0,0,0,0,0,2,2,2,0,0,0,0,,,,,,,,,0,0,0,0,0,1,1,1,,,,,,,,,,,,,,,,,,,,,,,,,,,,,,,,,,,,,,,,,,,,,,,,457.347084707,465.788183546,,,,,,,,,,,,,,,,,,,,,,,,,,,,,,,,,,,,,,,,,,,,,,,,,,,,,,,,,,,,,,,,,tony_test,0,1,0,1,1,1,2,0,2,2020_Jan_30_1113,listening_fmri,3.2.4,59.95500125344973,
2,parcelated_audio/32/32_3.ogg,,,,,,,,,0,0,0,0,0,2,2,2,0,0,0,0,,,,,,,,,0,0,0,0,0,2,2,2,,,,,,,,,,,,,,,,,,,,,,,,,,,,,,,,,,,,,,,,,,,,,,,,465.78851355899997,471.45710534500006,,,,,,,,,,,,,,,,,,,,,,,,,,,,,,,,,,,,,,,,,,,,,,,,,,,,,,,,,,,,,,,,,tony_test,0,1,0,1,1,1,2,0,2,2020_Jan_30_1113,listening_fmri,3.2.4,59.95500125344973,
2,parcelated_audio/32/32_4.ogg,,,,,,,,,0,0,0,0,0,2,2,2,0,0,0,0,,,,,,,,,0,0,0,0,0,3,3,3,,,,,,,,,,,,,,,,,,,,,,,,,,,,,,,,,,,,,,,,,,,,,,,,471.457416448,478.26751604900005,,,,,,,,,,,,,,,,,,,,,,,,,,,,,,,,,,,,,,,,,,,,,,,,,,,,,,,,,,,,,,,,,tony_test,0,1,0,1,1,1,2,0,2,2020_Jan_30_1113,listening_fmri,3.2.4,59.95500125344973,
2,parcelated_audio/32/32_5.ogg,,,,,,,,,0,0,0,0,0,2,2,2,0,0,0,0,,,,,,,,,0,0,0,0,0,4,4,4,,,,,,,,,,,,,,,,,,,,,,,,,,,,,,,,,,,,,,,,,,,,,,,,478.26781579,490.07019949200003,,,,,,,,,,,,,,,,,,,,,,,,,,,,,,,,,,,,,,,,,,,,,,,,,,,,,,,,,,,,,,,,,tony_test,0,1,0,1,1,1,2,0,2,2020_Jan_30_1113,listening_fmri,3.2.4,59.95500125344973,
2,parcelated_audio/32/32_6.ogg,,,,,,,,,0,0,0,0,0,2,2,2,0,0,0,0,,,,,,,,,0,0,0,0,0,5,5,5,,,,,,,,,,,,,,,,,,,,,,,,,,,,,,,,,,,,,,,,,,,,,,,,490.070449961,498.66323709900007,,,,,,,,,,,,,,,,,,,,,,,,,,,,,,,,,,,,,,,,,,,,,,,,,,,,,,,,,,,,,,,,,tony_test,0,1,0,1,1,1,2,0,2,2020_Jan_30_1113,listening_fmri,3.2.4,59.95500125344973,
2,parcelated_audio/32/32_7.ogg,,,,,,,,,0,0,0,0,0,2,2,2,0,0,0,0,,,,,,,,,0,0,0,0,0,6,6,6,,,,,,,,,,,,,,,,,,,,,,,,,,,,,,,,,,,,,,,,,,,,,,,,498.66361156100004,502.16668316000005,,,,,,,,,,,,,,,,,,,,,,,,,,,,,,,,,,,,,,,,,,,,,,,,,,,,,,,,,,,,,,,,,tony_test,0,1,0,1,1,1,2,0,2,2020_Jan_30_1113,listening_fmri,3.2.4,59.95500125344973,
2,parcelated_audio/32/32_8.ogg,,,,,,,,,0,0,0,0,0,2,2,2,0,0,0,0,,,,,,,,,0,0,0,0,0,7,7,7,,,,,,,,,,,,,,,,,,,,,,,,,,,,,,,,,,,,,,,,,,,,,,,,502.16695628800005,506.664882949,,,,,,,,,,,,,,,,,,,,,,,,,,,,,,,,,,,,,,,,,,,,,,,,,,,,,,,,,,,,,,,,,tony_test,0,1,0,1,1,1,2,0,2,2020_Jan_30_1113,listening_fmri,3.2.4,59.95500125344973,
2,parcelated_audio/32/32_9.ogg,,,,,,,,,0,0,0,0,0,2,2,2,0,0,0,0,,,,,,,,,0,0,0,0,0,8,8,8,,,,,,,,,,,,,,,,,,,,,,,,,,,,,,,,,,,,,,,,,,,,,,,,506.66517991600006,515.37506332,,,,,,,,,,,,,,,,,,,,,,,,,,,,,,,,,,,,,,,,,,,,,,,,,,,,,,,,,,,,,,,,,tony_test,0,1,0,1,1,1,2,0,2,2020_Jan_30_1113,listening_fmri,3.2.4,59.95500125344973,
2,parcelated_audio/32/32_10.ogg,,,,,,,,,0,0,0,0,0,2,2,2,0,0,0,0,,,,,,,,,0,0,0,0,0,9,9,9,,,,,,,,,,,,,,,,,,,,,,,,,,,,,,,,,,,,,,,,,,,,,,,,515.375378917,520.159869199,,,,,,,,,,,,,,,,,,,,,,,,,,,,,,,,,,,,,,,,,,,,,,,,,,,,,,,,,,,,,,,,,tony_test,0,1,0,1,1,1,2,0,2,2020_Jan_30_1113,listening_fmri,3.2.4,59.95500125344973,
2,parcelated_audio/32/32_11.ogg,,,,,,,,,0,0,0,0,0,2,2,2,0,0,0,0,,,,,,,,,0,0,0,0,0,10,10,10,,,,,,,,,,,,,,,,,,,,,,,,,,,,,,,,,,,,,,,,,,,,,,,,520.160229361,526.352080154,,,,,,,,,,,,,,,,,,,,,,,,,,,,,,,,,,,,,,,,,,,,,,,,,,,,,,,,,,,,,,,,,tony_test,0,1,0,1,1,1,2,0,2,2020_Jan_30_1113,listening_fmri,3.2.4,59.95500125344973,
2,parcelated_audio/32/32_12.ogg,,,,,,,,,0,0,0,0,0,2,2,2,0,0,0,0,,,,,,,,,0,0,0,0,0,11,11,11,,,,,,,,,,,,,,,,,,,,,,,,,,,,,,,,,,,,,,,,,,,,,,,,526.3524534100001,535.917541366,,,,,,,,,,,,,,,,,,,,,,,,,,,,,,,,,,,,,,,,,,,,,,,,,,,,,,,,,,,,,,,,,tony_test,0,1,0,1,1,1,2,0,2,2020_Jan_30_1113,listening_fmri,3.2.4,59.95500125344973,
2,parcelated_audio/32/32_13.ogg,,,,,,,,,0,0,0,0,0,2,2,2,0,0,0,0,,,,,,,,,0,0,0,0,0,12,12,12,,,,,,,,,,,,,,,,,,,,,,,,,,,,,,,,,,,,,,,,,,,,,,,,535.917812127,545.629627888,,,,,,,,,,,,,,,,,,,,,,,,,,,,,,,,,,,,,,,,,,,,,,,,,,,,,,,,,,,,,,,,,tony_test,0,1,0,1,1,1,2,0,2,2020_Jan_30_1113,listening_fmri,3.2.4,59.95500125344973,
2,parcelated_audio/32/32_14.ogg,,,,,,,,,0,0,0,0,0,2,2,2,0,0,0,0,,,,,,,,,0,0,0,0,0,13,13,13,,,,,,,,,,,,,,,,,,,,,,,,,,,,,,,,,,,,,,,,,,,,,,,,545.629901195,553.827709887,,,,,,,,,,,,,,,,,,,,,,,,,,,,,,,,,,,,,,,,,,,,,,,,,,,,,,,,,,,,,,,,,tony_test,0,1,0,1,1,1,2,0,2,2020_Jan_30_1113,listening_fmri,3.2.4,59.95500125344973,
2,parcelated_audio/32/32_15.ogg,,,,,,,,,0,0,0,0,0,2,2,2,0,0,0,0,,,,,,,,,0,0,0,0,0,14,14,14,,,,,,,,,,,,,,,,,,,,,,,,,,,,,,,,,,,,,,,,,,,,,,,,553.827977903,560.818626244,,,,,,,,,,,,,,,,,,,,,,,,,,,,,,,,,,,,,,,,,,,,,,,,,,,,,,,,,,,,,,,,,tony_test,0,1,0,1,1,1,2,0,2,2020_Jan_30_1113,listening_fmri,3.2.4,59.95500125344973,
2,parcelated_audio/32/32_16.ogg,,,,,,,,,0,0,0,0,0,2,2,2,0,0,0,0,,,,,,,,,0,0,0,0,0,15,15,15,,,,,,,,,,,,,,,,,,,,,,,,,,,,,,,,,,,,,,,,,,,,,,,,560.818897568,568.548983624,,,,,,,,,,,,,,,,,,,,,,,,,,,,,,,,,,,,,,,,,,,,,,,,,,,,,,,,,,,,,,,,,tony_test,0,1,0,1,1,1,2,0,2,2020_Jan_30_1113,listening_fmri,3.2.4,59.95500125344973,
2,parcelated_audio/32/32_17.ogg,,,,,,,,,0,0,0,0,0,2,2,2,0,0,0,0,,,,,,,,,0,0,0,0,0,16,16,16,,,,,,,,,,,,,,,,,,,,,,,,,,,,,,,,,,,,,,,,,,,,,,,,568.549254335,576.958847416,,,,,,,,,,,,,,,,,,,,,,,,,,,,,,,,,,,,,,,,,,,,,,,,,,,,,,,,,,,,,,,,,tony_test,0,1,0,1,1,1,2,0,2,2020_Jan_30_1113,listening_fmri,3.2.4,59.95500125344973,
2,parcelated_audio/32/32_18.ogg,,,,,,,,,0,0,0,0,0,2,2,2,0,0,0,0,,,,,,,,,0,0,0,0,0,17,17,17,,,,,,,,,,,,,,,,,,,,,,,,,,,,,,,,,,,,,,,,,,,,,,,,576.959127825,581.369092814,,,,,,,,,,,,,,,,,,,,,,,,,,,,,,,,,,,,,,,,,,,,,,,,,,,,,,,,,,,,,,,,,tony_test,0,1,0,1,1,1,2,0,2,2020_Jan_30_1113,listening_fmri,3.2.4,59.95500125344973,
2,parcelated_audio/32/32_19.ogg,,,,,,,,,0,0,0,0,0,2,2,2,0,0,0,0,,,,,,,,,0,0,0,0,0,18,18,18,,,,,,,,,,,,,,,,,,,,,,,,,,,,,,,,,,,,,,,,,,,,,,,,581.369661221,589.523312271,,,,,,,,,,,,,,,,,,,,,,,,,,,,,,,,,,,,,,,,,,,,,,,,,,,,,,,,,,,,,,,,,tony_test,0,1,0,1,1,1,2,0,2,2020_Jan_30_1113,listening_fmri,3.2.4,59.95500125344973,
2,parcelated_audio/32/32_20.ogg,,,,,,,,,0,0,0,0,0,2,2,2,0,0,0,0,,,,,,,,,0,0,0,0,0,19,19,19,,,,,,,,,,,,,,,,,,,,,,,,,,,,,,,,,,,,,,,,,,,,,,,,589.523580381,600.537075193,,,,,,,,,,,,,,,,,,,,,,,,,,,,,,,,,,,,,,,,,,,,,,,,,,,,,,,,,,,,,,,,,tony_test,0,1,0,1,1,1,2,0,2,2020_Jan_30_1113,listening_fmri,3.2.4,59.95500125344973,
2,parcelated_audio/32/32_21.ogg,,,,,,,,,0,0,0,0,0,2,2,2,0,0,0,0,,,,,,,,,0,0,0,0,0,20,20,20,,,,,,,,,,,,,,,,,,,,,,,,,,,,,,,,,,,,,,,,,,,,,,,,600.53745397,609.512859205,,,,,,,,,,,,,,,,,,,,,,,,,,,,,,,,,,,,,,,,,,,,,,,,,,,,,,,,,,,,,,,,,tony_test,0,1,0,1,1,1,2,0,2,2020_Jan_30_1113,listening_fmri,3.2.4,59.95500125344973,
2,parcelated_audio/32/32_22.ogg,,,,,,,,,0,0,0,0,0,2,2,2,0,0,0,0,,,,,,,,,0,0,0,0,0,21,21,21,,,,,,,,,,,,,,,,,,,,,,,,,,,,,,,,,,,,,,,,,,,,,,,,609.513170481,623.651023634,,,,,,,,,,,,,,,,,,,,,,,,,,,,,,,,,,,,,,,,,,,,,,,,,,,,,,,,,,,,,,,,,tony_test,0,1,0,1,1,1,2,0,2,2020_Jan_30_1113,listening_fmri,3.2.4,59.95500125344973,
2,parcelated_audio/32/32_23.ogg,,,,,,,,,0,0,0,0,0,2,2,2,0,0,0,0,,,,,,,,,0,0,0,0,0,22,22,22,,,,,,,,,,,,,,,,,,,,,,,,,,,,,,,,,,,,,,,,,,,,,,,,623.651323817,632.808134326,,,,,,,,,,,,,,,,,,,,,,,,,,,,,,,,,,,,,,,,,,,,,,,,,,,,,,,,,,,,,,,,,tony_test,0,1,0,1,1,1,2,0,2,2020_Jan_30_1113,listening_fmri,3.2.4,59.95500125344973,
2,parcelated_audio/32/32_24.ogg,,,,,,,,,0,0,0,0,0,2,2,2,0,0,0,0,,,,,,,,,0,0,0,0,0,23,23,23,,,,,,,,,,,,,,,,,,,,,,,,,,,,,,,,,,,,,,,,,,,,,,,,632.808404868,644.226495083,,,,,,,,,,,,,,,,,,,,,,,,,,,,,,,,,,,,,,,,,,,,,,,,,,,,,,,,,,,,,,,,,tony_test,0,1,0,1,1,1,2,0,2,2020_Jan_30_1113,listening_fmri,3.2.4,59.95500125344973,
2,parcelated_audio/32/32_25.ogg,,,,,,,,,0,0,0,0,0,2,2,2,0,0,0,0,,,,,,,,,0,0,0,0,0,24,24,24,,,,,,,,,,,,,,,,,,,,,,,,,,,,,,,,,,,,,,,,,,,,,,,,644.226860865,650.398159584,,,,,,,,,,,,,,,,,,,,,,,,,,,,,,,,,,,,,,,,,,,,,,,,,,,,,,,,,,,,,,,,,tony_test,0,1,0,1,1,1,2,0,2,2020_Jan_30_1113,listening_fmri,3.2.4,59.95500125344973,
2,parcelated_audio/32/32_26.ogg,,,,,,,,,0,0,0,0,0,2,2,2,0,0,0,0,,,,,,,,,0,0,0,0,0,25,25,25,,,,,,,,,,,,,,,,,,,,,,,,,,,,,,,,,,,,,,,,,,,,,,,,650.3984757000001,663.87538657,,,,,,,,,,,,,,,,,,,,,,,,,,,,,,,,,,,,,,,,,,,,,,,,,,,,,,,,,,,,,,,,,tony_test,0,1,0,1,1,1,2,0,2,2020_Jan_30_1113,listening_fmri,3.2.4,59.95500125344973,
2,parcelated_audio/32/32_27.ogg,,,,,,,,,0,0,0,0,0,2,2,2,0,0,0,0,,,,,,,,,0,0,0,0,0,26,26,26,,,,,,,,,,,,,,,,,,,,,,,,,,,,,,,,,,,,,,,,,,,,,,,,663.8756606320001,670.94170546,,,,,,,,,,,,,,,,,,,,,,,,,,,,,,,,,,,,,,,,,,,,,,,,,,,,,,,,,,,,,,,,,tony_test,0,1,0,1,1,1,2,0,2,2020_Jan_30_1113,listening_fmri,3.2.4,59.95500125344973,
2,parcelated_audio/32/32_28.ogg,,,,,,,,,0,0,0,0,0,2,2,2,0,0,0,0,,,,,,,,,0,0,0,0,0,27,27,27,,,,,,,,,,,,,,,,,,,,,,,,,,,,,,,,,,,,,,,,,,,,,,,,670.941974318,677.752528529,,,,,,,,,,,,,,,,,,,,,,,,,,,,,,,,,,,,,,,,,,,,,,,,,,,,,,,,,,,,,,,,,tony_test,0,1,0,1,1,1,2,0,2,2020_Jan_30_1113,listening_fmri,3.2.4,59.95500125344973,
2,parcelated_audio/32/32_29.ogg,,,,,,,,,0,0,0,0,0,2,2,2,0,0,0,0,,,,,,,,,0,0,0,0,0,28,28,28,,,,,,,,,,,,,,,,,,,,,,,,,,,,,,,,,,,,,,,,,,,,,,,,677.752862694,680.5096204060001,,,,,,,,,,,,,,,,,,,,,,,,,,,,,,,,,,,,,,,,,,,,,,,,,,,,,,,,,,,,,,,,,tony_test,0,1,0,1,1,1,2,0,2,2020_Jan_30_1113,listening_fmri,3.2.4,59.95500125344973,
2,parcelated_audio/32/32_30.ogg,,,,,,,,,0,0,0,0,0,2,2,2,0,0,0,0,,,,,,,,,0,0,0,0,0,29,29,29,,,,,,,,,,,,,,,,,,,,,,,,,,,,,,,,,,,,,,,,,,,,,,,,680.509921114,687.6647214660001,,,,,,,,,,,,,,,,,,,,,,,,,,,,,,,,,,,,,,,,,,,,,,,,,,,,,,,,,,,,,,,,,tony_test,0,1,0,1,1,1,2,0,2,2020_Jan_30_1113,listening_fmri,3.2.4,59.95500125344973,
2,parcelated_audio/32/32_31.ogg,,,,,,,,,0,0,0,0,0,2,2,2,0,0,0,0,,,,,,,,,0,0,0,0,0,30,30,30,,,,,,,,,,,,,,,,,,,,,,,,,,,,,,,,,,,,,,,,,,,,,,,,687.665191717,694.026600509,,,,,,,,,,,,,,,,,,,,,,,,,,,,,,,,,,,,,,,,,,,,,,,,,,,,,,,,,,,,,,,,,tony_test,0,1,0,1,1,1,2,0,2,2020_Jan_30_1113,listening_fmri,3.2.4,59.95500125344973,
2,parcelated_audio/32/32_32.ogg,,,,,,,,,0,0,0,0,0,2,2,2,0,0,0,0,,,,,,,,,0,0,0,0,0,31,31,31,,,,,,,,,,,,,,,,,,,,,,,,,,,,,,,,,,,,,,,,,,,,,,,,694.026869987,703.769783166,,,,,,,,,,,,,,,,,,,,,,,,,,,,,,,,,,,,,,,,,,,,,,,,,,,,,,,,,,,,,,,,,tony_test,0,1,0,1,1,1,2,0,2,2020_Jan_30_1113,listening_fmri,3.2.4,59.95500125344973,
2,parcelated_audio/32/32_33.ogg,,,,,,,,,0,0,0,0,0,2,2,2,0,0,0,0,,,,,,,,,0,0,0,0,0,32,32,32,,,,,,,,,,,,,,,,,,,,,,,,,,,,,,,,,,,,,,,,,,,,,,,,703.770107111,709.631139532,,,,,,,,,,,,,,,,,,,,,,,,,,,,,,,,,,,,,,,,,,,,,,,,,,,,,,,,,,,,,,,,,tony_test,0,1,0,1,1,1,2,0,2,2020_Jan_30_1113,listening_fmri,3.2.4,59.95500125344973,
2,,,,,,,,,,0,0,0,0,0,2,2,2,0,0,0,0,,,,,,,,,0,0,0,0,,,,,,,,,,,,,,,,,,,,,,,,,,,,,,,,,,,,,,,,,,,,,,,,,,,,,,,,,,,,,,,,,,,,,,,,,,,,,,,,,,,,,,,,,,,,,,,,,,,,,,,,,,,,,,,,,,,,,,tony_test,0,1,0,1,1,1,2,0,2,2020_Jan_30_1113,listening_fmri,3.2.4,59.95500125344973,
2,,,,,,,,,,0,0,0,0,0,2,2,2,0,0,0,0,,,,,,,,,,,,,,,,,,,,,,,,,,,,,,,,,,,,,,,,,,709.631486721,715.621716041,732.1736726030001,None,,,,,,,,,,,,,,,,,,,,,738.1740204160001,None,738.1740204160001,None,,,,,,,,,,,,,,,,,,,,,,,,,,,,,,,,,,,,,,,,,,,,,,,,,,,,,,,,,,,,,tony_test,0,1,0,1,1,1,2,0,2,2020_Jan_30_1113,listening_fmri,3.2.4,59.95500125344973,
2,,,,,,,,,,0,0,0,0,0,2,2,2,,,,,,,,,,,,,,,,,,,,,,,,,,,,,,,,,,,,,,,,,,,,,,,,,,,,,,,,,,,,,,,,,,,,,,,,,,,,,,,,,,,,,,,,,,,,,,,,,,,,,,,,,,,,,,,,,,,,,,,,,,,,,,,,,,,,,,tony_test,0,1,0,1,1,1,2,0,2,2020_Jan_30_1113,listening_fmri,3.2.4,59.95500125344973,
3,,,,,,,,,,0,0,0,0,0,3,3,3,0,0,0,0,0,0,0,0,,,,,,,,,,,,,,,,,0,0,0,0,,,,,,,,,,,,,,,,,,,,,,739.1905368340001,None,739.1905368340001,None,space,1.2662627720000046,739.1905368340001,None,739.1905368340001,None,,,,,,,,,,,,,,,740.473421553,None,space,2.6740509759999895,740.473421553,None,740.473421553,None,743.1904478700001,None,743.1904478700001,None,743.1904478700001,None,space,1.096017034000056,743.1904478700001,None,744.30625814,None,space,0.76202388899992,744.30625814,None,744.30625814,None,745.157204069,None,745.157204069,None,745.157204069,None,745.157204069,None,745.157204069,None,745.157204069,None,745.157204069,None,,,,,,,,,,,,,,,,,,,,,tony_test,0,1,0,1,1,1,2,0,2,2020_Jan_30_1113,listening_fmri,3.2.4,59.95500125344973,
3,,,,,,,,,,0,0,0,0,0,3,3,3,0,0,0,0,0,0,0,0,,,,,,,,,,,,,,,,,,,,,,,,,,,,,,,,,,,,,,,,,,,,,,,,,,,,,,,,,,,,,,,,,,,,,,,,,,,,,,,,,,,,,,,,,,,,,,,,,,,,,,,,,,756.3396904599999,None,space,1.2062275140000338,756.3396904599999,None,756.3396904599999,None,757.5901792459999,None,757.5901792459999,None,757.5901792459999,None,space,1.2076573200000666,757.5901792459999,None,,,tony_test,0,1,0,1,1,1,2,0,2,2020_Jan_30_1113,listening_fmri,3.2.4,59.95500125344973,
3,parcelated_audio/41/41_1.ogg,,,,,,,,,0,0,0,0,0,3,3,3,0,0,0,0,,,,,,,,,0,0,0,0,0,0,0,0,,,,,,,,,,,,,,,,,,,,,,,,,,,,,,,,,,,,,,,,758.822409466,None,space,3.541296279999983,758.822409466,None,739.849457442,742.8555121200001,742.861008295,752.082450772,,,,,,,,,,,,,,,,,,,,,,,,,,,,,,,,,,,,,,,,,,,,,,,,,,,,,,,,,,,,,,,,,tony_test,0,1,0,1,1,1,2,0,2,2020_Jan_30_1113,listening_fmri,3.2.4,59.95500125344973,
3,parcelated_audio/41/41_2.ogg,,,,,,,,,0,0,0,0,0,3,3,3,0,0,0,0,,,,,,,,,0,0,0,0,0,1,1,1,,,,,,,,,,,,,,,,,,,,,,,,,,,,,,,,,,,,,,,,,,,,,,,,752.082722622,759.448953892,,,,,,,,,,,,,,,,,,,,,,,,,,,,,,,,,,,,,,,,,,,,,,,,,,,,,,,,,,,,,,,,,tony_test,0,1,0,1,1,1,2,0,2,2020_Jan_30_1113,listening_fmri,3.2.4,59.95500125344973,
3,parcelated_audio/41/41_3.ogg,,,,,,,,,0,0,0,0,0,3,3,3,0,0,0,0,,,,,,,,,0,0,0,0,0,2,2,2,,,,,,,,,,,,,,,,,,,,,,,,,,,,,,,,,,,,,,,,,,,,,,,,759.449809617,763.837596586,,,,,,,,,,,,,,,,,,,,,,,,,,,,,,,,,,,,,,,,,,,,,,,,,,,,,,,,,,,,,,,,,tony_test,0,1,0,1,1,1,2,0,2,2020_Jan_30_1113,listening_fmri,3.2.4,59.95500125344973,
3,parcelated_audio/41/41_4.ogg,,,,,,,,,0,0,0,0,0,3,3,3,0,0,0,0,,,,,,,,,0,0,0,0,0,3,3,3,,,,,,,,,,,,,,,,,,,,,,,,,,,,,,,,,,,,,,,,,,,,,,,,763.8379252020001,767.906620638,,,,,,,,,,,,,,,,,,,,,,,,,,,,,,,,,,,,,,,,,,,,,,,,,,,,,,,,,,,,,,,,,tony_test,0,1,0,1,1,1,2,0,2,2020_Jan_30_1113,listening_fmri,3.2.4,59.95500125344973,
3,parcelated_audio/41/41_5.ogg,,,,,,,,,0,0,0,0,0,3,3,3,0,0,0,0,,,,,,,,,0,0,0,0,0,4,4,4,,,,,,,,,,,,,,,,,,,,,,,,,,,,,,,,,,,,,,,,,,,,,,,,767.906938553,774.14062243,,,,,,,,,,,,,,,,,,,,,,,,,,,,,,,,,,,,,,,,,,,,,,,,,,,,,,,,,,,,,,,,,tony_test,0,1,0,1,1,1,2,0,2,2020_Jan_30_1113,listening_fmri,3.2.4,59.95500125344973,
3,parcelated_audio/41/41_6.ogg,,,,,,,,,0,0,0,0,0,3,3,3,0,0,0,0,,,,,,,,,0,0,0,0,0,5,5,5,,,,,,,,,,,,,,,,,,,,,,,,,,,,,,,,,,,,,,,,,,,,,,,,774.140924486,784.171627725,,,,,,,,,,,,,,,,,,,,,,,,,,,,,,,,,,,,,,,,,,,,,,,,,,,,,,,,,,,,,,,,,tony_test,0,1,0,1,1,1,2,0,2,2020_Jan_30_1113,listening_fmri,3.2.4,59.95500125344973,
3,parcelated_audio/41/41_7.ogg,,,,,,,,,0,0,0,0,0,3,3,3,0,0,0,0,,,,,,,,,0,0,0,0,0,6,6,6,,,,,,,,,,,,,,,,,,,,,,,,,,,,,,,,,,,,,,,,,,,,,,,,784.171908032,791.9314181450001,,,,,,,,,,,,,,,,,,,,,,,,,,,,,,,,,,,,,,,,,,,,,,,,,,,,,,,,,,,,,,,,,tony_test,0,1,0,1,1,1,2,0,2,2020_Jan_30_1113,listening_fmri,3.2.4,59.95500125344973,
3,parcelated_audio/41/41_8.ogg,,,,,,,,,0,0,0,0,0,3,3,3,0,0,0,0,,,,,,,,,0,0,0,0,0,7,7,7,,,,,,,,,,,,,,,,,,,,,,,,,,,,,,,,,,,,,,,,,,,,,,,,791.931690108,796.27758311,,,,,,,,,,,,,,,,,,,,,,,,,,,,,,,,,,,,,,,,,,,,,,,,,,,,,,,,,,,,,,,,,tony_test,0,1,0,1,1,1,2,0,2,2020_Jan_30_1113,listening_fmri,3.2.4,59.95500125344973,
3,parcelated_audio/41/41_9.ogg,,,,,,,,,0,0,0,0,0,3,3,3,0,0,0,0,,,,,,,,,0,0,0,0,0,8,8,8,,,,,,,,,,,,,,,,,,,,,,,,,,,,,,,,,,,,,,,,,,,,,,,,796.277968654,806.032145687,,,,,,,,,,,,,,,,,,,,,,,,,,,,,,,,,,,,,,,,,,,,,,,,,,,,,,,,,,,,,,,,,tony_test,0,1,0,1,1,1,2,0,2,2020_Jan_30_1113,listening_fmri,3.2.4,59.95500125344973,
3,parcelated_audio/41/41_10.ogg,,,,,,,,,0,0,0,0,0,3,3,3,0,0,0,0,,,,,,,,,0,0,0,0,0,9,9,9,,,,,,,,,,,,,,,,,,,,,,,,,,,,,,,,,,,,,,,,,,,,,,,,806.032495459,812.662251547,,,,,,,,,,,,,,,,,,,,,,,,,,,,,,,,,,,,,,,,,,,,,,,,,,,,,,,,,,,,,,,,,tony_test,0,1,0,1,1,1,2,0,2,2020_Jan_30_1113,listening_fmri,3.2.4,59.95500125344973,
3,parcelated_audio/41/41_11.ogg,,,,,,,,,0,0,0,0,0,3,3,3,0,0,0,0,,,,,,,,,0,0,0,0,0,10,10,10,,,,,,,,,,,,,,,,,,,,,,,,,,,,,,,,,,,,,,,,,,,,,,,,812.662520729,816.562246111,,,,,,,,,,,,,,,,,,,,,,,,,,,,,,,,,,,,,,,,,,,,,,,,,,,,,,,,,,,,,,,,,tony_test,0,1,0,1,1,1,2,0,2,2020_Jan_30_1113,listening_fmri,3.2.4,59.95500125344973,
3,parcelated_audio/41/41_12.ogg,,,,,,,,,0,0,0,0,0,3,3,3,0,0,0,0,,,,,,,,,0,0,0,0,0,11,11,11,,,,,,,,,,,,,,,,,,,,,,,,,,,,,,,,,,,,,,,,,,,,,,,,816.562517283,826.413558666,,,,,,,,,,,,,,,,,,,,,,,,,,,,,,,,,,,,,,,,,,,,,,,,,,,,,,,,,,,,,,,,,tony_test,0,1,0,1,1,1,2,0,2,2020_Jan_30_1113,listening_fmri,3.2.4,59.95500125344973,
3,parcelated_audio/41/41_13.ogg,,,,,,,,,0,0,0,0,0,3,3,3,0,0,0,0,,,,,,,,,0,0,0,0,0,12,12,12,,,,,,,,,,,,,,,,,,,,,,,,,,,,,,,,,,,,,,,,,,,,,,,,826.41382946,832.348848065,,,,,,,,,,,,,,,,,,,,,,,,,,,,,,,,,,,,,,,,,,,,,,,,,,,,,,,,,,,,,,,,,tony_test,0,1,0,1,1,1,2,0,2,2020_Jan_30_1113,listening_fmri,3.2.4,59.95500125344973,
3,parcelated_audio/41/41_14.ogg,,,,,,,,,0,0,0,0,0,3,3,3,0,0,0,0,,,,,,,,,0,0,0,0,0,13,13,13,,,,,,,,,,,,,,,,,,,,,,,,,,,,,,,,,,,,,,,,,,,,,,,,832.349117459,839.715342179,,,,,,,,,,,,,,,,,,,,,,,,,,,,,,,,,,,,,,,,,,,,,,,,,,,,,,,,,,,,,,,,,tony_test,0,1,0,1,1,1,2,0,2,2020_Jan_30_1113,listening_fmri,3.2.4,59.95500125344973,
3,parcelated_audio/41/41_15.ogg,,,,,,,,,0,0,0,0,0,3,3,3,0,0,0,0,,,,,,,,,0,0,0,0,0,14,14,14,,,,,,,,,,,,,,,,,,,,,,,,,,,,,,,,,,,,,,,,,,,,,,,,839.717594634,843.267934933,,,,,,,,,,,,,,,,,,,,,,,,,,,,,,,,,,,,,,,,,,,,,,,,,,,,,,,,,,,,,,,,,tony_test,0,1,0,1,1,1,2,0,2,2020_Jan_30_1113,listening_fmri,3.2.4,59.95500125344973,
3,parcelated_audio/41/41_16.ogg,,,,,,,,,0,0,0,0,0,3,3,3,0,0,0,0,,,,,,,,,0,0,0,0,0,15,15,15,,,,,,,,,,,,,,,,,,,,,,,,,,,,,,,,,,,,,,,,,,,,,,,,843.268206859,848.2325593310001,,,,,,,,,,,,,,,,,,,,,,,,,,,,,,,,,,,,,,,,,,,,,,,,,,,,,,,,,,,,,,,,,tony_test,0,1,0,1,1,1,2,0,2,2020_Jan_30_1113,listening_fmri,3.2.4,59.95500125344973,
3,parcelated_audio/41/41_17.ogg,,,,,,,,,0,0,0,0,0,3,3,3,0,0,0,0,,,,,,,,,0,0,0,0,0,16,16,16,,,,,,,,,,,,,,,,,,,,,,,,,,,,,,,,,,,,,,,,,,,,,,,,848.23282915,852.5256599630001,,,,,,,,,,,,,,,,,,,,,,,,,,,,,,,,,,,,,,,,,,,,,,,,,,,,,,,,,,,,,,,,,tony_test,0,1,0,1,1,1,2,0,2,2020_Jan_30_1113,listening_fmri,3.2.4,59.95500125344973,
3,parcelated_audio/41/41_18.ogg,,,,,,,,,0,0,0,0,0,3,3,3,0,0,0,0,,,,,,,,,0,0,0,0,0,17,17,17,,,,,,,,,,,,,,,,,,,,,,,,,,,,,,,,,,,,,,,,,,,,,,,,852.525965977,855.1644755579999,,,,,,,,,,,,,,,,,,,,,,,,,,,,,,,,,,,,,,,,,,,,,,,,,,,,,,,,,,,,,,,,,tony_test,0,1,0,1,1,1,2,0,2,2020_Jan_30_1113,listening_fmri,3.2.4,59.95500125344973,
3,parcelated_audio/41/41_19.ogg,,,,,,,,,0,0,0,0,0,3,3,3,0,0,0,0,,,,,,,,,0,0,0,0,0,18,18,18,,,,,,,,,,,,,,,,,,,,,,,,,,,,,,,,,,,,,,,,,,,,,,,,855.1649024889999,862.166303246,,,,,,,,,,,,,,,,,,,,,,,,,,,,,,,,,,,,,,,,,,,,,,,,,,,,,,,,,,,,,,,,,tony_test,0,1,0,1,1,1,2,0,2,2020_Jan_30_1113,listening_fmri,3.2.4,59.95500125344973,
3,parcelated_audio/41/41_20.ogg,,,,,,,,,0,0,0,0,0,3,3,3,0,0,0,0,,,,,,,,,0,0,0,0,0,19,19,19,,,,,,,,,,,,,,,,,,,,,,,,,,,,,,,,,,,,,,,,,,,,,,,,862.1665809530001,867.2045668889999,,,,,,,,,,,,,,,,,,,,,,,,,,,,,,,,,,,,,,,,,,,,,,,,,,,,,,,,,,,,,,,,,tony_test,0,1,0,1,1,1,2,0,2,2020_Jan_30_1113,listening_fmri,3.2.4,59.95500125344973,
3,parcelated_audio/41/41_21.ogg,,,,,,,,,0,0,0,0,0,3,3,3,0,0,0,0,,,,,,,,,0,0,0,0,0,20,20,20,,,,,,,,,,,,,,,,,,,,,,,,,,,,,,,,,,,,,,,,,,,,,,,,867.2051590760001,875.1262760850001,,,,,,,,,,,,,,,,,,,,,,,,,,,,,,,,,,,,,,,,,,,,,,,,,,,,,,,,,,,,,,,,,tony_test,0,1,0,1,1,1,2,0,2,2020_Jan_30_1113,listening_fmri,3.2.4,59.95500125344973,
3,parcelated_audio/41/41_22.ogg,,,,,,,,,0,0,0,0,0,3,3,3,0,0,0,0,,,,,,,,,0,0,0,0,0,21,21,21,,,,,,,,,,,,,,,,,,,,,,,,,,,,,,,,,,,,,,,,,,,,,,,,875.127183296,891.0247491870001,,,,,,,,,,,,,,,,,,,,,,,,,,,,,,,,,,,,,,,,,,,,,,,,,,,,,,,,,,,,,,,,,tony_test,0,1,0,1,1,1,2,0,2,2020_Jan_30_1113,listening_fmri,3.2.4,59.95500125344973,
3,parcelated_audio/41/41_23.ogg,,,,,,,,,0,0,0,0,0,3,3,3,0,0,0,0,,,,,,,,,0,0,0,0,0,22,22,22,,,,,,,,,,,,,,,,,,,,,,,,,,,,,,,,,,,,,,,,,,,,,,,,891.025020806,897.0460250689999,,,,,,,,,,,,,,,,,,,,,,,,,,,,,,,,,,,,,,,,,,,,,,,,,,,,,,,,,,,,,,,,,tony_test,0,1,0,1,1,1,2,0,2,2020_Jan_30_1113,listening_fmri,3.2.4,59.95500125344973,
3,parcelated_audio/41/41_24.ogg,,,,,,,,,0,0,0,0,0,3,3,3,0,0,0,0,,,,,,,,,0,0,0,0,0,23,23,23,,,,,,,,,,,,,,,,,,,,,,,,,,,,,,,,,,,,,,,,,,,,,,,,897.0462993699999,903.8223380430001,,,,,,,,,,,,,,,,,,,,,,,,,,,,,,,,,,,,,,,,,,,,,,,,,,,,,,,,,,,,,,,,,tony_test,0,1,0,1,1,1,2,0,2,2020_Jan_30_1113,listening_fmri,3.2.4,59.95500125344973,
3,parcelated_audio/41/41_25.ogg,,,,,,,,,0,0,0,0,0,3,3,3,0,0,0,0,,,,,,,,,0,0,0,0,0,24,24,24,,,,,,,,,,,,,,,,,,,,,,,,,,,,,,,,,,,,,,,,,,,,,,,,903.822698238,907.186536047,,,,,,,,,,,,,,,,,,,,,,,,,,,,,,,,,,,,,,,,,,,,,,,,,,,,,,,,,,,,,,,,,tony_test,0,1,0,1,1,1,2,0,2,2020_Jan_30_1113,listening_fmri,3.2.4,59.95500125344973,
3,parcelated_audio/41/41_26.ogg,,,,,,,,,0,0,0,0,0,3,3,3,0,0,0,0,,,,,,,,,0,0,0,0,0,25,25,25,,,,,,,,,,,,,,,,,,,,,,,,,,,,,,,,,,,,,,,,,,,,,,,,907.186960231,912.8232756860001,,,,,,,,,,,,,,,,,,,,,,,,,,,,,,,,,,,,,,,,,,,,,,,,,,,,,,,,,,,,,,,,,tony_test,0,1,0,1,1,1,2,0,2,2020_Jan_30_1113,listening_fmri,3.2.4,59.95500125344973,
3,parcelated_audio/41/41_27.ogg,,,,,,,,,0,0,0,0,0,3,3,3,0,0,0,0,,,,,,,,,0,0,0,0,0,26,26,26,,,,,,,,,,,,,,,,,,,,,,,,,,,,,,,,,,,,,,,,,,,,,,,,912.823573198,916.7961936560001,,,,,,,,,,,,,,,,,,,,,,,,,,,,,,,,,,,,,,,,,,,,,,,,,,,,,,,,,,,,,,,,,tony_test,0,1,0,1,1,1,2,0,2,2020_Jan_30_1113,listening_fmri,3.2.4,59.95500125344973,
3,parcelated_audio/41/41_28.ogg,,,,,,,,,0,0,0,0,0,3,3,3,0,0,0,0,,,,,,,,,0,0,0,0,0,27,27,27,,,,,,,,,,,,,,,,,,,,,,,,,,,,,,,,,,,,,,,,,,,,,,,,916.7965158420001,925.2602441330001,,,,,,,,,,,,,,,,,,,,,,,,,,,,,,,,,,,,,,,,,,,,,,,,,,,,,,,,,,,,,,,,,tony_test,0,1,0,1,1,1,2,0,2,2020_Jan_30_1113,listening_fmri,3.2.4,59.95500125344973,
3,parcelated_audio/41/41_29.ogg,,,,,,,,,0,0,0,0,0,3,3,3,0,0,0,0,,,,,,,,,0,0,0,0,0,28,28,28,,,,,,,,,,,,,,,,,,,,,,,,,,,,,,,,,,,,,,,,,,,,,,,,925.260632865,931.9667183099999,,,,,,,,,,,,,,,,,,,,,,,,,,,,,,,,,,,,,,,,,,,,,,,,,,,,,,,,,,,,,,,,,tony_test,0,1,0,1,1,1,2,0,2,2020_Jan_30_1113,listening_fmri,3.2.4,59.95500125344973,
3,parcelated_audio/41/41_30.ogg,,,,,,,,,0,0,0,0,0,3,3,3,0,0,0,0,,,,,,,,,0,0,0,0,0,29,29,29,,,,,,,,,,,,,,,,,,,,,,,,,,,,,,,,,,,,,,,,,,,,,,,,931.966969644,940.772121223,,,,,,,,,,,,,,,,,,,,,,,,,,,,,,,,,,,,,,,,,,,,,,,,,,,,,,,,,,,,,,,,,tony_test,0,1,0,1,1,1,2,0,2,2020_Jan_30_1113,listening_fmri,3.2.4,59.95500125344973,
3,parcelated_audio/41/41_31.ogg,,,,,,,,,0,0,0,0,0,3,3,3,0,0,0,0,,,,,,,,,0,0,0,0,0,30,30,30,,,,,,,,,,,,,,,,,,,,,,,,,,,,,,,,,,,,,,,,,,,,,,,,940.7723914310001,951.6345793270001,,,,,,,,,,,,,,,,,,,,,,,,,,,,,,,,,,,,,,,,,,,,,,,,,,,,,,,,,,,,,,,,,tony_test,0,1,0,1,1,1,2,0,2,2020_Jan_30_1113,listening_fmri,3.2.4,59.95500125344973,
3,parcelated_audio/41/41_32.ogg,,,,,,,,,0,0,0,0,0,3,3,3,0,0,0,0,,,,,,,,,0,0,0,0,0,31,31,31,,,,,,,,,,,,,,,,,,,,,,,,,,,,,,,,,,,,,,,,,,,,,,,,951.634974916,960.1126102510001,,,,,,,,,,,,,,,,,,,,,,,,,,,,,,,,,,,,,,,,,,,,,,,,,,,,,,,,,,,,,,,,,tony_test,0,1,0,1,1,1,2,0,2,2020_Jan_30_1113,listening_fmri,3.2.4,59.95500125344973,
3,parcelated_audio/41/41_33.ogg,,,,,,,,,0,0,0,0,0,3,3,3,0,0,0,0,,,,,,,,,0,0,0,0,0,32,32,32,,,,,,,,,,,,,,,,,,,,,,,,,,,,,,,,,,,,,,,,,,,,,,,,960.112956332,964.3102287749999,,,,,,,,,,,,,,,,,,,,,,,,,,,,,,,,,,,,,,,,,,,,,,,,,,,,,,,,,,,,,,,,,tony_test,0,1,0,1,1,1,2,0,2,2020_Jan_30_1113,listening_fmri,3.2.4,59.95500125344973,
3,parcelated_audio/41/41_34.ogg,,,,,,,,,0,0,0,0,0,3,3,3,0,0,0,0,,,,,,,,,0,0,0,0,0,33,33,33,,,,,,,,,,,,,,,,,,,,,,,,,,,,,,,,,,,,,,,,,,,,,,,,964.3106185820001,969.947809741,,,,,,,,,,,,,,,,,,,,,,,,,,,,,,,,,,,,,,,,,,,,,,,,,,,,,,,,,,,,,,,,,tony_test,0,1,0,1,1,1,2,0,2,2020_Jan_30_1113,listening_fmri,3.2.4,59.95500125344973,
3,parcelated_audio/41/41_35.ogg,,,,,,,,,0,0,0,0,0,3,3,3,0,0,0,0,,,,,,,,,0,0,0,0,0,34,34,34,,,,,,,,,,,,,,,,,,,,,,,,,,,,,,,,,,,,,,,,,,,,,,,,969.9481219800001,975.521335236,,,,,,,,,,,,,,,,,,,,,,,,,,,,,,,,,,,,,,,,,,,,,,,,,,,,,,,,,,,,,,,,,tony_test,0,1,0,1,1,1,2,0,2,2020_Jan_30_1113,listening_fmri,3.2.4,59.95500125344973,
3,parcelated_audio/41/41_36.ogg,,,,,,,,,0,0,0,0,0,3,3,3,0,0,0,0,,,,,,,,,0,0,0,0,0,35,35,35,,,,,,,,,,,,,,,,,,,,,,,,,,,,,,,,,,,,,,,,,,,,,,,,975.521786998,982.641315642,,,,,,,,,,,,,,,,,,,,,,,,,,,,,,,,,,,,,,,,,,,,,,,,,,,,,,,,,,,,,,,,,tony_test,0,1,0,1,1,1,2,0,2,2020_Jan_30_1113,listening_fmri,3.2.4,59.95500125344973,
3,parcelated_audio/41/41_37.ogg,,,,,,,,,0,0,0,0,0,3,3,3,0,0,0,0,,,,,,,,,0,0,0,0,0,36,36,36,,,,,,,,,,,,,,,,,,,,,,,,,,,,,,,,,,,,,,,,,,,,,,,,982.6416644750001,988.2465329119999,,,,,,,,,,,,,,,,,,,,,,,,,,,,,,,,,,,,,,,,,,,,,,,,,,,,,,,,,,,,,,,,,tony_test,0,1,0,1,1,1,2,0,2,2020_Jan_30_1113,listening_fmri,3.2.4,59.95500125344973,
3,,,,,,,,,,0,0,0,0,0,3,3,3,0,0,0,0,,,,,,,,,0,0,0,0,,,,,,,,,,,,,,,,,,,,,,,,,,,,,,,,,,,,,,,,,,,,,,,,,,,,,,,,,,,,,,,,,,,,,,,,,,,,,,,,,,,,,,,,,,,,,,,,,,,,,,,,,,,,,,,,,,,,,,tony_test,0,1,0,1,1,1,2,0,2,2020_Jan_30_1113,listening_fmri,3.2.4,59.95500125344973,
3,,,,,,,,,,0,0,0,0,0,3,3,3,0,0,0,0,,,,,,,,,,,,,,,,,,,,,,,,,,,,,,,,,,,,,,,,,,988.2469329090001,994.234503193,1010.7859019050002,None,,,,,,,,,,,,,,,,,,,,,1016.786708031,None,1016.786708031,None,,,,,,,,,,,,,,,,,,,,,,,,,,,,,,,,,,,,,,,,,,,,,,,,,,,,,,,,,,,,,tony_test,0,1,0,1,1,1,2,0,2,2020_Jan_30_1113,listening_fmri,3.2.4,59.95500125344973,
3,,,,,,,,,,0,0,0,0,0,3,3,3,,,,,,,,,,,,,,,,,,,,,,,,,,,,,,,,,,,,,,,,,,,,,,,,,,,,,,,,,,,,,,,,,,,,,,,,,,,,,,,,,,,,,,,,,,,,,,,,,,,,,,,,,,,,,,,,,,,,,,,,,,,,,,,,,,,,,,tony_test,0,1,0,1,1,1,2,0,2,2020_Jan_30_1113,listening_fmri,3.2.4,59.95500125344973,
4,,,,,,,,,,0,0,0,0,0,4,4,4,0,0,0,0,0,0,0,0,,,,,,,,,,,,,,,,,0,0,0,0,,,,,,,,,,,,,,,,,,,,,,1017.803311615,None,1017.803311615,None,space,0.9267011690001254,1017.803311615,None,1017.803311615,None,,,,,,,,,,,,,,,1018.752412389,None,space,0.9741808270000547,1018.752412389,None,1018.752412389,None,1019.7871955990001,None,1019.7871955990001,None,1019.7871955990001,None,space,1.178255166000099,1019.7871955990001,None,1020.9862859260002,None,space,0.5992990859999736,1020.9862859260002,None,1020.9862859260002,None,1021.669603459,None,1021.669603459,None,1021.669603459,None,1021.669603459,None,1021.669603459,None,1021.669603459,None,1021.669603459,None,,,,,,,,,,,,,,,,,,,,,tony_test,0,1,0,1,1,1,2,0,2,2020_Jan_30_1113,listening_fmri,3.2.4,59.95500125344973,
4,,,,,,,,,,0,0,0,0,0,4,4,4,0,0,0,0,0,0,0,0,,,,,,,,,,,,,,,,,,,,,,,,,,,,,,,,,,,,,,,,,,,,,,,,,,,,,,,,,,,,,,,,,,,,,,,,,,,,,,,,,,,,,,,,,,,,,,,,,,,,,,,,,,1032.369310725,None,space,1.1636503639999773,1032.369310725,None,1032.369310725,None,1033.569493836,None,1033.569493836,None,1033.569493836,None,space,0.8435299000000214,1033.569493836,None,,,tony_test,0,1,0,1,1,1,2,0,2,2020_Jan_30_1113,listening_fmri,3.2.4,59.95500125344973,
4,parcelated_audio/23/23_1.ogg,,,,,,,,,0,0,0,0,0,4,4,4,0,0,0,0,,,,,,,,,0,0,0,0,0,0,0,0,,,,,,,,,,,,,,,,,,,,,,,,,,,,,,,,,,,,,,,,1034.436181624,None,space,2.7747771290000856,1034.436181624,None,1014.7154026480001,1017.717809674,1017.7230365859999,1028.2340757129998,,,,,,,,,,,,,,,,,,,,,,,,,,,,,,,,,,,,,,,,,,,,,,,,,,,,,,,,,,,,,,,,,tony_test,0,1,0,1,1,1,2,0,2,2020_Jan_30_1113,listening_fmri,3.2.4,59.95500125344973,
4,parcelated_audio/23/23_2.ogg,,,,,,,,,0,0,0,0,0,4,4,4,0,0,0,0,,,,,,,,,0,0,0,0,0,1,1,1,,,,,,,,,,,,,,,,,,,,,,,,,,,,,,,,,,,,,,,,,,,,,,,,1028.234346175,1035.2367467749998,,,,,,,,,,,,,,,,,,,,,,,,,,,,,,,,,,,,,,,,,,,,,,,,,,,,,,,,,,,,,,,,,tony_test,0,1,0,1,1,1,2,0,2,2020_Jan_30_1113,listening_fmri,3.2.4,59.95500125344973,
4,parcelated_audio/23/23_3.ogg,,,,,,,,,0,0,0,0,0,4,4,4,0,0,0,0,,,,,,,,,0,0,0,0,0,2,2,2,,,,,,,,,,,,,,,,,,,,,,,,,,,,,,,,,,,,,,,,,,,,,,,,1035.237825457,1041.1229381609999,,,,,,,,,,,,,,,,,,,,,,,,,,,,,,,,,,,,,,,,,,,,,,,,,,,,,,,,,,,,,,,,,tony_test,0,1,0,1,1,1,2,0,2,2020_Jan_30_1113,listening_fmri,3.2.4,59.95500125344973,
4,parcelated_audio/23/23_4.ogg,,,,,,,,,0,0,0,0,0,4,4,4,0,0,0,0,,,,,,,,,0,0,0,0,0,3,3,3,,,,,,,,,,,,,,,,,,,,,,,,,,,,,,,,,,,,,,,,,,,,,,,,1041.1231919569998,1052.499087038,,,,,,,,,,,,,,,,,,,,,,,,,,,,,,,,,,,,,,,,,,,,,,,,,,,,,,,,,,,,,,,,,tony_test,0,1,0,1,1,1,2,0,2,2020_Jan_30_1113,listening_fmri,3.2.4,59.95500125344973,
4,parcelated_audio/23/23_5.ogg,,,,,,,,,0,0,0,0,0,4,4,4,0,0,0,0,,,,,,,,,0,0,0,0,0,4,4,4,,,,,,,,,,,,,,,,,,,,,,,,,,,,,,,,,,,,,,,,,,,,,,,,1052.4993572269998,1058.840256739,,,,,,,,,,,,,,,,,,,,,,,,,,,,,,,,,,,,,,,,,,,,,,,,,,,,,,,,,,,,,,,,,tony_test,0,1,0,1,1,1,2,0,2,2020_Jan_30_1113,listening_fmri,3.2.4,59.95500125344973,
4,parcelated_audio/23/23_6.ogg,,,,,,,,,0,0,0,0,0,4,4,4,0,0,0,0,,,,,,,,,0,0,0,0,0,5,5,5,,,,,,,,,,,,,,,,,,,,,,,,,,,,,,,,,,,,,,,,,,,,,,,,1058.8410069889999,1066.3690754689999,,,,,,,,,,,,,,,,,,,,,,,,,,,,,,,,,,,,,,,,,,,,,,,,,,,,,,,,,,,,,,,,,tony_test,0,1,0,1,1,1,2,0,2,2020_Jan_30_1113,listening_fmri,3.2.4,59.95500125344973,
4,parcelated_audio/23/23_7.ogg,,,,,,,,,0,0,0,0,0,4,4,4,0,0,0,0,,,,,,,,,0,0,0,0,0,6,6,6,,,,,,,,,,,,,,,,,,,,,,,,,,,,,,,,,,,,,,,,,,,,,,,,1066.369400409,1073.2426090299998,,,,,,,,,,,,,,,,,,,,,,,,,,,,,,,,,,,,,,,,,,,,,,,,,,,,,,,,,,,,,,,,,tony_test,0,1,0,1,1,1,2,0,2,2020_Jan_30_1113,listening_fmri,3.2.4,59.95500125344973,
4,parcelated_audio/23/23_8.ogg,,,,,,,,,0,0,0,0,0,4,4,4,0,0,0,0,,,,,,,,,0,0,0,0,0,7,7,7,,,,,,,,,,,,,,,,,,,,,,,,,,,,,,,,,,,,,,,,,,,,,,,,1073.242879494,1078.74973914,,,,,,,,,,,,,,,,,,,,,,,,,,,,,,,,,,,,,,,,,,,,,,,,,,,,,,,,,,,,,,,,,tony_test,0,1,0,1,1,1,2,0,2,2020_Jan_30_1113,listening_fmri,3.2.4,59.95500125344973,
4,parcelated_audio/23/23_9.ogg,,,,,,,,,0,0,0,0,0,4,4,4,0,0,0,0,,,,,,,,,0,0,0,0,0,8,8,8,,,,,,,,,,,,,,,,,,,,,,,,,,,,,,,,,,,,,,,,,,,,,,,,1078.7500100700001,1083.2458747829999,,,,,,,,,,,,,,,,,,,,,,,,,,,,,,,,,,,,,,,,,,,,,,,,,,,,,,,,,,,,,,,,,tony_test,0,1,0,1,1,1,2,0,2,2020_Jan_30_1113,listening_fmri,3.2.4,59.95500125344973,
4,parcelated_audio/23/23_10.ogg,,,,,,,,,0,0,0,0,0,4,4,4,0,0,0,0,,,,,,,,,0,0,0,0,0,9,9,9,,,,,,,,,,,,,,,,,,,,,,,,,,,,,,,,,,,,,,,,,,,,,,,,1083.2463739880002,1087.3141487189998,,,,,,,,,,,,,,,,,,,,,,,,,,,,,,,,,,,,,,,,,,,,,,,,,,,,,,,,,,,,,,,,,tony_test,0,1,0,1,1,1,2,0,2,2020_Jan_30_1113,listening_fmri,3.2.4,59.95500125344973,
4,parcelated_audio/23/23_11.ogg,,,,,,,,,0,0,0,0,0,4,4,4,0,0,0,0,,,,,,,,,0,0,0,0,0,10,10,10,,,,,,,,,,,,,,,,,,,,,,,,,,,,,,,,,,,,,,,,,,,,,,,,1087.3149981079998,1095.5678670969999,,,,,,,,,,,,,,,,,,,,,,,,,,,,,,,,,,,,,,,,,,,,,,,,,,,,,,,,,,,,,,,,,tony_test,0,1,0,1,1,1,2,0,2,2020_Jan_30_1113,listening_fmri,3.2.4,59.95500125344973,
4,parcelated_audio/23/23_12.ogg,,,,,,,,,0,0,0,0,0,4,4,4,0,0,0,0,,,,,,,,,0,0,0,0,0,11,11,11,,,,,,,,,,,,,,,,,,,,,,,,,,,,,,,,,,,,,,,,,,,,,,,,1095.568178708,1102.837587587,,,,,,,,,,,,,,,,,,,,,,,,,,,,,,,,,,,,,,,,,,,,,,,,,,,,,,,,,,,,,,,,,tony_test,0,1,0,1,1,1,2,0,2,2020_Jan_30_1113,listening_fmri,3.2.4,59.95500125344973,
4,parcelated_audio/23/23_13.ogg,,,,,,,,,0,0,0,0,0,4,4,4,0,0,0,0,,,,,,,,,0,0,0,0,0,12,12,12,,,,,,,,,,,,,,,,,,,,,,,,,,,,,,,,,,,,,,,,,,,,,,,,1102.8378601759998,1109.7398958770002,,,,,,,,,,,,,,,,,,,,,,,,,,,,,,,,,,,,,,,,,,,,,,,,,,,,,,,,,,,,,,,,,tony_test,0,1,0,1,1,1,2,0,2,2020_Jan_30_1113,listening_fmri,3.2.4,59.95500125344973,
4,parcelated_audio/23/23_14.ogg,,,,,,,,,0,0,0,0,0,4,4,4,0,0,0,0,,,,,,,,,0,0,0,0,0,13,13,13,,,,,,,,,,,,,,,,,,,,,,,,,,,,,,,,,,,,,,,,,,,,,,,,1109.7401910780002,1114.2180894629998,,,,,,,,,,,,,,,,,,,,,,,,,,,,,,,,,,,,,,,,,,,,,,,,,,,,,,,,,,,,,,,,,tony_test,0,1,0,1,1,1,2,0,2,2020_Jan_30_1113,listening_fmri,3.2.4,59.95500125344973,
4,parcelated_audio/23/23_15.ogg,,,,,,,,,0,0,0,0,0,4,4,4,0,0,0,0,,,,,,,,,0,0,0,0,0,14,14,14,,,,,,,,,,,,,,,,,,,,,,,,,,,,,,,,,,,,,,,,,,,,,,,,1114.218503977,1118.7666280380001,,,,,,,,,,,,,,,,,,,,,,,,,,,,,,,,,,,,,,,,,,,,,,,,,,,,,,,,,,,,,,,,,tony_test,0,1,0,1,1,1,2,0,2,2020_Jan_30_1113,listening_fmri,3.2.4,59.95500125344973,
4,parcelated_audio/23/23_16.ogg,,,,,,,,,0,0,0,0,0,4,4,4,0,0,0,0,,,,,,,,,0,0,0,0,0,15,15,15,,,,,,,,,,,,,,,,,,,,,,,,,,,,,,,,,,,,,,,,,,,,,,,,1118.766896942,1125.4695437849998,,,,,,,,,,,,,,,,,,,,,,,,,,,,,,,,,,,,,,,,,,,,,,,,,,,,,,,,,,,,,,,,,tony_test,0,1,0,1,1,1,2,0,2,2020_Jan_30_1113,listening_fmri,3.2.4,59.95500125344973,
4,parcelated_audio/23/23_17.ogg,,,,,,,,,0,0,0,0,0,4,4,4,0,0,0,0,,,,,,,,,0,0,0,0,0,16,16,16,,,,,,,,,,,,,,,,,,,,,,,,,,,,,,,,,,,,,,,,,,,,,,,,1125.469894912,1132.3333881410001,,,,,,,,,,,,,,,,,,,,,,,,,,,,,,,,,,,,,,,,,,,,,,,,,,,,,,,,,,,,,,,,,tony_test,0,1,0,1,1,1,2,0,2,2020_Jan_30_1113,listening_fmri,3.2.4,59.95500125344973,
4,parcelated_audio/23/23_18.ogg,,,,,,,,,0,0,0,0,0,4,4,4,0,0,0,0,,,,,,,,,0,0,0,0,0,17,17,17,,,,,,,,,,,,,,,,,,,,,,,,,,,,,,,,,,,,,,,,,,,,,,,,1132.333659364,1144.4140969900002,,,,,,,,,,,,,,,,,,,,,,,,,,,,,,,,,,,,,,,,,,,,,,,,,,,,,,,,,,,,,,,,,tony_test,0,1,0,1,1,1,2,0,2,2020_Jan_30_1113,listening_fmri,3.2.4,59.95500125344973,
4,parcelated_audio/23/23_19.ogg,,,,,,,,,0,0,0,0,0,4,4,4,0,0,0,0,,,,,,,,,0,0,0,0,0,18,18,18,,,,,,,,,,,,,,,,,,,,,,,,,,,,,,,,,,,,,,,,,,,,,,,,1144.414671759,1150.28658841,,,,,,,,,,,,,,,,,,,,,,,,,,,,,,,,,,,,,,,,,,,,,,,,,,,,,,,,,,,,,,,,,tony_test,0,1,0,1,1,1,2,0,2,2020_Jan_30_1113,listening_fmri,3.2.4,59.95500125344973,
4,parcelated_audio/23/23_20.ogg,,,,,,,,,0,0,0,0,0,4,4,4,0,0,0,0,,,,,,,,,0,0,0,0,0,19,19,19,,,,,,,,,,,,,,,,,,,,,,,,,,,,,,,,,,,,,,,,,,,,,,,,1150.286839019,1153.2786455090002,,,,,,,,,,,,,,,,,,,,,,,,,,,,,,,,,,,,,,,,,,,,,,,,,,,,,,,,,,,,,,,,,tony_test,0,1,0,1,1,1,2,0,2,2020_Jan_30_1113,listening_fmri,3.2.4,59.95500125344973,
4,parcelated_audio/23/23_21.ogg,,,,,,,,,0,0,0,0,0,4,4,4,0,0,0,0,,,,,,,,,0,0,0,0,0,20,20,20,,,,,,,,,,,,,,,,,,,,,,,,,,,,,,,,,,,,,,,,,,,,,,,,1153.2790417530002,1161.0808893689998,,,,,,,,,,,,,,,,,,,,,,,,,,,,,,,,,,,,,,,,,,,,,,,,,,,,,,,,,,,,,,,,,tony_test,0,1,0,1,1,1,2,0,2,2020_Jan_30_1113,listening_fmri,3.2.4,59.95500125344973,
4,parcelated_audio/23/23_22.ogg,,,,,,,,,0,0,0,0,0,4,4,4,0,0,0,0,,,,,,,,,0,0,0,0,0,21,21,21,,,,,,,,,,,,,,,,,,,,,,,,,,,,,,,,,,,,,,,,,,,,,,,,1161.0812194910002,1163.8606897030002,,,,,,,,,,,,,,,,,,,,,,,,,,,,,,,,,,,,,,,,,,,,,,,,,,,,,,,,,,,,,,,,,tony_test,0,1,0,1,1,1,2,0,2,2020_Jan_30_1113,listening_fmri,3.2.4,59.95500125344973,
4,parcelated_audio/23/23_23.ogg,,,,,,,,,0,0,0,0,0,4,4,4,0,0,0,0,,,,,,,,,0,0,0,0,0,22,22,22,,,,,,,,,,,,,,,,,,,,,,,,,,,,,,,,,,,,,,,,,,,,,,,,1163.861080173,1168.1430414039999,,,,,,,,,,,,,,,,,,,,,,,,,,,,,,,,,,,,,,,,,,,,,,,,,,,,,,,,,,,,,,,,,tony_test,0,1,0,1,1,1,2,0,2,2020_Jan_30_1113,listening_fmri,3.2.4,59.95500125344973,
4,parcelated_audio/23/23_24.ogg,,,,,,,,,0,0,0,0,0,4,4,4,0,0,0,0,,,,,,,,,0,0,0,0,0,23,23,23,,,,,,,,,,,,,,,,,,,,,,,,,,,,,,,,,,,,,,,,,,,,,,,,1168.1433869589998,1171.678531018,,,,,,,,,,,,,,,,,,,,,,,,,,,,,,,,,,,,,,,,,,,,,,,,,,,,,,,,,,,,,,,,,tony_test,0,1,0,1,1,1,2,0,2,2020_Jan_30_1113,listening_fmri,3.2.4,59.95500125344973,
4,parcelated_audio/23/23_25.ogg,,,,,,,,,0,0,0,0,0,4,4,4,0,0,0,0,,,,,,,,,0,0,0,0,0,24,24,24,,,,,,,,,,,,,,,,,,,,,,,,,,,,,,,,,,,,,,,,,,,,,,,,1171.6787918020002,1175.919018751,,,,,,,,,,,,,,,,,,,,,,,,,,,,,,,,,,,,,,,,,,,,,,,,,,,,,,,,,,,,,,,,,tony_test,0,1,0,1,1,1,2,0,2,2020_Jan_30_1113,listening_fmri,3.2.4,59.95500125344973,
4,parcelated_audio/23/23_26.ogg,,,,,,,,,0,0,0,0,0,4,4,4,0,0,0,0,,,,,,,,,0,0,0,0,0,25,25,25,,,,,,,,,,,,,,,,,,,,,,,,,,,,,,,,,,,,,,,,,,,,,,,,1175.9194118540001,1182.260347186,,,,,,,,,,,,,,,,,,,,,,,,,,,,,,,,,,,,,,,,,,,,,,,,,,,,,,,,,,,,,,,,,tony_test,0,1,0,1,1,1,2,0,2,2020_Jan_30_1113,listening_fmri,3.2.4,59.95500125344973,
4,parcelated_audio/23/23_27.ogg,,,,,,,,,0,0,0,0,0,4,4,4,0,0,0,0,,,,,,,,,0,0,0,0,0,26,26,26,,,,,,,,,,,,,,,,,,,,,,,,,,,,,,,,,,,,,,,,,,,,,,,,1182.2606191900002,1187.6315840670002,,,,,,,,,,,,,,,,,,,,,,,,,,,,,,,,,,,,,,,,,,,,,,,,,,,,,,,,,,,,,,,,,tony_test,0,1,0,1,1,1,2,0,2,2020_Jan_30_1113,listening_fmri,3.2.4,59.95500125344973,
4,parcelated_audio/23/23_28.ogg,,,,,,,,,0,0,0,0,0,4,4,4,0,0,0,0,,,,,,,,,0,0,0,0,0,27,27,27,,,,,,,,,,,,,,,,,,,,,,,,,,,,,,,,,,,,,,,,,,,,,,,,1187.6326009699999,1195.712483049,,,,,,,,,,,,,,,,,,,,,,,,,,,,,,,,,,,,,,,,,,,,,,,,,,,,,,,,,,,,,,,,,tony_test,0,1,0,1,1,1,2,0,2,2020_Jan_30_1113,listening_fmri,3.2.4,59.95500125344973,
4,parcelated_audio/23/23_29.ogg,,,,,,,,,0,0,0,0,0,4,4,4,0,0,0,0,,,,,,,,,0,0,0,0,0,28,28,28,,,,,,,,,,,,,,,,,,,,,,,,,,,,,,,,,,,,,,,,,,,,,,,,1195.712763155,1199.578817637,,,,,,,,,,,,,,,,,,,,,,,,,,,,,,,,,,,,,,,,,,,,,,,,,,,,,,,,,,,,,,,,,tony_test,0,1,0,1,1,1,2,0,2,2020_Jan_30_1113,listening_fmri,3.2.4,59.95500125344973,
4,parcelated_audio/23/23_30.ogg,,,,,,,,,0,0,0,0,0,4,4,4,0,0,0,0,,,,,,,,,0,0,0,0,0,29,29,29,,,,,,,,,,,,,,,,,,,,,,,,,,,,,,,,,,,,,,,,,,,,,,,,1199.579276572,1205.588953916,,,,,,,,,,,,,,,,,,,,,,,,,,,,,,,,,,,,,,,,,,,,,,,,,,,,,,,,,,,,,,,,,tony_test,0,1,0,1,1,1,2,0,2,2020_Jan_30_1113,listening_fmri,3.2.4,59.95500125344973,
4,parcelated_audio/23/23_31.ogg,,,,,,,,,0,0,0,0,0,4,4,4,0,0,0,0,,,,,,,,,0,0,0,0,0,30,30,30,,,,,,,,,,,,,,,,,,,,,,,,,,,,,,,,,,,,,,,,,,,,,,,,1205.5892288920002,1207.705684271,,,,,,,,,,,,,,,,,,,,,,,,,,,,,,,,,,,,,,,,,,,,,,,,,,,,,,,,,,,,,,,,,tony_test,0,1,0,1,1,1,2,0,2,2020_Jan_30_1113,listening_fmri,3.2.4,59.95500125344973,
4,parcelated_audio/23/23_32.ogg,,,,,,,,,0,0,0,0,0,4,4,4,0,0,0,0,,,,,,,,,0,0,0,0,0,31,31,31,,,,,,,,,,,,,,,,,,,,,,,,,,,,,,,,,,,,,,,,,,,,,,,,1207.705957197,1211.4116923120002,,,,,,,,,,,,,,,,,,,,,,,,,,,,,,,,,,,,,,,,,,,,,,,,,,,,,,,,,,,,,,,,,tony_test,0,1,0,1,1,1,2,0,2,2020_Jan_30_1113,listening_fmri,3.2.4,59.95500125344973,
4,parcelated_audio/23/23_33.ogg,,,,,,,,,0,0,0,0,0,4,4,4,0,0,0,0,,,,,,,,,0,0,0,0,0,32,32,32,,,,,,,,,,,,,,,,,,,,,,,,,,,,,,,,,,,,,,,,,,,,,,,,1211.411960399,1217.5739337890002,,,,,,,,,,,,,,,,,,,,,,,,,,,,,,,,,,,,,,,,,,,,,,,,,,,,,,,,,,,,,,,,,tony_test,0,1,0,1,1,1,2,0,2,2020_Jan_30_1113,listening_fmri,3.2.4,59.95500125344973,
4,parcelated_audio/23/23_34.ogg,,,,,,,,,0,0,0,0,0,4,4,4,0,0,0,0,,,,,,,,,0,0,0,0,0,33,33,33,,,,,,,,,,,,,,,,,,,,,,,,,,,,,,,,,,,,,,,,,,,,,,,,1217.5744730049998,1221.1525028510002,,,,,,,,,,,,,,,,,,,,,,,,,,,,,,,,,,,,,,,,,,,,,,,,,,,,,,,,,,,,,,,,,tony_test,0,1,0,1,1,1,2,0,2,2020_Jan_30_1113,listening_fmri,3.2.4,59.95500125344973,
4,parcelated_audio/23/23_35.ogg,,,,,,,,,0,0,0,0,0,4,4,4,0,0,0,0,,,,,,,,,0,0,0,0,0,34,34,34,,,,,,,,,,,,,,,,,,,,,,,,,,,,,,,,,,,,,,,,,,,,,,,,1221.1527764619998,1225.551339207,,,,,,,,,,,,,,,,,,,,,,,,,,,,,,,,,,,,,,,,,,,,,,,,,,,,,,,,,,,,,,,,,tony_test,0,1,0,1,1,1,2,0,2,2020_Jan_30_1113,listening_fmri,3.2.4,59.95500125344973,
4,parcelated_audio/23/23_36.ogg,,,,,,,,,0,0,0,0,0,4,4,4,0,0,0,0,,,,,,,,,0,0,0,0,0,35,35,35,,,,,,,,,,,,,,,,,,,,,,,,,,,,,,,,,,,,,,,,,,,,,,,,1225.551924567,1230.2108919300001,,,,,,,,,,,,,,,,,,,,,,,,,,,,,,,,,,,,,,,,,,,,,,,,,,,,,,,,,,,,,,,,,tony_test,0,1,0,1,1,1,2,0,2,2020_Jan_30_1113,listening_fmri,3.2.4,59.95500125344973,
4,parcelated_audio/23/23_37.ogg,,,,,,,,,0,0,0,0,0,4,4,4,0,0,0,0,,,,,,,,,0,0,0,0,0,36,36,36,,,,,,,,,,,,,,,,,,,,,,,,,,,,,,,,,,,,,,,,,,,,,,,,1230.211193762,1235.101531951,,,,,,,,,,,,,,,,,,,,,,,,,,,,,,,,,,,,,,,,,,,,,,,,,,,,,,,,,,,,,,,,,tony_test,0,1,0,1,1,1,2,0,2,2020_Jan_30_1113,listening_fmri,3.2.4,59.95500125344973,
4,parcelated_audio/23/23_38.ogg,,,,,,,,,0,0,0,0,0,4,4,4,0,0,0,0,,,,,,,,,0,0,0,0,0,37,37,37,,,,,,,,,,,,,,,,,,,,,,,,,,,,,,,,,,,,,,,,,,,,,,,,1235.1018290270001,1242.7003816029999,,,,,,,,,,,,,,,,,,,,,,,,,,,,,,,,,,,,,,,,,,,,,,,,,,,,,,,,,,,,,,,,,tony_test,0,1,0,1,1,1,2,0,2,2020_Jan_30_1113,listening_fmri,3.2.4,59.95500125344973,
4,parcelated_audio/23/23_39.ogg,,,,,,,,,0,0,0,0,0,4,4,4,0,0,0,0,,,,,,,,,0,0,0,0,0,38,38,38,,,,,,,,,,,,,,,,,,,,,,,,,,,,,,,,,,,,,,,,,,,,,,,,1242.7006532389998,1249.0732044560002,,,,,,,,,,,,,,,,,,,,,,,,,,,,,,,,,,,,,,,,,,,,,,,,,,,,,,,,,,,,,,,,,tony_test,0,1,0,1,1,1,2,0,2,2020_Jan_30_1113,listening_fmri,3.2.4,59.95500125344973,
4,,,,,,,,,,0,0,0,0,0,4,4,4,0,0,0,0,,,,,,,,,0,0,0,0,,,,,,,,,,,,,,,,,,,,,,,,,,,,,,,,,,,,,,,,,,,,,,,,,,,,,,,,,,,,,,,,,,,,,,,,,,,,,,,,,,,,,,,,,,,,,,,,,,,,,,,,,,,,,,,,,,,,,,tony_test,0,1,0,1,1,1,2,0,2,2020_Jan_30_1113,listening_fmri,3.2.4,59.95500125344973,
4,,,,,,,,,,0,0,0,0,0,4,4,4,0,0,0,0,,,,,,,,,,,,,,,,,,,,,,,,,,,,,,,,,,,,,,,,,,1249.073578916,1255.0649312379999,1271.615912103,None,,,,,,,,,,,,,,,,,,,,,1277.615212843,None,1277.615212843,None,,,,,,,,,,,,,,,,,,,,,,,,,,,,,,,,,,,,,,,,,,,,,,,,,,,,,,,,,,,,,tony_test,0,1,0,1,1,1,2,0,2,2020_Jan_30_1113,listening_fmri,3.2.4,59.95500125344973,
4,,,,,,,,,,0,0,0,0,0,4,4,4,,,,,,,,,,,,,,,,,,,,,,,,,,,,,,,,,,,,,,,,,,,,,,,,,,,,,,,,,,,,,,,,,,,,,,,,,,,,,,,,,,,,,,,,,,,,,,,,,,,,,,,,,,,,,,,,,,,,,,,,,,,,,,,,,,,,,,tony_test,0,1,0,1,1,1,2,0,2,2020_Jan_30_1113,listening_fmri,3.2.4,59.95500125344973,
5,,,,,,,,,,0,0,0,0,0,5,5,5,0,0,0,0,0,0,0,0,,,,,,,,,,,,,,,,,0,0,0,0,,,,,,,,,,,,,,,,,,,,,,1278.6501188080001,None,1278.6501188080001,None,space,3.296524194999847,1278.6501188080001,None,1278.6501188080001,None,,,,,,,,,,,,,,,1281.981901848,None,space,1.1955685969999195,1281.981901848,None,1281.981901848,None,1283.2153198140002,None,1283.2153198140002,None,1283.2153198140002,None,space,1.196154333999857,1283.2153198140002,None,1284.4314158070001,None,space,0.6829334199999266,1284.4314158070001,None,1284.4314158070001,None,1285.21545152,None,1285.21545152,None,1285.21545152,None,1285.21545152,None,1285.21545152,None,1285.21545152,None,1285.21545152,None,,,,,,,,,,,,,,,,,,,,,tony_test,0,1,0,1,1,1,2,0,2,2020_Jan_30_1113,listening_fmri,3.2.4,59.95500125344973,
5,,,,,,,,,,0,0,0,0,0,5,5,5,0,0,0,0,0,0,0,0,,,,,,,,,,,,,,,,,,,,,,,,,,,,,,,,,,,,,,,,,,,,,,,,,,,,,,,,,,,,,,,,,,,,,,,,,,,,,,,,,,,,,,,,,,,,,,,,,,,,,,,,,,1301.932697859,None,space,1.5773392260000492,1301.932697859,None,1301.932697859,None,1303.548811741,None,1303.548811741,None,1303.548811741,None,space,1.5411972269998842,1303.548811741,None,,,tony_test,0,1,0,1,1,1,2,0,2,2020_Jan_30_1113,listening_fmri,3.2.4,59.95500125344973,
5,parcelated_audio/14/14_1.ogg,,,,,,,,,0,0,0,0,0,5,5,5,0,0,0,0,,,,,,,,,0,0,0,0,0,0,0,0,,,,,,,,,,,,,,,,,,,,,,,,,,,,,,,,,,,,,,,,1305.115555708,None,space,1.9413258920001226,1305.115555708,None,1284.5436378860002,1287.546473535,1287.551715636,1294.5121131469998,,,,,,,,,,,,,,,,,,,,,,,,,,,,,,,,,,,,,,,,,,,,,,,,,,,,,,,,,,,,,,,,,tony_test,0,1,0,1,1,1,2,0,2,2020_Jan_30_1113,listening_fmri,3.2.4,59.95500125344973,
5,parcelated_audio/14/14_2.ogg,,,,,,,,,0,0,0,0,0,5,5,5,0,0,0,0,,,,,,,,,0,0,0,0,0,1,1,1,,,,,,,,,,,,,,,,,,,,,,,,,,,,,,,,,,,,,,,,,,,,,,,,1294.512469474,1301.174800813,,,,,,,,,,,,,,,,,,,,,,,,,,,,,,,,,,,,,,,,,,,,,,,,,,,,,,,,,,,,,,,,,tony_test,0,1,0,1,1,1,2,0,2,2020_Jan_30_1113,listening_fmri,3.2.4,59.95500125344973,
5,parcelated_audio/14/14_3.ogg,,,,,,,,,0,0,0,0,0,5,5,5,0,0,0,0,,,,,,,,,0,0,0,0,0,2,2,2,,,,,,,,,,,,,,,,,,,,,,,,,,,,,,,,,,,,,,,,,,,,,,,,1301.175074568,1304.976839833,,,,,,,,,,,,,,,,,,,,,,,,,,,,,,,,,,,,,,,,,,,,,,,,,,,,,,,,,,,,,,,,,tony_test,0,1,0,1,1,1,2,0,2,2020_Jan_30_1113,listening_fmri,3.2.4,59.95500125344973,
5,parcelated_audio/14/14_4.ogg,,,,,,,,,0,0,0,0,0,5,5,5,0,0,0,0,,,,,,,,,0,0,0,0,0,3,3,3,,,,,,,,,,,,,,,,,,,,,,,,,,,,,,,,,,,,,,,,,,,,,,,,1304.977112496,1313.0247427890001,,,,,,,,,,,,,,,,,,,,,,,,,,,,,,,,,,,,,,,,,,,,,,,,,,,,,,,,,,,,,,,,,tony_test,0,1,0,1,1,1,2,0,2,2020_Jan_30_1113,listening_fmri,3.2.4,59.95500125344973,
5,parcelated_audio/14/14_5.ogg,,,,,,,,,0,0,0,0,0,5,5,5,0,0,0,0,,,,,,,,,0,0,0,0,0,4,4,4,,,,,,,,,,,,,,,,,,,,,,,,,,,,,,,,,,,,,,,,,,,,,,,,1313.0250625850001,1317.990698106,,,,,,,,,,,,,,,,,,,,,,,,,,,,,,,,,,,,,,,,,,,,,,,,,,,,,,,,,,,,,,,,,tony_test,0,1,0,1,1,1,2,0,2,2020_Jan_30_1113,listening_fmri,3.2.4,59.95500125344973,
5,parcelated_audio/14/14_6.ogg,,,,,,,,,0,0,0,0,0,5,5,5,0,0,0,0,,,,,,,,,0,0,0,0,0,5,5,5,,,,,,,,,,,,,,,,,,,,,,,,,,,,,,,,,,,,,,,,,,,,,,,,1317.991066238,1323.9368492330002,,,,,,,,,,,,,,,,,,,,,,,,,,,,,,,,,,,,,,,,,,,,,,,,,,,,,,,,,,,,,,,,,tony_test,0,1,0,1,1,1,2,0,2,2020_Jan_30_1113,listening_fmri,3.2.4,59.95500125344973,
5,parcelated_audio/14/14_7.ogg,,,,,,,,,0,0,0,0,0,5,5,5,0,0,0,0,,,,,,,,,0,0,0,0,0,6,6,6,,,,,,,,,,,,,,,,,,,,,,,,,,,,,,,,,,,,,,,,,,,,,,,,1323.937208352,1333.681069388,,,,,,,,,,,,,,,,,,,,,,,,,,,,,,,,,,,,,,,,,,,,,,,,,,,,,,,,,,,,,,,,,tony_test,0,1,0,1,1,1,2,0,2,2020_Jan_30_1113,listening_fmri,3.2.4,59.95500125344973,
5,parcelated_audio/14/14_8.ogg,,,,,,,,,0,0,0,0,0,5,5,5,0,0,0,0,,,,,,,,,0,0,0,0,0,7,7,7,,,,,,,,,,,,,,,,,,,,,,,,,,,,,,,,,,,,,,,,,,,,,,,,1333.681356707,1338.986946073,,,,,,,,,,,,,,,,,,,,,,,,,,,,,,,,,,,,,,,,,,,,,,,,,,,,,,,,,,,,,,,,,tony_test,0,1,0,1,1,1,2,0,2,2020_Jan_30_1113,listening_fmri,3.2.4,59.95500125344973,
5,parcelated_audio/14/14_9.ogg,,,,,,,,,0,0,0,0,0,5,5,5,0,0,0,0,,,,,,,,,0,0,0,0,0,8,8,8,,,,,,,,,,,,,,,,,,,,,,,,,,,,,,,,,,,,,,,,,,,,,,,,1338.987245521,1342.8648319420001,,,,,,,,,,,,,,,,,,,,,,,,,,,,,,,,,,,,,,,,,,,,,,,,,,,,,,,,,,,,,,,,,tony_test,0,1,0,1,1,1,2,0,2,2020_Jan_30_1113,listening_fmri,3.2.4,59.95500125344973,
5,parcelated_audio/14/14_10.ogg,,,,,,,,,0,0,0,0,0,5,5,5,0,0,0,0,,,,,,,,,0,0,0,0,0,9,9,9,,,,,,,,,,,,,,,,,,,,,,,,,,,,,,,,,,,,,,,,,,,,,,,,1342.8651186610002,1354.2303680460002,,,,,,,,,,,,,,,,,,,,,,,,,,,,,,,,,,,,,,,,,,,,,,,,,,,,,,,,,,,,,,,,,tony_test,0,1,0,1,1,1,2,0,2,2020_Jan_30_1113,listening_fmri,3.2.4,59.95500125344973,
5,parcelated_audio/14/14_11.ogg,,,,,,,,,0,0,0,0,0,5,5,5,0,0,0,0,,,,,,,,,0,0,0,0,0,10,10,10,,,,,,,,,,,,,,,,,,,,,,,,,,,,,,,,,,,,,,,,,,,,,,,,1354.230639776,1361.554854924,,,,,,,,,,,,,,,,,,,,,,,,,,,,,,,,,,,,,,,,,,,,,,,,,,,,,,,,,,,,,,,,,tony_test,0,1,0,1,1,1,2,0,2,2020_Jan_30_1113,listening_fmri,3.2.4,59.95500125344973,
5,parcelated_audio/14/14_12.ogg,,,,,,,,,0,0,0,0,0,5,5,5,0,0,0,0,,,,,,,,,0,0,0,0,0,11,11,11,,,,,,,,,,,,,,,,,,,,,,,,,,,,,,,,,,,,,,,,,,,,,,,,1361.555176955,1369.677345546,,,,,,,,,,,,,,,,,,,,,,,,,,,,,,,,,,,,,,,,,,,,,,,,,,,,,,,,,,,,,,,,,tony_test,0,1,0,1,1,1,2,0,2,2020_Jan_30_1113,listening_fmri,3.2.4,59.95500125344973,
5,parcelated_audio/14/14_13.ogg,,,,,,,,,0,0,0,0,0,5,5,5,0,0,0,0,,,,,,,,,0,0,0,0,0,12,12,12,,,,,,,,,,,,,,,,,,,,,,,,,,,,,,,,,,,,,,,,,,,,,,,,1369.678101615,1375.9122923329999,,,,,,,,,,,,,,,,,,,,,,,,,,,,,,,,,,,,,,,,,,,,,,,,,,,,,,,,,,,,,,,,,tony_test,0,1,0,1,1,1,2,0,2,2020_Jan_30_1113,listening_fmri,3.2.4,59.95500125344973,
5,parcelated_audio/14/14_14.ogg,,,,,,,,,0,0,0,0,0,5,5,5,0,0,0,0,,,,,,,,,0,0,0,0,0,13,13,13,,,,,,,,,,,,,,,,,,,,,,,,,,,,,,,,,,,,,,,,,,,,,,,,1375.912661951,1382.5863881910002,,,,,,,,,,,,,,,,,,,,,,,,,,,,,,,,,,,,,,,,,,,,,,,,,,,,,,,,,,,,,,,,,tony_test,0,1,0,1,1,1,2,0,2,2020_Jan_30_1113,listening_fmri,3.2.4,59.95500125344973,
5,parcelated_audio/14/14_15.ogg,,,,,,,,,0,0,0,0,0,5,5,5,0,0,0,0,,,,,,,,,0,0,0,0,0,14,14,14,,,,,,,,,,,,,,,,,,,,,,,,,,,,,,,,,,,,,,,,,,,,,,,,1382.5866553439998,1389.8011408260002,,,,,,,,,,,,,,,,,,,,,,,,,,,,,,,,,,,,,,,,,,,,,,,,,,,,,,,,,,,,,,,,,tony_test,0,1,0,1,1,1,2,0,2,2020_Jan_30_1113,listening_fmri,3.2.4,59.95500125344973,
5,parcelated_audio/14/14_16.ogg,,,,,,,,,0,0,0,0,0,5,5,5,0,0,0,0,,,,,,,,,0,0,0,0,0,15,15,15,,,,,,,,,,,,,,,,,,,,,,,,,,,,,,,,,,,,,,,,,,,,,,,,1389.8014524419998,1395.3322481480002,,,,,,,,,,,,,,,,,,,,,,,,,,,,,,,,,,,,,,,,,,,,,,,,,,,,,,,,,,,,,,,,,tony_test,0,1,0,1,1,1,2,0,2,2020_Jan_30_1113,listening_fmri,3.2.4,59.95500125344973,
5,parcelated_audio/14/14_17.ogg,,,,,,,,,0,0,0,0,0,5,5,5,0,0,0,0,,,,,,,,,0,0,0,0,0,16,16,16,,,,,,,,,,,,,,,,,,,,,,,,,,,,,,,,,,,,,,,,,,,,,,,,1395.332517913,1405.139866879,,,,,,,,,,,,,,,,,,,,,,,,,,,,,,,,,,,,,,,,,,,,,,,,,,,,,,,,,,,,,,,,,tony_test,0,1,0,1,1,1,2,0,2,2020_Jan_30_1113,listening_fmri,3.2.4,59.95500125344973,
5,parcelated_audio/14/14_18.ogg,,,,,,,,,0,0,0,0,0,5,5,5,0,0,0,0,,,,,,,,,0,0,0,0,0,17,17,17,,,,,,,,,,,,,,,,,,,,,,,,,,,,,,,,,,,,,,,,,,,,,,,,1405.1401711709998,1412.825904122,,,,,,,,,,,,,,,,,,,,,,,,,,,,,,,,,,,,,,,,,,,,,,,,,,,,,,,,,,,,,,,,,tony_test,0,1,0,1,1,1,2,0,2,2020_Jan_30_1113,listening_fmri,3.2.4,59.95500125344973,
5,parcelated_audio/14/14_19.ogg,,,,,,,,,0,0,0,0,0,5,5,5,0,0,0,0,,,,,,,,,0,0,0,0,0,18,18,18,,,,,,,,,,,,,,,,,,,,,,,,,,,,,,,,,,,,,,,,,,,,,,,,1412.8261759079999,1415.795285031,,,,,,,,,,,,,,,,,,,,,,,,,,,,,,,,,,,,,,,,,,,,,,,,,,,,,,,,,,,,,,,,,tony_test,0,1,0,1,1,1,2,0,2,2020_Jan_30_1113,listening_fmri,3.2.4,59.95500125344973,
5,parcelated_audio/14/14_20.ogg,,,,,,,,,0,0,0,0,0,5,5,5,0,0,0,0,,,,,,,,,0,0,0,0,0,19,19,19,,,,,,,,,,,,,,,,,,,,,,,,,,,,,,,,,,,,,,,,,,,,,,,,1415.795922304,1418.0406939749998,,,,,,,,,,,,,,,,,,,,,,,,,,,,,,,,,,,,,,,,,,,,,,,,,,,,,,,,,,,,,,,,,tony_test,0,1,0,1,1,1,2,0,2,2020_Jan_30_1113,listening_fmri,3.2.4,59.95500125344973,
5,parcelated_audio/14/14_21.ogg,,,,,,,,,0,0,0,0,0,5,5,5,0,0,0,0,,,,,,,,,0,0,0,0,0,20,20,20,,,,,,,,,,,,,,,,,,,,,,,,,,,,,,,,,,,,,,,,,,,,,,,,1418.0410527259999,1427.711028861,,,,,,,,,,,,,,,,,,,,,,,,,,,,,,,,,,,,,,,,,,,,,,,,,,,,,,,,,,,,,,,,,tony_test,0,1,0,1,1,1,2,0,2,2020_Jan_30_1113,listening_fmri,3.2.4,59.95500125344973,
5,parcelated_audio/14/14_22.ogg,,,,,,,,,0,0,0,0,0,5,5,5,0,0,0,0,,,,,,,,,0,0,0,0,0,21,21,21,,,,,,,,,,,,,,,,,,,,,,,,,,,,,,,,,,,,,,,,,,,,,,,,1427.711301523,1434.1684938740002,,,,,,,,,,,,,,,,,,,,,,,,,,,,,,,,,,,,,,,,,,,,,,,,,,,,,,,,,,,,,,,,,tony_test,0,1,0,1,1,1,2,0,2,2020_Jan_30_1113,listening_fmri,3.2.4,59.95500125344973,
5,parcelated_audio/14/14_23.ogg,,,,,,,,,0,0,0,0,0,5,5,5,0,0,0,0,,,,,,,,,0,0,0,0,0,22,22,22,,,,,,,,,,,,,,,,,,,,,,,,,,,,,,,,,,,,,,,,,,,,,,,,1434.168766734,1439.336663337,,,,,,,,,,,,,,,,,,,,,,,,,,,,,,,,,,,,,,,,,,,,,,,,,,,,,,,,,,,,,,,,,tony_test,0,1,0,1,1,1,2,0,2,2020_Jan_30_1113,listening_fmri,3.2.4,59.95500125344973,
5,parcelated_audio/14/14_24.ogg,,,,,,,,,0,0,0,0,0,5,5,5,0,0,0,0,,,,,,,,,0,0,0,0,0,23,23,23,,,,,,,,,,,,,,,,,,,,,,,,,,,,,,,,,,,,,,,,,,,,,,,,1439.3375008300002,1450.3730662280002,,,,,,,,,,,,,,,,,,,,,,,,,,,,,,,,,,,,,,,,,,,,,,,,,,,,,,,,,,,,,,,,,tony_test,0,1,0,1,1,1,2,0,2,2020_Jan_30_1113,listening_fmri,3.2.4,59.95500125344973,
5,parcelated_audio/14/14_25.ogg,,,,,,,,,0,0,0,0,0,5,5,5,0,0,0,0,,,,,,,,,0,0,0,0,0,24,24,24,,,,,,,,,,,,,,,,,,,,,,,,,,,,,,,,,,,,,,,,,,,,,,,,1450.373479358,1457.141500501,,,,,,,,,,,,,,,,,,,,,,,,,,,,,,,,,,,,,,,,,,,,,,,,,,,,,,,,,,,,,,,,,tony_test,0,1,0,1,1,1,2,0,2,2020_Jan_30_1113,listening_fmri,3.2.4,59.95500125344973,
5,parcelated_audio/14/14_26.ogg,,,,,,,,,0,0,0,0,0,5,5,5,0,0,0,0,,,,,,,,,0,0,0,0,0,25,25,25,,,,,,,,,,,,,,,,,,,,,,,,,,,,,,,,,,,,,,,,,,,,,,,,1457.1418015269999,1459.4065824390002,,,,,,,,,,,,,,,,,,,,,,,,,,,,,,,,,,,,,,,,,,,,,,,,,,,,,,,,,,,,,,,,,tony_test,0,1,0,1,1,1,2,0,2,2020_Jan_30_1113,listening_fmri,3.2.4,59.95500125344973,
5,parcelated_audio/14/14_27.ogg,,,,,,,,,0,0,0,0,0,5,5,5,0,0,0,0,,,,,,,,,0,0,0,0,0,26,26,26,,,,,,,,,,,,,,,,,,,,,,,,,,,,,,,,,,,,,,,,,,,,,,,,1459.4069688729999,1465.523242865,,,,,,,,,,,,,,,,,,,,,,,,,,,,,,,,,,,,,,,,,,,,,,,,,,,,,,,,,,,,,,,,,tony_test,0,1,0,1,1,1,2,0,2,2020_Jan_30_1113,listening_fmri,3.2.4,59.95500125344973,
5,parcelated_audio/14/14_28.ogg,,,,,,,,,0,0,0,0,0,5,5,5,0,0,0,0,,,,,,,,,0,0,0,0,0,27,27,27,,,,,,,,,,,,,,,,,,,,,,,,,,,,,,,,,,,,,,,,,,,,,,,,1465.5240432990001,1468.5998262270002,,,,,,,,,,,,,,,,,,,,,,,,,,,,,,,,,,,,,,,,,,,,,,,,,,,,,,,,,,,,,,,,,tony_test,0,1,0,1,1,1,2,0,2,2020_Jan_30_1113,listening_fmri,3.2.4,59.95500125344973,
5,parcelated_audio/14/14_29.ogg,,,,,,,,,0,0,0,0,0,5,5,5,0,0,0,0,,,,,,,,,0,0,0,0,0,28,28,28,,,,,,,,,,,,,,,,,,,,,,,,,,,,,,,,,,,,,,,,,,,,,,,,1468.6001358760002,1471.069925484,,,,,,,,,,,,,,,,,,,,,,,,,,,,,,,,,,,,,,,,,,,,,,,,,,,,,,,,,,,,,,,,,tony_test,0,1,0,1,1,1,2,0,2,2020_Jan_30_1113,listening_fmri,3.2.4,59.95500125344973,
5,parcelated_audio/14/14_30.ogg,,,,,,,,,0,0,0,0,0,5,5,5,0,0,0,0,,,,,,,,,0,0,0,0,0,29,29,29,,,,,,,,,,,,,,,,,,,,,,,,,,,,,,,,,,,,,,,,,,,,,,,,1471.0703758910001,1475.4266951759998,,,,,,,,,,,,,,,,,,,,,,,,,,,,,,,,,,,,,,,,,,,,,,,,,,,,,,,,,,,,,,,,,tony_test,0,1,0,1,1,1,2,0,2,2020_Jan_30_1113,listening_fmri,3.2.4,59.95500125344973,
5,parcelated_audio/14/14_31.ogg,,,,,,,,,0,0,0,0,0,5,5,5,0,0,0,0,,,,,,,,,0,0,0,0,0,30,30,30,,,,,,,,,,,,,,,,,,,,,,,,,,,,,,,,,,,,,,,,,,,,,,,,1475.4270841599998,1482.8125854090001,,,,,,,,,,,,,,,,,,,,,,,,,,,,,,,,,,,,,,,,,,,,,,,,,,,,,,,,,,,,,,,,,tony_test,0,1,0,1,1,1,2,0,2,2020_Jan_30_1113,listening_fmri,3.2.4,59.95500125344973,
5,parcelated_audio/14/14_32.ogg,,,,,,,,,0,0,0,0,0,5,5,5,0,0,0,0,,,,,,,,,0,0,0,0,0,31,31,31,,,,,,,,,,,,,,,,,,,,,,,,,,,,,,,,,,,,,,,,,,,,,,,,1482.8128859689998,1490.0933171570002,,,,,,,,,,,,,,,,,,,,,,,,,,,,,,,,,,,,,,,,,,,,,,,,,,,,,,,,,,,,,,,,,tony_test,0,1,0,1,1,1,2,0,2,2020_Jan_30_1113,listening_fmri,3.2.4,59.95500125344973,
5,parcelated_audio/14/14_33.ogg,,,,,,,,,0,0,0,0,0,5,5,5,0,0,0,0,,,,,,,,,0,0,0,0,0,32,32,32,,,,,,,,,,,,,,,,,,,,,,,,,,,,,,,,,,,,,,,,,,,,,,,,1490.093595988,1496.765485968,,,,,,,,,,,,,,,,,,,,,,,,,,,,,,,,,,,,,,,,,,,,,,,,,,,,,,,,,,,,,,,,,tony_test,0,1,0,1,1,1,2,0,2,2020_Jan_30_1113,listening_fmri,3.2.4,59.95500125344973,
5,,,,,,,,,,0,0,0,0,0,5,5,5,0,0,0,0,,,,,,,,,0,0,0,0,,,,,,,,,,,,,,,,,,,,,,,,,,,,,,,,,,,,,,,,,,,,,,,,,,,,,,,,,,,,,,,,,,,,,,,,,,,,,,,,,,,,,,,,,,,,,,,,,,,,,,,,,,,,,,,,,,,,,,tony_test,0,1,0,1,1,1,2,0,2,2020_Jan_30_1113,listening_fmri,3.2.4,59.95500125344973,
5,,,,,,,,,,0,0,0,0,0,5,5,5,0,0,0,0,,,,,,,,,,,,,,,,,,,,,,,,,,,,,,,,,,,,,,,,,,1496.7658584399999,1502.760069184,1519.312073212,None,,,,,,,,,,,,,,,,,,,,,1525.3114785,None,1525.3114785,None,,,,,,,,,,,,,,,,,,,,,,,,,,,,,,,,,,,,,,,,,,,,,,,,,,,,,,,,,,,,,tony_test,0,1,0,1,1,1,2,0,2,2020_Jan_30_1113,listening_fmri,3.2.4,59.95500125344973,
5,,,,,,,,,,0,0,0,0,0,5,5,5,,,,,,,,,,,,,,,,,,,,,,,,,,,,,,,,,,,,,,,,,,,,,,,,,,,,,,,,,,,,,,,,,,,,,,,,,,,,,,,,,,,,,,,,,,,,,,,,,,,,,,,,,,,,,,,,,,,,,,,,,,,,,,,,,,,,,,tony_test,0,1,0,1,1,1,2,0,2,2020_Jan_30_1113,listening_fmri,3.2.4,59.95500125344973,
6,,,,,,,,,,0,0,0,0,0,6,6,6,,,,,,,,,,,,,,,,,,,,,,,,,,,,,,,,,,,,,,,,,,,,,,,,,,,,,,,,,,,,,,,,,,,,,,,,,,,,,,,,,,,,,,,,,,,,,,,,,,,,,,,,,,,,,,,,,,,,,,,,,,,,,,,,,,,,,,tony_test,0,1,0,1,1,1,2,0,2,2020_Jan_30_1113,listening_fmri,3.2.4,59.95500125344973,
7,,,,,,,,,,0,0,0,0,0,7,7,7,,,,,,,,,,,,,,,,,,,,,,,,,,,,,,,,,,,,,,,,,,,,,,,,,,,,,,,,,,,,,,,,,,,,,,,,,,,,,,,,,,,,,,,,,,,,,,,,,,,,,,,,,,,,,,,,,,,,,,,,,,,,,,,,,,,,,,tony_test,0,1,0,1,1,1,2,0,2,2020_Jan_30_1113,listening_fmri,3.2.4,59.95500125344973,
,,,,,,,,,,0,0,0,0,,,,,,,,,,,,,,,,,,,,,,,,,,,,,,,,,,,,,,,,,,,,,,,,,,,,,,,,,,,,,,,,,,,,,,,,,,,,,,,,,,,,,,,,,,,,,,,,,,,,,,,,,,,,,,,,,,,,,,,,,,,,,,,,,,,,,,,,,,tony_test,0,1,0,1,1,1,2,0,2,2020_Jan_30_1113,listening_fmri,3.2.4,59.95500125344973,
,,,,,,,,,,,,,,,,,,,,,,,,,,,,,,,,,,,,,,,,,,,,,,0,0,0,0,,,,,,,,,,,,,,,,,,,,,,,,,,,,,,,,,,,,,,,,,,,,,,,,,,,,,,,,,,,,,,,,,,,,,,,,,,,,,,,,,,,,,,,,,,,,,,,,,,,,1526.3462074440001,None,tony_test,0,1,0,1,1,1,2,0,2,2020_Jan_30_1113,listening_fmri,3.2.4,59.95500125344973,
,,,,,,,,,,,,,,,,,,,,,,,,,,,,,,,,,,,,,,,,,,,,,,1,0,1,0,,,,,,,,,,,,,,,,,,,,,,,,,,,,,,,,,,,,,,,,,,,,,,,,,,,,,,,,,,,,,,,,,,,,,,,,,,,,,,,,,,,,,,,,,,,,,,,,,,,,1526.862567073,None,tony_test,0,1,0,1,1,1,2,0,2,2020_Jan_30_1113,listening_fmri,3.2.4,59.95500125344973,
,,,,,,,,,,,,,,,,,,,,,,,,,,,,,,,,,,,,,,,,,,,,,,2,0,2,0,,,,,,,,,,,,,,,,,,,,,,,,,,,,,,,,,,,,,,,,,,,,,,,,,,,,,,,,,,,,,,,,,,,,,,,,,,,,,,,,,,,,,,,,,,,,,,,,,,,,1527.3613926110002,None,tony_test,0,1,0,1,1,1,2,0,2,2020_Jan_30_1113,listening_fmri,3.2.4,59.95500125344973,
,,,,,,,,,,,,,,,,,,,,,,,,,,,,,,,,,,,,,,,,,,,,,,3,0,3,0,,,,,,,,,,,,,,,,,,,,,,,,,,,,,,,,,,,,,,,,,,,,,,,,,,,,,,,,,,,,,,,,,,,,,,,,,,,,,,,,,,,,,,,,,,,,,,,,,,,,1527.862250851,None,tony_test,0,1,0,1,1,1,2,0,2,2020_Jan_30_1113,listening_fmri,3.2.4,59.95500125344973,
,,,,,,,,,,,,,,,,,,,,,,,,,,,,,,,,,,,,,,,,,,,,,,4,0,4,0,,,,,,,,,,,,,,,,,,,,,,,,,,,,,,,,,,,,,,,,,,,,,,,,,,,,,,,,,,,,,,,,,,,,,,,,,,,,,,,,,,,,,,,,,,,,,,,,,,,,1528.3613615210002,None,tony_test,0,1,0,1,1,1,2,0,2,2020_Jan_30_1113,listening_fmri,3.2.4,59.95500125344973,
