instructText,count,trials_5.thisRepN,trials_5.thisTrialN,trials_5.thisN,trials_5.thisIndex,trials_6.thisRepN,trials_6.thisTrialN,trials_6.thisN,trials_6.thisIndex,trials.thisRepN,trials.thisTrialN,trials.thisN,trials.thisIndex,trials_8.thisRepN,trials_8.thisTrialN,trials_8.thisN,trials_8.thisIndex,story_list_block1,action_list_block1,story_list_block2,action_list_block2,key_resp_3.keys,key_resp_3.rt,key_resp_3.started,key_resp_3.stopped,text_13.started,text_13.stopped,text_23.started,text_23.stopped,text_43.started,text_43.stopped,key_resp_11.keys,key_resp_11.rt,key_resp_11.started,key_resp_11.stopped,text_44.started,text_44.stopped,image_10.started,image_10.stopped,text_22.started,text_22.stopped,recall,question1_answer,order of question,text_14.started,text_14.stopped,text_15.started,text_15.stopped,image_6.started,image_6.stopped,polygon_3.started,polygon_3.stopped,bottom_line_3.started,bottom_line_3.stopped,right_line_3.started,right_line_3.stopped,left_line_3.started,left_line_3.stopped,question2_answer,text_16.started,text_16.stopped,text_17.started,text_17.stopped,image_7.started,image_7.stopped,polygon_4.started,polygon_4.stopped,bottom_line_4.started,bottom_line_4.stopped,right_line_4.started,right_line_4.stopped,left_line_4.started,left_line_4.stopped,question3_answer,text_18.started,text_18.stopped,text_19.started,text_19.stopped,image_8.started,image_8.stopped,polygon_5.started,polygon_5.stopped,bottom_line_5.started,bottom_line_5.stopped,right_line_5.started,right_line_5.stopped,left_line_5.started,left_line_5.stopped,question4_answer,text_20.started,text_20.stopped,text_21.started,text_21.stopped,image_9.started,image_9.stopped,polygon_6.started,polygon_6.stopped,bottom_line_6.started,bottom_line_6.stopped,right_line_6.started,right_line_6.stopped,left_line_6.started,left_line_6.stopped,question5_answer,text_25.started,text_25.stopped,text_26.started,text_26.stopped,image_11.started,image_11.stopped,polygon_7.started,polygon_7.stopped,bottom_line_7.started,bottom_line_7.stopped,right_line_7.started,right_line_7.stopped,left_line_7.started,left_line_7.stopped,question6_answer,text_27.started,text_27.stopped,text_28.started,text_28.stopped,image_12.started,image_12.stopped,polygon_8.started,polygon_8.stopped,bottom_line_8.started,bottom_line_8.stopped,right_line_8.started,right_line_8.stopped,left_line_8.started,left_line_8.stopped,question7_answer,text_29.started,text_29.stopped,text_30.started,text_30.stopped,image_13.started,image_13.stopped,polygon_9.started,polygon_9.stopped,bottom_line_9.started,bottom_line_9.stopped,right_line_9.started,right_line_9.stopped,left_line_9.started,left_line_9.stopped,question8_answer,text_31.started,text_31.stopped,text_32.started,text_32.stopped,image_14.started,image_14.stopped,polygon_10.started,polygon_10.stopped,bottom_line_10.started,bottom_line_10.stopped,right_line_10.started,right_line_10.stopped,left_line_10.started,left_line_10.stopped,text_36.started,text_36.stopped,participant,sA,sB,lA,lB,block_struct,random_seed,date,expName,psychopyVersion,frameRate,
"In the final part of the experiment, please answer 8 questions about each story.",,0,0,0,0,,,,,,,,,,,,,[31 13 42 22 24 44 33 11],[2 1 2 3 1 4 4 3],[34 43 32 41 23 14 12 21],[4 4 2 2 1 1 3 3],space,10.909387137000067,8.595932949000144,None,8.595932949000144,None,8.595932949000144,None,,,,,,,,,,,,,,,,,,,,,,,,,,,,,,,,,,,,,,,,,,,,,,,,,,,,,,,,,,,,,,,,,,,,,,,,,,,,,,,,,,,,,,,,,,,,,,,,,,,,,,,,,,,,,,,,,,,,,,,,,,,,,,,,,,,,,,,,,tony_test,0,1,0,1,1,2,2020_Jan_30_1221,body_behavioural,3.2.4,59.9609803920249,
"We did not tell you to think of all or some of these questions during the story, but please do your best to answer them.",,0,1,1,1,,,,,,,,,,,,,,,,,space,3.6650465350001014,19.545653377999997,None,19.545653377999997,None,19.545653377999997,None,,,,,,,,,,,,,,,,,,,,,,,,,,,,,,,,,,,,,,,,,,,,,,,,,,,,,,,,,,,,,,,,,,,,,,,,,,,,,,,,,,,,,,,,,,,,,,,,,,,,,,,,,,,,,,,,,,,,,,,,,,,,,,,,,,,,,,,,,tony_test,0,1,0,1,1,2,2020_Jan_30_1221,body_behavioural,3.2.4,59.9609803920249,
"Answer as much as you remember, and be specific and concrete in your answers. It is best to try to be as faithful as possible to what the story actually said.
",,0,2,2,2,,,,,,,,,,,,,,,,,space,5.043458845999794,23.246944583999948,None,23.246944583999948,None,23.246944583999948,None,,,,,,,,,,,,,,,,,,,,,,,,,,,,,,,,,,,,,,,,,,,,,,,,,,,,,,,,,,,,,,,,,,,,,,,,,,,,,,,,,,,,,,,,,,,,,,,,,,,,,,,,,,,,,,,,,,,,,,,,,,,,,,,,,,,,,,,,,tony_test,0,1,0,1,1,2,2020_Jan_30_1221,body_behavioural,3.2.4,59.9609803920249,
"When you have finished typing your answer, hit ‘return’ to submit your answer and move onto the next question. ",,0,3,3,3,,,,,,,,,,,,,,,,,space,3.5925443290000203,28.330265370000006,None,28.330265370000006,None,28.330265370000006,None,,,,,,,,,,,,,,,,,,,,,,,,,,,,,,,,,,,,,,,,,,,,,,,,,,,,,,,,,,,,,,,,,,,,,,,,,,,,,,,,,,,,,,,,,,,,,,,,,,,,,,,,,,,,,,,,,,,,,,,,,,,,,,,,,,,,,,,,,tony_test,0,1,0,1,1,2,2020_Jan_30_1221,body_behavioural,3.2.4,59.9609803920249,
,0,,,,,0,0,0,0,0,0,0,0,,,,,,,,,,,,,,,,,31.963486903000103,None,space,1.136202031000039,31.963486903000103,None,31.963486903000103,None,33.19639021100011,None,33.19639021100011,None,"One of them orders a medium rare steak with a martini, while the other orders veal with a manhattan",Mr. shelton and mr. gordon are both flight/airplane/aviation businesspeople.,"[1, 2]",34.878472025000065,None,34.878472025000065,None,34.878472025000065,None,34.878472025000065,None,34.878472025000065,None,34.878472025000065,None,34.878472025000065,None,I do not remember,99.86317291,None,99.86317291,None,99.86317291,None,99.86317291,None,99.86317291,None,99.86317291,None,99.86317291,None,I do not remember,176.19522462600003,None,176.19522462600003,None,176.19522462600003,None,176.19522462600003,None,176.19522462600003,None,176.19522462600003,None,176.19522462600003,None,Handshake.,183.57829529200012,None,183.57829529200012,None,183.57829529200012,None,183.57829529200012,None,183.57829529200012,None,183.57829529200012,None,183.57829529200012,None,"I do not remember how the restaurant is decorated, though the menu is heavy and lined with felt",195.26173387400013,None,195.26173387400013,None,195.26173387400013,None,195.26173387400013,None,195.26173387400013,None,195.26173387400013,None,195.26173387400013,None,"Heavy, lined with felt, and with a long drink menu at the end",220.510738469,None,220.510738469,None,220.510738469,None,220.510738469,None,220.510738469,None,220.510738469,None,220.510738469,None,"One of them orders a medium rare steak with a martini, while the other orders veal with a manhattan",236.79399973,None,236.79399973,None,236.79399973,None,236.79399973,None,236.79399973,None,236.79399973,None,236.79399973,None,,,,,,,,,,,,,,,,,,tony_test,0,1,0,1,1,2,2020_Jan_30_1221,body_behavioural,3.2.4,59.9609803920249,
,0,,,,,0,0,0,0,,,,,,,,,,,,,,,,,,,,,,,,,,,,,,,,,"They do not like it as much as they initally thought they would, thinking that it was dry",,,,,,,,,,,,,,,,,,,,,,,,,,,,,,,,,,,,,,,,,,,,,,,,,,,,,,,,,,,,,,,,,,,,,,,,,,,,,,,,,,,,,,,,,,,,,,,,,,,,,,,,,,,"They do not like it as much as they initally thought they would, thinking that it was dry",258.12666415800004,None,258.12666415800004,None,258.12666415800004,None,258.12666415800004,None,258.12666415800004,None,258.12666415800004,None,258.12666415800004,None,,,tony_test,0,1,0,1,1,2,2020_Jan_30_1221,body_behavioural,3.2.4,59.9609803920249,
,1,,,,,0,1,1,1,0,0,0,0,,,,,,,,,,,,,,,,,271.49324056900014,None,space,2.3696376249999958,271.49324056900014,None,271.49324056900014,None,273.90889311399997,None,273.90889311399997,None,"Liam agrees that breaking up is best, as he is also done with the constant fighting",I do not remember,"[2, 1]",275.10990400700007,None,275.10990400700007,None,275.10990400700007,None,275.10990400700007,None,275.10990400700007,None,275.10990400700007,None,275.10990400700007,None,Items for their dinner party that afternoon,282.426841383,None,282.426841383,None,282.426841383,None,282.426841383,None,282.426841383,None,282.426841383,None,282.426841383,None,I do not remember,292.2095928030001,None,292.2095928030001,None,292.2095928030001,None,292.2095928030001,None,292.2095928030001,None,292.2095928030001,None,292.2095928030001,None,Emanuella pays with her credit card,299.9099694450001,None,299.9099694450001,None,299.9099694450001,None,299.9099694450001,None,299.9099694450001,None,299.9099694450001,None,299.9099694450001,None,I do not remember,317.89254204400004,None,317.89254204400004,None,317.89254204400004,None,317.89254204400004,None,317.89254204400004,None,317.89254204400004,None,317.89254204400004,None,Constant fighting,327.07647193799994,None,327.07647193799994,None,327.07647193799994,None,327.07647193799994,None,327.07647193799994,None,327.07647193799994,None,327.07647193799994,None,"Liam agrees that breaking up is best, as he is also done with the constant fighting",333.77670047100014,None,333.77670047100014,None,333.77670047100014,None,333.77670047100014,None,333.77670047100014,None,333.77670047100014,None,333.77670047100014,None,,,,,,,,,,,,,,,,,,tony_test,0,1,0,1,1,2,2020_Jan_30_1221,body_behavioural,3.2.4,59.9609803920249,
,1,,,,,0,1,1,1,,,,,,,,,,,,,,,,,,,,,,,,,,,,,,,,,I do not remember,,,,,,,,,,,,,,,,,,,,,,,,,,,,,,,,,,,,,,,,,,,,,,,,,,,,,,,,,,,,,,,,,,,,,,,,,,,,,,,,,,,,,,,,,,,,,,,,,,,,,,,,,,,I do not remember,350.20891350600004,None,350.20891350600004,None,350.20891350600004,None,350.20891350600004,None,350.20891350600004,None,350.20891350600004,None,350.20891350600004,None,,,tony_test,0,1,0,1,1,2,2020_Jan_30_1221,body_behavioural,3.2.4,59.9609803920249,
,2,,,,,0,2,2,2,0,0,0,0,,,,,,,,,,,,,,,,,355.92540353100003,None,space,1.350695905000066,355.92540353100003,None,355.92540353100003,None,357.32398669500003,None,357.32398669500003,None,Next tuesday,Anna does not have much time at all,"[2, 1]",358.5252520230001,None,358.5252520230001,None,358.5252520230001,None,358.5252520230001,None,358.5252520230001,None,358.5252520230001,None,358.5252520230001,None,A metal detector is malfunctioning,366.30866141399997,None,366.30866141399997,None,366.30866141399997,None,366.30866141399997,None,366.30866141399997,None,366.30866141399997,None,366.30866141399997,None,J37,375.3583895490001,None,375.3583895490001,None,375.3583895490001,None,375.3583895490001,None,375.3583895490001,None,375.3583895490001,None,375.3583895490001,None,Anna sits in the window seat of the business class section of the plane,380.841793092,None,380.841793092,None,380.841793092,None,380.841793092,None,380.841793092,None,380.841793092,None,380.841793092,None,I do not remember,398.2744864030001,None,398.2744864030001,None,398.2744864030001,None,398.2744864030001,None,398.2744864030001,None,398.2744864030001,None,398.2744864030001,None,Something about gymnastics,405.957907857,None,405.957907857,None,405.957907857,None,405.957907857,None,405.957907857,None,405.957907857,None,405.957907857,None,Next tuesday,420.0752041400001,None,420.0752041400001,None,420.0752041400001,None,420.0752041400001,None,420.0752041400001,None,420.0752041400001,None,420.0752041400001,None,,,,,,,,,,,,,,,,,,tony_test,0,1,0,1,1,2,2020_Jan_30_1221,body_behavioural,3.2.4,59.9609803920249,
,2,,,,,0,2,2,2,,,,,,,,,,,,,,,,,,,,,,,,,,,,,,,,,I do not remember,,,,,,,,,,,,,,,,,,,,,,,,,,,,,,,,,,,,,,,,,,,,,,,,,,,,,,,,,,,,,,,,,,,,,,,,,,,,,,,,,,,,,,,,,,,,,,,,,,,,,,,,,,,I do not remember,428.97448100099996,None,428.97448100099996,None,428.97448100099996,None,428.97448100099996,None,428.97448100099996,None,428.97448100099996,None,428.97448100099996,None,,,tony_test,0,1,0,1,1,2,2020_Jan_30_1221,body_behavioural,3.2.4,59.9609803920249,
,3,,,,,0,3,3,3,,,,,,,,,,,,,,,,,,,,,,,,,,,,,,,,,I do not remember,,,,,,,,,,,,,,,,,,,,,,,,,,,,,,,,,,,,,,,,,,,,,,,,,,,,,,,,,,,,,,,,,,,,,,,,,,,,,,,,,,,,,,,,,,,,,,,,,,,,,,,,,,,I do not remember,433.59056632700003,None,433.59056632700003,None,433.59056632700003,None,433.59056632700003,None,433.59056632700003,None,433.59056632700003,None,433.59056632700003,None,,,tony_test,0,1,0,1,1,2,2020_Jan_30_1221,body_behavioural,3.2.4,59.9609803920249,
,4,,,,,0,4,4,4,0,0,0,0,,,,,,,,,,,,,,,,,437.85625568900014,None,space,1.077111694999985,437.85625568900014,None,437.85625568900014,None,438.9739323870001,None,438.9739323870001,None,The number of protons determine the element,Since freshman year of college,"[1, 2]",441.35707167500004,None,441.35707167500004,None,441.35707167500004,None,441.35707167500004,None,441.35707167500004,None,441.35707167500004,None,441.35707167500004,None,5 red diamonds,448.92392208900014,None,448.92392208900014,None,448.92392208900014,None,448.92392208900014,None,448.92392208900014,None,448.92392208900014,None,448.92392208900014,None,Piece of paper,452.490757736,None,452.490757736,None,452.490757736,None,452.490757736,None,452.490757736,None,452.490757736,None,452.490757736,None,Sister,460.05776528699994,None,460.05776528699994,None,460.05776528699994,None,460.05776528699994,None,460.05776528699994,None,460.05776528699994,None,460.05776528699994,None,I do not remember,462.10781290800014,None,462.10781290800014,None,462.10781290800014,None,462.10781290800014,None,462.10781290800014,None,462.10781290800014,None,462.10781290800014,None,They are in chemistry class and the lecture is about atomic numbers,467.62427277000006,None,467.62427277000006,None,467.62427277000006,None,467.62427277000006,None,467.62427277000006,None,467.62427277000006,None,467.62427277000006,None,The number of protons determine the element,484.123531211,None,484.123531211,None,484.123531211,None,484.123531211,None,484.123531211,None,484.123531211,None,484.123531211,None,,,,,,,,,,,,,,,,,,tony_test,0,1,0,1,1,2,2020_Jan_30_1221,body_behavioural,3.2.4,59.9609803920249,
,4,,,,,0,4,4,4,,,,,,,,,,,,,,,,,,,,,,,,,,,,,,,,,The next assessment is the midterm and it is scheduled sometime in the next couple weeks,,,,,,,,,,,,,,,,,,,,,,,,,,,,,,,,,,,,,,,,,,,,,,,,,,,,,,,,,,,,,,,,,,,,,,,,,,,,,,,,,,,,,,,,,,,,,,,,,,,,,,,,,,,The next assessment is the midterm and it is scheduled sometime in the next couple weeks,492.624109739,None,492.624109739,None,492.624109739,None,492.624109739,None,492.624109739,None,492.624109739,None,492.624109739,None,,,tony_test,0,1,0,1,1,2,2020_Jan_30_1221,body_behavioural,3.2.4,59.9609803920249,
,5,,,,,0,5,5,5,0,0,0,0,,,,,,,,,,,,,,,,,513.8900626960001,None,space,1.1866009389998453,513.8900626960001,None,513.8900626960001,None,515.1227760040001,None,515.1227760040001,None,I do not remembre,I do not remember ,"[1, 2]",516.456102351,None,516.456102351,None,516.456102351,None,516.456102351,None,516.456102351,None,516.456102351,None,516.456102351,None,Are you from los angeles,522.3398050220001,None,522.3398050220001,None,522.3398050220001,None,522.3398050220001,None,522.3398050220001,None,522.3398050220001,None,522.3398050220001,None,I do not remember,532.6229873780001,None,532.6229873780001,None,532.6229873780001,None,532.6229873780001,None,532.6229873780001,None,532.6229873780001,None,532.6229873780001,None,I do not remember,537.1399512309999,None,537.1399512309999,None,537.1399512309999,None,537.1399512309999,None,537.1399512309999,None,537.1399512309999,None,537.1399512309999,None,I do not remember,540.43911718,None,540.43911718,None,540.43911718,None,540.43911718,None,540.43911718,None,540.43911718,None,540.43911718,None,I do not remember,543.9389371050002,None,543.9389371050002,None,543.9389371050002,None,543.9389371050002,None,543.9389371050002,None,543.9389371050002,None,543.9389371050002,None,I do not remembre,550.0227396610001,None,550.0227396610001,None,550.0227396610001,None,550.0227396610001,None,550.0227396610001,None,550.0227396610001,None,550.0227396610001,None,,,,,,,,,,,,,,,,,,tony_test,0,1,0,1,1,2,2020_Jan_30_1221,body_behavioural,3.2.4,59.9609803920249,
,5,,,,,0,5,5,5,,,,,,,,,,,,,,,,,,,,,,,,,,,,,,,,,,,,,,,,,,,,,,,,,,,,,,,,,,,,,,,,,,,,,,,,,,,,,,,,,,,,,,,,,,,,,,,,,,,,,,,,,,,,,,,,,,,,,,,,,,,,,,,,,,,,,,,,,,,,,554.3728553600001,None,554.3728553600001,None,554.3728553600001,None,554.3728553600001,None,554.3728553600001,None,554.3728553600001,None,554.3728553600001,None,,,tony_test,0,1,0,1,1,2,2020_Jan_30_1221,body_behavioural,3.2.4,59.9609803920249,
,6,,,,,0,6,6,6,0,0,0,0,,,,,,,,,,,,,,,,,558.5223269550002,None,space,0.738879918000066,558.5223269550002,None,558.5223269550002,None,559.304634978,None,559.304634978,None,Orange grocerie,I do not remember,"[2, 1]",560.389563509,None,560.389563509,None,560.389563509,None,560.389563509,None,560.389563509,None,560.389563509,None,560.389563509,None,"Crackers, ketchup, and a drink",564.806019634,None,564.806019634,None,564.806019634,None,564.806019634,None,564.806019634,None,564.806019634,None,564.806019634,None,10,582.056611299,None,582.056611299,None,582.056611299,None,582.056611299,None,582.056611299,None,582.056611299,None,582.056611299,None,I do not remember,593.9392270559999,None,593.9392270559999,None,593.9392270559999,None,593.9392270559999,None,593.9392270559999,None,593.9392270559999,None,593.9392270559999,None,Ms. bianchi is a italian cheese vendor while ms morrison is a grocery store distributor,600.17171538,None,600.17171538,None,600.17171538,None,600.17171538,None,600.17171538,None,600.17171538,None,600.17171538,None,,624.2548185420001,None,624.2548185420001,None,624.2548185420001,None,624.2548185420001,None,624.2548185420001,None,624.2548185420001,None,624.2548185420001,None,Orange grocerie,629.238760336,None,629.238760336,None,629.238760336,None,629.238760336,None,629.238760336,None,629.238760336,None,629.238760336,None,,,,,,,,,,,,,,,,,,tony_test,0,1,0,1,1,2,2020_Jan_30_1221,body_behavioural,3.2.4,59.9609803920249,
,6,,,,,0,6,6,6,,,,,,,,,,,,,,,,,,,,,,,,,,,,,,,,,,,,,,,,,,,,,,,,,,,,,,,,,,,,,,,,,,,,,,,,,,,,,,,,,,,,,,,,,,,,,,,,,,,,,,,,,,,,,,,,,,,,,,,,,,,,,,,,,,,,,,,,,,,,,635.637431786,None,635.637431786,None,635.637431786,None,635.637431786,None,635.637431786,None,635.637431786,None,635.637431786,None,,,tony_test,0,1,0,1,1,2,2020_Jan_30_1221,body_behavioural,3.2.4,59.9609803920249,
,7,,,,,0,7,7,7,,,,,,,,,,,,,,,,,,,,,,,,,,,,,,,,,,,,,,,,,,,,,,,,,,,,,,,,,,,,,,,,,,,,,,,,,,,,,,,,,,,,,,,,,,,,,,,,,,,,,,,,,,,,,,,,,,,,,,,,,,,,,,,,,,,,,,,,,,,,,643.1709248050001,None,643.1709248050001,None,643.1709248050001,None,643.1709248050001,None,643.1709248050001,None,643.1709248050001,None,643.1709248050001,None,,,tony_test,0,1,0,1,1,2,2020_Jan_30_1221,body_behavioural,3.2.4,59.9609803920249,
,8,,,,,0,8,8,8,0,0,0,0,,,,,,,,,,,,,,,,,644.0873271370001,None,space,0.6688976840000578,644.0873271370001,None,644.0873271370001,None,644.8041241779999,None,644.8041241779999,None,Augustus tried to beautify rome so that it would resemble athens,They are both college students with finance interests and dealings,"[1, 2]",648.1043271020001,None,648.1043271020001,None,648.1043271020001,None,648.1043271020001,None,648.1043271020001,None,648.1043271020001,None,648.1043271020001,None,28000 dollars,659.3710194729999,None,659.3710194729999,None,659.3710194729999,None,659.3710194729999,None,659.3710194729999,None,659.3710194729999,None,659.3710194729999,None, ,669.1876358520001,None,669.1876358520001,None,669.1876358520001,None,669.1876358520001,None,669.1876358520001,None,669.1876358520001,None,669.1876358520001,None,Hug but it is an informal gesture,673.8883769680001,None,673.8883769680001,None,673.8883769680001,None,673.8883769680001,None,673.8883769680001,None,673.8883769680001,None,673.8883769680001,None,,683.3215241130001,None,683.3215241130001,None,683.3215241130001,None,683.3215241130001,None,683.3215241130001,None,683.3215241130001,None,683.3215241130001,None,History class about augustus caesar.,685.404808106,None,685.404808106,None,685.404808106,None,685.404808106,None,685.404808106,None,685.404808106,None,685.404808106,None,Augustus tried to beautify rome so that it would resemble athens,699.803822572,None,699.803822572,None,699.803822572,None,699.803822572,None,699.803822572,None,699.803822572,None,699.803822572,None,,,,,,,,,,,,,,,,,,tony_test,0,1,0,1,1,2,2020_Jan_30_1221,body_behavioural,3.2.4,59.9609803920249,
,8,,,,,0,8,8,8,,,,,,,,,,,,,,,,,,,,,,,,,,,,,,,,,,,,,,,,,,,,,,,,,,,,,,,,,,,,,,,,,,,,,,,,,,,,,,,,,,,,,,,,,,,,,,,,,,,,,,,,,,,,,,,,,,,,,,,,,,,,,,,,,,,,,,,,,,,,,718.6544863880001,None,718.6544863880001,None,718.6544863880001,None,718.6544863880001,None,718.6544863880001,None,718.6544863880001,None,718.6544863880001,None,,,tony_test,0,1,0,1,1,2,2020_Jan_30_1221,body_behavioural,3.2.4,59.9609803920249,
,9,,,,,0,9,9,9,0,0,0,0,,,,,,,,,,,,,,,,,721.569791725,None,space,0.9667195370000172,721.569791725,None,721.569791725,None,722.569215731,None,722.569215731,None,,,"[1, 2]",723.319978405,None,723.319978405,None,723.319978405,None,723.319978405,None,723.319978405,None,723.319978405,None,723.319978405,None, isnt this meat cute,727.403588676,None,727.403588676,None,727.403588676,None,727.403588676,None,727.403588676,None,727.403588676,None,727.403588676,None,Next tuesday for a meal,735.76917985,None,735.76917985,None,735.76917985,None,735.76917985,None,735.76917985,None,735.76917985,None,735.76917985,None,,746.369870448,None,746.369870448,None,746.369870448,None,746.369870448,None,746.369870448,None,746.369870448,None,746.369870448,None,,749.669194413,None,749.669194413,None,749.669194413,None,749.669194413,None,749.669194413,None,749.669194413,None,749.669194413,None,Items for their respective barbeques,751.335963639,None,751.335963639,None,751.335963639,None,751.335963639,None,751.335963639,None,751.335963639,None,751.335963639,None,,760.9365280940001,None,760.9365280940001,None,760.9365280940001,None,760.9365280940001,None,760.9365280940001,None,760.9365280940001,None,760.9365280940001,None,,,,,,,,,,,,,,,,,,tony_test,0,1,0,1,1,2,2020_Jan_30_1221,body_behavioural,3.2.4,59.9609803920249,
,9,,,,,0,9,9,9,,,,,,,,,,,,,,,,,,,,,,,,,,,,,,,,,The groceries are 10-20 dollars and simon offers to pay for them,,,,,,,,,,,,,,,,,,,,,,,,,,,,,,,,,,,,,,,,,,,,,,,,,,,,,,,,,,,,,,,,,,,,,,,,,,,,,,,,,,,,,,,,,,,,,,,,,,,,,,,,,,,The groceries are 10-20 dollars and simon offers to pay for them,762.4034831220001,None,762.4034831220001,None,762.4034831220001,None,762.4034831220001,None,762.4034831220001,None,762.4034831220001,None,762.4034831220001,None,,,tony_test,0,1,0,1,1,2,2020_Jan_30_1221,body_behavioural,3.2.4,59.9609803920249,
,10,,,,,0,10,10,10,0,0,0,0,,,,,,,,,,,,,,,,,806.918173028,None,space,0.7257858250000027,806.918173028,None,806.918173028,None,807.685347653,None,807.685347653,None,B8,Jeff is a northeast wine vendor and william is a northeast grocery store distributor,"[1, 2]",808.536189892,None,808.536189892,None,808.536189892,None,808.536189892,None,808.536189892,None,808.536189892,None,808.536189892,None,50 percent off the original price for samples,827.235447559,None,827.235447559,None,827.235447559,None,827.235447559,None,827.235447559,None,827.235447559,None,827.235447559,None,,842.218534219,None,842.218534219,None,842.218534219,None,842.218534219,None,842.218534219,None,842.218534219,None,842.218534219,None,,844.6860057640001,None,844.6860057640001,None,844.6860057640001,None,844.6860057640001,None,844.6860057640001,None,844.6860057640001,None,844.6860057640001,None,Two hours,846.3690624180001,None,846.3690624180001,None,846.3690624180001,None,846.3690624180001,None,846.3690624180001,None,846.3690624180001,None,846.3690624180001,None,,850.4685453940001,None,850.4685453940001,None,850.4685453940001,None,850.4685453940001,None,850.4685453940001,None,850.4685453940001,None,850.4685453940001,None,B8,853.984907688,None,853.984907688,None,853.984907688,None,853.984907688,None,853.984907688,None,853.984907688,None,853.984907688,None,,,,,,,,,,,,,,,,,,tony_test,0,1,0,1,1,2,2020_Jan_30_1221,body_behavioural,3.2.4,59.9609803920249,
,10,,,,,0,10,10,10,,,,,,,,,,,,,,,,,,,,,,,,,,,,,,,,,William sits in the business class section,,,,,,,,,,,,,,,,,,,,,,,,,,,,,,,,,,,,,,,,,,,,,,,,,,,,,,,,,,,,,,,,,,,,,,,,,,,,,,,,,,,,,,,,,,,,,,,,,,,,,,,,,,,William sits in the business class section,856.6851043460001,None,856.6851043460001,None,856.6851043460001,None,856.6851043460001,None,856.6851043460001,None,856.6851043460001,None,856.6851043460001,None,,,tony_test,0,1,0,1,1,2,2020_Jan_30_1221,body_behavioural,3.2.4,59.9609803920249,
,11,,,,,0,11,11,11,0,0,0,0,,,,,,,,,,,,,,,,,865.7680230830001,None,space,1.0966310359999625,865.7680230830001,None,865.7680230830001,None,866.9002263310001,None,866.9002263310001,None,Teresa orders a roll and japanese beer and james orders one fish roll and a vegetable roll,,"[1, 2]",867.634832661,None,867.634832661,None,867.634832661,None,867.634832661,None,867.634832661,None,867.634832661,None,867.634832661,None,James asks teresa if her forehead is ok,870.718428978,None,870.718428978,None,870.718428978,None,870.718428978,None,870.718428978,None,870.718428978,None,870.718428978,None,They will meet later that afternoon for james' concert,882.117973269,None,882.117973269,None,882.117973269,None,882.117973269,None,882.117973269,None,882.117973269,None,882.117973269,None,3pm,897.5011021590001,None,897.5011021590001,None,897.5011021590001,None,897.5011021590001,None,897.5011021590001,None,897.5011021590001,None,897.5011021590001,None,Lots of natural decor. pinewood adorning the walls and branch like objects from the ceilings,900.6011044509999,None,900.6011044509999,None,900.6011044509999,None,900.6011044509999,None,900.6011044509999,None,900.6011044509999,None,900.6011044509999,None,Sushi,917.7673389230001,None,917.7673389230001,None,917.7673389230001,None,917.7673389230001,None,917.7673389230001,None,917.7673389230001,None,917.7673389230001,None,Teresa orders a roll and japanese beer and james orders one fish roll and a vegetable roll,921.4177994019999,None,921.4177994019999,None,921.4177994019999,None,921.4177994019999,None,921.4177994019999,None,921.4177994019999,None,921.4177994019999,None,,,,,,,,,,,,,,,,,,tony_test,0,1,0,1,1,2,2020_Jan_30_1221,body_behavioural,3.2.4,59.9609803920249,
,11,,,,,0,11,11,11,,,,,,,,,,,,,,,,,,,,,,,,,,,,,,,,,,,,,,,,,,,,,,,,,,,,,,,,,,,,,,,,,,,,,,,,,,,,,,,,,,,,,,,,,,,,,,,,,,,,,,,,,,,,,,,,,,,,,,,,,,,,,,,,,,,,,,,,,,,,,937.8167735069999,None,937.8167735069999,None,937.8167735069999,None,937.8167735069999,None,937.8167735069999,None,937.8167735069999,None,937.8167735069999,None,,,tony_test,0,1,0,1,1,2,2020_Jan_30_1221,body_behavioural,3.2.4,59.9609803920249,
,12,,,,,0,12,12,12,0,0,0,0,,,,,,,,,,,,,,,,,940.1668871899999,None,space,0.9521791799998027,940.1668871899999,None,940.1668871899999,None,941.1672606529999,None,941.1672606529999,None,,,"[1, 2]",945.7178549980001,None,945.7178549980001,None,945.7178549980001,None,945.7178549980001,None,945.7178549980001,None,945.7178549980001,None,945.7178549980001,None,One diamond and it is either clear or white,949.7329903789998,None,949.7329903789998,None,949.7329903789998,None,949.7329903789998,None,949.7329903789998,None,949.7329903789998,None,949.7329903789998,None,,963.3505357629999,None,963.3505357629999,None,963.3505357629999,None,963.3505357629999,None,963.3505357629999,None,963.3505357629999,None,963.3505357629999,None,Mother,965.283455517,None,965.283455517,None,965.283455517,None,965.283455517,None,965.283455517,None,965.283455517,None,965.283455517,None,,967.8495318520002,None,967.8495318520002,None,967.8495318520002,None,967.8495318520002,None,967.8495318520002,None,967.8495318520002,None,967.8495318520002,None,,969.4843242680001,None,969.4843242680001,None,969.4843242680001,None,969.4843242680001,None,969.4843242680001,None,969.4843242680001,None,969.4843242680001,None,,970.8675946750002,None,970.8675946750002,None,970.8675946750002,None,970.8675946750002,None,970.8675946750002,None,970.8675946750002,None,970.8675946750002,None,,,,,,,,,,,,,,,,,,tony_test,0,1,0,1,1,2,2020_Jan_30_1221,body_behavioural,3.2.4,59.9609803920249,
,12,,,,,0,12,12,12,,,,,,,,,,,,,,,,,,,,,,,,,,,,,,,,,,,,,,,,,,,,,,,,,,,,,,,,,,,,,,,,,,,,,,,,,,,,,,,,,,,,,,,,,,,,,,,,,,,,,,,,,,,,,,,,,,,,,,,,,,,,,,,,,,,,,,,,,,,,,972.0663914580002,None,972.0663914580002,None,972.0663914580002,None,972.0663914580002,None,972.0663914580002,None,972.0663914580002,None,972.0663914580002,None,,,tony_test,0,1,0,1,1,2,2020_Jan_30_1221,body_behavioural,3.2.4,59.9609803920249,
,13,,,,,0,13,13,13,0,0,0,0,,,,,,,,,,,,,,,,,974.2487049230001,None,space,0.778243286000361,974.2487049230001,None,974.2487049230001,None,975.0664148930002,None,975.0664148930002,None,,A week,"[1, 2]",976.0337131540002,None,976.0337131540002,None,976.0337131540002,None,976.0337131540002,None,976.0337131540002,None,976.0337131540002,None,976.0337131540002,None,Maria is going abroad this semester and she doesn't think the long distance relationship will work,980.4833542220001,None,980.4833542220001,None,980.4833542220001,None,980.4833542220001,None,980.4833542220001,None,980.4833542220001,None,980.4833542220001,None,"Henry does not want to break up, saying that he will visit maria often.",994.9502936900001,None,994.9502936900001,None,994.9502936900001,None,994.9502936900001,None,994.9502936900001,None,994.9502936900001,None,994.9502936900001,None,Maria wants a sweater or an article of clothin,1017.350237077,None,1017.350237077,None,1017.350237077,None,1017.350237077,None,1017.350237077,None,1017.350237077,None,1017.350237077,None,,1027.4825185749999,None,1027.4825185749999,None,1027.4825185749999,None,1027.4825185749999,None,1027.4825185749999,None,1027.4825185749999,None,1027.4825185749999,None,,1029.0659390839999,None,1029.0659390839999,None,1029.0659390839999,None,1029.0659390839999,None,1029.0659390839999,None,1029.0659390839999,None,1029.0659390839999,None,,1031.5663960240001,None,1031.5663960240001,None,1031.5663960240001,None,1031.5663960240001,None,1031.5663960240001,None,1031.5663960240001,None,1031.5663960240001,None,,,,,,,,,,,,,,,,,,tony_test,0,1,0,1,1,2,2020_Jan_30_1221,body_behavioural,3.2.4,59.9609803920249,
,13,,,,,0,13,13,13,,,,,,,,,,,,,,,,,,,,,,,,,,,,,,,,,,,,,,,,,,,,,,,,,,,,,,,,,,,,,,,,,,,,,,,,,,,,,,,,,,,,,,,,,,,,,,,,,,,,,,,,,,,,,,,,,,,,,,,,,,,,,,,,,,,,,,,,,,,,,1033.149248646,None,1033.149248646,None,1033.149248646,None,1033.149248646,None,1033.149248646,None,1033.149248646,None,1033.149248646,None,,,tony_test,0,1,0,1,1,2,2020_Jan_30_1221,body_behavioural,3.2.4,59.9609803920249,
,14,,,,,0,14,14,14,,,,,,,,,,,,,,,,,,,,,,,,,,,,,,,,,,,,,,,,,,,,,,,,,,,,,,,,,,,,,,,,,,,,,,,,,,,,,,,,,,,,,,,,,,,,,,,,,,,,,,,,,,,,,,,,,,,,,,,,,,,,,,,,,,,,,,,,,,,,,1034.2654023890002,None,1034.2654023890002,None,1034.2654023890002,None,1034.2654023890002,None,1034.2654023890002,None,1034.2654023890002,None,1034.2654023890002,None,,,tony_test,0,1,0,1,1,2,2020_Jan_30_1221,body_behavioural,3.2.4,59.9609803920249,
,15,,,,,0,15,15,15,,,,,,,,,,,,,,,,,,,,,,,,,,,,,,,,, ,,,,,,,,,,,,,,,,,,,,,,,,,,,,,,,,,,,,,,,,,,,,,,,,,,,,,,,,,,,,,,,,,,,,,,,,,,,,,,,,,,,,,,,,,,,,,,,,,,,,,,,,,,, ,1036.632644336,None,1036.632644336,None,1036.632644336,None,1036.632644336,None,1036.632644336,None,1036.632644336,None,1036.632644336,None,,,tony_test,0,1,0,1,1,2,2020_Jan_30_1221,body_behavioural,3.2.4,59.9609803920249,
,,,,,,,,,,,,,,0,0,0,0,,,,,,,,,,,,,,,,,,,,,,,,,,,,,,,,,,,,,,,,,,,,,,,,,,,,,,,,,,,,,,,,,,,,,,,,,,,,,,,,,,,,,,,,,,,,,,,,,,,,,,,,,,,,,,,,,,,,,,,,,,,,,,,,,,,,,,,,,,,,,,,,,,,1046.6987764000003,None,tony_test,0,1,0,1,1,2,2020_Jan_30_1221,body_behavioural,3.2.4,59.9609803920249,
